time,wx,wy,wz,ax,ay,az
0.0,0.0012280210204916,-0.0046465272701691,0.0807924631476875,-0.902236114311824,-0.5889572730958756,9.935774391190174
0.01,0.0034447739414941,-0.0052869530396639,0.0785092476249214,-0.3837180195866763,-0.629806313006929,9.77077667256196
0.02,0.0054864056823254,-0.0024403747246038,0.0817387613893028,-0.1548944314588681,-0.579929765516303,9.660098069155309
0.03,0.0021057560271809,-0.0017640587333444,0.0891393113375183,-0.2570472719045112,-0.1590308184111142,9.77714316343108
0.04,0.0019558411257689,-0.0047824853962113,0.0903701994061943,-0.51584339663071,-0.4188217442906931,9.838907820863303
0.05,0.0057311677187545,-0.0079629957542449,0.0941416087985512,-0.4710357054338526,-0.5942100666149469,9.8236435137695
0.06,0.0003141635725268,-0.0149252815360229,0.0963582459331032,-0.6682099085401374,-0.0421270888353855,9.931153039116168
0.07,0.0007319600225337,-0.009756340486713,0.1112035203218933,0.3802751616512363,-0.5530097370809828,9.924351962362389
0.08,0.0017043648762114,-0.0008983711563893,0.1459489006042953,0.3621337780104052,-0.1911459671031491,9.434308745193036
0.09,0.0039449191034266,-0.0108246641933762,0.1894453305244919,-0.3845559911099642,-0.1308970892034261,9.876521819910948
0.1,0.0045274107830781,-0.0172047438244625,0.2238487142563339,-0.3699839690022177,-0.2316059199882569,9.863891187253705
0.11,0.0125060990102952,-0.0246628600006174,0.258746145987558,0.0664126877326667,-0.6301196218964175,10.027791283472544
0.12,0.0192799622952223,-0.0156496958634981,0.2857506859541412,0.7868075166870055,-0.0804795384973032,9.433145647207215
0.13,0.0164469636664437,-0.013854484123634,0.2993647742510315,0.5021120681345683,0.0300229379373673,10.274083642976263
0.14,0.0054155708773939,-0.0051454007484739,0.3072703171015259,0.918797725365715,0.8218643877767253,9.847342247848632
0.15,-0.0057541344745859,0.0009256747454733,0.3092683840036865,0.6300945034399738,0.7749263664390801,10.077854998262886
0.16,-0.0091004362970665,-0.0009265495183786,0.3031986344099518,-0.0044817810007044,-1.2056108066811235,10.037232281022078
0.17,0.0160546625088453,-0.0074807416379804,0.2972556638956543,-0.309128405151326,-2.3205362999756107,9.318049551846643
0.18,0.0291862585039877,-0.0137405216282182,0.3000662017107483,0.0834934271355096,-1.6828867225212802,9.600652245919884
0.19,0.0383636756236535,8.8406860083492e-05,0.3057031023741242,1.3875516683342668,-0.860972309156043,9.282531406193254
0.2,0.0394434573570571,0.0187570661957009,0.3165629494429108,1.535460751763197,-0.1647272449659727,9.579630944337476
0.21,0.0433589370166555,0.0277869157736701,0.3365450191736694,1.0614952716847703,-0.532789433065417,9.427026570169724
0.22,0.0494068229193199,0.0432152700221866,0.3683668959379669,1.5821205834990435,0.4116692963971987,9.49513780439496
0.23,0.051298175551435,0.0304312857307511,0.3916100847959992,-0.4902396239994367,0.2164786627550001,10.062879817416722
0.24,0.0363614785986338,0.0277044751574321,0.4103221285582062,0.302258744344767,2.0768926721395378,9.97501481747739
0.25,0.0099242478837867,0.0186948593348752,0.4211918103933807,-0.5114143653340499,2.226225187697428,10.667863875114833
0.26,-0.0100746407092826,0.0008361887925719,0.4277432847261902,-0.9697538176567664,1.4804427553416275,10.42545294194765
0.27,-0.011227352847796,-0.0043461380107918,0.4283503878355499,0.2398031789186872,-0.1249290334109206,9.89314719840447
0.28,0.0051380145632057,0.0116389167721876,0.4358884382486817,1.239402479922525,-1.082331780282721,8.893404535144636
0.29,0.0032183375832302,0.0212771606209787,0.4348341214895722,0.8640194301946696,0.0445922047138921,9.52951106577454
0.3,-0.0002858962729778,0.0280604672340925,0.4147607374430176,0.1326288202491006,-0.2934114207787314,9.317774932748785
0.31,0.0083015470815333,0.0312311255728699,0.4062488067389008,-0.0584627584820659,-0.9201381340534612,9.277763939380227
0.32,-0.0004149941901083,0.0186573629289459,0.3882765460253235,-1.7620445849017026,-0.4288275488324279,9.739598823789535
0.33,0.0101842973358166,-0.0072672091401131,0.3643531191587921,-1.942027598264408,-1.684083482066973,9.992430480701564
0.34,-0.0068640145597506,0.015198473378402,0.3463623512030121,0.9239510258284616,0.3170794642858567,9.92504640189652
0.35000000000000003,-0.0120014966622765,0.0323619953257314,0.3313918102026459,0.441095063902692,-0.2041449589901336,10.364948874516315
0.36,-0.0070950340049845,0.0335331688347955,0.2932072270155426,-1.1602153620365787,-1.8747211598494185,10.44658644725593
0.37,0.0060715891891761,0.0293200308311976,0.2624642539263245,-1.1813274599339672,-1.888183540534491,10.139753669421232
0.38,0.0038506386104226,0.0230115512910428,0.2505505520344254,-1.2401014399689625,-0.6398812298129586,9.719387584759518
0.39,-0.0019367800077976,0.0195188527613696,0.2502410251141068,-0.8517740837338947,-0.3807076360524409,9.48984234712092
0.4,-0.0030073459862267,0.0109522338174434,0.2577923524618622,-0.9301493142528456,-0.2606991221801581,9.4590176923307
0.41000000000000003,-0.0014533471556474,0.0083940932003494,0.2754726398230072,-0.3411344677530021,-0.6286122353959596,9.757987939976314
0.42,-0.0119702015742889,0.0106564881079051,0.2877969134092804,-0.3686150585513743,0.6045972829526483,9.799255412637292
0.43,-0.0113807258425323,0.0023219270240148,0.2849715936422821,-1.2513746152939622,-0.4865901644816802,10.3705639669661
0.44,-0.0211354808139206,-0.0150875776410467,0.2734234619379517,-1.7583148996461022,-0.115705289404933,10.423159323788028
0.45,-0.0135447279734021,-0.0118588502592593,0.2695854890585419,-0.1222852073042109,-1.4987153554907329,9.629257844182536
0.46,-0.0085737435492752,-0.0009376748643816,0.2833059120417114,0.2809248965201337,-0.3357558625869694,9.1603210314325
0.47000000000000003,-0.0071881864001199,0.0058498225208858,0.3002212631941315,0.2919399698273232,-0.4233639425485956,9.834492640757826
0.48,-0.0086149837869047,0.0177927255056481,0.308869003081369,0.2993622472736811,0.0447992849771947,9.62912095659716
0.49,-0.0056327273479932,0.0200851224694675,0.3116443145514008,-0.6904638302553758,-1.2293340331475864,9.885467798456444
0.5,0.0019010023817087,0.002641546075415,0.3182394790888306,-1.359792476279665,-0.818023980987392,9.68317989956994
0.51,0.0188635766459343,-0.0097932658790526,0.3093641388655182,-5.547480003238583,-8.908361598155754,10.073063531092735
0.52,0.0445843370774773,-0.007062859723792,0.2978647935629364,-0.8138358767636198,-3.519194827535696,7.955128448131223
0.53,0.0151577390223829,-0.0263415917073252,0.2867961514235016,-1.7409362872813203,1.5818583433154068,9.918265971562269
0.54,-0.0045033152180348,-0.0275728560486343,0.2816548335791107,-0.6612378684669016,1.5360719567093923,9.824049350025598
0.55,-0.0164040680587871,-0.0490477724513909,0.2679603982210632,-2.1258702195439896,0.3857591558154755,10.58360294859814
0.56,-0.0138043206773356,-0.068173823177612,0.2446960348129745,-1.451344103443595,-0.679810727339855,10.57005011710878
0.5700000000000001,-0.0124025228902674,-0.0646335345261436,0.2282340365887161,-0.2615292872581425,-0.677967150076588,10.193466683333844
0.58,0.0081807810770186,-0.0545768203271858,0.2233192461967941,0.7395080661953323,-1.9884735697253408,10.075948057297312
0.59,0.0280903636136234,-0.0256107578783669,0.2124640780926224,2.011065139191342,-1.1609650975834247,9.502025405007013
0.6,0.0379084213344914,0.0090629245118158,0.2179244297981735,2.100212230922644,-0.8562069044208217,9.11459014141187
0.61,0.0520426823302063,0.02198469673141,0.246905176663446,0.6855572265444663,-0.9022313322451736,8.768129379463474
0.62,0.0473757104607529,0.0103633516197675,0.2679870116949555,-0.489606190293806,0.7853484895094887,9.869093026110429
0.63,0.0209909572706219,-0.0131458035730021,0.2848893392324921,-1.346422329571002,2.124569314782778,10.680787155960711
0.64,0.0065555166047805,-0.0319608908490884,0.2704761314630982,-1.085016729290919,0.1048076282140446,11.037433905495885
0.65,0.0165440653804464,-0.0300591613882054,0.257715849900293,0.4619490634984097,-0.1265434856558799,10.28590171602401
0.66,0.0100577514799248,-0.0249636259471297,0.2564702916384216,0.3314467497354748,-0.1299658615810994,10.045246055019142
0.67,0.0262362576500378,-0.0181986067082372,0.2458572674036499,0.1899588274825892,-1.7681814215061438,8.911271906445139
0.68,0.0730440645368737,-0.0111595883900659,0.2486895460129257,0.3556581714708118,-3.620406491372868,7.9984376879875665
0.6900000000000001,0.1016911638828883,-0.0240414796115426,0.2573074090719696,-1.4931849402141426,-2.422698737432945,6.84529775315024
0.7000000000000001,0.1027891993909118,-0.026375128925932,0.2774629581213471,0.8141648753630499,0.5987189973603961,8.903071319377823
0.71,0.046710354914863,0.0019673248055884,0.2797676313162323,1.0695230903141717,5.502719422982255,10.349099065066545
0.72,-0.0253077777594307,-0.004652440803127,0.2399906057358261,-0.7998127122389569,4.423351532907388,14.023408891338056
0.73,-0.0228391431392483,-0.0271985130294034,0.180738447928476,-2.530118845021698,-1.900380779328369,12.39922958224692
0.74,0.0199763306171609,-0.0485676573566166,0.1457368868828293,-1.6636231337251126,-3.445632671127844,10.102688209111776
0.75,0.0223026947246592,-0.0578472487340638,0.1510129857302185,-0.6038215846496986,-0.0019666972493886,8.308983626710734
0.76,0.0163109270451025,-0.0481755765538893,0.1858199376106735,1.2935831700508644,1.1814677101722162,7.746142985839255
0.77,0.0054087949951689,-0.0337323197203611,0.240910201096582,1.8116730408503132,2.05309401445592,8.35730593719694
0.78,-0.0098853813356118,-0.0222241339101374,0.2892250108957764,1.254539662691793,1.907052475658319,10.048777587108464
0.79,-0.0190706955672842,-0.0165886229396923,0.3025241184473511,1.3165618138811752,1.6977612267481357,11.549102248409763
0.8,-0.0382236691854412,-0.0212116621666873,0.2805116462946411,-1.024781582785699,0.4029683534848878,11.665242289260526
0.81,-0.0351983111440831,-0.0427826477260787,0.2641535389662262,-1.1544546788854242,-0.9020252569869992,11.29526802909929
0.8200000000000001,-0.0305509710907611,-0.0516921514304864,0.2629940498114105,-0.7286324767729236,-0.5123709236845193,9.455106380655824
0.8300000000000001,-0.0408608446377569,-0.0487343690721881,0.2859918165445801,0.9409646282069734,1.131675512615699,9.395047219827031
0.84,-0.062759059243739,-0.0245550952226879,0.3129130590200897,2.0237245438213773,1.779574916868525,9.154413767429274
0.85,-0.0544788444981334,-0.002403468548086,0.3323510277510162,1.5122561652816449,-0.5350972361693637,9.062427581938298
0.86,-0.0392359319928676,-0.0138718147846994,0.317398397946405,-1.0405883915960017,-2.091834273212506,9.683390637865896
0.87,-0.0189878271651993,-0.024755347535787,0.2879736709833618,-0.9182074846923588,-2.232896033428305,9.495038567512402
0.88,-0.0186045079636635,-0.0317250722317734,0.2629664230585571,-0.6387731874904524,-0.6677049435201978,9.834857874245069
0.89,-0.0255792924265821,-0.0310964219250905,0.2439946520567413,-0.517799825354539,-0.3481644155629967,9.775277594161254
0.9,-0.0333179500081096,-0.0366041928969963,0.2317772048950668,-0.1997142870020702,-0.0305299686040703,10.064561785373392
0.91,-0.0327947264652285,-0.0292343379523935,0.2208407658577438,-0.068168189098505,-0.7077761835250885,9.61799669158828
0.92,-0.0361332224196822,-0.0381013312085965,0.2093469339848038,-0.7789979997455171,-0.2914043312063396,10.196331255980237
0.93,-0.0292757702702673,-0.0300918699521396,0.2084665584803101,0.1980642993933889,-0.9892066035591044,9.181740147958124
0.9400000000000001,-0.0288468209000205,-0.0409294554105303,0.2074261296034332,-1.1190253051588217,-0.3445279668703726,9.586977600820852
0.9500000000000001,-0.0188511747281473,-0.0491254512477314,0.2006396192551132,-0.9493818400500922,-0.777643576237242,9.04258857062001
0.96,-0.0181813126028212,-0.0585946382200156,0.2160465407610413,-0.3922730191283455,-0.4215958607363287,9.68618532358768
0.97,-0.0187706644313369,-0.050976082122115,0.2215304064989563,0.3793665258349579,0.4499631583352895,9.95363487485714
0.98,-0.0351358098414768,-0.0519999768835501,0.221060245060968,-0.2483331967057553,1.5368708933383917,10.822828282944796
0.99,-0.0648582862293902,-0.0583137187308589,0.2167823153973099,-0.6779972515980273,1.8604707906251496,11.029365793866322
1.0,-0.0735337761046253,-0.0680275405134523,0.2200727153063293,-0.3444167851878525,0.542332600905695,11.004433359676437
1.01,-0.0790164457891812,-0.086366458847025,0.2281404572964188,-1.326506569282502,0.7844662234674917,9.854194274083143
1.02,-0.0904486947538341,-0.1046673950072962,0.2510976034641739,-0.4511891855616157,0.5289758351184287,9.73018088932403
1.03,-0.0946193792461014,-0.0940071079058853,0.2873631704092499,1.0873649533209846,1.1784494543768924,8.572146772530393
1.04,-0.0686397539556185,-0.0891799568094647,0.3276582646608826,1.0599271705098,-2.191590113232172,9.026268929381509
1.05,-0.0359264804307195,-0.0632026086373046,0.3622774172068115,2.674755930353794,-1.7566137228531116,8.518033835736203
1.06,-0.0270000334777638,-0.0321185354569922,0.3627895403147217,2.602440763085506,0.0731198183956442,9.87361484154483
1.07,-0.0557183214125732,-0.0142651327623969,0.3303711402655121,0.5492147692242355,0.7877705920247945,10.909667398890996
1.08,-0.0611204210845401,-0.0239675511270549,0.2831163692713257,-1.1016564282681467,-0.9795783390549327,11.58155862542627
1.09,-0.0629995100862643,-0.0406552752648227,0.2493968296289917,-1.5296882234076292,-1.6497956546017816,10.63251992405909
1.1,-0.0563457425523852,-0.0492498525043231,0.2325884092092987,-1.194291506454536,-2.093201943310269,9.27986226749891
1.11,-0.0431926460455037,-0.0653362506842761,0.2441325921059128,-0.867607923006401,-2.527029898120248,8.806627308285162
1.12,-0.0141904907322978,-0.0446803740672736,0.2776969361544129,1.8215447359724624,-2.6404172662991425,7.894057275452558
1.1300000000000001,0.0049574145074698,-0.02228792364742,0.2940550136805054,2.0490788806603875,-1.3600269106846712,8.845580341711868
1.1400000000000001,0.0110207783854926,0.016708045719151,0.2925363171339508,2.3092949116669232,-0.9934768648102996,9.701634556934817
1.1500000000000001,0.0013717548140231,0.0328242462066383,0.2664788651705261,0.8386439417574215,-0.0199035972284792,10.893580177104434
1.16,-0.0032104230547884,0.0193199933855108,0.2307095515966888,-1.6557760462544973,-1.4836345196910168,10.881806509143178
1.17,-0.005278171919126,-0.0114994197657942,0.2161197352648254,-2.7493521852623286,-1.162665810228882,10.023745901070177
1.18,-0.0102502737853819,-0.0382687404018167,0.2198265630245682,-1.3041130436066222,-0.2036118578380718,9.858437873966544
1.19,-0.0182335834462426,-0.0342407690992778,0.2438233930111404,0.9740618228492464,0.3363247328192298,9.19165817974535
1.2,-0.0135545950387065,-0.0074083432890634,0.2792057681322571,2.565974326835244,-0.3138961932588087,9.083331144262573
1.21,0.0065699550106258,0.0130961786996051,0.3024967599153992,2.090364486605154,-1.3952121749366535,9.747615917858932
1.22,0.0202248148491368,0.0195506678063008,0.2983915794134613,0.6680582447936991,-0.8782764158977926,10.065779015802658
1.23,0.0117861306810803,0.0231062226618421,0.2790007579565521,0.141445102526403,-0.1783718751343414,10.439505069707264
1.24,0.0054109587389114,0.0133667024802894,0.271452604556131,-0.600214792503494,0.1584560545354035,9.928996036440944
1.25,-0.0014248282467109,-0.0006241103168638,0.2737189519644257,-0.4755812362824004,0.3409495073972676,9.81909174043637
1.26,-0.0068941733522972,-0.001382291429818,0.2836617219686981,0.4377355629876951,0.3133573628342471,9.39906898649868
1.27,-0.0077826829451189,0.0129760633314008,0.3031903791666504,1.9533186106723777,0.5630974333805628,9.44823346131326
1.28,-0.0021650574536253,0.0342300086431316,0.3156882810831543,1.3851212247007678,-0.379421335798953,9.464765341522808
1.29,-0.006760462179705,0.0281767331272723,0.3165829169989105,0.0674611130127968,0.1820182012233956,10.584073652496084
1.3,-0.0048021972493661,0.0317010846008343,0.3019741463900086,0.1180426053647494,-0.9010905307271676,10.114501461500767
1.31,-0.0067845839583131,0.0178451619610842,0.284394441866922,-1.0752595285155495,-0.9665934904229077,10.567320672448115
1.32,-0.0138816066479107,0.0066449861342938,0.2784364509821411,-0.6748723962419764,0.1086268143239618,9.622247686675374
1.33,-0.021916533760557,0.0148202754917021,0.2976220238447662,0.8649144105904848,-0.0803157931455812,9.54477114708914
1.34,-0.0074969645492875,0.0193666505850021,0.3144289243460175,0.1938101775678722,-1.1064600379291498,8.96139007818244
1.35,0.0049109208940119,0.0226840526585872,0.3168360281229492,0.2299314734798611,-1.5785598669126375,9.094131642563088
1.36,0.0070025355439782,0.0233405884699166,0.3065439450979706,-0.5286036515584093,-1.1556996146122225,9.257836455550295
1.37,0.0138354203351086,0.0195926870271967,0.284804164195108,-0.4947665683432925,-2.39993702450311,10.089410437390288
1.3800000000000001,0.0374817308157001,0.0243145235631545,0.2565395522356506,-0.3428007186992323,-2.522536143614356,9.553470894539384
1.3900000000000001,0.029896055747881,0.0301348075892547,0.2226765740156647,-0.1126816178232264,-1.0437848530508829,10.490469952497437
1.4000000000000001,0.0180137094074023,0.0400436533715538,0.199692561054277,-0.4179411697485378,0.3395340187042826,9.47036705581466
1.41,0.028830365378362,0.0302475320457816,0.1923822450876709,-0.5634315014567632,-1.8781082338933608,10.336006070145215
1.42,0.0406757912876257,0.0340303163800119,0.2024172085762497,-0.4678754858854222,-0.931917401492642,8.73636649333777
1.43,0.0475974699583647,0.0312643327777221,0.2296941268682953,0.5940291359589394,-0.6398323486005756,10.190010327832102
1.44,0.0594527365977841,0.0566654424014036,0.26073124887948,1.7545971949043115,-0.3310351901434522,9.118884132847244
1.45,0.052835148884676,0.0765658101314948,0.2882667470217224,1.5691309071426482,0.5528279411811063,10.280061795954095
1.46,0.0399040221736358,0.0778226366102301,0.3078143584967133,-0.1813965745506738,1.2981275647631745,9.822492366081931
1.47,0.0340827532863291,0.0623355239591844,0.3179636883974548,-1.0327324345795392,-0.3505497487094765,10.379618655890162
1.48,0.0285226371766357,0.0346839719950705,0.3340270805597778,-1.983550833952349,-0.0014922007499432,10.00814994973821
1.49,0.0146362640932032,0.0120688125374125,0.3379499900579926,-1.3127991123903169,0.7468516601282499,9.86957362976647
1.5,0.0017930338479872,-0.0018928315428704,0.345438896441507,-0.8732492314899518,0.7905064350104204,9.861892425290836
1.51,-0.0151948335458518,0.0019577215803184,0.351353465342569,0.2289290025158855,0.8010068588763833,10.084052705877866
1.52,-0.0108787729095178,0.0097421231569613,0.3407765019178864,0.6571892778308799,0.1295558399810872,9.943106888543854
1.53,-0.011301476298424,0.0249417385867326,0.3162841189146515,0.3794316063981196,-0.9676646628981246,9.791570847293832
1.54,-0.0012568443125875,0.03175230929977,0.302004544758844,0.1799279803021618,-0.5422172304633488,9.675339544593747
1.55,-0.0075940489145107,0.0330695961111627,0.2979993212461945,-0.3266871147194219,-0.3878571462134844,9.433812037912718
1.56,-0.0096912326787556,0.0270751756354021,0.3058767605066773,-0.8696878126293637,-0.2029963264926561,9.471929626424869
1.57,-0.0304971829591426,-0.0076691450644577,0.2942099261522766,-3.0853734213694786,1.3802318323602107,9.352208114488745
1.58,-0.0670528857567184,-0.0494344578751076,0.2868666935205933,-3.332289762598058,1.7727302538415497,10.273914984894567
1.59,-0.0699586546621356,-0.0643138412820609,0.2714585948229309,-1.2492499743250842,-0.2210913939825315,10.755048766104668
1.6,-0.0499494180249773,-0.0552741775614096,0.2342004466295715,0.1621865439916351,-1.7617976795973058,10.549864881321872
1.61,-0.0180022511998798,-0.0423509713343568,0.1902682620525833,0.4223706692205904,-2.1070521316065296,10.036669326134266
1.62,-0.0077450812146862,-0.0219629239134458,0.1603625107050415,1.299060479975634,-0.9937806787834604,9.715951443068246
1.6300000000000001,-0.0066995628770341,-0.001349538393928,0.1660956728697296,1.0525278294126683,0.4224984689367945,8.290199941865495
1.6400000000000001,-0.0455369559188036,-0.0079323017619656,0.2025425571442123,-0.4092278479192796,4.134567827735675,8.798912768403586
1.6500000000000001,-0.0649335755218762,-0.0129469315788182,0.2551122892141815,0.336136365982621,0.9356078887548231,10.084372779815563
1.6600000000000001,-0.0605754704790284,-0.0282694068842399,0.2801234710455414,-1.354632786470798,0.2217625365228349,10.08179956114232
1.67,-0.0579033969375369,-0.0427005727755619,0.2768275726080414,-0.303639657542008,-1.1900531704413913,12.088745641512434
1.68,-0.0511479469581362,-0.0318847500250976,0.2676524210215088,0.0546504147400057,-1.4024016974600628,10.339454388174495
1.69,-0.0496433772233598,-0.0302883231665943,0.2580394435167786,-0.1568038212364016,-1.1694852477369235,10.44063378789006
1.7,-0.0432898783867801,-0.0321939152292644,0.2623766350985047,-0.6466401967925488,-1.1319308906545185,9.101331748439208
1.71,-0.0359268406164588,-0.0243342391035118,0.2815060007811066,0.0082781410475171,-2.409930795689723,8.522587401114398
1.72,0.0149798872178493,-0.0393550984875147,0.3062855291605469,-1.413018675880085,-4.500818537983287,7.596666092778411
1.73,0.0332828463366673,-0.03258451175278,0.3346614229917999,0.9681591684535338,-2.395959891161912,8.668875397837756
1.74,0.0436322528196286,0.0170442316726455,0.3377761829138275,3.493474230953328,-0.6207730714179891,9.652527405692922
1.75,0.0377913368232771,0.0604924538756539,0.2990248489618775,1.851064145580903,-0.895925811625918,10.53707450189944
1.76,0.0370104465809719,0.0712015512750982,0.2412253159523483,-0.4430054035582568,-1.393729441264267,10.957757107349863
1.77,0.0401979317402534,0.0486944249083059,0.1928149450064178,-3.0518536986194897,-1.810338294170993,10.099532125200662
1.78,0.0225764432299975,-0.0021205038165452,0.1711021352053162,-4.330514991341232,0.1988008778994944,9.791638402730422
1.79,0.0015889674730417,-0.0433590089790982,0.1884821343660828,-2.902571099044312,0.99988336137139,9.371141316308384
1.8,-0.0134669977699469,-0.0550876150714317,0.2168853271246429,-0.3912340518971189,0.28772551922224,8.443571161967592
1.81,-0.0246618168646049,-0.0479019136947094,0.256152688288736,10.035675844210834,15.284610011763789,9.332345219799066
1.82,-0.0128346332385256,-0.0316589497819011,0.2769794750452515,13.35265283925106,-0.8472929867839849,4.210725362217938
1.83,0.0163239783844327,-0.007382289882641,0.2592817235231873,1.8727405827619208,-1.8758814647083208,11.448359116495276
1.84,0.0303862156810373,0.0128599718802686,0.2341327208519455,0.6992651696822575,-0.92180968526819,10.399970912120136
1.85,0.0198933729903204,0.0163870628610031,0.228201283836412,-0.200406077590989,0.4813008901014495,9.711771986692176
1.86,0.0121420222386575,-0.0055502991372723,0.2508295911789414,-2.019992326098388,0.2976724208775781,8.760690077394825
1.87,0.0054980238283442,-0.0338130726013844,0.2886840987444397,-1.6031656915597683,0.2140396445698572,9.211677902296447
1.8800000000000001,0.0036331698362352,-0.0407527532089076,0.3233942675829407,-0.2662487997110028,-0.0501217481865634,8.580006790147744
1.8900000000000001,0.0170995088247566,-0.029658013204366,0.3489671039820191,1.725254321331779,-1.1617237371135796,9.91631547949858
1.9000000000000001,0.0138042556148713,0.0044532152049145,0.332221715474176,2.249114045266964,-0.020814729350597,10.550728140557904
1.9100000000000001,0.0201969465270666,0.0305650566065617,0.282856493020105,1.3011583498434505,-0.7306450638006765,10.923524951505836
1.92,0.0173701477009974,0.0355233695144742,0.2402913707733627,-0.483063840562808,-0.8689384174257552,10.362470708620286
1.93,0.0125893223325301,0.018379101487965,0.2165130812168594,-1.669527393317253,-0.2477540628104347,9.7490472324538
1.94,0.0023789561948679,-0.0063955491753464,0.2226726103067871,-1.6080008407956432,0.3880244480061307,9.28481096402893
1.95,-0.0159000831489715,-0.0201548777697561,0.2486489552498337,-0.8755802932463731,0.7503685876337696,9.155277372539146
1.96,-0.0211143565695058,-0.0213996247163734,0.2708200502634522,0.7157952641387221,-0.2801842283867425,9.812715266415813
1.97,-0.0008962542152568,0.0017374721644935,0.2929141211748596,2.0109442824368493,-1.480206848941879,9.682000246603602
1.98,0.0183056709103871,0.0255568737561054,0.2938541758299347,2.111113799782597,-1.4507092520016196,10.452718380504948
1.99,0.0392133336572217,0.0543595867364767,0.2882182288408753,1.650392258215669,-1.437768210659563,9.648373196115449
2.0,0.0447900109853613,0.0572774724138742,0.2926136243582245,0.1073127809099864,-0.6359445263935158,9.893086740711444
2.0100000000000002,0.0348903779869063,0.050957487427656,0.3129057872534271,-0.5903650113236663,1.4158647458643137,9.05312964925613
2.02,0.0053850332152023,0.0317289879808685,0.3413291561842438,-1.2465817864869788,2.047707155702457,10.164308754361626
2.0300000000000002,-0.0194805747543647,-0.0094197862043445,0.3549690532923218,-2.913761300473254,1.958819730297037,10.129990873782068
2.04,-0.0612706412774117,-0.0472352993600845,0.3462672817945953,-2.8248047166973085,2.627770569082511,10.339373778966426
2.05,-0.0837158571658888,-0.0910893049507746,0.3352576184511658,-3.3680339555690493,0.4741237624980676,10.7560443380608
2.06,-0.0747272930036934,-0.0957496639656883,0.319812743687677,0.0974211733943566,-0.9087450570806224,10.526628393421657
2.07,-0.0511643358850535,-0.0664633286153521,0.316610931181955,2.1952553007032343,-1.836634516141582,9.685520574524825
2.08,-0.0249585690702729,-0.0299132420021176,0.3186704206705567,2.469021579145494,-1.7360330016657377,9.20167295903492
2.09,0.0092317901266751,-0.0080294698583408,0.304410128617334,2.1274206696737608,-1.7728212772930143,9.510678926553378
2.1,0.0115146843475285,0.0242578525964699,0.3018739509821411,1.9715068217621088,0.0262480891697829,8.820005080297175
2.11,-0.002133333378417,0.0320921354055351,0.2967976618052002,0.4323830527971056,0.7344231163573077,9.61485068577865
2.12,0.0032589918628541,0.0129591164835862,0.2835260617971893,-0.9596799691519414,-1.1409855233088324,9.981881838496868
2.13,0.0031503557465331,0.0202036696123034,0.2869871843100067,0.4979744395715274,-1.2354663128089425,9.718730428492728
2.14,0.0129150984877604,0.0090843950243275,0.27979943039422,-0.4269016769985106,-1.317419121752686,9.821742023337322
2.15,0.0116477135935441,0.0137059365140769,0.284110097909021,0.846592160505961,-1.1832791601518708,9.727357072958092
2.16,0.0312604316688928,0.0443524673155556,0.2968553292990204,2.7914873645105382,-1.7782632339715176,9.023869331823573
2.17,0.0412783197429674,0.0775493008066919,0.307324676537561,2.7086280999199777,-1.1228680301940768,9.04246447728729
2.18,0.0505709459413981,0.0967106913918431,0.3015068757772919,1.3924001352122055,-1.5674280103923404,9.50087471452095
2.19,0.0489652477219333,0.091563744098219,0.2843180585146423,-0.700242561931298,-0.4636063184103208,9.776408992320308
2.2,0.0284052808015185,0.071341875027223,0.2679368841886994,-1.7968428836000412,-0.0496408928539229,10.503730046597823
2.21,0.0109852458502065,0.0366321815036146,0.2555007028818604,-3.4212365820553003,0.0358680066955567,9.640731700775111
2.22,-0.0034815444535912,0.0023455686540007,0.2474526304245468,-2.2808885429086176,-0.5203341186338352,10.592855194865123
2.23,0.0062646565647476,-0.0006932672723996,0.2550532508135315,-0.8357188389705046,-2.009813847853275,9.307312492704424
2.24,0.0259830544820719,0.012276358080571,0.2562001633882996,1.3617978968826918,-1.992910428655566,9.607254158615032
2.25,0.0456535119092763,0.0470793993809186,0.2545918810606476,2.118351822163299,-1.850683400791541,9.403088770587084
2.2600000000000002,0.0716747446335193,0.098359911056061,0.2518968868494507,3.4993425043839648,-1.9139751803800389,9.739276403856682
2.27,0.0915949326974614,0.1309766388162384,0.2359025764704224,1.5305030465590037,-1.3328579662067357,9.196933116484518
2.2800000000000002,0.085357331966382,0.1270410169766391,0.2319834965706345,-0.9903122872281672,0.5224852981254234,9.067272801911798
2.29,0.0631029418012456,0.1008897031493845,0.2402372497559067,-2.2914327533582126,1.6363211737277708,9.225352257087412
2.3000000000000003,0.0276736089287796,0.0575457820059055,0.2536850261927124,-3.56960574850671,2.4135212055187045,9.970686685677848
2.31,-0.007094347386487,0.0264257359049309,0.2705287027597901,-2.164787953401518,2.8543667126252026,10.738751269720188
2.32,-0.0233669655190916,0.0047271619606134,0.2681812036276337,-2.302066539315618,1.2423610605714783,11.09015292981175
2.33,-0.0317899641221844,-0.0156697784490368,0.2588958430529114,-1.761328632572497,0.4995648426338485,11.38549830379175
2.34,-0.022552980847821,-0.0090958980609265,0.2520788002253052,0.1335485121583192,-0.1293839736607691,10.097850619744946
2.35,-0.0299030850680793,-0.0026689816077863,0.2612155664206024,0.0828134908216606,0.8306127407803846,9.258791734574448
2.36,-0.0309255845448972,0.0122307184798752,0.2943724978209015,1.194705398714626,0.9954514531060829,8.321080615163092
2.37,-0.042836588197899,0.0279498305467904,0.3315736639738556,1.0342617666162672,1.6325794750996432,8.615555653252917
2.38,-0.0436879423907935,0.031671465938983,0.3492377388716217,-0.2394871526945469,0.4134080272060557,9.738062402743168
2.39,-0.0434436421452359,0.0024038788881565,0.3288234758615967,-2.517042731001019,-0.4599117617950005,11.492363628742696
2.4,-0.0481344261872654,-0.0232120613226333,0.275445489907312,-2.7915265181657265,-0.806334540291872,11.587919114104034
2.41,-0.063729572305251,-0.0398344877159357,0.2389120000839706,-1.9991607762636472,-0.0180572193274145,10.458895481582244
2.42,-0.065810882303593,-0.0462944148373358,0.2443774181843277,-0.9193590100721946,-0.2378407495850562,9.060488080026936
2.43,-0.0571445109703979,-0.0495804257091426,0.266414670968103,-0.4708132131940187,-1.0563843843526937,8.616704731491286
2.44,-0.0370623301271033,-0.0360641586743462,0.3028784680605408,1.3250043675799708,-1.2451037432261234,8.980923001922992
2.45,-0.018170682800382,0.0138226880799803,0.3299548912287232,3.9611765856586616,-1.2375207220189972,9.446562315017497
2.46,0.0015332993585515,0.0540985003613917,0.3255653667688843,2.133115878637484,-1.350616584502019,10.089711583617175
2.47,0.0010149858779305,0.0594900855579512,0.2931787955999848,-0.6297701246570668,-1.441321674488278,10.846814370501296
2.48,0.0168010549256856,0.0484089795086971,0.2611735451460358,-1.4912211028417413,-1.9140096425059647,10.107629053915948
2.49,7.637022100509049e-05,0.0200764856323523,0.244126840257692,-2.586248341393953,-0.3084020149472046,9.632715845735262
2.5,-0.0109240946455423,-0.0036495490148627,0.2474244523287292,-1.9849493694301328,0.0017863606155854,9.055041859397926
2.5100000000000002,-0.0095613126989587,-0.0187316678074365,0.254756032252359,-0.7625355867340543,-1.5907273220156215,9.373847227527
2.52,0.0099898280708987,-0.0073432903285979,0.2648405719042297,0.9750184573517302,-2.377906568314073,9.251119339665031
2.5300000000000002,0.0335143680298791,0.0170684937166757,0.2620494950056549,2.388478822515038,-1.736303215170652,10.456325806818192
2.54,0.0574944685925492,0.0700933764709773,0.2426998305559631,3.1573349056078497,-2.196763732667748,9.638672030040802
2.5500000000000003,0.0550769525996842,0.0799315860626719,0.214735879325914,0.162286634893994,-0.550937821693116,10.377473876183211
2.56,0.0658426672306889,0.0707837992241077,0.2047415513039108,-0.610457787452381,-1.1003285453533125,9.49046142194325
2.57,0.0518196351810538,0.0595566907274456,0.2180374700069901,-1.123757378774781,0.5342993370310246,8.625447451262808
2.58,0.0404840642203582,0.0288959903967281,0.242901756191301,-1.8823670420433307,0.7100884600087347,9.425130597993128
2.59,0.0101775482292233,0.0200373335586661,0.2574788022280213,-0.2737085566633208,1.309948395395159,9.87531876980473
2.6,0.0022768232932457,0.0254961518310923,0.2482012498617645,0.3493395566144286,-0.8100812604793488,10.905716803714409
2.61,0.021192344595527,0.0345879704389406,0.2281023401260849,-0.1089228895827572,-2.811071978502918,10.86451558612064
2.62,0.0448843956526153,0.0457781161858393,0.2039351451635834,0.1448989296691544,-2.2324620991461064,10.062675330885028
2.63,0.0445528082546434,0.0483252639210731,0.2043445247650619,-0.6446210870533496,-0.506277687155029,8.911218210984142
2.64,0.0300425411306143,0.0275088564345073,0.2191325861454483,-2.246607380130928,1.2009869691034205,8.670474306495509
2.65,0.0168725899974782,0.0013097400397917,0.2501641947269913,-1.7783377651721637,0.3405719476670034,9.182022447504991
2.66,0.0218235594592508,0.0079849811885202,0.2901497173548218,-0.267892055724081,-0.2724049292624746,8.567021433158056
2.67,0.0298410984382693,0.0069575981331054,0.3093882787466522,0.3716862233100682,0.0843701798836919,11.25823626965667
2.68,0.0263598045299696,0.0339367736047638,0.2766891110182282,0.3106337334629666,-0.1210810299014002,11.062463034042878
2.69,0.0278349341989186,0.037298557715593,0.2281938779592987,-0.9291903011350888,-0.683835421667524,11.52856656914035
2.7,0.0337167290096711,0.0270894636892667,0.208633824014711,-2.1862079201208187,-0.9986710939275572,9.65293159709264
2.71,0.0349177050158648,0.0038668635065784,0.2190347898245331,-2.174555317118256,-0.2868555635748723,9.071899201794746
2.72,0.0327961572220701,-0.0148755474670058,0.2581533479929443,-1.0626305629755406,1.0207706869293522,8.475585299549872
2.73,0.0232947430360381,-0.0100326748027473,0.3070454585791107,0.7141364014196433,1.8911645493470743,9.01511162341276
2.74,-0.0013965635192079,0.0036901297099361,0.3355696785688873,1.287569171166948,3.5230172043859107,10.0397708374201
2.75,-0.0178823079900881,0.0285300324981049,0.3282263267279144,1.1127321778866552,1.7275789030298043,10.763747820185037
2.7600000000000002,-0.0255521287711661,0.006543771624396,0.2859387982130524,-2.5729513100330688,0.1609986733403464,11.338291722417065
2.77,-0.0173108896929451,-0.0261241842422511,0.2520637500524994,-2.802636222518184,-1.1897114937961644,10.70789347547248
2.7800000000000002,-0.022863155293952,-0.0486584669526458,0.2452049988747116,-1.971172532502988,0.6009612915168026,9.501027718162
2.79,-0.0421762116007492,-0.0583782178228097,0.260421304726648,-0.3927922513919094,1.5384226079170376,9.446207930564842
2.8000000000000003,-0.0566516297608381,-0.0464810238511001,0.2890423226595398,0.9467365031917756,1.5949519042171598,8.985852859890857
2.81,-0.0613485457015953,-0.0313580694738719,0.3104470956564423,0.9382546890287607,0.4854134374843267,9.676782542047286
2.82,-0.0549674022043295,-0.0203580376993393,0.3154854166746613,0.3564688858327741,-0.7319239818432396,10.104060021088332
2.83,-0.0424584364788138,-0.0230515067381174,0.3046740579843994,-0.7954178629060326,-1.4695891555728755,10.42522117793737
2.84,-0.0358104641198858,-0.0321649107607998,0.2941783356905457,-1.4097033224887527,-1.7963229335834134,10.083166058887016
2.85,-0.0140093275851175,-0.0392221676481825,0.302527188086557,-0.3359658513588345,-1.5823578130984703,9.295336317712994
2.86,-0.0069994596183908,-0.0290148405905308,0.3410342324018952,1.2677407194965418,0.534517547157086,8.654460470122107
2.87,-0.0267843081526624,0.0060301588559563,0.3832597422838684,2.427167318548299,2.5873600721790546,8.980322871127955
2.88,-0.0448570930646784,0.0070957367073355,0.3832701134920593,-0.2771433407848801,1.466230984526002,10.77975210281
2.89,-0.0442106661573593,-0.0138241964238469,0.3444054413080689,-2.346506111226347,-1.3837532536998105,11.147177318533736
2.9,-0.0448872848903341,-0.0454700196268642,0.3092125940561768,-2.8975877122080123,-1.1208061041314332,10.73210808887487
2.91,-0.0442449371932925,-0.0691911317234229,0.2908655989408966,-2.176806885506953,-1.3794127816848925,9.954580784761582
2.92,-0.0462081616463297,-0.0747346147663058,0.2961005556822296,-0.5252371615623708,-0.7913261733544532,8.96306304516719
2.93,-0.041738029747024,-0.0577404618621171,0.3097639370203491,0.9429020269003128,-1.580878429494445,8.376178255101582
2.94,-0.0278792562384196,-0.0432614845698559,0.3210591066122528,0.7230438873642644,-2.1015167592538826,9.040814762669877
2.95,-0.0018137376567717,-0.0173654743313583,0.3183170545340057,1.8451452237928745,-2.3782186106529544,9.953089198248664
2.96,0.0015048390883794,0.0218033570540066,0.2898417401552673,1.506230334110645,-1.157929788898839,9.880699868334885
2.97,0.0080253526734132,0.0268396688170892,0.2484519768000122,-0.885292733766339,-2.068411514152327,10.443810088460047
2.98,0.0204211782930963,0.0126568034945261,0.2123556423426147,-2.1971266394305387,-2.498504158242512,9.718381212915526
2.99,0.011130779153437,-0.0174849938608245,0.1896237421274658,-3.2424554582854848,-1.0267925457100189,9.471826557198558
3.0,0.0087307088059964,-0.0434872368716617,0.196512116813707,-2.000963914818457,-1.2423319365140986,9.114708327879445
3.0100000000000002,0.0220394901273791,-0.0368649057289186,0.2263456422329422,0.4340677948112949,-1.3656923217394077,8.710415696997316
3.02,0.0307669018826507,-0.0133560348787464,0.2529004204512116,1.8865819071834369,-0.2908060679702653,9.969436853208368
3.0300000000000002,0.0335911104842999,0.0263399945525182,0.2561513471842285,2.219459799720777,0.2055591079981673,10.577805377400194
3.04,0.0387185686706977,0.0381656441879741,0.2420125890017029,0.0722828467116955,-0.1320781800095492,10.76806663157321
3.0500000000000003,0.0446034665817006,0.0293855044731518,0.2274558830500122,-1.299786566001894,-0.3973346539083928,10.223285482047505
3.06,0.0290276290265658,0.0006857775545508,0.2247788000345703,-2.851553051984556,0.8638319014944992,9.449503432440942
3.0700000000000003,0.00923597260434,-0.0388798933472927,0.2459621715784546,-2.40905039335063,0.9782475250102326,9.38864889762162
3.08,0.0028617666159636,-0.0483333708360039,0.297517924332666,-0.2898826262454785,1.1058878200003064,9.134864796181276
3.09,-0.0196638150608348,-0.0519636962031992,0.3295892465353485,-0.0263816993451697,2.6425937262746837,10.474901083041
3.1,-0.0201570693323265,-0.0408235931288242,0.320070951008844,0.768213819991073,0.5551645746051836,10.824423949622382
3.11,-0.0293811976971268,-0.0329565979823314,0.2968507695436951,-0.1370421135380955,0.3158357736594038,10.51282953514139
3.12,-0.0131996534437936,-0.0392184290334701,0.2825784671545502,-1.08976275916846,-1.4336161595393655,10.124146250397
3.13,-0.0194500366644084,-0.058563740303663,0.279846786284494,-1.854462139150537,0.131368147591914,9.865531666008485
3.14,-0.0126153889694777,-0.0645590739885169,0.2944448876619812,0.0282895487343755,-0.4598346119482663,9.619916111722018
3.15,-0.0118526434610195,-0.0553474162583035,0.3181467044592377,0.7791872673349323,0.4823796600029088,9.111117087377478
3.16,0.0002571127551827,-0.0373525407005482,0.3503201294184204,1.881736934299,0.1274954490856202,9.457304530262284
3.17,-0.0066753882185089,-0.0097172734656425,0.3888634729624268,1.920292461940189,1.6273447667512353,9.18483879830923
3.18,-0.0205679451989379,-0.0069193160337823,0.3926101315260407,0.137559152013006,1.4159005117206225,10.130664145814697
3.19,-0.0347930298027639,-0.0215584980790623,0.3733721065760132,-1.8306067221848263,-0.1698615398302688,10.162410644186602
3.2,-0.0450008920947233,-0.0578216520465997,0.358940123343515,-3.3035451764289614,-0.8393863941340578,10.301758131562703
3.21,-0.0481619945854066,-0.0887228317020104,0.3482687163591858,-2.361737812655479,-1.4043376590938896,10.43230207601998
3.22,-0.0462826789567003,-0.0984765680390599,0.3469005811453339,-1.3604624529086842,-1.3576452465189528,9.704716367516417
3.23,-0.047243786247678,-0.1023036283682931,0.3412650513887879,-0.8799457383518514,-1.1438526084120362,9.646392938141844
3.24,-0.0328597056218086,-0.0970277968252403,0.3465290355921265,-0.0451845935052715,-1.9568616617087984,9.64076194285814
3.25,-0.0153420144053247,-0.0783279180797992,0.33777221920495,0.6635119522213175,-1.6961773732297265,8.89101163885483
3.2600000000000002,-0.0131997145363972,-0.055504112993412,0.3378177869558807,1.2097120426311194,-0.834218673209955,9.264406863033315
3.27,-0.0034432214689676,-0.0388023031187233,0.3378786731005188,0.6522582609661134,-1.142733335335265,9.146353934751264
3.2800000000000002,0.0017999306824135,-0.0338903486606873,0.3134695577860352,-0.2935841102473515,-0.7297202821167382,9.93893120279511
3.29,0.0078040686341286,-0.0416241881247045,0.2857947039843079,-1.0403874454001087,-1.0426007039846563,10.35734685796217
3.3000000000000003,0.013784840371035,-0.0390809724467752,0.2636033284903046,0.0954572059894211,-0.7634126607841312,10.27710272189183
3.31,0.0154700651105807,-0.0339167321445549,0.2567982661962982,0.0528651630025981,-0.174436798729396,9.669813418664251
3.3200000000000003,0.0197614647452909,-0.0329590380281698,0.2672442782164093,0.4255580569966565,0.2427497823826068,9.469403383266236
3.33,0.0155207501974634,-0.0271422394482164,0.2858875084162232,0.7161772831790063,1.0089516365602444,9.41289258520362
3.34,0.0005797915528141,-0.0307616370389394,0.3041844058275696,0.1301923371898866,1.4339036766517554,9.83991539657203
3.35,-0.0115882930015817,-0.0360949402056629,0.3086104679346558,-0.1528625890235492,1.0994540185490784,9.995648446975151
3.36,-0.0190766883286771,-0.0493413771224322,0.3143653857946869,-0.688198579917996,-0.2660141283227481,10.197860001823388
3.37,0.0026186505426338,-0.0455621280280987,0.3312661636114594,0.7319125156454298,-1.7632104222337104,9.91362537445136
3.38,0.0384748485056157,-0.0262246656139732,0.3510755586863037,1.8376924942668496,-2.362097388269759,9.42026770168338
3.39,0.0436342346187403,0.000218663281247,0.3809036898851868,2.2833381859794604,0.5143387198088247,9.240182824326553
3.4,0.04064760800953,0.0205406974077394,0.4000220287085053,1.4565194210724788,0.371325039553288,9.768619766415595
3.41,0.0387517507257228,0.0181744606224813,0.4076959479094025,-0.1974518136226344,0.2804866109498122,9.545065387609393
3.42,0.0286779465106706,0.0163888985253879,0.4083123195410248,-0.1493940750607614,0.2449192873872554,9.513946219338338
3.43,0.018793060300293,-0.0019492960797216,0.4132512498140808,-1.438529678965038,0.3076938389731121,9.66516404462616
3.44,0.0223948666004099,-0.0019725892969398,0.4241767812014099,0.2602198818229322,-0.6636098393549739,9.67057286079784
3.45,0.0093780813434768,0.0081157291358674,0.434035121226358,0.2273919349562472,1.2769435719158984,9.220993102075983
3.46,-0.0057545530694784,3.521639242700972e-05,0.4201253640890595,-0.9234131421256836,-0.2806154060131196,10.872551717006065
3.47,-0.0006516213659071,-0.0102167928330296,0.3814499664545532,-1.7630759287769513,-1.9325570674100825,10.16293236116318
3.48,0.0039286935397332,-0.0190491012497296,0.347977011227655,-2.104628898265608,-3.5698854455393363,10.645063622718082
3.49,0.0346459890691939,-0.0127071386198906,0.328808127665567,-0.6392445482608566,-2.791568104875237,9.373326910670556
3.5,0.0493060471156065,-0.0047986737257276,0.3220551002264496,0.344513635676491,-2.5713168919466978,9.61730767162355
3.5100000000000002,0.0665993797082795,0.0308311393898637,0.3339201796293732,1.8505686123584824,-1.7976284859598386,8.308352696396968
3.52,0.0807191300286923,0.0594477952230392,0.3550629008055206,1.757251764945085,-1.4371632622120245,8.946417123187482
3.5300000000000002,0.0835035278417185,0.0775624364699565,0.3631654072046753,1.026063127025404,-0.4786050465727564,9.47029062332332
3.54,0.0886809303313437,0.0854266348862875,0.359276889586496,0.2272780088293995,-0.2500201175709148,10.21650407486377
3.5500000000000003,0.0691486234789671,0.0681543267407421,0.3319372225046631,-2.2172172077175323,0.224025580698831,10.41943821470845
3.56,0.0726052862768047,0.0501084820898203,0.3192919779062744,-1.8477737097317417,-1.6219576333203172,10.326651512768056
3.5700000000000003,0.0706806977148661,0.0189541685145386,0.3159238982439514,-2.261787143862961,-0.4484905403316058,9.97340141055002
3.58,0.0792131357856232,0.0176846401620861,0.3305155623198029,0.038301187267802,-1.259776649447999,9.457744428843252
3.59,0.1000526768227049,0.0209119926783447,0.3510248053312775,0.4060793897099284,-0.9469926014427004,9.568595300752053
3.6,0.1114244303874287,0.0379638593301039,0.3625535357237335,1.949738668231268,0.1300137173186785,9.957250416814874
3.61,0.1043581822999964,0.0794166507475924,0.3740930545568939,3.088038605834892,1.6910618962512476,9.05014149153886
3.62,0.0999941085251295,0.1020663371266335,0.3921503710985657,1.5366467726306428,1.485762261235467,9.482858695570846
3.63,0.0812751946359576,0.0967114881240613,0.3983681786299225,-0.3541035241221471,2.4552909492510286,9.575890686070638
3.64,0.0417049205652654,0.0806570955678959,0.3887478995562073,-1.5624363777043095,2.8349064190125124,10.01991645803351
3.65,0.0171383795939498,0.0394226153537093,0.3730112898588654,-3.668686415414958,1.335591328158507,10.39695839015998
3.66,-0.0027003864621078,-0.0195044480352552,0.3468473839998718,-5.034625021208854,0.6633233161069156,10.15671853922176
3.67,-0.02765949486307,-0.0639615251914632,0.3395396757364746,-3.4769697237923927,1.1125976771056691,10.61178478294999
3.68,-0.0398824688534187,-0.0806720997686723,0.3310496795416351,-1.7182328971970446,0.8571241471003259,10.554045074526035
3.69,-0.0462881329810264,-0.0857666375143568,0.3096469629049774,-0.904132815119999,0.1295882958657293,10.811369811083928
3.7,-0.0434792102430482,-0.0807913782071444,0.2745014119387146,-1.028073721199482,0.1631717963947594,9.771647984815544
3.71,-0.0518862884054347,-0.08519932791001,0.2541584658861633,-1.343626941365693,0.3510335185168415,10.15558732421402
3.72,-0.0461433048762426,-0.0773411108090784,0.2493240821600433,-0.6411074656797625,-0.2796381209275136,9.610496758333763
3.73,-0.0404566166523993,-0.0797929551335266,0.2475158262491699,-1.1116666095041912,-0.8992142861292932,9.75634410736847
3.74,-0.017643169897615,-0.0622200781346107,0.2530237424612518,0.1905698616876158,-1.8150997386025367,9.001401138022883
3.75,-0.0045101967742344,-0.0565224762691809,0.2724142360926148,-0.4333813710223189,-0.6361080915490959,9.302778436082814
3.7600000000000002,0.0043430389829287,-0.0464357412801745,0.2931163001299378,0.4817686618935382,-0.2150496519196447,9.769381003856326
3.77,-0.0003098325347704,-0.0270776327682494,0.3157578397036072,0.6757408053298146,1.1087867855528917,9.40774937052729
3.7800000000000002,0.0047744449653599,-0.0243762194287879,0.333744286322641,-0.1671795245062752,-0.2371513889047668,10.364314735917098
3.79,0.0150721527006103,-0.0278811966727962,0.3375551986933228,-0.7385096461385257,-0.2378689350573931,9.681874531802652
3.8000000000000003,0.0140496579096814,-0.0340505520665445,0.3513120997190949,-0.2382799347007918,0.186867379682161,10.322378339294817
3.81,0.0081304272360274,-0.0377216029443226,0.3496042180300232,-0.0314825084494471,0.8486484519074575,9.940095069569796
3.8200000000000003,0.0013925756720462,-0.0327104515839204,0.3417047846556183,0.7868273881826293,0.9206751018080293,9.828077892576076
3.83,-0.0148277394422743,-0.0149913031268663,0.3453140247107025,1.0415406792649171,1.4342420782939291,9.421930392574852
3.84,-0.0160609185702103,-0.0325374991421638,0.3381864118814942,-0.692837898236904,0.1770557820314509,10.393475178945636
3.85,-0.0237561684470679,-0.0312603708385935,0.322716294550943,0.2131093501852432,-0.1849409997326435,9.511676562859025
3.86,-0.0115823292346372,-0.0197911159289492,0.3144806611776825,0.9726209368848951,-1.9512950471903985,10.136061445316813
3.87,0.0115214679368922,-0.0206040247227851,0.3061518657446381,0.2319085547919861,-2.738669914658032,9.775902615793012
3.88,0.0371032364622183,0.0107031369599591,0.318402706408548,2.3864413087268748,-2.8419984795089026,9.002233923298887
3.89,0.0474983949826329,0.0231728417990472,0.3289452481508728,1.14299829115111,-0.9754534405705922,9.297818589330822
3.9,0.0496303690462941,0.036607920653367,0.3383834052324768,1.4160136897588669,-0.7136277284865774,9.713147390185425
3.91,0.0291699591415993,0.0435748893748789,0.3473335194826599,0.0220384981424045,1.2611577130476008,9.212093420599942
3.92,0.0166192060567814,0.0212919278418719,0.3449110377073761,-1.73302705715015,0.7916623706633604,10.189428414464214
3.93,-0.0155745692175486,-0.0155650929468688,0.3327728498220917,-2.6405076824694294,1.0153533956387673,10.641931805260429
3.94,-0.0120084055814539,-0.0250578002357595,0.3251301336527344,-0.9815641624621492,-0.8339515909883742,9.931419866450351
3.95,0.0065743873409178,-0.031890220179406,0.3076365876436707,-0.4454011158803778,-1.8475843591863188,10.274366976881742
3.96,0.0227314000787201,-0.0153341983886782,0.304721145653772,1.1603435334923249,-1.7010339749521506,9.615980603350986
3.97,0.0319502498295453,0.0308016139266381,0.3077625918627258,2.8355815225977734,-0.8977732623414416,9.10019126315266
3.98,0.0393081961931845,0.0466830973369727,0.2998938250780579,0.1928593510659276,-0.3947937472797325,9.153650435204744
3.99,0.034770356803042,0.0550865727989666,0.3058495807886597,0.0610170040476212,-0.524681460748539,9.67884742906642
4.0,0.0322404933206681,0.0439363587151879,0.3096841860056397,-1.6454930162367571,-0.028194093863619,9.591858347608936
4.01,0.0288724506709265,0.0299882370515235,0.3116750109434601,-1.3734146879507778,-1.0520346353547223,10.178616818433792
4.0200000000000005,0.0501337781038978,0.0312171624317036,0.3193916070700165,-0.5741563336321578,-1.233927178031317,9.702941674325864
4.03,0.0388468161017739,0.0210979178267319,0.3165372300386902,-1.1695110780560407,0.413457547753109,10.724737525855431
4.04,0.0542869820476331,0.0225209097965524,0.3142969894648071,-0.2729263302118889,-0.6182111551071101,10.133392550265595
4.05,0.0473528281775742,0.0263900784829867,0.3106194722891327,-0.5622054913283961,0.3891252666266994,9.655588821019649
4.0600000000000005,0.0606629361165209,0.0237311692255652,0.3346689331770416,-0.0855250647962252,-0.4017283448188044,10.04983895584917
4.07,0.0626151294983218,0.0196309727544172,0.354803411984491,-0.6161813875453032,0.742764624180284,9.580177579750323
4.08,0.0695068100463902,0.0120353150446476,0.3651951837778565,-0.3231948146521841,0.9142159872429336,10.330950225824036
4.09,0.0489272458022504,-0.0024074878388474,0.3689285803080078,-1.3007320477040938,2.409463431113285,10.183861878368695
4.1,0.0326152783349514,-0.0242722770065346,0.3712919938803192,-1.545666649051103,3.467014357707019,10.024624538830397
4.11,-0.0125776327941553,-0.0538140626182434,0.3672719288111206,-1.22554715397167,4.256873834950373,10.261682074476433
4.12,-0.0204607195382379,-0.0268108995757123,0.3860061156988617,1.7890347828730049,2.5839597655703423,8.791969183222152
4.13,-0.0266172385473781,-0.0478863508954391,0.3987432408571716,-0.6415037967703943,1.7446863736307474,10.836144568758549
4.14,-0.038789994271995,-0.0215867016823453,0.4050070333719727,2.0501049394455944,2.0437599746027657,9.2985745268985
4.15,-0.0386548320950539,0.0074444487194324,0.4173078823328491,2.569131387329488,0.3007787300737672,10.164737471070351
4.16,-0.0164002533810367,0.0309800685905646,0.4301244604826447,1.336145471110772,-1.0047622902995268,9.170650653729542
4.17,-0.0063700271226086,0.0396005845954053,0.4384379375219818,0.8179784365628853,-0.0534368347189301,9.503631734579695
4.18,-0.0246514697773264,0.0517375020740649,0.4569378483534332,0.9198148767118224,2.037132714425641,9.225512673558155
4.19,-0.0495954656232415,0.0663368001338819,0.4729861307383057,0.5698607903493211,1.229276279298246,9.612966822445086
4.2,-0.0425447620391811,0.0455150463277099,0.4768067586660858,-1.7868044806988226,-0.8555460226201101,10.304888553099907
4.21,-0.0196469844878918,0.0400984381374882,0.4685516047716614,-0.6037453000228697,-3.18198278052922,10.100125581871035
4.22,0.0051324647160625,0.0472982197149422,0.4562005985022064,-0.219271192864374,-2.3616116386671653,9.439951636884402
4.23,0.0257963967969431,0.0425168346481264,0.4348464000463959,-0.8783466560146586,-2.976672096990325,9.829422716339106
4.24,0.0263870862823465,0.0509381231561782,0.4138159442186829,0.3037691405275743,-0.5373780773134571,9.131918791821446
4.25,0.0081854164934339,0.0632637081736886,0.3855292487383362,-0.0872283247393135,0.0153489376733321,9.532700840386354
4.26,-0.0025598388983326,0.0478645589120913,0.3509633231401917,-2.0598948452789534,-0.6731198136350866,10.043530137273404
4.2700000000000005,-0.0040120130981525,0.0376598673440039,0.3101733017206665,-1.6944078107677536,-2.4087208759694,10.118237492466806
4.28,0.0085351524108493,0.0200660232489453,0.2874784755945679,-2.017290718779258,-1.9861037279102884,9.798669858309225
4.29,0.0253447066565191,0.0188599920819595,0.2649607348680969,-0.238946613464506,-3.4479828549387106,9.750780391684788
4.3,0.0573750366033801,0.0431116945686469,0.2491092521191116,0.9508711338115988,-1.7762046394997677,9.187140986163534
4.3100000000000005,0.0516706320406004,0.0563642283049683,0.2414795297623154,0.8757194887344708,-0.2371328211274812,10.564653602092724
4.32,0.015618780976769,0.0508609661711735,0.2434084254742142,-1.5893562847268847,4.216221484702389,8.743687835241133
4.33,-0.0328307483068548,0.0094274660023623,0.2541280079126831,-2.523232751435232,1.213319733114887,11.74345628617604
4.34,0.0113910598570282,0.0115479040341165,0.2702673065901276,0.310669637199657,-1.859601345311677,8.63341954751368
4.3500000000000005,0.0251358086774877,0.0120150937731155,0.2918135512114044,1.0436047671195503,-0.1376953799378407,10.065080338459827
4.36,0.0100521017295961,0.0316730576809417,0.3210220325232025,1.1560879817798997,2.7329656805774123,8.92998345030501
4.37,-0.0117331606256097,0.0254741075019037,0.3337900626898285,0.473488885584685,2.418968445378301,10.814641443856283
4.38,-0.0257586399041564,0.0246679249140256,0.3310841906309601,-1.068747558776746,1.997246131900401,9.014122601042269
4.39,-0.0822493955905802,-0.0072526454609581,0.3355533468962189,-2.960289771081876,4.160075247716121,10.036179752128032
4.4,-0.0908132229181327,-0.0453062212717511,0.335303066992807,-2.8037260837579514,0.580973625992961,10.22509787776255
4.41,-0.0924401969534837,-0.0459841799946214,0.3303322184324738,-0.8461735939074271,-0.4673942712202169,10.382613726254853
4.42,-0.0760434986385509,-0.0532689193114361,0.3283030379057404,-1.345910266869602,-0.7995495547249681,10.554071130886737
4.43,-0.0578312667356819,-0.041722955827,0.3092748809099671,0.3374336241904284,-1.4051340893618205,10.457543172694608
4.44,-0.0655414585110398,-0.0194785824610769,0.3102470624685761,0.6048633256231479,0.4444329650579963,9.58506149910791
4.45,-0.0536348172148501,0.0034244603148059,0.3377681660891052,1.357795704333042,-0.7414973543570593,9.389321332873754
4.46,-0.020054358745928,0.0158041035239459,0.3533434260130402,-0.2636198322417287,-2.9628239232848697,8.609993272239471
4.47,-0.0113820985411774,0.0124732792881204,0.3738744545221802,-0.3189198754479169,-1.2010507630940752,9.545248072309285
4.48,0.0111989676244308,0.0303120780677697,0.3860053408384796,0.6754579404682142,-1.2888578827083046,8.923256444431148
4.49,-0.0023425919600613,0.0279037444015445,0.3734701860189911,-1.3260827481127369,-0.9679903486389494,10.380119239482095
4.5,0.0126810204588124,0.014478674360017,0.360296576046991,-1.600148721508515,-1.5689845989682536,10.013147718680864
4.51,0.0137912570185122,-0.005325932633396,0.3302927303553101,-2.3166058424108407,-1.3766091655332036,9.82669540198855
4.5200000000000005,0.0330814528250933,-0.0084953765918621,0.3192013788462158,-0.4683299650533501,-2.142802339481797,9.455068617439617
4.53,0.0331746771939043,-0.0010913083834234,0.3190620529890534,0.1654072627294198,0.4864053546372939,9.406334802596286
4.54,0.0336170581026344,0.0035120312765394,0.3040294337511536,0.2191180299391774,-0.2523480815235885,10.371801301304105
4.55,0.0252524984234699,0.0138890147544107,0.2898304450750824,-0.0907475767563274,0.1946612292536933,9.92535003011804
4.5600000000000005,0.0166595322950589,-0.0011589579030652,0.2879014003515717,-1.1719214904561297,0.6125394270636565,10.16449945446874
4.57,0.0149542610922179,-0.0085251431973492,0.2917149651289459,-0.9489002522403216,-0.0658740582641488,9.705876250071846
4.58,0.0215426359786713,-0.0112162712351716,0.2988373029470917,-0.1187396982919202,-0.2905210605576748,9.92410052287302
4.59,0.0320555510186539,-0.0008875034566557,0.3090310979128357,0.988835611447949,0.0611534406595134,9.679676389894968
4.6000000000000005,0.0260494955765286,0.0141779149946061,0.319791375422525,0.6125602677601433,1.1123093398838526,9.588127879979076
4.61,0.0290871409287141,0.0201931008714445,0.3273968982935425,0.3845527978546346,0.0911924441863282,10.38385927300677
4.62,0.0319195631284527,0.0145147787707262,0.3270877886057373,-0.7830175126779234,0.2580737696692669,9.863846407619098
4.63,0.0214637663826569,0.0005705647550446,0.3407823729753967,-0.7833957033320027,1.542462528246539,9.63328787601673
4.64,0.0156576223643566,0.0067716591968584,0.3647774744272705,0.1364160218239195,0.7075721027671401,9.463114696847352
4.65,0.0120054945925833,-0.0099571391087224,0.373685418391275,-0.8834482652839615,1.2386926326509122,9.980437369296125
4.66,0.0023955028923766,0.0055790379738182,0.3811798680067536,1.2729477653153554,1.3424301401464611,9.52107250808461
4.67,-0.0059340441422065,0.0219958640421774,0.3815491783857819,0.6542032991835047,0.856875245915487,9.91696376848512
4.68,-0.0029460102972029,0.0157974713396247,0.3652093994856354,-0.715783727745173,-0.3380880591087314,10.414080662515962
4.69,-0.0101516149695349,0.0143423147127733,0.3580014693975922,-0.3404343604989467,0.2902716802460604,10.030074810923562
4.7,-0.0162441713821604,0.016671083681978,0.3455961036921021,-0.2367193432560364,0.7421020946820904,9.2887801177935
4.71,-0.0122067526936122,0.0260394898284939,0.3418086755514618,0.376700497999289,-1.551409983386681,9.747806637894998
4.72,0.0099754708593527,0.0259769992042593,0.3393142211676117,-0.5167298843545082,-0.6625048025476581,8.849070922363195
4.73,0.0079457206174928,0.0237753658781875,0.330501585030603,0.2143459994054508,-0.6561227391052289,10.468859397441028
4.74,-0.0014487277033556,0.0306895803259831,0.3263161468744751,-0.5171375777697338,1.2837788894753186,9.036795867526829
4.75,-0.011718241596179,0.0261108062196308,0.3128508615732666,0.0388048153997782,-0.2859720831823237,11.338247642909746
4.76,-0.0026695304857782,0.0324466400580714,0.3004744041204926,-0.9565147081377644,-0.6362834975170153,9.14938936172175
4.7700000000000005,-0.0048788619495296,0.0103254329260055,0.2875318515539642,-1.512361077542968,-0.5309622745768195,10.835570074381604
4.78,-0.0087049956769495,-0.0072905390692846,0.2743190813303467,-1.8862003207983973,-0.3983817305378713,9.489110933778232
4.79,0.0131865218216719,0.0071240231922911,0.2786612797022339,1.099213910248355,-1.1043388781659933,9.61181954642152
4.8,0.0013426133420679,0.0042791314518089,0.2778491664171692,-1.0075237153922951,1.447788797682547,9.622344864382072
4.8100000000000005,-0.0183072154074415,0.0049679786176693,0.2726952421904083,-0.5450473446798281,1.664008083272409,10.046083049127072
4.82,-0.0400051262628151,-0.0124474427669777,0.2769900250673767,-2.042837297424944,1.837542669093024,10.012940271110908
4.83,-0.0389166383873428,-0.0219083938741962,0.2792552697897431,-1.0896193425115732,-0.4082992352055428,10.16778832601364
4.84,-0.0265035266262627,-0.0279674226707793,0.2788381862879273,-0.8421050750272265,-1.005715885585542,10.11533162993502
4.8500000000000005,7.427686072631062e-05,-0.0158393817988302,0.2739658940077301,0.4591652334757145,-1.9157894728927165,9.822188181818388
4.86,0.0059652354570246,-0.0038637809164165,0.2763599145651337,0.5977536871144228,-0.2272282987195757,9.810407306779425
4.87,0.0076458021215851,0.004483706196482,0.2991171765566345,-0.0195584206161268,1.2530513819373126,9.27351874936027
4.88,-0.0273965924046299,-0.0195169038843879,0.3143615710974213,-1.9539613279675945,2.805073802138675,10.58650977878951
4.89,-0.0428317060060382,-0.0317895318889183,0.3346732247114655,-0.5893764697286034,1.951860467537776,10.19479627969254
4.9,-0.052025469635597,-0.0302000047173587,0.356110214018869,0.1596668450763866,0.6854009168951178,9.7876058249545
4.91,-0.0313799502167633,-0.027279301849518,0.3633204388857361,0.1041019068311752,-0.8257093217495322,9.374586262191093
4.92,-0.0430259461393547,-0.0192406908682626,0.3535963583231445,-0.0921748179639388,-0.1045385263955485,9.86819089471067
4.93,-0.0236433971352106,-0.0204765883104793,0.3442192960024353,-0.3207856439067584,-1.7044721304063046,10.015837316273652
4.94,-0.0012304584826162,-0.020171230119903,0.3272599268198486,-0.767519246064941,-2.630395237938195,9.83251639692186
4.95,0.0093415592810379,-0.022676035108735,0.32408574106698,-0.7866204753872639,-0.7316907362126261,9.58345451101646
4.96,-0.008194228756902,-0.0391598802646663,0.3285634207964417,-1.766174577897793,1.4580785549939257,9.542298037396357
4.97,-0.016193424217366,-0.0399586037312428,0.3542286145925995,0.3335287426895982,0.4655100387831666,9.597068164893145
4.98,-0.0132962033125711,-0.0021450049998418,0.3767784226179596,2.208339709304404,0.6252093334632608,8.827874649140943
4.99,-0.0012109338752159,0.007605596105072,0.375093607926416,0.1357765291020235,-0.7959472605930782,9.882630635752676
5.0,-0.0054648759874962,0.0084940916987503,0.3565025019884583,-0.697986089594851,0.3741324980907694,9.84600822796823
5.01,-0.0062679627175783,-0.0033298528514954,0.32961472752099,-1.802087915674505,-0.2852796170956749,10.167256005967618
5.0200000000000005,-0.0103578208326556,-0.0158901321027196,0.319108455205011,-1.325553650689025,-0.0203941851024011,9.920051400345171
5.03,-0.0270219155122307,-0.0238161989563293,0.3238926518202301,-1.46822181065377,0.6136479516229209,9.494662414809028
5.04,-0.0136380173941596,-0.0312487955892458,0.3228398847818848,-0.7388431136548044,-1.8032525181227916,10.057716392096635
5.05,0.0182711657373168,-0.0075577552018884,0.3246490645647522,1.5339548689073847,-2.904641713893144,9.651796735152123
5.0600000000000005,0.057040675227134,0.0311065172861688,0.3228175032377716,2.6300777855489086,-2.5230318585494875,8.95817440780437
5.07,0.0407706202780037,0.0530340953277761,0.3151952314615723,0.1303990528632965,0.959331887863712,9.330550944738212
5.08,0.0179648650989885,0.0253650911818908,0.3255919504404541,-2.0091768288960354,0.9062497359218764,10.766617200649804
5.09,0.0022066748960467,0.0187463391313335,0.3283508110285278,-1.048118800006424,0.1329101096801044,10.00075033724246
5.1000000000000005,0.0186180929415772,-0.0083471139588717,0.3386808026075836,-1.6834790024830246,-2.60222787849068,10.20722430031294
5.11,0.0681732795470261,0.0020224855549893,0.341681389832544,1.1656418643769015,-3.2829153777588385,8.569483495097174
5.12,0.0539399453474214,0.0238614210619529,0.3489696669817444,1.2985171371616937,1.7198222277197757,8.924596426213956
5.13,0.0320411007703274,0.0285361682796689,0.3533572244883057,0.5563322306797485,2.2240657053971447,10.185665016181488
5.14,0.0021340599656089,0.0221464579601902,0.3330701577902313,-1.0206075970225217,2.1934979739106404,10.663958636447454
5.15,-0.0087370649683867,-0.0037319149678178,0.3091508138418671,-1.636229389868112,0.5735892514016647,11.259670305303542
5.16,0.0021867220503438,0.0064466775537498,0.2946213770151611,0.4823882936340511,-1.9614672610122943,9.953910527649857
5.17,0.0465282864392895,0.0295312429373104,0.2859547722578522,1.2714576707509635,-3.0549790910009307,8.530379502746232
5.18,0.0452334880118516,0.0390863855996171,0.3023108232260224,0.1374886699243338,0.5624253437306281,8.440954388736094
5.19,0.0331635672407069,0.0274147303558781,0.3113526690245148,-1.434176986697644,1.8355890492951248,9.793802737142114
5.2,0.0111640694071117,0.009140172874744,0.3064800489187714,-1.967426380300596,2.0903972373934723,10.576934637345326
5.21,-0.0161943436133731,0.0004706752418123,0.2789484846830841,-1.1189224933032895,1.6593480205956068,11.03080118123383
5.22,-0.004574062254932,0.0064016106091447,0.2481550711632248,-0.385174715456592,-1.4648824442012998,10.22032926526602
5.23,0.0223146515759596,0.0100398423757678,0.2372673440218445,-0.3939969185396552,-2.112401510249226,9.698500483091596
5.24,0.0324653728874619,0.0149478042380858,0.2461697745562073,-0.5856583732900454,0.2529096046337553,8.833017594707432
5.25,0.0211739014916041,-0.0057268960728639,0.2687165725470062,-1.837682452456177,1.0839217492218396,10.148958533715216
5.26,0.0187815856439822,-0.0142968794345133,0.2776420700788971,-0.3769946988069759,0.7203329489644914,9.608519901054477
5.2700000000000005,0.0255713708208045,-0.0017744817822627,0.2853826570749756,0.195421759410679,0.5550997374180964,9.476967760514407
5.28,-0.0148977084209064,-0.0203896186900876,0.2703721809626099,-1.730108102252805,2.246320805904247,10.872757493649924
5.29,-0.0038298488781996,-0.0083490343090051,0.2384783017874237,0.5474007729813904,-2.1379120891057366,10.03583297260892
5.3,0.0341439343838483,0.0031262444053105,0.2201399344444748,-0.8182579306364384,-4.119134221012795,9.282357924480747
5.3100000000000005,0.07769362694248,-0.0299778026950074,0.2287348944187637,-2.711673318668131,-2.5034576358744887,9.813725270694317
5.32,0.0643513779240308,-0.0458424673983677,0.241193233752298,-0.6474347754766713,2.0545893047581814,9.65092167062758
5.33,0.0280005001402574,-0.0255511627852779,0.2541415083647247,1.8919937229772203,4.320700771063519,9.74598431194985
5.34,-0.047791228203169,0.0181917193482219,0.2859969425440308,2.969620327660914,6.440204101415072,9.3638681493963
5.3500000000000005,-0.0717073186072932,0.0752355808126409,0.306271164441156,3.266279845420239,2.4809951761275624,8.833204641466578
5.36,-0.0635277799119348,0.0637244927483964,0.2934447217226502,-2.6824910286244985,-1.7938430356407875,10.30863438053166
5.37,-0.0282536359920072,0.0084006838337528,0.2610936451197144,-5.054052611196791,-4.297406702554849,11.294623620909206
5.38,-0.0163713487724607,-0.035734251664781,0.2399851668119904,-5.6350627002521305,-2.536026897262835,9.398257407884632
5.39,0.024864057442351,-0.057944259672501,0.239674969339418,-1.7526286901089487,-5.034195270037398,10.302979454419477
5.4,0.0745466185187705,-0.0206543612404651,0.2454112011433121,1.1822052416222937,-3.8796555723123207,8.055783479765594
5.41,0.0702295611271026,0.0092052223046842,0.2553634333849426,0.3965975774769927,0.9584354086228832,9.562239442227453
5.42,0.0402337489082449,0.0043352471865346,0.2607439744711395,-2.1111613680600385,2.312567179616845,10.661412327892124
5.43,0.0259489558169643,-0.028729625027442,0.2648867655039307,-2.9704029181995795,0.7417346944854242,10.837002201981576
5.44,-0.0065833085551666,-0.0773786908697353,0.2665500033140656,-4.383516934046206,3.239928491628268,8.71934195105009
5.45,0.014455718352672,-0.084969100288446,0.2871548521757599,0.9832750867519336,-2.4975296284611046,10.60563600315658
5.46,0.0874273311197929,-0.0374455347762658,0.2929829645395752,3.5940191790758678,-2.6897049866019342,8.029559247696248
5.47,0.0688581739518938,-0.0175500788910284,0.2789776015520569,1.6242447022301278,3.138476281355282,10.67792873271314
5.48,0.0085564164595854,-0.0329645625649619,0.2548695194960114,-1.0102722894787426,4.956276754778974,11.138193745505056
5.49,0.0228357203893081,-0.0360695317855839,0.2235265511513229,0.8587308055649732,-0.8714931567790278,11.001501362398908
5.5,0.0310563125524729,-0.0289180888119734,0.2189304369926926,1.1363243338624307,0.4177909943691162,9.252261317921414
5.51,0.0260641728239178,0.0002886106712671,0.2393900293350693,2.71945998576191,1.052658770302845,8.782306109856302
5.5200000000000005,0.0171162463969143,-0.0176659106710338,0.2683384108782288,-0.8146252391538693,1.1041707913765115,9.70377644048765
5.53,0.002512521268632,-0.0247005603802617,0.2985773074865814,0.468240327340841,1.3374353930868073,9.95081362087858
5.54,-0.0089834939637429,-0.0229933518094693,0.3175226736307617,0.4971995049077435,0.2856429666600462,9.946611205369988
5.55,0.0102656518005754,-0.0134763006732958,0.311694144034433,1.1084521248968304,-2.1108163138687366,10.230013802110488
5.5600000000000005,0.0348842179319021,-0.0001753593289445,0.3007595229387756,0.7848980536874601,-1.59053552052446,9.758948020822586
5.57,0.0255089402267477,0.0074699677215997,0.2949514079332825,-0.4736072666292615,-0.0220726353677095,9.948985180002865
5.58,0.0317393557516482,-0.0163010167715511,0.2828597116709229,-2.4904732957374263,-0.908465548289004,10.255560940544145
5.59,0.041828267759659,-0.0523739780629411,0.2883461106062409,-2.8410009881632368,-1.5800920174325015,10.17021973840634
5.6000000000000005,0.0719071609142529,-0.0711856717547507,0.2980161595583435,-1.454857233863645,-2.688323895250287,9.923204986221547
5.61,0.1030833414773521,-0.0855693744526234,0.2962024498224732,-1.018920612698956,-1.5858665451764429,9.861248188342527
5.62,0.0910474639783839,-0.0880053886182392,0.284747509980249,-0.2740455607042156,1.2830658856462418,10.100361133633792
5.63,0.076275184423453,-0.0745303971571327,0.264789550328302,0.5157745689267434,1.651004433466605,9.772459464691948
5.64,0.0555084139633429,-0.0668118072273751,0.2485545414925095,0.6695577903944748,1.7109948745677328,10.034615056241496
5.65,0.0413118410007619,-0.0450001398165245,0.2396104026079651,1.3576553514921648,1.7199808193329271,9.16438239660136
5.66,0.0390480686931663,-0.0453487659403595,0.2264532137156006,0.2152017325015555,0.741053109501939,9.620620848111953
5.67,0.0276708076059105,-0.044270626338049,0.2156065541744705,0.8697179831867551,2.229974824642912,9.400997828867672
5.68,-0.0342074917633282,-0.011970949714743,0.2132914650679108,2.765339130051861,5.565988436348803,8.987493353970427
5.69,-0.0723668571220872,0.0380639134832848,0.2171242225409027,3.9716485993097694,3.349769520842939,8.81159829918853
5.7,-0.0847019180462369,0.062917926112461,0.2118266511202332,1.2161020551177024,0.8842634675638796,9.119197710936511
5.71,-0.0702942724033222,0.0672305690102138,0.2103632378817078,-0.1558192541415278,-1.186854409235844,9.713918419229904
5.72,-0.0521502075790408,0.0401151603970939,0.2084182191133972,-2.904067497340088,-1.9723695143842976,10.456941584856022
5.73,-0.0211839716988111,-0.0022101791916918,0.2000048595905777,-3.52820487845968,-2.443590345947809,10.653809775497528
5.74,-0.0176780116004788,-0.0176495148658606,0.1963419604540344,-1.683559033768866,-0.3857285619865059,10.243201235695672
5.75,-0.0086073528392686,-0.0049034829158123,0.1968865382910248,0.4068612733252256,-0.4569468451756799,9.604411388784223
5.76,-0.0213479097828707,-0.0053066208411657,0.1870220291853424,-0.9868556825224646,0.8024098841730011,9.779323731002004
5.7700000000000005,0.0009966319020851,0.0009861606400404,0.1808492678642746,-0.0733294275758031,-1.6056777985989796,9.46191442606532
5.78,-0.0025516451069706,-0.0088224040210651,0.1674399513245102,-1.4180209935013837,0.8730392322783657,9.556209296806031
5.79,-0.0108235272594455,-0.0118651900016549,0.1569931942463394,-0.1384236270451597,0.6166239704458135,9.970530140588115
5.8,-0.0272930043115906,-0.006484782956965,0.1490225184202667,-0.1301801883376828,1.70070697633943,9.524272721944376
5.8100000000000005,-0.0476853179997031,-0.0099611196514997,0.1444762039423462,-0.6813502226753102,1.2983314846847402,9.973525014674332
5.82,-0.0588154519685282,-0.0245792451282026,0.1469093847513672,-0.908986575284206,0.2932452433603531,10.0801471866027
5.83,-0.0256854131676863,-0.0127485255710945,0.1466488677502151,1.0409278745420387,-2.4454067319868766,9.437069422450964
5.84,-0.0154493710805264,-0.0045012102320187,0.150518282079744,0.3230083412692386,-0.7875833961887988,9.853671485756966
5.8500000000000005,-0.0142672657031234,0.0088411219729602,0.1605109262705322,0.7636955504986203,0.0064154325617186,10.334570481137323
5.86,-0.0133798730588091,0.0202136803063725,0.1752395320177551,0.2686469879562715,-0.4222113601519748,10.2986484964928
5.87,0.0127797502187442,0.0350900874452781,0.2042797047138687,0.3742248412200784,-1.5406794456894577,9.662175638236455
5.88,0.0195485469265196,0.0368016602321999,0.2426662731409546,-0.4791090970442384,0.2731154098445054,9.709767238291674
5.89,0.0096063748767786,0.0388903258890123,0.2632238853216644,-0.8057755869852402,0.837936189466128,9.37326452724627
5.9,0.0004327124207846,0.0377701179289947,0.280997304940271,-1.1462880215585762,0.5666633644330081,9.491731348651
5.91,0.0154594574482151,0.0179880430297536,0.2892435479403015,-2.866276759540311,-1.9135668056558817,9.34591003654906
5.92,0.0427262378850138,0.0009448331066617,0.2984403956175324,-2.0497615135693183,-1.4490282246048796,9.414516833171389
5.93,0.0479570227813897,-0.0034477183574564,0.3045446264982697,-1.6390693352369006,-0.6109825722482148,9.671456987168495
5.94,0.0504321312738709,-0.0229289533762205,0.3056202519178864,-2.1823280237916785,0.6809377269279551,10.37987654492894
5.95,0.0479483125905844,-0.0243316044077931,0.2891105103731629,-0.8364674080422732,0.4571888567917307,10.187204075762567
5.96,0.0336618035920181,-0.0193371120875494,0.2734984147787567,-0.5471109515032915,1.1678143273286197,9.639387175233756
5.97,0.0437251005515837,-0.0133119833941584,0.259232430481958,0.6545927202142985,-0.0967597684043552,9.455679328850572
5.98,0.0343597569858822,0.003914387416996,0.2492337513208862,0.4606293222688143,1.2873331724115342,8.892354459709711
5.99,0.0107921209724836,-0.0120615252905141,0.2392363238573547,-1.0354313113726337,2.5372659125663173,10.330827874265603
6.0,-0.0051840086656709,-0.0251953887622996,0.2285007077694412,-0.9528139312275916,0.9850005429735414,10.3234361383791
6.01,0.0024752948852832,-0.0247796130018241,0.2181727129459854,0.1968508529578923,-0.1972534923409351,10.027155277044374
6.0200000000000005,0.0160192242628802,-0.0167719407679943,0.2155740696430679,0.6926598317105559,-0.6342535018974004,9.968062389958346
6.03,0.0145741457219238,-0.0029900318613401,0.2155479479074951,1.1035651912643645,-0.0173107626315191,10.018402733572936
6.04,0.0243588628157532,0.0194790135042514,0.2242441761732574,1.3809108941781718,-0.0396164574242184,9.381744520172198
6.05,0.0056576983158883,0.0089433120610772,0.225840284252214,-1.47162971610644,1.043611345521682,10.052874367775535
6.0600000000000005,-0.0020685092191038,-0.0110455963845058,0.2394510495901581,-1.4187902765805809,0.5318757807434076,9.851071980944225
6.07,0.0006467839122466,-0.0211094152857558,0.2516430008650299,-1.2704149742070732,-0.7385872740719379,9.604955451592282
6.08,0.0216971424433081,-0.0224658735975099,0.2635406244040009,-0.0350555422154014,-1.4709708684495058,9.783443964928496
6.09,0.0283571857820701,-0.0059993617404415,0.267989515090036,0.685268181049444,-0.2427843388944322,9.738028341666586
6.1000000000000005,0.0293178290924485,-0.0021037312308282,0.2515478718519684,-0.6892228231589095,0.2571569058677842,10.064117143026795
6.11,0.0099040554317282,-0.015531340330849,0.2330404955387588,-1.628579036232428,1.2241151221944209,10.610043542582924
6.12,0.0171381496306344,-0.0248320001029928,0.2289280283689972,-0.7791274056937395,-0.2739005996811238,9.919559958381749
6.13,0.0210780382114214,-0.0203224512360347,0.2303145665169235,0.23899298389362,-0.1252756390064147,9.366228300529729
6.140000000000001,0.0244741830979388,-0.0283262563700101,0.2386612880468842,-0.9044323926632032,-0.0565914496973326,9.578794811401888
6.15,0.0354855173390213,-0.0283657934587061,0.2404130387545105,0.4247147136791662,-0.0382182640620612,9.654592180754266
6.16,0.0079981179803774,-0.0184249106110564,0.2339244324207779,-0.0761514284006006,2.5701226646631845,9.187889255418591
6.17,-0.0009692864894026,-0.0236135131466499,0.229118271493959,-0.352072935629951,0.3842316639450953,10.213264851576785
6.18,0.0044615478593191,-0.0139492118760758,0.2125207472086426,0.050755454625525,-0.1938593393721247,9.661662776781668
6.19,0.0229749027020913,-0.0093505493864508,0.2035163033247467,0.5932451126377171,-0.815346197937967,10.073396891553584
6.2,0.0046699062019369,0.0128763060929164,0.2054346937180038,0.752240572897264,1.3158708161809676,9.449967718638955
6.21,0.0153713867319139,0.0134997227061576,0.2051388907671448,-0.3903623005761641,-0.4709861853649227,10.077661740436094
6.22,0.0225768398644017,0.005641852423789,0.2145272779703613,-0.8005331431378374,-0.9725085319778805,9.964889394549044
6.23,0.0348325749604767,0.0093773792797465,0.2273648369551178,-0.1634492996558687,-0.0371388191413317,9.388373140911131
6.24,0.0248410098794984,-0.0077095824634281,0.2276117491960999,-1.4443998395272304,0.5091669830191687,10.15682207134336
6.25,0.0342404503677344,-0.0155622534035168,0.2283008533955093,-0.5654905029745395,-0.1103166196773176,9.885637191277356
6.26,0.0247322874647613,-0.0260286903441031,0.2303411352873322,-0.7062117110153455,1.1348419550480413,10.021062742520014
6.2700000000000005,0.0078938765628146,-0.0291750909980435,0.2431906002998825,-0.0026108159704882,1.6381225047232923,9.85411127905523
6.28,0.0034538252522443,-0.0195962005057144,0.2630836951971527,1.3182238077409372,0.6374958145364036,9.951169812932964
6.29,0.0150264596968162,-0.0038437311079836,0.2691838133574005,1.43283039878763,0.1193085390227184,9.513452485811598
6.3,-0.0050274944665255,0.0094304334000324,0.271317003989267,1.17608664319867,1.464785374860668,9.747614740507943
6.3100000000000005,-0.0100598975581325,0.0080878673320442,0.2641830730677124,-0.2525812885435932,0.2003687829359185,9.838583473787752
6.32,-1.486311304715408e-05,-0.0017548880028901,0.2487364101648804,-0.9725080285672644,-2.149234160742894,9.900592956274233
6.33,0.0125723711039189,-0.0061032619264184,0.246985195899057,-0.3775498671182078,-1.3634994319485745,9.456262151378844
6.34,0.0299320353313976,0.0045901512440243,0.2547114181757446,0.6592380383215285,-1.6288449841924206,9.324100867483724
6.3500000000000005,0.0351995920463435,-0.0066250391510824,0.2576034951448914,-1.3570920184035695,0.1690891634896081,9.57176965382651
6.36,0.0100335772397399,-0.0148232228373786,0.2661876368761536,-0.7574929135137073,2.115461110409785,10.202458430840418
6.37,0.0099765004139953,-0.0226234714403954,0.2676739084959503,-0.633280647635888,0.4930281221634084,10.19530688383316
6.38,0.0196667707032316,-0.0143741247052245,0.2610460508108612,0.6871294870475257,-0.4616893634101001,10.00671315081376
6.390000000000001,0.0149488116636734,-0.0024606624591042,0.2667687225580689,0.694797046426023,1.4086082421353117,9.740957229522088
6.4,0.0127794444534842,0.0078244921721874,0.2711429584265228,0.797168504183529,0.2594187884116776,9.998891645673238
6.41,0.0282642664404064,0.0183519261119161,0.2649308133364197,-0.087993127486776,-0.2087145312233962,9.48374531257038
6.42,0.0135648133662168,0.0048592181266801,0.274781017327356,-1.043638475906788,1.5423501282972625,10.306990408571696
6.43,0.0052847223212232,0.0136549809410894,0.2766784417868134,-0.0557118740847959,1.2103676542064363,9.425779119187668
6.44,0.0011390219129956,-0.0022550319099431,0.2712215471506592,-1.4146573559956324,0.1998139650310299,10.237375920508445
6.45,-0.0013157272990897,-0.0088281400168124,0.2599084365606781,-1.0236977138385386,-0.0878710053106354,9.431861950526978
6.46,0.0168035433705854,-0.0063234069733595,0.2559741723776337,-0.0020511882753269,-1.1445109781209435,9.590418037927847
6.47,0.0261164020195079,-0.009072290735904,0.2628170836210724,-0.5330396020276055,-0.1182434413826366,9.808861532060234
6.48,0.0239510130649612,-0.0088316268961927,0.2622538495302673,-0.5005376739689698,0.552105926045381,9.944691507741148
6.49,0.027200135312328,-0.0195179678637704,0.2512564945459839,-1.5016305025968484,0.4951665893938355,9.97434628807033
6.5,0.0326693672495812,-0.0248092048163692,0.245358153009462,-0.4129472924832407,-0.3025102143408661,10.22274535369242
6.51,0.0423483734645039,-0.0184172813346501,0.2440359729767319,0.3066989883911969,0.3240411299922362,9.254099290599251
6.5200000000000005,0.0393862141522505,-0.0175949984168428,0.2438919234514709,-0.2124298872816024,1.2271773979785552,9.772261268403708
6.53,0.0136542025415695,-0.0200230078872709,0.2581638086081024,0.1092154996861056,2.064337091076845,10.167181742847276
6.54,0.0217036911597941,-0.007595675136548,0.263973264718103,1.23281756894961,0.7412261508351011,9.717157241838652
6.55,0.0142943380492484,0.001292056230041,0.259046404385614,0.4162622960631836,0.490753346773967,9.88342638410075
6.5600000000000005,0.0149457677019706,0.0004976356115667,0.2538366306066986,-0.1416663338222688,0.3823518868868792,9.945174245722471
6.57,0.0185919078662088,-0.0090453321504833,0.251233516955423,-0.6652873191796783,-0.1109500583417959,9.953384451936737
6.58,0.0099905271426586,-0.0100185670420607,0.2523352492094513,-0.060828026975902,0.9064410349090952,9.667242349534908
6.59,0.0124373924275526,-0.0077702984938578,0.2475428718567368,0.3346712841075885,-0.2327841199552317,9.763182751923116
6.6000000000000005,0.0048781558729989,-0.0079646972158259,0.2467251855373856,-0.2135470522810418,0.6544426341909426,9.667909563685038
6.61,0.0028199213613051,-0.003234083303788,0.2470689702272888,0.682341830443723,-0.1319155083564109,10.14364947634518
6.62,0.0009111671322051,0.0144450093441946,0.2524552333593842,0.9779045066489094,-0.276598706587686,9.61029656112996
6.63,0.0113568184800014,0.0225677866893335,0.2502302515745636,0.4191698259261635,-0.6474135403273835,9.75118284072995
6.640000000000001,0.0089847121429165,0.0281078346862426,0.2504711288452622,-0.2189806139479955,-0.2158816837711158,9.307945664159607
6.65,0.0182210251870334,0.0149062126887958,0.2571961868048187,-1.2709264664418312,-0.3526066132120486,9.570319213473493
6.66,0.0070392075036799,-0.016921263056567,0.2580102372408386,-2.255396174125893,1.0796583899073549,10.028570341376952
6.67,-0.0076253091277442,-0.0085556657443594,0.2545764434576508,0.6572719264497584,0.9435466776553068,9.910493902542484
6.68,0.0060418247234707,0.0017170680682314,0.24630373599534,0.4200959341182018,-0.8742558381888239,9.801073643158215
6.69,0.0055018708225918,0.0099951184923496,0.2387625265360352,0.0456380554916293,0.5998894183567826,9.904750198131364
6.7,0.0027722771369283,0.0132951959816122,0.2355995613575455,0.0222552389802829,0.1539264214157934,10.036335228671076
6.71,0.0013731643944598,0.0285159610187084,0.2362020004034515,0.7511789315272693,0.4869838163321064,9.83226184489996
6.72,0.0092275255779876,0.0263738244553387,0.2452035981655594,-0.5552235639171381,-0.2651127541393252,9.934495120042564
6.73,0.0169106361063494,0.0154542962720141,0.2543165076017853,-0.6824803975695316,0.3466208895495181,9.878632196825832
6.74,0.0169653677503317,0.0197869003039882,0.2713617372751709,0.4285768596496638,0.7970889433084175,9.700637181637097
6.75,0.0066796474289683,0.0373699898989676,0.2769449639559265,0.5579300767884973,1.490760232218374,9.237744889189988
6.76,0.005737745352469,0.0251400679659091,0.2767344403505798,-0.9337775324061164,0.4564411819840844,10.05821746318989
6.7700000000000005,0.018764261204469,0.0348298321937221,0.2648796129465576,0.0118950078269979,-0.7415477832903576,9.48171086888367
6.78,0.025923345796348,0.0241085513936616,0.2396922546864029,-1.71251489692613,-0.2490306168312868,9.720642350583764
6.79,0.024970302991245,0.0044262835121499,0.2260044950485703,-1.7356184035215674,-0.0989382279031783,9.983521334121598
6.8,0.0320498454061004,0.0069583052801125,0.2180426854134079,0.0793692051851198,-0.7226305600559751,9.997515334600598
6.8100000000000005,0.0530587053022899,0.0281760126942941,0.2184877979994293,1.1705894867080862,-0.7951403783869285,9.187552486932605
6.82,0.0448825229705705,0.0341179500960625,0.2311642158270355,-0.5894766320738457,1.225300008287426,9.64643318042511
6.83,0.0339189263832117,0.0047059531593,0.2425406563520905,-2.2518170197010363,1.4938792271993548,10.474149474438269
6.84,0.0269548235305671,-0.0154748289974057,0.2490813869476791,-1.3599319148005624,0.7593135864889049,10.250345238336498
6.8500000000000005,0.0404673119536643,-0.0119532762216559,0.2456786471844192,0.581616936449431,-0.8715300130876807,9.333518410688232
6.86,0.0481285376857854,0.0124418625756899,0.2482936668634888,1.6610692232542026,0.0097858388762026,9.13712776782735
6.87,0.0401428192332285,0.0081941675976774,0.2583603847265717,-0.4412177248549646,1.7066175357809332,9.60561325705086
6.88,0.0080657118099717,0.0049769124632037,0.2655265617609497,-0.9744253149255994,2.886837325271981,10.287919527661924
6.890000000000001,0.0014176799899724,-0.0136024438552384,0.2596341955900665,-1.0054174717546178,-0.1340341807908599,11.063863668583837
6.9,0.0280503173443789,0.0036438135501627,0.255300967717218,0.9203738391844212,-2.082933715739629,9.226681983808303
6.91,0.0500828821898264,0.0063236344460504,0.252548157000589,0.1297010885924438,-1.1820845132054585,9.294251983329096
6.92,0.0358061048482397,0.009462523372867,0.2596877801657196,-0.1806875011113462,1.1243654531563183,9.09346588233851
6.93,0.0304131252580729,0.0058622753619724,0.271223841929483,-0.3643028875751677,0.8287668223146669,9.732636135968216
6.94,0.0282146222832458,-0.0072659095974865,0.2658699143171784,-1.4428589258696602,0.1335770252143383,10.201469137492976
6.95,0.0294086689663121,-0.0170450491105201,0.2520977843046662,-0.5030253536630827,-0.3336104849211016,10.385720083435494
6.96,0.0391122282891137,-0.0098454938028085,0.2472136456013199,-0.0267764038088906,-0.0338892776546473,9.24061532200941
6.97,0.0330210615795539,-0.0167058509117132,0.2513741243124481,-0.0818458862368502,0.7593631727588478,10.196224210718412
6.98,0.0414000170218354,-0.0022810274844069,0.2569279659033295,1.307855009217342,0.7793984745824647,9.291935660579355
6.99,0.0308015301496561,0.0014482548894439,0.2540302860975739,0.3373119313603057,1.9199923364599916,9.93414819004883
7.0,0.023749543376315,0.0039544419884692,0.2517990756273743,0.4632674981930523,1.7914147380788894,10.036350550108232
7.01,0.0169306159400102,0.0052120115837437,0.2516880619764801,0.4409296237876565,0.7372812949349901,10.176895797583253
7.0200000000000005,0.0231819886909584,0.0085882853125239,0.2507188904524323,0.5017664585002776,0.644376098315973,9.77090162939952
7.03,0.0113576507940757,0.0149551596918987,0.2543915796518799,0.4877903246236361,0.72981147091716,9.918625630906895
7.04,0.0150727217856482,0.0257990705138754,0.2694517660379883,0.8240159482674333,-0.1190982812215547,9.313042992357191
7.05,0.015963877745537,0.026000583144108,0.2824870336294647,-0.2412338265358011,-0.2770638811530631,9.61122776361417
7.0600000000000005,0.0057554050749219,0.0118094277414178,0.2930431056261536,-0.9939375126884238,1.072505267997464,9.99669323913573
7.07,0.01526176288892,0.0162039693162461,0.2800018477678772,0.1307223847795935,-0.9812554178073912,10.167720994300744
7.08,0.0312851699195521,0.0153996564677745,0.2553477573633667,-0.7481241902584312,-0.8116298181654807,10.094623386394526
7.09,0.0392391255748082,0.0312446745929415,0.2437413770199295,0.4271151867008447,-0.4160528100025613,9.647321474217112
7.1000000000000005,0.0408930747299067,0.0430432768541428,0.2482248383999344,-0.2065172197614893,0.7517557771381987,9.028609294403466
7.11,0.0272024858185721,0.0191456634477014,0.2601320135832306,-1.968511171629273,2.000717913278276,10.155683387867647
7.12,0.0184329701673224,0.0036086808938956,0.2702418852091309,-1.627288037422989,1.329229630097312,9.629543105176747
7.13,0.0335255392412947,-0.0050413498114587,0.2677123534918305,-0.6204284263055919,-0.8357816124755438,9.871392701955962
7.140000000000001,0.053536146838212,0.0095938403380181,0.267714856886911,0.7086896165644376,-0.1334970661740891,9.432165154607418
7.15,0.0449058162623827,0.0204366799756925,0.265815614485788,0.3676751414587453,1.4596869271766475,10.284798415744667
7.16,0.0376499672056139,0.030474637970111,0.2563978719950195,-0.2874453844352197,1.4285411434351478,10.281602985248234
7.17,0.0405738929603606,0.0201656368475246,0.2523270833731171,-1.218848185295573,0.2782778678024443,10.21303265414318
7.18,0.0339460851374606,0.0140099756478733,0.25527590396409,-0.8542152548255543,0.8852505993657491,9.948000244333876
7.19,0.0467424596902273,0.0117101494843745,0.2638382303953644,-0.4887250107717447,-0.2611361645023516,9.351783776419866
7.2,0.0445772709818989,0.0151050454913357,0.2676852929831024,0.1533863032741751,0.9163004300752255,9.470145808684626
7.21,0.0384691860353032,0.0201139354090239,0.2573484170675751,-0.5190379708777563,0.27860303147577,9.349019357527936
7.22,0.0276250724784906,0.0019584501125138,0.245129390382814,-1.8625442902181129,0.3479360726413232,10.056761351292968
7.23,0.0513697724089098,-0.0104705323921086,0.2377003270626541,-1.508346861951919,-2.293214309939916,9.690082397622676
7.24,0.0714587061513865,-0.0190196636227732,0.2317607987165924,-1.1813646541995368,-1.4035882412412055,9.571358320491171
7.25,0.0794148073717778,-0.0325797252740254,0.2280793476343628,-1.143831853840264,0.3427873999864521,9.86692765735308
7.26,0.0499525388215527,-0.0346952896445309,0.2280873495579239,-0.1905137962771309,2.231528320676373,10.485676995011907
7.2700000000000005,0.058965323375426,-0.0261759719878761,0.2255962032318588,1.0712417888882937,0.3221330597619601,10.074891986881482
7.28,0.0565998605398135,-0.0134078940814639,0.2301919299602982,1.075728132722199,0.9617801088666408,9.6972233277411
7.29,0.0480576902102183,-0.0044404803644387,0.2437566060066696,1.026162658229321,1.2056828226634764,9.946277789489434
7.3,0.0496979277905291,0.0026872145827472,0.2637685227632996,0.7966064570477387,0.7196554114177002,9.699489160329314
7.3100000000000005,0.0360485260941555,-0.0038148285386166,0.2844567287207123,-0.2907619310851193,1.503748855709264,9.876596335595748
7.32,0.0274268619430462,-0.0173651415564163,0.3096049416304108,-0.2971015357895927,1.3134539392396385,10.046675105275144
7.33,0.0267378449364343,-0.0270597485192464,0.3189793217421051,-0.4709523921705759,0.4579129770010666,9.94101714562784
7.34,0.0359864454756126,-0.0197639683077541,0.3195874977350708,1.101379597492868,-0.2706593593134848,9.897981036503904
7.3500000000000005,0.0527525819532184,0.0034129008567861,0.3207076776266571,1.4107951146743978,0.178540081022407,9.102902628014023
7.36,0.0231642439504007,0.0013127709607731,0.3229607033968445,-0.6482077335001492,2.640914819139295,10.213065676158893
7.37,0.0059322310386899,-0.0167708248019375,0.3283990609884735,-1.7968446673695246,1.3878928511092523,10.051099803411995
7.38,0.0248545237368735,-0.02469423515547,0.3334500181913849,-0.5328097017785235,-1.1102576590735176,9.77617783784726
7.390000000000001,0.0468818257569962,-0.0132698373276159,0.3381721067667481,0.4415139054974787,-0.7608067045010061,8.971744195490091
7.4,0.0354399965184364,-0.0081469592984608,0.3451479959726807,-0.0001363642947717,1.9508941489459628,9.437193231565406
7.41,0.0376108977889059,-0.0037563157982024,0.3371291148901459,0.2819022622227947,0.3433782889544723,9.835635099425351
7.42,0.031834807011816,0.0054553619499398,0.3201626527548309,-0.0704386309409754,1.2691513079803802,9.620585388250214
7.43,0.0278982446310167,-0.0016794350848288,0.3045279073954102,-0.8590968802075989,0.7432674596387079,9.9157732412029
7.44,0.0230950485968326,-0.0078316220187357,0.2965679455042359,-0.7891656088462334,1.221229339088031,9.730217041998468
7.45,0.0076686544518623,-0.0139430445295445,0.2961590576410767,-0.4186234565971199,2.1613466008165187,10.047316070495087
7.46,0.0036639977015643,-0.0167705951962869,0.299498646283197,0.0725273577727148,1.5344618284375433,9.94806822459135
7.47,-0.0067668523671083,-0.0123910291082431,0.2979697275400635,0.4916817356988225,1.863908925908154,9.946678668969936
7.48,-0.0282121922866591,-0.0118991707446902,0.2978734362364288,0.4666097631417074,2.485904477613645,9.93645525519068
7.49,-0.029842266641547,0.0060040327311063,0.296764283204126,1.575636651698205,0.7797509875632764,9.625308686385894
7.5,-0.0246131082465014,0.0172093361200598,0.2916515159845825,0.7418282641273833,-0.1390465582307103,9.223219707691428
7.51,-0.0144801189041667,0.0381062746300242,0.2980469155550476,1.251085075353663,-0.5490465948780383,8.922374864623151
7.5200000000000005,-0.0084876031000821,0.0388609225874651,0.2928551423788544,-0.5135680395293473,-0.1728046929586447,9.540413173785206
7.53,0.0018635037499244,0.0283847296558783,0.277394919419336,-1.2093778054342643,-0.5792392951353842,10.008452494068871
7.54,-0.0087588554844471,0.0244817856032977,0.2536254811525818,-1.123354741119416,0.925766176835584,10.027588116812714
7.55,-0.0122398913252619,0.0110654078517099,0.2261058378458496,-1.4510352785891798,-0.2358240425861912,10.74784392816305
7.5600000000000005,0.0132067527128985,0.00334970719585,0.2072664040565964,-0.6944606265381771,-1.601895420006996,10.018685918639012
7.57,0.0261726923424446,0.0185579328405324,0.2077097136021133,0.9001143134976224,-0.1316955552123416,9.177819512156985
7.58,0.0014921465971554,0.011523068264396,0.2146324354649063,-1.1238906669337538,2.374402604332019,9.08887841041894
7.59,-0.0005232974716231,-0.0006083454064108,0.2295633840799805,-0.0584675602817558,0.6987445927980308,9.827405236892949
7.6000000000000005,0.0025423134026196,0.0166923919026905,0.2424792933702942,1.5450151786134805,0.7052149963785554,9.58322588020725
7.61,0.0043401583115404,0.0232653845577397,0.24196424963479,0.415056477130242,1.5320338669123028,10.095600368094088
7.62,-0.0197071487796815,0.0158523730316961,0.2277052092791077,-0.5480362938688578,2.078985518791421,10.597400977750144
7.63,-0.0119046394561556,0.0082740151930708,0.217399595999765,-0.3064811393591107,-0.1868645544241798,10.454662169904584
7.640000000000001,0.0061422703245618,0.013950751708595,0.2174744296312805,0.6453708762895565,-0.7903995530510164,9.408942301289532
7.65,0.0072942850174136,0.0169839587697486,0.2226714033127304,0.1173309250136581,0.2656582881398021,9.299844373251986
7.66,0.0054534455408479,0.0149965208239051,0.2305167603731628,-0.013854867420606,0.7006698930018508,9.52604516426422
7.67,-0.0021106928204192,0.0140211787734507,0.2321254450321671,-0.1803314596745207,1.350656826867603,9.70026992186067
7.68,-0.0257305917463877,0.0090568817885021,0.2220293718815323,-0.42699649715776,1.982811981645896,10.148409701814437
7.69,-0.0310939375307218,0.007893493855104,0.2007516908884521,-0.8234204137427401,0.7534719439229817,9.594627691387304
7.7,-0.0268767913869198,0.0113356015696327,0.2015512424946304,0.5764064263258479,-0.701920202718877,10.468137739543232
7.71,-0.0046089095718038,0.0331704215638455,0.2064210760832306,0.8865754124831537,-0.287112167137886,8.936629755106175
7.72,-0.0174424088390276,0.0432296436156534,0.2242088902235504,0.6867651746368808,1.727760954518587,9.742248512279176
7.73,-0.0397992896992511,0.0327124676535877,0.2412204581737991,-1.6441501145834287,1.6121412026563946,9.531817856993214
7.74,-0.0081966003392759,0.0083846372835505,0.2503299701452728,-1.6061473573212537,-1.8907871331510109,9.882990092789717
7.75,0.0167856487036338,8.256026689702229e-05,0.2547837484121796,-0.5611890381897978,-0.902171942604621,9.723658504351334
7.76,0.0209091507014792,0.0048008143534489,0.2539815294981476,0.5108446827054294,1.0158927244697455,10.093341559416729
7.7700000000000005,0.0044215632290518,0.0052380987284381,0.245347006940889,-0.1632466390557021,2.4697116843399503,10.310809291489434
7.78,-0.0125338802770156,0.0097434170286543,0.2354239362717148,0.020106642438582,1.854000136392156,10.225051102243553
7.79,-0.0014594143435515,0.0252952295602728,0.2436662453651901,0.7591826036754344,0.6168920118540261,9.328257406199212
7.8,-0.0062821722222949,0.0178473276879423,0.2532874334097382,-0.1058819783987393,0.9383221578837332,9.647239727837444
7.8100000000000005,-0.0125130059883991,0.0172552582173094,0.2559470522642609,-0.0046983003498156,1.2959232632057087,9.911327359582025
7.82,-0.0108213981729783,0.0140750699226566,0.2505646634340759,0.3120439533919952,0.0071210428528118,10.306910488713338
7.83,-0.0007376025714325,0.0361078567646665,0.2448352563620087,1.363818858193073,-0.1915810737178151,9.455882077764375
7.84,-0.0116044918568297,0.0314270416465595,0.2331305283546921,-0.7596863506950172,0.8235229307161165,10.056700065421362
7.8500000000000005,-0.0190288952268756,0.0154287832475341,0.2365628469229218,-1.015248468000588,0.7118379388605555,10.17492595706814
7.86,-0.0004489869120752,0.0237248137644688,0.2391710865736481,0.9395337520537116,-1.6734993594187972,9.687984068558867
7.87,0.0256780954338142,0.035891077712819,0.2373554396868225,0.4230042768388377,-0.9984661556356174,8.965245230586335
7.88,0.0199024436304781,0.0284864034431675,0.2338678378105637,-0.9501893976547444,0.7948250029521542,9.742948295912411
7.890000000000001,-0.0037006873137995,0.0085241455030535,0.2366990584373947,-1.8383773092417677,2.126389229963208,10.606285459507118
7.9,0.0075518563041906,0.008889509925647,0.2412838179111954,0.2162586892084764,-0.3040992013480837,10.141961213805311
7.91,0.0141570498634974,0.0290419612285575,0.2509260463953491,0.7596129201503833,0.4390846722059336,9.41095102213234
7.92,0.0126681831432501,0.030259074810808,0.263887165808725,-0.2112624946106667,1.1657452947057578,9.98566922283282
7.930000000000001,0.0103382875642321,0.0272157467355909,0.2673155057669159,-0.5633238495104476,0.49445850895251,9.967823072914364
7.94,0.0211717389396818,0.0314834885381567,0.2708623695612427,-0.1082439546806253,0.2454555820589838,9.149325836227378
7.95,0.0119571069760665,0.0219133423211328,0.2643216538668152,-1.4929964331915777,1.5129062741579469,9.64799406904018
7.96,0.0038797444228906,0.0127885240495257,0.2519507694483276,-0.8543394200895856,0.6717760306424282,10.249870286494726
7.97,0.016682681428242,0.0163218375465345,0.2421573090792175,-0.1561653068676956,-0.6583334184653513,9.775595937258592
7.98,0.0360641055716546,0.0157211952294805,0.2363252032042023,-0.8292224610613012,-0.3942834334064106,9.503956045169266
7.99,0.0282470445321692,0.0049741725141197,0.2475672352552887,-0.8817844708867488,1.104866772186821,9.768512860331333
8.0,0.0264840032267941,-0.0058401701554846,0.2538261997938629,-1.0298301648715082,1.034030823674316,9.671095961315949
8.01,0.0303820253115964,-0.0084174311242173,0.2567825305700775,-0.2400036940071494,0.2717390653606628,9.567900359136503
8.02,0.0376640792181154,-0.0006414138247648,0.2550415385008331,0.5362218587668858,0.4400083090967387,9.467072236315392
8.03,0.0292922918277716,0.0064700968064361,0.2490912813187119,0.1299551391647693,1.5833424987004612,9.8414981504934
8.040000000000001,-0.0008244133391969,-0.000637922565697,0.2449760723352905,-0.505920206055313,2.6331455908310346,10.673023272053117
8.05,0.0030895216540312,0.0141001575511435,0.2535476672888275,1.0206666242014066,-0.0054000134055968,9.832302547567052
8.06,0.0173507906792443,0.0230443305539869,0.2601548123598572,0.4831863633612444,-0.0748763164491206,9.399253363479662
8.07,0.0153828262531425,0.0250492095152306,0.2753987300634857,0.0790511442795394,1.307965446015635,9.401202231859772
8.08,-0.0030837470588057,0.009557850936729,0.2797066557646271,-1.3249692550579453,1.6977038673727816,10.00721187509639
8.09,0.0046654140012889,-0.0031054285329481,0.2820136535406586,-0.4451325848051138,0.1021509626030984,9.878198157753248
8.1,0.012824953190101,0.0083039613687495,0.2784954297781464,0.8767196933889551,-0.1949721099942711,9.55979147440551
8.11,0.0143528636333151,0.0130959953926081,0.2709732043982025,0.2264158440508182,1.0188313562777618,9.970166842166025
8.120000000000001,-0.0079021668211974,0.0111633320984887,0.263556777262735,-0.0822974268066092,2.1303613265437344,10.189394259792213
8.13,-0.0225084791411224,0.0065769841447465,0.2645435321569916,-0.1037420427719416,1.3274536101204877,10.100471821648608
8.14,-0.0073962212461176,0.0110143013400251,0.2587492156267639,0.3668295617567427,-0.6386388427699696,9.3479095242746
8.15,-0.0027475432001442,0.0031020108202797,0.2547012555838104,-0.4140297269426753,0.2664537318049468,9.744194626265475
8.16,-0.0048118770846156,0.0066574647784261,0.2438692587852951,0.4956457187398493,0.7311760955184035,9.876543074996093
8.17,-0.0157439198102748,0.0022690619584556,0.2316060650587555,-0.4134059346593141,1.089688385118143,10.232209084777418
8.18,-0.0249030875146152,0.0133024641584027,0.2255181807518478,0.6332883429749904,1.062406909159285,9.699261029787303
8.19,-0.0239310579060816,0.0165156218211402,0.2173287409782883,0.0820992030812098,0.0417593908103166,9.326524220695273
8.2,-0.0050436202317351,0.0236125026961492,0.2142194050789352,0.4078193537452027,-0.8270882564775038,8.885839955208997
8.21,-0.0080698469388781,0.0208694684241152,0.2241182613611694,-0.5207673169254441,1.227267158565901,9.29906021620115
8.22,-0.0304287629030274,0.0009380231005589,0.2205948370934006,-1.129411479789524,1.970937439156252,10.9420460164536
8.23,-0.0274953637480673,-0.0030486662937509,0.200675888681459,-0.2187444368766598,-0.074928100764543,10.866119584206826
8.24,-0.0027127222875697,0.0134835525932612,0.1786076563835617,1.1097792653224148,-1.1820065102636883,10.013945345553989
8.25,-0.0085837647606819,0.0322967335836703,0.180231644535112,0.7170577308786158,1.3448395204015742,9.400169876037149
8.26,-0.0213125347428116,0.0299093996730226,0.1965751040220734,-0.1193427718884715,1.113894021370062,9.5975101050856
8.27,-0.0010006777782602,0.0438595965818322,0.2238977837801453,0.5368434853782666,-0.8624400488144143,8.395625086522363
8.28,0.011892152692585,0.0384547076828962,0.2496615785599228,-0.3725521744695593,-0.0467998112903989,9.446776435440976
8.290000000000001,0.0095459445004044,0.0363010850584417,0.2658792722464081,-0.2261765004957962,1.856745985931354,9.863950663682829
8.3,-0.0018678872958963,0.0289120867501105,0.2565245020628449,-1.1936041402783972,0.8741110858588247,10.90178553705599
8.31,0.0019689542347037,0.0156285275657274,0.243134601736116,-1.2943292997897349,0.4259165738800143,10.684100842921984
8.32,0.0165201349874153,0.0243631444453627,0.2520843136549469,0.6252310109867689,-0.3686111251650873,9.829954025901298
8.33,0.0138498329349156,0.0264677084486325,0.2668826270342346,0.0668348587175873,1.302252572701104,9.178726474536308
8.34,0.0019120246915734,0.040681074869582,0.281342296624231,0.9656347020448351,1.2972991218499377,9.057267102370057
8.35,0.000363104578893,0.0328481971467135,0.2934885907412048,-0.6852809950234102,1.0477851025104985,9.38076307504508
8.36,-0.0118839971935417,0.0263626074642831,0.2847845542669769,-0.6352267705979674,1.6735624395039566,10.112442852591691
8.370000000000001,-0.0175186254328305,0.0182914865850337,0.2696543920279022,-0.7734861703635919,0.6739522577056973,10.44706104394888
8.38,0.0005282956209954,0.0255986727681665,0.2502246338367935,0.1997374189888688,-0.8619590153117804,9.903360729370206
8.39,0.0134578188944847,0.0281772002855197,0.2410209763288971,-0.389606386648606,-0.3343692489716054,9.702743483063587
8.4,-7.6010166818694e-05,0.023040599998301,0.248778431439447,-0.7596174789638585,1.7723505186673432,9.715204751675676
8.41,-0.0083709763282789,0.0072589081093383,0.2575340259314057,-1.1744765445335414,1.0504313782940744,9.766377898837272
8.42,-0.0098125386423242,0.0099783717898455,0.2683902073145386,0.4635789668902703,0.5731139300965243,9.737643510165864
8.43,0.0024770818594049,0.0181265111478612,0.2676067638636109,0.5325665065779349,0.059539758544193,9.404960284373294
8.44,-0.0163098221829013,0.0226412207015877,0.2649469363928314,-0.0073572802440242,2.085048432267227,9.886270204414462
8.45,-0.0277965019654656,0.0133410821529274,0.2639930832624909,-0.6525700154466134,1.5437293765221425,10.466346180746058
8.46,-0.0322355540211146,0.0048655953602182,0.2759109127760407,-0.3478757719858785,0.5686653010356179,10.122017356454965
8.47,-0.0093111069744493,0.0137850749817748,0.2963834095240112,1.0863656673430555,-0.914400322783814,9.417556852888705
8.48,-0.0037634574318839,0.0148945780113946,0.3116925049067017,0.1835731107277527,1.083492051847218,9.344642506242874
8.49,-0.0236440474691932,0.0055970332738518,0.3151933837175842,-0.6097660965255811,2.45725452394228,10.189082483003656
8.5,-0.040238113022546,-0.0097701396463276,0.3069461274385925,-0.888363186160263,1.5582734288058508,10.723983288116676
8.51,-0.0293034546347791,-0.0111887682311143,0.2868725645781037,-0.0951839173573733,0.2214968267611995,9.989664668679076
8.52,-0.0332888779456033,-0.0070841519761112,0.2805154311895844,0.4829476861760189,0.8229270755728073,10.07053771787191
8.53,-0.0364424659807741,-0.0002862652761135,0.2872488188982483,0.4847466264385275,1.2069368803011138,9.519548886522797
8.540000000000001,-0.0398624037884232,-0.0008971098522206,0.3069355178118225,0.2538108847186367,1.5159959315826743,9.66671982305797
8.55,-0.0442314998307325,0.0037193997364769,0.3269658375025269,0.64647801333844,1.5095184779716049,9.562536811163811
8.56,-0.0450629491767228,0.0184380185681036,0.3375968325376984,1.123165669283407,1.4693764131242022,9.583619290340527
8.57,-0.0542316850523122,0.022362811084901,0.3358759272337433,0.1183375922060598,2.105726680391278,9.840000381505972
8.58,-0.0731459808678942,0.0274478417561818,0.3246901917696472,-0.0893466413578657,2.078870158075187,10.206944900450432
8.59,-0.0872812876322688,0.0211542746022454,0.3118122506380554,-0.5355706561989275,0.6174395485503312,10.39578016419628
8.6,-0.0689580105785356,0.0278488785073228,0.3059827971697327,-0.1487349251733373,-1.241699322538734,9.365595837947804
8.61,-0.0508483644962219,0.0164718080349655,0.3029325294733521,-1.206296329523307,-1.9842807993765923,9.770281366149016
8.620000000000001,-0.0137708804788953,0.0005666991674875,0.2961042809725281,-1.827127779223223,-3.068252891256618,9.356560763022117
8.63,0.0138369823157124,-0.0267924875859928,0.2910307336092468,-2.3053903003238614,-1.4980038380595373,9.521688806250822
8.64,0.0107151817657228,-0.0307174580031538,0.2801329779863831,-0.6024274887557657,0.6620504598683081,10.026094586750604
8.65,-0.0148538651129176,-0.0229844900202449,0.2579272675753113,0.2747589966184515,1.3668119111996762,10.47874802917932
8.66,-0.0146696032481833,0.0062613368845308,0.2377932209015366,1.3664973401987706,-0.5285352935258978,9.571412266197727
8.67,0.0054038190029462,0.0281891352327207,0.233595206165361,0.6654309896247342,-1.7431212890151162,8.736660190566084
8.68,0.0167583404829959,0.0372775698396377,0.2428036916494843,0.1542917276718232,-0.4179908836325101,8.967619963128543
8.69,0.0187625444049271,0.0416384074319482,0.2467390883207794,-0.2186246388071756,-0.089661947165796,9.260630869767654
8.700000000000001,0.0235459921773585,0.0325356695556423,0.2461930799723145,-1.153679122134867,0.0863619146864521,9.630319950520471
8.71,0.015414236388301,0.026321178306027,0.2386549550533768,-0.6819681118559119,0.8727429835533399,10.162907026958528
8.72,0.0156541886291634,0.016930431768108,0.2352381336927887,-1.041495446019119,0.83595258570606,10.192843162529432
8.73,0.0109986568764768,0.0110186733518774,0.2431811678648468,0.0628310210705081,0.793824670126615,10.25273805538461
8.74,0.0212820932658342,0.023742752823274,0.2663173663855072,0.546271889299674,0.5421847911997871,9.1859627749432
8.75,0.016482910211822,0.0109556569243084,0.2976290869951721,-0.3919584137970487,1.9816123471843765,10.032643550545275
8.76,0.0178493549460583,0.0169707657233051,0.3197789478540894,0.7279737808719176,0.9411837162112608,9.678441072038678
8.77,0.0223439227039894,0.0213991010083572,0.3336788106203552,0.9644506496862956,1.494916019023991,9.967538288406422
8.78,0.0016051647675865,0.0234256020359261,0.3130791473627564,-0.2568977268832213,2.7273962750754044,10.133269977335894
8.790000000000001,-0.0183153453002042,0.0110768702806794,0.2910978782415863,-0.9255581896941262,1.8836163931075276,10.779192482756876
8.8,-0.0248031643465336,0.0176247092092992,0.2890407729387756,0.6527571044508645,1.077882007813487,9.900311053171798
8.81,-0.0257258578007932,0.0234341144420964,0.2984046626329895,0.384017266018417,0.8410778667894336,9.653728961078546
8.82,-0.0302342898960039,0.0241715926110207,0.3105017829180237,0.0423286357444377,1.0233911164342744,9.699905979623338
8.83,-0.0332612272701644,0.0288244516724692,0.3159235406160828,-0.1285274013743707,1.0649803671950266,9.525425095596583
8.84,-0.0414099963414666,0.0127382083763276,0.3157916653395172,-1.7868586350145796,1.1285733815055172,10.153192698913394
8.85,-0.0348334901450416,-0.0005139114012157,0.309023587727594,-1.2800501021358663,-0.0685893402830093,10.008145704728644
8.86,-0.0118749095897387,-0.0107487475035263,0.3047034728765961,-1.5674881550148707,-1.3356240030177626,9.831073329231309
8.870000000000001,0.0025816877604804,-0.0275802859658946,0.3144576835871216,-1.515589340625121,-0.2233009938425096,10.277702075600356
8.88,0.0054276555699928,-0.0326401148462191,0.3310546863317963,-1.1985566468153366,0.4774244925701092,9.756102859225397
8.89,0.0149625648456024,-0.0478640937088728,0.3437639463186737,-1.2095635361833426,0.0794393708065758,9.797768684327554
8.9,0.0160275582578084,-0.0401319267680762,0.3566171515226837,0.1981263340434525,0.5274709541565151,9.335024536701283
8.91,0.035159467488735,-0.0292920095255282,0.3613019573927399,0.5888586158036954,-0.4793016715755915,9.133663426676843
8.92,0.0278031775959814,-0.0264395984789485,0.3615368891001221,0.2881593595744113,1.1374978551792445,9.843273635781626
8.93,0.0234144204192458,-0.0088435059425449,0.3554109621286865,1.3060113444462578,0.8547445962990389,9.602275051918475
8.94,0.0216169118302474,0.0143733151975988,0.3516462135553833,1.7405242947672723,0.4313337139502199,9.186542913911415
8.950000000000001,0.0399067512463305,0.0405079981218954,0.3468669939280029,1.875447414572987,-0.8677478636607068,8.777992424156702
8.96,0.0537008886564685,0.0691949157913472,0.3402789223433014,2.491026716338076,-0.7329339478085347,8.170595945851924
8.97,0.0277936861848322,0.0821233254640855,0.3339895892382141,0.9089375050731006,2.718761174600837,8.618830827243354
8.98,-0.0605271398205199,0.0564366929482159,0.3068647074938294,0.19557520428943,2.866326095497153,11.54751768561716
8.99,-0.0543095861876457,0.0454238535297986,0.282200633311319,0.2929071240222702,-1.2352799852534786,11.28622934222366
9.0,-0.0299278056801892,0.0512238115188674,0.276734142327356,1.26393994706399,-1.8038380566519665,10.273353840451035
9.01,-0.0169343254764275,0.0543354692258411,0.2885568130255219,0.9836979853082416,-0.2863039868674307,9.706760586151058
9.02,-0.0302820239430371,0.0459465457156462,0.3071163285017487,0.093692491947529,1.316840959803179,9.599545439556948
9.03,-0.0491479738894611,0.0415618774006228,0.3240205931902405,0.6385379122556383,1.718963363343312,9.574608917731355
9.040000000000001,-0.059224592407349,0.0453337592426808,0.3332702207804199,0.9325051651916036,1.0091083426880243,9.271924944989628
9.05,-0.0798992189502296,0.0422503710076223,0.3230607497931,-0.213267873878887,2.046229148650481,9.155678136341296
9.06,-0.0894858217396411,0.0508016935695059,0.3130133140326019,1.1287551393841169,0.543411716089157,10.24741474770947
9.07,-0.0783219885439713,0.058305962872149,0.3040772664785858,0.2189405912934515,0.0805462806194115,9.916644925084912
9.08,-0.068428842977103,0.0624592966518175,0.2997316110373016,0.3753295533031451,0.0195846458695102,10.379837086919158
9.09,-0.0687147520727283,0.0598459376935264,0.3050187814474579,-0.7943235267571559,0.8341582760311277,10.159013654162012
9.1,-0.0626821456922336,0.0409714761064318,0.3157609689474579,-1.2139354833871097,0.4357485769206226,10.55730435948368
9.11,-0.0460841227830355,0.0355689514230252,0.319864242100763,-0.4332533346840469,-0.6248743441055912,9.617979099223712
9.120000000000001,-0.0231890915904129,0.0487115383268424,0.3229952144861694,0.4825076672006908,-0.168275605061696,9.183767818137175
9.13,-0.0456224811108004,0.0482138805967907,0.3235483455896851,-0.5677857935147474,2.4924993440237024,9.64343425482865
9.14,-0.0554880282711583,0.0659737549578515,0.3275074947119232,0.4409216222939261,1.6212993204818726,9.681380848609203
9.15,-0.053914840359869,0.0681998138008812,0.3336216199636932,-0.6982142983772901,0.957152834635011,9.543332030856767
9.16,-0.0592689235627129,0.0706790622433623,0.3384727525949951,-0.7140151191496192,1.145845972751747,9.501027078583178
9.17,-0.0504025131354073,0.0665711634555665,0.3495284307241913,-0.9623301231472275,0.3386337973842815,9.71516526030665
9.18,-0.0336268502734853,0.0683821162888665,0.3567928362131592,-0.7809649647337458,-0.1456510446169378,9.286289420712622
9.19,-0.020922798620428,0.0601013661085014,0.3589035558939453,-1.097018466508017,-0.0095764599281365,10.04485615498772
9.200000000000001,-0.0208823494483201,0.0594107197462414,0.3611721086740967,-0.8779424044322128,1.2130493600279295,9.846165417293037
9.21,-0.0388359540206635,0.0587511876884908,0.3654960084200379,-0.769612333256598,1.8971500519194324,10.377851820003578
9.22,-0.0394408740240912,0.0601227150365999,0.3673027444124695,-0.5122284003589918,0.598774720870715,9.82627759563992
9.23,-0.0340546258785758,0.0545394393187826,0.364498852515268,-0.9046664943977192,-0.2604114723867395,9.858520962028685
9.24,-0.0163617684533818,0.0478698606284296,0.3672095525503632,-0.735326897089224,-1.1105094945305027,9.38931575209403
9.25,0.0099426764288804,0.0483517073227767,0.3663867402315613,-0.3734156918707921,-1.5187848070731502,8.899897089734434
9.26,0.0120808769635042,0.0355968219288956,0.3631062793970581,-0.6823955625061751,0.3774624279066569,9.766586198779793
9.27,-0.0109210583396238,0.0433068042321434,0.3593595016241547,0.5605499718976956,2.134842821139395,9.83319949425944
9.28,-0.0362968226579545,0.0547007607905779,0.3457477081060883,0.6036276813526521,1.4063478885394862,10.319471432692737
9.290000000000001,-0.0390112635638142,0.0647838292003842,0.3320242154837128,0.5357024168608013,-0.3677980497422956,9.788322143230168
9.3,-0.0419905425120472,0.059312979171549,0.3291489768267151,-0.6999948985208957,0.0761186436569262,9.859248085738605
9.31,-0.0246761574877012,0.0447978896795232,0.3280169356108185,-0.9575766712441554,-1.340574998526777,9.702820894530731
9.32,-0.0086453297446559,0.0345422862581586,0.3243969369173523,-0.3361235722344279,-1.312980108383637,9.779194132689096
9.33,-0.0031412409454094,0.0351225260036109,0.3214546728373047,-0.0648029363484272,0.4834738964208701,9.611464325503688
9.34,-0.0267403404542973,0.0306130702554929,0.3080030966043945,-0.4209270365147257,1.5558014463202752,10.459942769582586
9.35,-0.0447615374394908,0.0386577533065727,0.3035911906004425,0.1186627425235567,1.5168506678802938,10.002454145797255
9.36,-0.0524698665124625,0.0356109296754156,0.3003936994314667,-0.3684537895189652,0.046686325259325,10.132953049518528
9.370000000000001,-0.0293867238278677,0.0434270634820311,0.305718539977121,0.5331366439472583,-1.33168488245502,9.437422986077877
9.38,-0.0161617219161936,0.0375746898685987,0.3092438864946839,-0.7895314682433571,-0.5141840625141733,9.359130212496895
9.39,-0.0222815954008622,0.0288419468314727,0.3039565670729157,-0.8821598617034531,0.9356546487941452,9.50680698907513
9.4,-0.0308457214181703,0.0170111136482856,0.2955664980650421,-1.7702304282945662,0.5878162942331305,10.331126192777765
9.41,-0.0162274637198666,0.0041360197107316,0.2935353803873535,-0.8043900359551931,-1.018719392584415,10.385000539460444
9.42,-0.00445003257952,0.0130349205857328,0.2948041248560425,-0.1391061643169087,-0.4130988134099737,9.360830088200174
9.43,0.0013141202903575,0.00021890418511,0.3032644975424286,-0.9514085779042528,-0.0902447927599502,10.132394165344245
9.44,0.0012490409413191,-0.0073553364318385,0.3045777368784424,-1.1209909417348674,0.3486854082397285,10.02363614205321
9.450000000000001,0.0014563983967753,-0.0217002162390319,0.3116498577833649,-1.0131244810748137,0.529565728486968,10.37670150106237
9.46,0.000659017910813,-0.0242351051770661,0.3127203572035309,-0.0478565621372541,0.685841610099202,9.702040765056507
9.47,0.0035768956172478,-0.0102247481455834,0.3132617759943482,0.959567621993794,0.3896524237523907,9.631538178072008
9.48,-0.0024447109580984,0.0001998856841351,0.3237529087305542,0.6473436568555381,1.337001909680916,9.551651657589048
9.49,-0.0095712446600832,0.0122805012517602,0.3315412092447754,1.0660644262003334,1.527752341291316,9.686166553396346
9.5,-0.0032065844353582,0.0346971833598071,0.3452800798655029,1.944381912443708,1.0333664076802636,8.963875245541349
9.51,-0.0277180056782618,0.0678299098358315,0.3529067325830933,2.228296957241477,3.551680611509602,8.66083174174024
9.52,-0.0769621889018166,0.0661156687875128,0.3563464570284363,-0.2685277931219436,4.249186672322782,10.099237911526789
9.53,-0.0709705762725022,0.0587196423398146,0.3510290372610565,-0.0701228724101278,-0.4405745545657361,10.156085755204147
9.540000000000001,-0.0464978837275969,0.0581822186707474,0.3438841688871857,-0.178061392475357,-1.4104003169782582,9.98388680404217
9.55,-0.0229491662613993,0.059991479568709,0.3453545260668274,0.5401761308386424,-1.2059932158335345,9.988356031153463
9.56,-0.0266917963380171,0.0699747409977366,0.3405297088861939,0.0318495123136396,0.854402571088129,9.63361963290108
9.57,-0.0407798651576835,0.0554836670794205,0.3289962399244782,-1.1654719941606535,0.7944597024885908,10.504210404194524
9.58,-0.0452098885759496,0.0573878300094405,0.3220247912645813,-0.3315537492384608,0.162907066489655,9.636484259780216
9.59,-0.0373855611904721,0.0406963895664545,0.306677191281366,-1.633463470698616,-0.7290656301639878,9.92347549267366
9.6,-0.0322373482168849,0.0366291797085988,0.2943640935659882,-0.4822580710204895,-0.9758048571789344,9.78015110459073
9.61,-0.0145078906893068,0.0394144102446388,0.2960496235132691,-0.059353170627484,-1.190100752020002,9.427786013397933
9.620000000000001,-0.0219384021890371,0.0376493777860143,0.2965762007475372,-0.6566430313914298,1.0310244320841673,9.534310057476787
9.63,-0.039870653559866,0.0279259313666738,0.3036110687494751,-1.1242551555632678,1.0225957122750204,10.244669288929618
9.64,-0.0314387092663564,0.0141520374523364,0.308476804518747,-1.3789411040913029,-0.7803550537367789,9.897165360981282
9.65,-0.0113642040033388,0.0026062975684524,0.3150364148855682,-1.1550237307075977,-1.2900656918223028,9.965410565679257
9.66,0.0074472696640603,-0.0051317151598801,0.3194468903780457,-0.64948964245898,-0.5921645334381536,10.068074475582952
9.67,0.0076973061628986,0.0002569176875274,0.3148255932569977,-0.0526334143222145,0.5688220944853748,9.8102235600124
9.68,-0.0145192559730568,0.0009415794307688,0.312568931603479,-0.8957242568462397,2.408179868927754,9.593631387501093
9.69,-0.0333110105963694,-0.0026083382101431,0.3150843966246124,-0.8626677933067817,1.7718129267964364,9.808036874242216
9.700000000000001,-0.0332075242695778,-0.0045728017878856,0.3272629070520874,-0.781549885787421,0.2487631593480226,9.659489525630532
9.71,-0.0180710149078058,-0.0021760635992963,0.3427744496107575,-0.2502423357189645,-0.5312175380712626,9.297796356728073
9.72,-0.0085410061039634,-0.0002582876485956,0.3497179436922547,-0.5388823245622485,-0.127116334813777,9.5407457841841
9.73,-0.0118464287493673,-0.012177004170611,0.3502692270517822,-1.365981321072408,0.5936788900709953,10.24837723367369
9.74,-0.0134799653513361,-0.0119767555253526,0.3438847053289887,-0.5107301075293578,0.6945445283267649,10.338075643362394
9.75,-0.0160169608389573,-0.0122707435414021,0.3416135299444672,-0.6346275656530137,0.6721422600965278,9.82196539554804
9.76,-0.0284691679134602,-0.0141880922314644,0.3512155401945587,-0.262109977290002,1.201016980570775,10.015942618268443
9.77,-0.0149817704684556,-0.007426207049215,0.3625518369913574,0.2428585627133572,-0.3639379644746505,9.528995203615356
9.78,-0.0072149082656995,0.0049319342034971,0.3766289341688629,0.4638603819162972,0.3865257718569477,9.242617643060433
9.790000000000001,-0.0268910587287261,-0.0043029233675411,0.3802453267813202,-1.1923147162416323,2.1275131896027,10.014769287109164
9.8,-0.0278624626689699,-0.0249964197194823,0.3753633189440247,-1.6913649900539212,-0.192589207586341,10.073280693575152
9.81,-0.0073655952374202,-0.0356384989824055,0.3650808918714996,-0.6667940024845581,-1.4448152740237636,10.134688313077604
9.82,0.0046707660388294,-0.0261662626705199,0.3559666860342499,0.4626155624516447,-0.0355727687375175,9.62913218596294
9.83,-0.0196368089542854,-0.0167217281329668,0.3555937397718903,0.4844129341600197,2.4236555772886725,9.85430599610658
9.84,-0.032408457388671,-0.0114272583795554,0.356571434760141,0.0412800477396368,1.18538342628884,9.93362952843886
9.85,-0.0270642903741947,-0.0190214356676072,0.3535817253828522,-0.9082825251297616,-0.1571013433339149,9.756970436093065
9.86,-0.0190277853845304,-0.0300860778714546,0.3452319789171692,-0.8203991464777781,-0.31098642938916,10.021379978676867
9.870000000000001,-0.0076182705302018,-0.0363299917633953,0.3347364056349274,-0.2039209764806239,-0.6666500150195862,9.957133782396731
9.88,-0.0030591659050774,-0.025736392132725,0.3200831997633453,0.6737392019281678,-0.1203226437843682,9.968314540047231
9.89,-0.0088533021684613,-0.0062788041688114,0.311075954461145,1.1014778888659047,0.4173488082746605,9.877745900127096
9.9,-0.0068826499294283,0.0027657565420462,0.3054771113634583,-0.2082269424031848,0.1387276915598703,9.51083628213529
9.91,-0.0195957222379331,-0.019012054194571,0.3083026099443909,-2.0631856967534747,0.5158977660751419,9.85048511209608
