time,ax,ay,az,wx,wy,wz
1687553959.786701,0.0012933691527535188,0.11982233091797916,9.869449515985417,-0.0009931762595425846,-0.000777031709013621,-0.0008655382558602
1687553959.796741,0.01780041270875804,-0.10155458281918027,9.769320778294464,0.0013522699786335994,-0.0006794153123454789,-0.003638637369116
1687553959.80675,0.10014445085993443,0.36511443436272045,9.883281416473197,-0.002706440449459611,-0.0011573856008205278,0.0001074982568722
1687553959.816748,0.25728666768512876,-0.05333142247628746,9.660824107637541,-0.00022168651231799276,0.002931503931670155,-0.0006844844907421
1687553959.8268058,-0.07647631874984316,0.14535396531956693,9.909955631609456,-0.00017064420572778403,-0.0011517797605388779,0.0021403864951904
1687553959.8367696,0.27305702770508805,0.1481250875456126,9.729047489085909,-0.002447217909016818,0.0033759167767276202,0.0006819666008565
1687553959.8467443,-0.045249983403001626,-0.10735796304475935,9.800824785735461,0.0006921608281664152,0.0016205627307741147,-0.0009407898183811
1687553959.8684962,0.05396239211352154,0.1165846146315522,9.822539806248336,5.584598497407525e-05,0.0003431708732712439,0.0009818254906318
1687553959.8706183,0.3225401463619711,-0.3683164889404248,9.524794146461097,0.0009774960065816773,0.002124227858564605,-0.0009787842869658
1687553959.8766544,-0.12647215934771341,-0.017989666818871028,9.879861645515035,0.000601189575249002,0.0007480722602855546,-0.0040752809733051
1687553959.886696,0.04881918227701274,0.21786222565811092,9.876461895911918,-0.0010386365761537928,-0.0007267459985526762,-0.0012354647047717
1687553959.8967469,0.18227023144316337,0.10378916928227694,9.755434021914773,-0.0017278116865887606,0.0019327528656395484,-0.0016254883963514
1687553959.9066818,-0.029859837524292585,0.14019438359793476,9.877621789301136,-0.0014245683307225455,-0.0010325826459524178,0.0012046119949415
1687553959.916716,-0.01740024432572769,-0.03556299434149504,9.820493493578242,-0.0005271384201996001,-0.0020518027954307557,-0.0016888320684332
1687553959.9269333,0.22425634989182686,0.09582017478124054,9.721354254809212,0.00016090434745519611,0.0008054799109244701,-0.0001707733614269
1687553959.936742,0.03599747210197666,0.00904136477591531,9.806340739563193,0.000809505871025874,0.0003815238054756603,-0.001743198256557
1687553959.9467003,0.10098110288758108,0.2305377454457397,9.838402502914079,-0.000613945722846228,3.4338339223734466e-05,0.0014739539905318
1687553959.9571548,0.05270843535939764,0.055581342288903934,9.821729432594976,-0.0003792471204022452,-0.00014745473888670702,0.0007769367652114
1687553959.966752,0.021980091949252403,0.056356329110260686,9.821105995227377,-0.0003986307312250074,-0.0008954916852727926,0.0001276214601572
1687553959.976729,0.15045182656940534,0.04745449302675799,9.762225045698251,-0.0008467725690704353,0.0013232788514433123,-0.0020423758547652
1687553959.9867194,0.0667842756318911,0.11529677222697421,9.823674558496215,-0.0003099711637365999,0.00031597295505729614,0.0009639451158333
1687553959.996754,-0.009777104485594915,0.06904133830111762,9.844290174814786,-0.0005420456827111806,-0.0010467244164553764,0.0003716412460531
1687553960.0067482,0.14659088054230926,0.08373557196946206,9.773510717656274,-0.0003237527610564952,0.00018521802297782978,0.0008335708402197
1687553960.016745,0.055158534639227035,0.03855701618050185,9.785399010596064,-0.00022170109268637662,0.0004854571340641525,-0.000483350596008
1687553960.026936,0.09430092029793227,0.26051306584316486,9.85702155511166,-0.004220766409169365,0.0009898671267438216,-0.0006450238875944
1687553960.0368602,0.04528699065867385,-0.10641261207232533,9.75703817711269,0.00020597419003887536,5.9680870887648446e-05,0.0002159039717268
1687553960.0467677,-0.05591278371096859,0.05487166031032415,9.880346471357033,-0.0002089971965632989,-0.001955376580784512,-0.0012827721662718
1687553960.056738,0.09458582551233512,0.16196153656112527,9.819882709134399,-0.0018272749858920614,-0.0016543358295393767,-0.0002747090771693
1687553960.0667117,0.17580258449578326,-0.019048528968344306,9.719861443504627,0.0004921001774603651,0.0004318369668130287,0.000242008128586
1687553960.0767531,0.1298491989411366,0.0611914879579177,9.777491172084416,0.0007155951341027907,0.001745366537216089,-0.0001476889016006
1687553960.0935378,0.02659026861946149,0.13280848316553984,9.841856512321943,-0.0020776322182717477,0.0005063387477346339,-0.0013501866493273
1687553960.096696,0.11982333036218108,-0.47253416490280153,9.597986624455977,0.0009275648904498178,0.0012916320964473735,-0.0025955719180304
1687553960.1067245,0.10578162508009561,0.1032399710894102,9.799176648160502,0.0018458523317189464,0.0011575131394202828,0.0005150258652035
1687553960.1167402,0.0029243542000502963,0.13495483556236607,9.873071979782283,0.001061690993671905,-0.00048310969925361645,0.0013960875070521
1687553960.1267562,0.09752498382086336,0.1180744248175555,9.800897677333817,0.00018400424120964547,0.00042922425509228765,0.0007888649701241
1687553960.1368568,0.08253302271578856,0.02041781381303371,9.787413682724418,0.00034158009685536294,0.0014253884866347773,-0.0009284684207189
1687553960.146726,-0.08653410537396242,0.06483967434522708,9.889442124227426,2.082093229935651e-05,-0.0014155444739315703,-0.0023318220633912
1687553960.1567366,0.15696828251615055,0.08835776284678803,9.769093552293898,0.0012133117640992011,-0.0005050782651269648,-3.925396650025e-05
1687553960.1667066,0.13225529268186578,0.1743211696467286,9.823371009282116,-0.0009652480531099059,0.0009902396798501046,-0.0009557119343329
1687553960.1767638,-0.08490185757491789,0.07065183962476451,9.888083344081354,0.0006645764291153521,-0.0031094373866593188,0.0014780407358527
1687553960.1867774,0.16179835187146344,-0.013302502610952423,9.729384199127963,0.002828222735989424,-0.0011026168301184964,0.0017794284498419
1687553960.196849,0.023633457179288483,0.06922839596124389,9.837209642639571,0.00048351231692281515,-0.0007017733175837216,-0.0027524038456279
1687553960.2067358,0.22780902676170828,0.28874224617055694,9.803933950020163,-0.001855214226055539,0.0011422377771565869,0.0008071038168024
1687553960.216739,0.12416604110660005,-0.0002377363403640464,9.748276918835119,-0.0005476738461590376,0.0026189460883172927,0.0004222820856708
1687553960.2271705,-0.14112901005833434,-0.048610026311419835,9.88394800032335,0.0019509074796998354,-0.0016875005616387654,-0.0003600302157823
1687553960.2367752,0.06104631392745042,0.13546885879821677,9.837111791300284,0.0003784927223309157,-0.001471776607249857,-0.0012697075731951
1687553960.246739,0.08050872597394292,0.2302152695093232,9.845638460795511,-0.0024791914081996654,-0.0013943107832254257,-0.0006513380218196
1687553960.2567954,0.17729614299683205,-0.13089704747790595,9.683747253606017,0.00044737752060469325,0.0016030653240102666,-0.002939407365014
1687553960.26676,0.04397313855033945,0.2135846566119658,9.882231161976954,-6.7379286892194295e-06,-0.0006779292681368857,0.0013584570291894
1687553960.2767596,0.2114501912506888,0.07902295057470973,9.718976604411237,-0.0008993399010742363,0.002779510754939504,0.0002639667358349
1687553960.286816,0.043039808065050346,0.024704787232649184,9.812653669309126,0.0009741348212375956,0.0017014115917201092,0.001880730094305
1687553960.296792,-0.0655871542209429,-0.0025708289094915006,9.849215433626005,0.0014383104668793752,-0.0004234854286329164,-0.0005548466002468
1687553960.3068123,0.024602564418956842,0.15578335647789138,9.860125911081244,0.0003982195588436275,-0.0017891978019225427,0.000524736940312
1687553960.316744,0.22205320932399494,0.08069791996376101,9.720451851209921,0.00039559846530082927,0.0016775709925793561,0.0002032532351191
1687553960.326827,0.0013842824445221048,0.05727290126054326,9.850391570985387,0.0004172139960568943,9.84225878904327e-05,-0.0004654360242087
1687553960.3369005,-0.021794846941765773,0.0990692744625558,9.877155829806135,-0.0005383118531741497,-0.0015008538831148234,-0.0019626360159266
1687553960.3467486,0.09814422539731123,0.010844736128810865,9.770959922607592,0.0005296900861036474,-0.0007025132472476672,-0.002413401031484
1687553960.356761,0.045591148723813,0.020235349030989603,9.802578740778667,0.0021163033459150795,-0.0015853942230317235,-0.0012417974654484
1687553960.3667595,0.12774309642319745,0.1928753273501232,9.825394401737837,0.0008884627324537258,-0.0012099034695379212,0.0010243063728891
1687553960.3767295,0.10171637650498624,0.18431724361024218,9.827627968753681,-0.0017993381839933754,-0.00026367359469966817,-8.859211478506532e-07
1687553960.3868265,0.04005004398476327,-0.019385760433554156,9.787794433600553,0.001281477412351478,-0.0014904141085609656,0.0018706882250595
1687553960.396737,0.12594100257104757,0.21660261174470444,9.83172033671045,-0.0006161740374845747,-0.0012564748715261605,0.003924811141948
1687553960.406719,-0.05016458979763959,0.005085420046908956,9.862312012608946,-0.00130162966772981,-0.00272348404830939,-5.715631469079604e-05
1687553960.4167233,0.1977078177688445,0.07818273690147014,9.745528315651947,-0.0012733359424018371,-8.300237151814484e-05,-7.949338815101733e-05
1687553960.4293942,0.08228991264244344,-0.07819465191238681,9.74874424953926,0.0031843525419802017,0.00013718691968378686,0.0003921228921141
1687553960.436713,-0.0059466135396499375,0.2036301536885045,9.897795183503725,0.00044513641206713703,-0.00041605902034702515,-0.0014388718414951
1687553960.4468317,0.22524519914781108,0.18700067567602852,9.763495433290036,-0.00047313884309960555,0.0017721901295656348,0.0012232545263001
1687553960.4568214,-0.030807541885252056,0.027978318848412752,9.85016676606719,-0.00025074339572148796,0.00011182953217357809,-0.0002184545161102
1687553960.466755,-0.05501516613342678,0.05259324067338855,9.86415938821448,-0.0011247152254349945,-0.0015891558205106378,-0.0029632534138757
1687553960.4774065,0.2022089972046583,0.036174490334736055,9.727180111367785,0.0013730935039340231,0.00025414365586260215,-0.0001678200211275
1687553960.486763,0.0028768432279807545,0.11831785991284614,9.857844784015331,0.0007189642656869927,-0.0010895671473741988,5.909276605656991e-05
1687553960.4967575,0.12477676277401618,-0.009558813782575646,9.762265800413072,0.0016842093961389137,0.0005540203387461141,-0.0015483555622298
1687553960.5067928,0.01343285039771574,0.13301409613687606,9.867001372141265,0.0012464488409113868,-0.0012650265714587317,-1.1341646862414977e-05
1687553960.516801,0.07224504268288329,0.01024133429194974,9.780908902527749,0.002898995576570666,-0.0013689780418710469,0.0003738519730146
1687553960.5267272,0.21933702784123657,0.15392497930345042,9.761794067321691,0.0006250738191279096,0.002235615431611578,-0.0010268552001465
1687553960.5367804,-0.010414563028144393,0.13522415478606722,9.87327327129266,1.674971551830028e-05,0.0001412514206146715,-0.0001215989474106
1687553960.546744,0.1806439217231259,0.15716358243372322,9.778393380769492,-0.0006716950699531609,0.0016187078752123174,0.0020901022939111
1687553960.5567572,-0.021947789883242343,-0.031039187250239467,9.820208186695004,0.0010788117404369648,0.00021466201554567915,0.0011669708905143
1687553960.5667386,0.11219984615592066,0.14268716803242534,9.81086960430992,-0.000850113337928482,0.0013884700258178118,0.0003127738595109
1687553960.576797,-0.02610771984265691,0.03906848823555985,9.852786363364697,-0.0008043265713047836,-0.00046860522726283,-0.0008126619510252
1687553960.5867882,0.052297798808531394,0.14429534048004114,9.852466325668816,-0.0024426914012238305,-0.0007218811191641122,-0.0014444444101203
1687553960.5967596,0.07403226032467788,-0.090369041197775,9.754343724294877,0.0015206408880286655,-0.0011663335906331666,-0.0006181871291149
1687553960.6067746,0.053832757754143076,0.23832889066181012,9.878980981632552,-0.0008661488917969875,-0.002379649250174737,0.0012217397883402
1687553960.616775,0.1711982994768748,-0.09274060676510766,9.68176259886519,0.0009078346229497441,0.001191049671693883,-0.0022580464143205
1687553960.6333542,0.0799448313612158,0.13952940012436216,9.820934471385645,0.0006306434810876538,0.0002161539692086657,0.0011550404591586
1687553960.6368074,-0.04503618907330189,-0.3933941221152617,9.71474144745277,0.002291013185538957,0.00042850108631511426,-0.0020192669477213
1687553960.657091,0.08492170370335454,0.11898494295641285,9.813186340375827,0.0014401876008277366,0.0006970717699963723,-0.0006762723211098
1687553960.658173,0.06813080033629797,1.01505723726743,10.130660908737655,0.0005304454791224775,-7.852118306727017e-05,0.0015953727701313
1687553960.666779,0.08116038600871772,0.1731423867142451,9.840417217773433,-0.0011403327262002293,0.00010250812505607764,0.0013931136958459
1687553960.6767564,0.06197086732229645,-0.06523191926548798,9.752401552976448,0.0010698813398151582,0.0005462039808478266,-0.0002892257185552
1687553960.686823,-0.03160442792644744,0.05807776892529459,9.862146013649754,0.0009201240937458591,-0.0015179907721792406,-0.0012388109467823
1687553960.6967654,0.22070950135153866,0.13508224183234124,9.741617726528256,-0.00029470334620271705,0.0017394085140949324,-0.0014232158433545
1687553960.7067828,0.1038087981901436,0.08823534760072471,9.798563991963785,0.0013701447195035728,0.0012133972851612153,0.0021292014856923
1687553960.716763,0.05087845785464465,0.2281983643950647,9.879922952709842,-0.0027958463524751414,0.0013370705248520627,0.0005388754065248
1687553960.726935,0.015784816315226952,0.0823566599250478,9.837555953903522,-0.00232050897955281,-0.0001958886640795332,0.0016158880311164
1687553960.7368903,0.08800110270227436,-0.1332309316949706,9.730601823498239,0.00125985116078883,0.0009701453148839971,-0.0003965209476549
1687553960.746907,0.10510685192166606,0.08240297502732347,9.778881201966403,0.0013384443731729245,0.001647785840448429,-0.0002303741644967
1687553960.756852,0.03518175194444592,0.2055422361642679,9.872922394552807,-0.0006150797549073171,0.00037483033515635996,0.0013375763477566
1687553960.7668405,0.14467310818554202,-0.021179531472784608,9.731425156469292,0.001597013014016718,0.0018358873767937978,0.001365901243295
1687553960.776832,-0.05155040587913829,0.08140915930991605,9.866909490637001,0.0005621462519670883,-1.557742991017052e-05,-0.0006900437880206
1687553960.786801,0.10269654441935375,0.05931384226024441,9.788808628102501,0.001088496787034611,0.0007447629344768863,-0.0006893359828639
1687553960.7967882,-0.06834625687389859,0.20203369403470833,9.929588305517964,-0.0012692104840645883,-0.0022879979774998414,-0.0002240438485417
1687553960.8068454,0.12847114793337364,0.21555610445448908,9.829665525206233,-0.004453969612600708,-0.0008411229870079653,-0.0006081423494864
1687553960.816759,0.20115951934295043,-0.08183095757615176,9.68989104363817,-0.0004239658728257925,0.0012852959821931123,0.0008730490511849
1687553960.8269618,0.002693641468135914,0.017626451871443613,9.823761598092837,0.0007606919520715748,-4.0909109911601065e-05,0.0003880321159127
1687553960.8432236,0.06681356747271419,0.15604475318601757,9.843897750352347,-0.001996783128863274,-0.0002346333852851564,0.0005817417399126
1687553960.846798,-0.10983887815043747,-0.007370019769953191,9.883725786666906,-0.0011954647313374002,-0.0016904705166072612,0.0007571972086194
1687553960.857163,0.29542765118037323,0.00246690842286602,9.660881814110782,0.0012546875121903604,0.002786562857444287,0.0020174795639801
1687553960.8667643,0.0692384249866605,0.15658470480143152,9.835941104247572,-0.0013947908536791002,0.0034113130869018373,0.0002792334411393
1687553960.8767748,-0.01647509835384804,0.006172430236296999,9.821140646083455,5.771654267111153e-05,0.0017923020522531388,0.0001439902693133
1687553960.8867722,-0.09407178946361283,0.0572814511354933,9.90299700981767,-0.0002086249001840295,-0.0010780267968255014,-0.0015025568433005
1687553960.8968318,0.04345655024681685,0.08764646722207436,9.824972132778916,-0.0019275137923993597,-0.0008518727093214253,-0.004347188515206
1687553960.9068365,0.2194532660862033,-0.08794547054956764,9.672746095527707,0.0028464476646639933,0.001400424978316401,-0.0017387509584326
1687553960.9169085,-0.119513837800024,0.22304557798026428,9.95567852086769,0.00034420057593308363,-0.0028188506341554893,-0.0006751768529314
1687553960.9268098,0.09500350557434355,-0.03562889959970706,9.756493325172306,0.0017754287592723571,-0.001655441702847594,-0.0026648711651463
1687553960.936871,0.25799243519706144,0.30619256820205,9.781471402554358,-0.00025781577317599084,0.0006058044039680288,0.0029223321465875
1687553960.9468813,0.08480505039034184,0.01569382150625573,9.784733675612255,-9.09314534114157e-05,0.0015099304739439397,0.0012646068493237
1687553960.9568412,-0.040373699276919035,0.03823365104190911,9.849554502251674,-0.0008851669097062968,0.0002429480554623784,-0.0017775007296253
1687553960.966832,0.18091206344068692,0.1273225847769358,9.75595395498775,0.00013930270710051386,0.0013616629011972358,0.0020051657333139
1687553960.976792,-0.012262658631301776,0.13055595826767533,9.869220243590455,-0.002892703139128191,0.0006992817094528368,-0.0012161176424373
1687553960.9867992,0.03528513535144526,-0.0687192154325238,9.784497468348114,0.0004961713731556087,-0.0005028204303113788,-0.0004088080027971
1687553960.996807,0.09110125565398199,0.20646049019919613,9.8596278138956,-0.0018175858729618714,-0.0005069510485110059,0.0003008459456365
1687553961.006869,0.07896756075814208,-0.04289824961162493,9.763922044809123,0.00048017438088081494,-0.0001467069346135804,-0.0001409658003497
1687553961.0168035,0.27837689589165315,0.1870649217335946,9.732816600183282,-0.0011149977020033877,0.003614339822318504,0.001170709699542
1687553961.0277207,-0.10479077292272763,0.11503665611851993,9.907643390584617,-0.0007387413017994998,-0.0009808086041257315,0.0032572475023668
1687553961.036832,0.081664152954232,-0.05544940177012848,9.756738177024266,0.0005975204692181261,-2.4896848215074926e-05,0.0007463903742942
1687553961.046794,-0.008283432591220326,0.013235019276085795,9.828320544320059,0.001263952092127208,-0.0013432523243831584,-0.0007508156128127
1687553961.0568388,0.07673776400845783,0.17036700308006333,9.826865686417595,-0.000820327340954227,-0.000926410618284121,-0.0007701694272358
1687553961.0667942,0.14851887200260638,0.015422442779740593,9.7370026425422,0.0014267602515398692,0.0003483915473477677,0.000513202568433
1687553961.0768526,0.019690473616738327,0.08136407062497054,9.844809780842935,0.0017478864228099775,-0.0010031377985275603,0.0012541336249311
1687553961.0869012,0.04209427156514404,-0.019363819596547795,9.792480784061066,0.00159514872443622,-0.0002644066183851569,-0.0024990689713407
1687553961.096841,0.14126823445648887,0.13843675379583786,9.790165244438446,0.0013418299988438374,0.0005815889067268369,-0.0006278610095281
1687553961.1068487,-0.08283300426001042,0.13186447316684874,9.903361446242885,-0.0004802060430259554,-0.0022294871837837036,-0.0016571608144689
1687553961.1168046,0.1456266904382047,-0.007867246049803746,9.737210073324745,0.00108142651284719,-0.0006067753149543796,-0.001798355603208
1687553961.1268113,0.2252302725699056,0.11427512207260455,9.727115643861419,0.0014263820541185951,0.0021335464664218717,0.0002494279755379
1687553961.1369312,-0.012647862256073934,0.14287378428571074,9.8947751265567,-2.050877048735972e-05,0.00013939938680632675,0.0003645600512724
1687553961.146821,-0.07589759908324543,-0.02739400337942798,9.853315459720376,0.0009402473479454434,-0.0021952410080827633,-0.0017722722846914
1687553961.1567876,0.09474440690562463,0.17456590921523438,9.834438939518881,0.00033116461462327106,-0.0027286961696988657,0.0010533581365931
1687553961.1670775,0.22173486144117574,0.11351862485660734,9.75387710747297,-0.0011924970656716377,0.0006460285396727325,-0.0001212331704694
1687553961.1778364,0.029728510605868966,-0.013086937274717698,9.796903654101087,0.000768513382380882,-0.00019773752429512866,-0.0003689483279261
1687553961.1885042,0.09469808730942567,0.04211431201394524,9.786481639466393,0.0011872370379616627,0.0005562472092451446,-0.0014817010383952
1687553961.1968467,0.07318761897431407,0.3927971965632543,9.922034622966823,-0.002845029755300654,-0.0004961496181527673,0.0012396107262217
1687553961.2069333,0.11899823266144713,-0.030719155995151983,9.74618497021265,0.0007081420316540223,-0.0002874985542376448,0.0035775991849701
1687553961.2169013,0.038128171145845616,0.038014194202178976,9.814494634496073,-0.0002090278636833088,-6.256704487355297e-06,0.0002304496005277
1687553961.2269206,0.055847543495725384,0.07816347493984162,9.816931138872254,-0.00021123774693527163,-0.0004119487400972796,0.0004643933492813
1687553961.2368376,0.13782093624615524,0.24455424917701193,9.834176839217436,-0.0034977170121029,0.0009447869792120631,0.0008074979990821
1687553961.2468133,0.006190871160045381,-0.10100636851554569,9.789711331033219,-0.0006337099375229476,-1.780949097365562e-05,-0.0004449428530309
1687553961.256817,0.13060108564936448,0.25334290514444624,9.833288788418423,-0.0036403682376685465,0.0007998846824263167,0.0009952326648969
1687553961.2668962,0.023702241299327336,-0.12100160136256757,9.765812683876785,0.00039373034826879126,-0.00012099846998949251,0.0005500540131803
1687553961.276861,0.05895133278250194,0.030193307446961935,9.797666583781785,0.0002976203036792008,0.0003614345176987727,-0.0015330970059979
1687553961.2868726,0.12584227701378095,0.026046708693239714,9.761001792153106,0.0016930837136095937,0.0012644381116576136,-0.0009504976920683
1687553961.2968118,0.005876376904773518,-0.003770889616283281,9.809836516460937,0.002565608786033338,0.0004176435250816588,-0.0024368647724289
1687553961.3068144,0.04375401702984912,0.26283602020346547,9.897769509177438,0.00014452047976594486,-0.0011532753267678904,1.0653281966956953e-05
1687553961.3168092,0.025553591348319953,0.06496377370137439,9.833746552916557,-0.00015201282397046047,-0.0017813555759786498,-0.0011292820569027
1687553961.32691,0.25559885312583175,0.24686946442312183,9.771395105546171,-0.0012997480922051954,0.0005249600456623769,0.0035321632161836
1687553961.3368134,0.07163902548082193,-0.04096208691903911,9.766040846447046,-0.00040462083182624234,0.0016302586136576302,0.0004289600759845
1687553961.3468592,0.01866249458596367,0.04294526298647132,9.823753119932563,0.0008694652813939923,0.00023178219574591246,0.0009442102158542
1687553961.356841,0.11201170092435105,0.16001732764418078,9.815341362397106,0.0003460530176830331,0.0004120876512383066,0.0029342620395224
1687553961.3668582,-0.0026412309696382994,0.12380698613263479,9.883388178652273,-0.000984995647951319,-0.001036681161480348,0.0019489233376558
1687553961.377273,0.2016594877539598,-0.005413904113443887,9.704225758503894,-5.3669285039701454e-05,0.0025369886843298653,0.0002259582974117
1687553961.388993,-0.0746793440218684,0.15887730599253902,9.90973053458726,-0.001882428282086482,-0.0012065527059726242,0.0004003258067283
1687553961.3968055,0.2382756476075124,0.013608481861928201,9.687673217425035,-0.00039530467406219557,0.0012711385581300272,0.0010183405242029
1687553961.406808,-0.017680008295865107,-0.050064786751623645,9.80666029961216,0.0020522428752876997,-0.0003020559831689161,0.0004815116402793
1687553961.416892,0.14267931711802692,0.23166967325892768,9.822488005631191,-0.001547877441790829,0.0014383863657456836,-0.0002803175017137
1687553961.427049,-0.1464394784879967,-0.07261409914512999,9.873131792861848,0.0012691927197990794,-0.0029510728185526427,-0.0007068339042265
1687553961.4368489,0.1972928030749417,0.24073554095341268,9.807331188954418,-0.0013865634287821846,-0.0007993800709103769,0.0005049913883309
1687553961.4471045,0.15322136502748673,0.03353731429832555,9.746396654737667,-0.0011440391570768818,0.0017476135404949225,-0.0010976073104787
1687553961.4568594,0.03240622850195794,-0.036129665090797784,9.789517759310169,0.0006466802570741188,0.0013192087438518745,-0.0018020620342243
1687553961.4668388,0.0736134666982876,0.17497292156190494,9.832031608069308,-0.0006687201192440727,0.0009548534685071789,-0.0002937179529938
1687553961.4768488,0.22408946782810105,0.1848429405193591,9.765756453262238,-0.0009052498046148677,0.002842459297736866,0.0032967403525587
1687553961.486854,-0.21834309823592712,-0.15423795453886874,9.896231697342243,0.002896026586949541,-0.002622516058067541,0.0011356930912339
1687553961.4968965,0.16382685969901306,0.03381797906350268,9.741398977186414,0.0022738734728521303,0.00029736686420608595,-0.0018754800554264
1687553961.5068693,0.13478612331898382,0.2877224819408908,9.847342302396804,-0.0009909306070871552,0.00110907800203506,0.0003380895353954
1687553961.5169268,0.03215933032772364,0.11147006587810566,9.849520777506397,-0.0015333561444537981,0.0001554124907989327,0.0005135448876868
1687553961.5270083,0.20250307728784078,-0.09638583705697665,9.690672915825287,0.0019546295425597287,0.0030384236756413013,0.0001075360918518
1687553961.536877,-0.26659404530998465,0.1443203783181005,10.013145955228675,-0.0007454367840724831,-0.0032289812701518103,-0.002211864921813
1687553961.5468495,0.2846713066436571,0.21514094108037218,9.740070334599187,-0.0012744363053925393,-0.0004991234707897295,0.0018986304052274
1687553961.556835,0.08593336201787294,-0.1037558206269241,9.754067011635657,0.0008173057737595385,0.0007037858842091372,-0.0012518464360285
1687553961.566859,0.1247452784016787,0.14807755130513597,9.81145999739078,-1.867087048725023e-05,0.0012607045537744075,3.3351475755485395e-05
1687553961.5768597,0.03392983926057279,0.056616712928088106,9.818935975082281,0.0013578336826605068,0.00011667970486361218,0.0013752400258423
1687553961.5868149,0.034198844938063896,0.0293936964278307,9.820000690404877,0.0007427989355362627,0.00021537102453803212,-0.0017000242374736
1687553961.5968652,0.08382457690924981,0.18788642478569234,9.831699116043442,-0.0004165224238042082,-8.524062717042614e-05,0.000100788776214
1687553961.6069665,0.014562240579229032,-0.029918155967619656,9.810482317757819,0.001897635768165748,-0.0013138224210955199,-5.975831354894986e-05
1687553961.6168747,0.25186113787065206,0.1280555653590363,9.71113848272659,0.0006645314828380411,0.0026852734421644146,-0.0003350672783229
1687553961.62707,-0.021298693650633964,0.2445273959978783,9.907467867210434,-0.002415129942601663,0.0004131979112809895,0.0010358457797307
1687553961.6368666,-0.031539588200598025,-0.018901916996322085,9.84017303340315,-0.0019930394959729743,-0.0006541120059995673,-0.0021179922629047
1687553961.6468403,0.10877795711802976,-0.07187014482273667,9.738059457682246,0.0021677369391749786,-0.0004097393837240262,-8.657341877856602e-05
1687553961.6571064,0.09461878643218473,0.06357240489796875,9.795480639498352,0.002532790688659543,0.0001241417852176572,0.0001049024280261
1687553961.666811,-0.020003363776987523,0.1908464543387633,9.897818094172479,-0.00021608829616262453,-0.001293727178508752,-0.0007664453010905
1687553961.6768675,0.13357715307359364,0.022376197482662657,9.76117149469569,0.0013716165338649238,-0.0003128309795692668,0.0001265063177894
1687553961.686888,0.07433753845582838,0.21101895899906364,9.856566181510761,-0.0013400048980938778,-0.00047304370230948615,0.0004342184978637
1687553961.696845,0.06561509873882748,-0.13649213351972522,9.728183557498115,0.004015474356699553,-0.0010046140975721687,0.0019917225576106
1687553961.7069294,0.09388811740813635,0.2642345969474564,9.863580427594295,-0.0009265000542804223,0.00014460586983692156,0.0002378853963788
1687553961.7169478,0.06565336568641149,-0.028546971095255946,9.777277477775788,0.000783422054572923,0.00030594481385384504,-0.0007429345283556
1687553961.726982,0.17471785289562342,0.17606119381028176,9.778097934954443,-0.001212623488252313,0.0026077605366763698,-0.0007545443955708
1687553961.7368538,-0.10713334542539633,0.046037399348311345,9.897243032994467,0.0004239226790430552,-0.0016629076859424605,0.0009989832173202
1687553961.7472386,0.19663394798087933,0.11439574047505902,9.756483593672687,-6.036894681202229e-05,0.0009425634874817974,0.0013990770634306
1687553961.7569387,-0.005557967724505248,0.060595694737536336,9.850498718277883,-0.0001158755428158353,-0.00028454472299045957,0.0005794875318284
1687553961.766858,0.016317683414942413,0.046072999008567345,9.825974416823218,-0.00016876850862643412,-0.001069101361169156,-0.0007116842321951
1687553961.7768812,0.19064079904747044,0.12376580483002937,9.747336645274453,-0.0007380121678232598,0.0012253191391907582,0.0002282256022196
1687553961.7868843,-0.08153024032092994,-0.09175043814450579,9.832448675227164,0.0007428120567099489,-0.0006931959635035486,-0.0036553923278946
1687553961.7968726,0.19212737557928203,0.2878294154985652,9.815417417266397,-0.0011697831318210428,0.0003956967752999141,0.0008868563158072
1687553961.8069298,0.04067886945485053,0.05463926903724394,9.821347714386258,-0.001021871926254124,8.26255297203599e-06,0.0004111173324387
1687553961.8168695,0.0026124818913550603,0.018211707510096747,9.829738016546019,0.0006023623118951384,-0.0015652868532802283,0.0010000883188664
1687553961.8270233,0.15327945580662386,0.031182699035494702,9.73758806448729,0.0007957011222575745,0.0007276202342088383,-0.0003171705180678
1687553961.83694,0.0700047510625906,0.2635826117300979,9.877815126413179,-0.0018287700552185393,-0.00022643846494395015,0.0018721824739228
1687553961.8469892,0.05198211425746491,0.018963111672835344,9.793667144963274,-0.0011023424998748762,-3.718853051168874e-05,0.0004412850825216
1687553961.8568866,0.0858782619795363,0.04750250708680126,9.782513145730825,-0.0012978923869281394,0.001024152443042015,-0.0013852125272054
1687553961.866882,0.031650340274228805,0.0715673151707185,9.833387518322988,0.00016946910446602405,-0.0006730792874942838,0.0009725429694268
1687553961.8769295,0.07268668582685893,0.010110557071615957,9.783897822395497,0.0003155198762134365,0.00026679216818026243,-0.0018270354490626
1687553961.8869083,0.1254699484410895,0.13440701611053524,9.799234208327393,-0.0001113866224284023,0.0010520906121673,-0.0003383834851805
1687553961.896858,0.1090017762456221,0.12416838215999708,9.81723228438896,0.00042391770280753537,0.0005633437243724728,0.0025181168452005
1687553961.9068618,-0.043985521358292506,-0.027455077582558395,9.830444640222243,0.001165994289206946,-0.0009431561152284757,-0.0001625663140688
1687553961.9168694,0.01738040543495746,0.1883034809126545,9.874603148758458,-0.0010993531236762966,-0.002128558034204223,0.0002345439273964
1687553961.927344,0.16001403554358637,0.052597234454188735,9.746204539830089,-0.0005472791305524901,-0.00010461271652778328,0.0002773744048651
1687553961.9368644,0.03323576805147873,0.018352169219192794,9.80390078445238,-0.00014938666109650834,-0.00027076333328667244,-0.0015129904501039
1687553961.9468942,0.08561511733178843,0.10265350021353935,9.803592520307289,-0.0005334852316818625,1.8705371995322124e-05,-0.0012157062306899
1687553961.9568408,0.07773775240271522,0.026789152282015907,9.794048888511355,0.0010371096815172485,-0.0003136104528855387,-0.0002706154487926
1687553961.96685,0.20979421244401716,0.07241739504659832,9.726748451104978,0.0007371822456480161,0.0029791822756930716,-0.0010499797068435
1687553961.9768898,0.056760304630642945,0.09377318117011091,9.819826255947937,0.0019468364252267338,0.0018261904431120968,0.0016471781122133
1687553961.9868548,-0.08850846124332308,0.2653923866779523,9.96208073721551,-0.0024575956694739723,-0.001393570208057091,0.001172564151963
1687553961.9968283,0.07080493874947211,-0.13245256627053784,9.731075855593096,0.0021788971962146625,-0.0012818047836881522,0.0012012758083043
1687553962.006854,0.16351735458309252,0.12376418342967638,9.766511161502436,0.0005244813324939232,0.0010897356594741473,-0.0001275379914689
1687553962.016948,-0.03400185245886019,0.05234458848323168,9.853401113483304,-0.0008996619207256788,0.0001747975562783251,-0.0036598757147688
1687553962.0298543,0.051840115228793775,0.17948078622078845,9.843537674696924,-0.0018850071558577297,-0.000993471113601947,-0.0008342532679338
1687553962.03701,0.2438051766189511,-0.015332958366678228,9.690248123423613,-0.0007272165961479335,0.0015870532377229506,-0.0013229938927937
1687553962.0469158,-0.028217482551689772,0.22703528952395557,9.900609868048472,-0.003752508795202417,-0.00042611680144923866,-0.0008819339569557
1687553962.0569017,0.1894169776190447,-0.06584672307571374,9.696825329187075,1.041129415827458e-05,0.0013970509543626227,0.0008168063353847
1687553962.066985,0.058815358578642764,0.043797254495526024,9.798973715509518,9.64351273021405e-05,0.001612015799679045,-0.0001640717970106
1687553962.07687,0.0431240248730339,0.16372307747161557,9.858968132865611,-0.001878314078594171,0.0009984461669507476,-0.0005783260572601
1687553962.0869093,0.1743148775979662,0.032315904410200935,9.747340010456268,4.4381830339989465e-06,0.0024777604480677408,0.0012269635184535
1687553962.0968611,-0.04399593429963957,-0.027512208982816814,9.815882496317348,0.0017065046688181354,0.0006885273592398957,-0.0001875530002538
1687553962.1069047,-0.010466572479091652,0.272552601505916,9.919238646577265,-0.0023395062863056353,-0.0010459997277719856,-2.7721282643464705e-05
1687553962.1169024,0.28071108675179857,0.08529295954349489,9.69950011613198,-0.002065392616906024,0.0030782619728129705,0.0009035738761637
1687553962.1269665,-0.020820149097234557,-0.20558396578532132,9.76681363850251,0.004246433884047102,0.0009593401192967906,0.0010578207724362
1687553962.1368856,-0.03310000809602587,0.34719670426840854,9.960704553503106,-0.0023514036572662147,-0.0007986395522013568,-0.0006673681788046
1687553962.1470697,0.24841251831170494,-0.14431153200645433,9.629081418310285,0.0024385582111216978,0.0032310112923497553,-0.0005794339818779
1687553962.1568906,-0.04509685026371176,0.29047486253640736,9.943954540767287,-0.0010114092413297708,0.00011666061217937105,0.0010097665357503
1687553962.166878,0.19751339150791689,0.2369881327114837,9.785833861846623,-0.004144817882609571,0.0026185514410879906,0.0019284629373911
1687553962.1768856,-0.10973549923640118,-0.12934133103655537,9.840590888030176,-0.0007313073179078311,-0.0004953942945279787,4.603445940724264e-05
1687553962.1870294,0.1274831819366173,0.061738113141882066,9.774967167658385,-0.0009857256891842002,0.0009816619117680283,-0.0006737058289248
1687553962.1968858,0.01522389862898571,0.21453792756942075,9.884542095375489,-0.0030331525608521025,-0.00064553239567725,0.0006908865756455
1687553962.206915,-0.062364201145375234,-0.04361502848021614,9.843094204596191,-0.0008162273822477917,-0.0034435953156808745,-0.0003134468575839
1687553962.2168624,0.3073938219066408,0.023810091858985628,9.649250924032911,0.0019393580023539902,0.000736583756326194,0.0025237111834909
1687553962.2273695,0.030591589231575702,0.1297162836865287,9.846084414704,0.0008419061491685071,-0.00015677217477358757,0.0027122284513067
1687553962.2369192,0.05204342313291963,0.10449493156273701,9.820524969382106,-0.0004656782981212039,0.00027648330055739457,0.0009509231016605
1687553962.2468896,-0.038425336043128644,0.12255408948653082,9.890366728827608,-0.002078366604560926,-0.0017385259028956297,-0.0005149886716056
1687553962.2568946,0.3167020269448986,0.13293732164350305,9.699454821150931,-0.0024363814144459056,0.0028152657378369577,0.0013525122084471
1687553962.266904,-0.08733787489201222,-0.16960548654136753,9.807466683194882,0.0012375134228024246,0.0005186365789740139,-0.0014314084552127
1687553962.276873,0.0582412283562238,0.14680802948591282,9.841974603471987,0.00021381486602317033,-2.3404490663946042e-05,-0.000410687178922
1687553962.2869546,0.07130425549653102,-0.02261447349940152,9.779307095775527,0.0014964185468578932,0.0004273341260766871,-0.0020610165089268
1687553962.296902,0.06881525536955785,0.16027340910087265,9.855180496590433,0.0004816453705755477,-0.0005724853764993762,-0.0003428796777401
1687553962.306953,0.052040959353119094,0.06816914870329438,9.816649428064931,0.0004701066887644129,-0.0006373250160858328,-0.0008610697701472
1687553962.3168998,0.1733873453379898,0.06823364396291004,9.757487757136353,0.0013991547323664098,0.0009452144120466451,0.0003846954781662
1687553962.3269894,0.08743325703566872,0.04345890297445343,9.793927589104431,0.0017411776173932585,0.0017256187008513294,-0.0007422541972149
1687553962.3369863,0.04526933831947562,0.2230673014493933,9.860734568275163,-0.000878813989965438,0.0009924802056639603,0.0004200565157558
1687553962.347412,0.07815234331465826,0.0637598967573553,9.808870245822527,-0.000495125524058596,0.0011865723408259407,0.0001007918030124
1687553962.3568842,0.02533841802378028,0.12852932695977404,9.842965035531588,-0.001478968360315456,0.0005279486498886132,-0.0003782579447973
1687553962.36692,0.1235272056768437,0.015695396508890135,9.761310478518508,0.0010080450757962843,0.001049110556473318,0.001597990994375
1687553962.3769188,0.0026383150462722204,0.19884474589917323,9.885758947687254,-0.00020007733287856475,-0.0012993147804316431,0.004282813635106
1687553962.3869014,0.06269213384828004,-0.05909278706999677,9.78164757692457,0.00099909658236019,-0.0006630246229635408,0.0012668195116899
1687553962.396888,0.006787470322505638,0.00503160580829931,9.810915181358586,0.0012390195002918855,-0.0012847692327712238,-0.0011184707987953
1687553962.406895,0.17773267036131662,0.33025926273425044,9.832686741619575,-0.002921778215616237,0.00043628847725128467,0.0011505756259763
1687553962.416998,0.11325703545197603,-0.026453879409721052,9.742366498689634,-0.0015747243423063215,0.002052334159129084,-0.0005403074907038
1687553962.428287,-0.009790342428084346,-0.06924269927669814,9.811268392408772,0.00168493333172816,0.00017851363971792007,-0.0014228319056231
1687553962.4369135,0.05403398237657625,0.11557868798590162,9.839271294282238,0.0011421517498442862,-0.00042312684041816384,-0.0012257763888586
1687553962.4469216,0.06551227705892503,0.10696281651325688,9.818855763726571,0.001281098432998729,-0.0009021998518324504,-0.0002393369801242
1687553962.4570382,0.15209552225013714,0.06028747477715032,9.774842560196136,0.0011551824203806166,0.0011295690682899572,-0.0010615083161641
1687553962.46693,0.1392397837485497,0.16343220349264062,9.80244660062053,-0.000537200305974208,0.00244235990538145,-0.0009657606720823
1687553962.4769316,-0.03790575006303567,0.21310490735099585,9.91524825170361,-0.002709808589147253,-0.0004510813957923023,0.0004204225837353
1687553962.4869056,0.08324597297555418,-0.17059330074584894,9.724159598345015,0.0021215416939462215,0.000122632649852617,-0.0004441841743786
1687553962.497089,0.12062296890491964,0.23021141407982243,9.835441667439625,-0.0009548101197532382,0.001092686587740059,-0.0001763879559833
1687553962.5069296,0.0755424868260216,0.05124315674535436,9.802657060650006,-0.0003338047623180396,0.0011079698420991906,5.163159166535984e-05
1687553962.51698,0.1217541861538275,0.0733265772709689,9.788262173209459,0.00018733706026002655,0.0016708732993049938,0.0008029848680931
1687553962.527121,0.03377591859434597,-0.029916694498962622,9.797278249649011,0.002294015417765798,0.0009120258470643094,0.0003191152349214
1687553962.536913,-0.0008818318019306074,0.10148978189079086,9.854889087273667,0.0008094906953640368,4.626001859683791e-05,-0.0013449817202884
1687553962.5469236,0.06829180905098128,0.14968443806664156,9.823499792248807,0.00014526704950935652,-0.0004506947713048269,0.0003872780938733
1687553962.5569272,0.11912680440171294,0.10772185828710279,9.801886416587141,-0.0008221834314204798,0.0007712039329748534,-0.000728442916264
1687553962.5669184,0.16732286669664342,0.13159328292887537,9.780190780122306,-0.00047685914893243317,0.0017144457917606657,0.0019381066080283
1687553962.576941,-0.11456567566008893,-0.10166805832686437,9.844881902887288,0.0022213831531915414,-0.001614850920528623,6.542960126957546e-05
1687553962.5870545,0.191155263808089,0.24305068519354264,9.801297204682228,-0.0005659090323920126,0.0005156450419337831,0.0013588046940837
1687553962.5970469,0.21806262158905085,0.09114346551081903,9.724858098789506,-0.0007827335764011075,0.0034616173059510585,0.0015898577397789
1687553962.6070707,-0.12157494886034562,-0.030796481451963533,9.881421262505594,-0.00016545306860749886,0.0002727813915059863,-0.0011132714576918
1687553962.6170094,0.08226292515781698,0.08127193598951753,9.811909624119611,0.00034941906573678105,-7.631000515303717e-05,0.0002807315899159
1687553962.6270478,-0.0369700211402242,0.24216283880074133,9.923357646948816,-0.0029288355143205977,-0.002426976780770172,0.000553054850931
1687553962.6370175,0.25664922653054906,0.033937851380859085,9.697214643909831,-0.0021696574333870443,0.00149688411350685,0.0001425499789517
1687553962.6471035,-0.04878135754503371,-0.006095017762917525,9.838310904822592,-0.0005744599557641397,-0.0011789788273234261,0.0002863246476378
1687553962.6570184,0.20253988348145868,0.019806168507179003,9.724927035950953,0.0008706067619337613,0.0012301441662824486,0.0008566625760037
1687553962.6670125,-0.08593553906235865,0.08079539704784668,9.892750665879063,-0.0002429033175620179,-0.001281447586895476,-0.0010525473631817
1687553962.677096,0.17412399158308414,0.15570218752598589,9.77615510343307,-0.0017043460170392114,0.0005588665643221725,-0.0002642635960031
1687553962.6869984,0.07113006495508113,-0.03543437571786512,9.775314147659271,0.0007491294949400746,0.0004307240198947981,-9.701133294889084e-05
1687553962.697041,-0.046340651276922315,0.02282050968703611,9.856316491762822,0.0013172157322017455,-0.0016584370044191166,-0.000772436499213
1687553962.7069986,0.13166543597013827,0.18495074142040444,9.831930230388911,-0.0013869426627136886,-0.0003702277936855972,-0.0014481755211848
1687553962.716998,0.11159083985699442,0.05725964880500191,9.78109555269689,0.0003162546371419318,-0.00023984265384956722,0.0006633251317877
1687553962.7274072,0.01081743565611367,0.0694096949006223,9.823751592797903,-0.0013485741694063862,-0.00031694230359526743,-0.0026726709917087
1687553962.73702,0.15513640653461752,-0.07227250635369067,9.705247913699054,0.002384154205767145,0.0009869076808840407,-0.0014038508530605
1687553962.7470176,0.09170877146587102,0.2250495240182392,9.842349289665995,0.0006634498984034225,0.00087514114625736,0.0007538456697117
1687553962.757047,0.0825912577856317,0.076592061282476,9.804135950124731,0.00012625059001231839,0.0013981667533662998,5.644478314629445e-05
1687553962.7670214,-0.1122332733234986,0.04618776054570795,9.902367641861513,0.0009916599802861172,-0.002684357787216349,0.0004457497847366
1687553962.7770183,0.15408902458766152,0.17146177873679844,9.804066295134522,-0.002419595669577224,-1.223444360662168e-05,-0.002275564591949
1687553962.7870345,0.14519560419771846,0.012393683252525711,9.751556162827878,0.0012516852486059037,0.00020905288558343622,0.0013349748982333
1687553962.7971246,0.018407411890202563,0.13702027726390403,9.857701414601802,0.0001225546714317183,-0.000940201003592185,0.0012113036786073
1687553962.8071325,0.15889066484293868,-0.0037444783526271526,9.732578604212817,0.0010065347707569074,0.0015501818882151521,-0.0005045462172377
1687553962.8170254,-0.046043208832371604,-0.009952459886027666,9.843437823013382,0.0015366526338516566,-0.00010682210454073097,-0.0026860806397993
1687553962.8270862,0.06344356745300503,0.2975323146685904,9.893058142568094,-0.0009920612312838896,-0.001589512106839754,0.0013428111737054
1687553962.8370311,0.12100050038904325,-0.09401807961105607,9.724726711240105,0.0013190943474426146,0.0004832497972497983,-0.0013990002922613
1687553962.8470168,0.19199135906914916,0.23190455217708017,9.801393485353511,-0.0017367413635641135,0.0028141690994178525,-0.0007939775247026
1687553962.8571448,0.04378115635915207,0.08358248239052403,9.82803494250648,-0.0007871909602686455,0.0016030657732622466,0.0012246920954536
1687553962.8670778,-0.010533418171133216,0.013281129150882363,9.831484815506688,-0.0003788744927946126,0.00042958877121482546,-0.0003164338419113
1687553962.8771226,0.04253463817603992,0.08069769603017733,9.819804978505209,-0.0002686229195573383,-0.0004611116648582611,7.994577699414144e-05
1687553962.8870835,0.09783190202150632,0.02794048027334686,9.772806362759313,-0.0003528193142816019,0.0008121775509918282,-0.0020028747390855
1687553962.8970065,-0.03960759581757043,0.17649483365272742,9.898149186593246,-0.002040732202164568,-0.0016531967481742632,-0.0015435315441239
1687553962.9070275,0.2528294034869065,0.019601948065378016,9.697196565481383,0.0004242892068396596,0.0013005791410877878,0.0005888388835925
1687553962.9170475,-0.022027286402293077,0.17087539283718617,9.893062147386873,-0.001075141694735924,-0.0009096484194363302,0.0016669141181379
1687553962.9271238,0.15978413290552337,-0.029096809594159157,9.723387486224729,0.0009953609132027919,0.001230167081901191,0.0011163226585237
1687553962.9474325,0.06807864299406535,0.07608943824984933,9.81418553963588,0.0010471563592970026,0.0009891355819289095,0.0009334011987417
1687553962.9496367,-0.006055976067506112,0.7725383033395319,10.086481589849003,-0.002518705688671974,0.0008468202630226735,0.0003533735865827
1687553962.9574518,-0.009740996503670557,-0.15568173323593673,9.771980831911302,0.0008810051974080414,-0.00025622684461110243,-0.0006844972964275
1687553962.9670458,0.0774769378873626,0.2556994251260758,9.86793298094412,-0.0019196635224770716,-0.000645906044500204,0.000717703252482
1687553962.9770555,0.07425687879390674,-0.15595345290590187,9.733409043406544,0.0024333299992446967,-0.00036648619593854047,-2.177397309729209e-05
1687553962.98702,0.21961615171386534,0.16010570586274583,9.766916486129972,-0.0003747874586764822,0.003243653515754145,-0.0023035384952921
1687553962.9970036,-0.2053210925754605,0.09263374119872422,9.969268029057979,-0.00014865721897068887,-0.0029846225872518875,-0.0010968890279431
1687553963.0070364,0.1500355534862769,0.007297607392489074,9.744165655193456,0.0013746172617936027,-0.0013682167726200816,-0.0006554237339545
1687553963.017151,0.12707275314440053,0.1675383091126999,9.806212322598752,0.00035798393948237913,-0.0006775719530145576,0.0007471357815999
1687553963.027155,0.16180147253879393,-0.06547690828381092,9.717790766486141,0.0029135181244832778,0.001625794043480682,-0.0001991036120701
1687553963.0370042,-0.04097550474298736,0.1527431905079676,9.90199952886826,0.0010091571020694227,-0.0005404609156327169,-0.000893849530806
1687553963.0470736,0.041820984611244304,0.1107810424530188,9.837595425376627,0.0007010826651066035,-0.0014502127814507014,-0.000236724503887
1687553963.0570078,-0.035849607683558785,0.10693259673965938,9.891267786317504,-0.000762937158341511,-0.0033355740956388003,-0.0018758327938515
1687553963.0671024,0.18211078251876173,0.15030507345948566,9.789942226714864,-0.0015758156297450256,-0.001705745565372277,-0.0002918459946189
1687553963.0772383,0.12246567494761465,0.08831123781171284,9.788601703112304,-0.001676411353520349,-0.0006555880105710653,6.915302398415903e-06
1687553963.087074,0.02166986979325401,0.08299339236779564,9.835827070155128,-0.00170768997023472,-0.0017623755956427802,0.0003835504170607
1687553963.0970545,0.08610241582718987,0.07460803845871652,9.789191900379256,-0.0030137850008977356,-0.0003855190722282751,-0.0023519372340191
1687553963.106983,0.1504066689947777,-0.01365524403518095,9.739078393658446,0.00028162097232468605,0.0003267699505238883,0.0003194770537417
1687553963.1170273,0.10584294615332117,0.1007741069135897,9.805618380008877,0.00011730892833282578,0.0006650391449553163,0.0008603808813828
1687553963.1270568,-0.11885343096114272,0.03944327641291617,9.892487942113238,0.00025963831914251615,-0.0028076731832160917,-0.0005097705876354
1687553963.137034,0.30712166152519366,0.11562303859932689,9.694331285931142,-0.00032601398868059415,0.00206277713309437,-7.464585415014376e-05
1687553963.147019,0.027813215335174554,0.18102592301460504,9.873323175819255,-0.002348080351213059,0.0009131308831052611,0.0001727039920266
1687553963.1570275,-0.015471696626514708,-0.0510005503150952,9.810018935631208,-0.0002634200086178703,-0.0005341416599865268,-0.0013904360826958
1687553963.1670167,0.21203698076516322,0.1302394939594762,9.76418284374843,-0.0005644049815413515,0.0015598408897890936,0.0002524082077767
1687553963.1770673,0.04765384313077998,0.07553288669603761,9.815355988341103,0.00015941901942936182,0.0007559316833681443,0.0015391338960368
1687553963.1870725,-0.05058672278416925,-0.024382887252704887,9.840315769001453,0.0008236392245574738,-0.0006969277914086141,-0.0015737154759366
1687553963.1970432,0.18180516649601364,0.3221491636909623,9.832836787401991,-0.0029292196578853224,0.0006776819137411992,0.0011208005011182
1687553963.2070303,0.052415139903343455,-0.1105416978897905,9.75415412229332,0.0011056246874660573,0.00032604151453193383,0.0009483085008438
1687553963.2171962,0.16759674399300278,0.08390787611452794,9.76001437820278,0.0005502092259599058,0.002628635687747141,0.0001660084812071
1687553963.2270803,0.04678699455597513,0.23424149768753127,9.878030108250542,-0.0013016585736303342,0.001187321777935775,0.0028567585390161
1687553963.2370908,-0.05047228198815061,0.01674184307971117,9.851043735206341,-0.0023164116027651763,0.00027797805164619244,-0.0016586474381286
1687553963.2470496,0.1336377125163049,0.16849834976311076,9.789024786606236,-0.002766793128267479,0.0007976504293734028,0.0007061669015426
1687553963.2570326,-0.16201954197786944,-0.17015303493319517,9.851579025977385,0.0007059382778612328,-0.0030908067508732735,-0.0025501042842764
1687553963.267027,0.2889802614730434,0.11535799907582711,9.712151680697248,0.00040642313880725735,0.001316188991351727,-0.0019157089996982
1687553963.2770038,-0.06663473230166422,0.25164468560586933,9.94207352073988,-0.001411530399696087,-0.0027588900519103753,0.0016702697897896
1687553963.287081,0.20051538393835008,0.14558165912391532,9.76470260552572,-0.003701484155054722,0.000524940401093374,-0.0001700301660124
1687553963.2970436,0.03929196519216522,-0.0847490563465124,9.768853656312798,-0.0012647888561949678,0.0005227352087991408,-0.002091899863993
1687553963.307061,0.09556290325752091,0.09733340912422228,9.801013411589578,-0.0015393084201633718,0.0010014193825296132,-0.0017253422416646
1687553963.3170724,0.0384013805675364,0.04202202146607622,9.814583325296507,0.00040789484877581163,-0.0004339243308738203,0.0004003143398191
1687553963.3271244,0.05665742795242092,0.1502824183274498,9.845190574162618,-0.0010904138042949333,-0.001033706796913581,0.0008246221108462
1687553963.3370247,0.137353251500264,0.023504547217912373,9.7577992105661,-0.0006888206599781753,0.0005745003443716499,-0.0002374571055073
1687553963.3471014,0.1678355400727137,0.0654030259326513,9.757918497535783,-0.00040495710819664794,0.0025336489607260715,-9.512621964254728e-05
1687553963.3570297,0.03173607973198897,0.1380520571480614,9.851206243542194,-0.0008914905079070649,0.0011333045272111774,0.0013722554962411
1687553963.367019,-0.1825187959186002,-0.20084197656842115,9.851792705132768,0.0018625991891287952,-0.0021069090826631204,-0.0042503579758007
1687553963.37702,0.28273745102966863,0.15557563393238832,9.716470818552025,0.002245230188118962,0.001259997400977547,-0.0008215309359032
1687553963.38704,-0.060535252109505,0.3306012277194303,9.95914309917397,-0.0018935816374837662,-0.0023211650934966783,0.0015503138851242
1687553963.397028,0.10343886873177663,0.03067307632660622,9.769621912372424,-0.0017993339491067899,-0.0009163581919892285,-0.0005459079990062
1687553963.4070976,0.08517264582213277,0.04524911322729936,9.79683973910478,-0.000783077780441673,-0.0007416432219693168,8.038128177436689e-06
1687553963.4171202,0.10553088058164672,0.14548847147930294,9.813929385358097,-0.001319896429787223,-0.0005896510560582704,0.0017649030773069
1687553963.4272184,0.20517716751607426,-0.05819812620104483,9.677912230638363,0.00026556590261599724,0.00309057698302815,-0.0008089038316059
1687553963.4371166,-0.031170604629313748,0.06987061995548291,9.86413446580038,0.0004976869828569389,0.0010770488794307898,-0.0008569670613754
1687553963.4474084,-0.06320289743923875,0.1288455967733268,9.886947866911823,-0.0008963058574375686,-0.0013108516983074902,-0.0019242604035783
1687553963.458233,0.08625666612148827,0.03982977081183729,9.784908434797678,0.0006109315142295239,-0.0011216450939017183,-0.001035429188599
1687553963.4670117,0.32561309114889575,0.14800727920340814,9.705597487424619,-0.00021830580559781276,0.003148682311445528,0.0001779283624242
1687553963.477032,-0.09114346345032164,-0.002885699406201522,9.8714619198972,0.0009726579605327956,4.032210600941452e-05,-0.00055929890423
1687553963.4870052,0.09192262698301328,0.20278243263365447,9.826524521292324,-0.0008080290050138738,0.00013081981613844015,0.0007542125525984
1687553963.4970264,-0.0017551001944114718,0.1366965411554169,9.871222798583094,-0.001810879630771449,-0.0015239558642756708,0.0013580831813639
1687553963.5071335,0.15325665165436375,0.014766962949713842,9.739156812870407,-6.0358194707486523e-05,-8.225479320500994e-05,0.0014404060051644
1687553963.5170646,0.024807398502706465,0.05520322395361424,9.824443333240257,-0.0006698377065235988,-0.00031733049383521854,-0.0005462901905078
1687553963.5272274,0.06464658799275157,0.10180714351183552,9.81705655212372,-8.591399874699755e-06,-0.0010202865946987432,0.0010619149537857
1687553963.5370402,0.2758273551241913,0.08414221235724845,9.699443616225874,-0.00022355116954606767,0.00320717214918019,0.0009874503879442
1687553963.5470195,0.003281976716366851,0.1391805975062833,9.86792712326929,-0.001933803483772355,0.002045250498100414,7.06111308287705e-05
1687553963.5570078,0.04029109429459937,0.03843940509290439,9.814922748606165,0.0004369516150501799,0.0002802168068315325,0.0029938578367333
1687553963.5670326,-0.05932526045822733,-0.2156918996343163,9.786235338617223,0.0038675579227910985,-0.000807530684393314,-0.0019689825136114
1687553963.5770257,0.028701951706531188,0.1983860245138588,9.86442350196258,0.00262891556206829,-0.0025245732969882855,0.0004759234137933
1687553963.586997,0.2577800506315098,0.09983602197425806,9.713902464446281,0.0022657072448704478,0.0012346342819794668,0.0006607464159939
1687553963.5970476,-0.008203247565423254,0.1807502887129616,9.89739370740416,0.0002942978887341897,-0.0006332471046407557,0.0011841191875615
1687553963.6069815,0.2506801625702824,0.057545078789189866,9.705051408993636,0.0002104640758114829,0.003357669441001645,0.0005053908093001
1687553963.6170824,-0.06930307724515855,0.08059203250202061,9.88025135640518,0.00082810678459271,-8.486269992942182e-05,0.0016330099309895
1687553963.627051,0.1585639762943422,0.08872099972278252,9.764259719044832,-0.0001862905911142439,0.0022888849298514473,0.000254276673692
1687553963.6370962,-0.0023903334431304144,0.03540707589222678,9.838251631509877,-0.0011816819492252231,0.0018407256746329214,-0.0029125936567682
1687553963.6470196,-0.05325673858785002,-0.024513814945751573,9.839338875417798,0.0017184539718686953,-0.0012300174854474107,-0.0015223097294468
1687553963.657044,0.1725027367986296,0.2688291666225161,9.825195546113369,-0.0013090827220491972,0.00016732819411753924,4.379765541365991e-05
1687553963.667019,0.14689087376809187,-0.009127682093885498,9.726003615268837,0.0010370938921124403,0.001424990562027884,0.0010052876017622
1687553963.677218,0.048561592604389296,0.09434030657504132,9.826855446800957,-0.0005070463522160575,0.0015214894112032318,-0.0012633862212199
1687553963.6870174,-0.024352214112583145,0.14613679852431277,9.886828631454007,-0.001152262005148015,-0.001132418073547783,0.0004461308702926
1687553963.6971552,0.09601683963892212,0.1515884923775003,9.837454689374605,-0.0029504557827448657,-0.0006417993189395104,0.0001879865298148
1687553963.7071753,0.20198292134670165,-0.03574931703907341,9.701866125392343,0.0001139704297131458,0.0018269497296101013,0.0013390894831869
1687553963.717025,-0.030602950793947387,0.16082382114390784,9.901132940349827,-0.001495358115834567,-0.0006816642129734336,0.0016821857419896
1687553963.7272108,0.0966546198236951,0.002215741104256514,9.766872357799265,0.0001936907022153731,-0.00010014226458478211,0.0014665010161449
1687553963.7371728,-0.03761414450351126,0.1310333988052976,9.886448761115853,-0.0015627778222025866,-0.0020529402582867063,0.0001842476189236
1687553963.7474484,0.13895512495384707,0.01183410125211205,9.752449242217388,-0.00027122405303434274,-0.0004801326547786693,-0.0001655640086058
1687553963.7570734,0.041045426285095665,0.07861605036040903,9.812986878101585,-0.00025521468411429535,-0.0008500467211849736,-0.0003045208291981
1687553963.7670498,0.19133566727995535,0.10239915919106041,9.767585623791636,0.00024098886094771455,0.0009049470042197679,0.0014616679394718
1687553963.7770724,0.15746080800585774,0.03388197780265081,9.752840676021671,0.0006611921745997718,0.0034064821845073995,6.83835236456121e-05
1687553963.7870982,-0.10650943715100794,0.10387234716698067,9.912657464125324,0.0011794078415714765,-0.0010106057201172477,0.0018043678423024
1687553963.797027,0.0986652600313426,0.11195503891849012,9.794396251088086,-1.0078003216559435e-05,-0.0001943966079756709,0.0010798092111114
1687553963.8070278,0.09446633252790886,0.030479729812085184,9.769273026160493,0.0009767343131750852,0.0005842082139762612,0.0008563037839818
1687553963.817063,0.13082489386505688,0.06716330980147463,9.769232921412677,0.001398838016316864,0.0015844197440538612,0.001703059562166
1687553963.8271756,0.014454923431199066,0.1460715515703391,9.865771891284577,0.00017060494766279335,0.0003439018003542586,0.0025796206895362
1687553963.8371418,-0.06124699941990627,-0.18187131942986795,9.805114947323567,0.0047102368447318535,-0.0018964718971219616,0.0009061914455711
1687553963.847048,0.19455594863318565,0.46141332692297143,9.87539078545616,-0.003039122275343836,0.0006467728884982266,0.0011520622059803
1687553963.857145,0.03563512504596727,-0.10328564962680534,9.765239493547643,0.0005058764685315761,0.0002809552957008228,0.0002546604950081
1687553963.868961,0.08054349194502493,0.11144342443531817,9.81130867244365,-0.0004992225089658559,0.000477284507705126,-3.070069997498145e-05
1687553963.8774447,0.12891489333207076,0.04591301135790511,9.768723939311176,-0.00030361971384052834,0.0016961872067303982,-0.0008733588043499
1687553963.887088,-0.04430220208059141,0.10789017454106285,9.884709324548327,-0.00022689025215301867,-0.0012456700309998433,0.0006033362582426
1687553963.897011,0.03988013266568576,0.18089090523705456,9.85055419610679,-0.0031206941074030234,-0.0012527513377530424,-0.0005831734748456
1687553963.9072368,0.11483809235536226,-0.06780625009352159,9.734419280835628,-0.00015239912128953723,-0.00014634469890816801,-0.0011587332706797
1687553963.917049,0.101731698294467,0.042380999798906846,9.785285350167294,0.0006727647043912894,0.0003673719960994463,-0.001065599849065
1687553963.9285583,0.020544408711338096,0.10883055957718725,9.847153687229191,-7.491302948197663e-05,-0.0007807358197512992,-0.0008182235766101
1687553963.937105,-0.015756908193453364,0.0702227641421959,9.851611091013542,-0.00030585655101823697,-0.002108074071526044,-0.0013155519269306
1687553963.9471116,0.19058667658153713,0.12530330270720605,9.757727997080357,0.0006340205717282814,-0.0010116916924895441,0.0022547490074399
1687553963.9572024,0.12388789928960457,0.074399464238744,9.775117207103756,0.00029164969875209557,0.0004538177431364616,0.0012891748186999
1687553963.967123,0.1397858167144146,0.08892281383834136,9.772106001142136,0.0004160776956053246,0.0017982681242870574,0.0018338235089655
1687553963.9771,0.0027136134631163887,0.0839285922566886,9.843288279918104,-0.0015806803612537811,0.0015944619723677405,-0.0019108868442375
1687553963.987121,0.13744381202442837,0.07508963200620096,9.79115406493693,0.00033899963160601915,0.0018653129005777298,0.0017056560604002
1687553963.997151,0.04696143921607383,0.17222981267153964,9.853975933009892,-0.0032142176841679668,0.002318655002975823,-0.0011025023419309
1687553964.0070782,-0.05212636277365107,-0.025947657180143267,9.851722969928197,-0.0019033207134228308,0.00046574588605652117,-0.0029516849905152
1687553964.0170302,0.09852004269541968,-0.013681755059707647,9.764003017212467,0.0018015412514637292,7.30728668782619e-05,8.366862257084499e-05
1687553964.0273485,0.05201162050642667,0.1090248744490209,9.827634309093508,0.00025071044667356653,3.6939023649707e-05,-0.0013017683528263
1687553964.0413492,0.0535216812183159,0.06197967484698685,9.804286379391261,0.0017519807037547923,-0.0008980897235202484,0.000397333816542
1687553964.047509,0.15644435491121536,0.09702735352841976,9.768795680181357,0.0018417749145508732,-0.0001258514746999282,0.0011107305757801
1687553964.0570846,0.0417434643896819,0.09225382538907125,9.830140349545884,-0.00012818053932150476,0.000378569723170962,-0.0017767349496383
1687553964.06705,-0.018945989571259998,0.1724618853852466,9.905811537652093,0.000245485486742636,-0.00303121258296859,0.0026369738619875
1687553964.0770507,0.16640226129911653,-0.03868064085149743,9.72506334436615,0.00018997090610120812,0.00046163825464308277,-0.0020185118779439
1687553964.087157,0.0763238483590172,0.050905889776912745,9.794047559088972,0.00066533024151119,0.0005231077372991798,-0.0015647668629784
1687553964.0971038,0.09804288366685535,0.062046371784839634,9.782371768973567,0.001345182439899865,0.0008777439064160831,-0.0011099224217135
1687553964.1070268,0.0681340478688783,0.11943391716476903,9.819632222612537,0.0013045706773260927,0.0003681473688821302,0.000284855020615
1687553964.1171284,0.006945462246939649,0.050439774640209316,9.831908048539463,0.0014397876121599643,-0.0005367312229884775,-0.0004643324069578
1687553964.1271682,0.08859056364453735,0.13831770781919792,9.817055340429972,-7.044343165990322e-05,0.00011629453820773818,-0.0012060388695348
1687553964.1371682,0.11020294335997331,0.12140557865110684,9.817562773637016,0.0003922453796547795,-4.276504935566195e-05,0.0014802860236128
1687553964.1470764,0.11020120662303007,0.05639713359484614,9.765497878151335,0.00033002489047070054,0.0012703944934749538,0.0005649417866121
1687553964.1574018,0.004619925928240674,0.0422597407955585,9.834161660859609,0.0009115518779250642,-0.00016794297141433192,-6.127870259073874e-06
1687553964.1672285,0.04253121545936371,0.15013955609828716,9.842182039412831,-0.0009626349163725322,-0.0003225373639910244,-0.0008089115150172
1687553964.1770656,0.1551730164198526,-0.05237096859967116,9.721631513105798,0.0018976480730064915,0.0012439474623701376,-0.0003074776619572
1687553964.1871326,0.05876512714920622,0.08108805044924815,9.81577782069588,0.0016111140624741269,0.0010864004500135572,-0.0006193163577366
1687553964.1970522,0.16156368274962274,0.25867778357828536,9.822816697164956,-0.0010770461100948717,0.0024159121713619412,0.0012515293123184
1687553964.2070456,-0.012896501686884937,-0.06700867931083464,9.809771897677996,0.0015731530710255744,0.000754455330436689,0.0006115381833266
1687553964.2170992,0.047064186756030496,0.17012769081439408,9.855268941717434,-0.0012070170023270085,0.0007581690523526716,-0.0004464334348116
1687553964.2292085,0.014086446876822012,0.05463135723591511,9.842381316575196,-0.00023397830132481935,-0.0011193758401862733,-0.0002668898092482
1687553964.2371297,-0.01292990205305616,0.07271246830637638,9.842654727408224,-0.0008151124056944547,-0.0021307883868647622,-0.0014824507530678
1687553964.2471352,0.12308434931758475,0.08189882978589831,9.78005402021595,-0.001353048196635483,-0.0007841118796864452,-0.0022729561902482
1687553964.2573657,0.011090338704026488,0.06653435609904723,9.837107084299586,0.0005662255083100039,-0.003066585284092967,0.0002322973445158
1687553964.267074,0.16603348042082072,0.07454018510044122,9.754912190175027,0.0003855511686219518,-0.0010590376483052828,0.0002207589563082
1687553964.2770662,0.02548336851744014,0.09642969593782337,9.836327075058675,-0.0003423696271926147,-0.0020231360944199714,-0.0005287735262785
1687553964.2870448,0.15084055624885878,0.11291815884836909,9.782666880842799,-0.0005088989067744481,-0.0007017778136811158,0.0004535850015569
1687553964.2970843,0.08501528617149058,0.19024528935377932,9.836298896180844,-0.002775740716167023,-0.0005099293995175288,0.0007691274508003
1687553964.307096,0.049782347954979655,-0.0713984758048861,9.7636365747092,-0.00018481564523918574,-0.0003735771321716252,-0.0005250718682903
1687553964.3171935,0.12899834517284486,0.08981443630231802,9.780446786063758,0.0008977762444369751,0.00026158040230779995,0.0015842030110403
1687553964.3271115,-0.07079485232897169,0.06462486695062024,9.876161122108133,-0.0008266789295367744,-0.001365975798245879,-0.0023511875193465
1687553964.33708,0.2393636402799556,0.03548913069201681,9.697032557138716,0.0006146561571619663,0.0018861789830188459,-0.0014872940961171
1687553964.3471007,0.03675439934591601,0.09813210599023316,9.829110797309363,0.0012733044065972347,0.0009481421562661154,0.00026324146838
1687553964.3570938,0.0972863960029849,0.16470458565440466,9.832229278931559,0.0005099831591134751,0.0008423495696591716,0.0021798808005738
1687553964.367098,0.02698627488552344,-0.01985371057200147,9.80364056260759,0.0013351276761309362,0.0005163844343554923,7.659394704810033e-05
1687553964.3770986,0.10230450626068152,0.2365240238187294,9.840768102982228,-0.002558578277025342,0.0014577647393687312,-0.0009765516739238
1687553964.3870769,0.17175730145758786,-0.02099420194720602,9.715297484194057,0.0007700122724154247,0.0027254952157585027,0.0011122665304325
1687553964.397166,0.04876216215870486,0.0954443935281763,9.835033667032183,-0.001499815403294039,0.003203441609554833,-0.0024048314668137
1687553964.407145,-0.14113919720588836,0.16651673629608596,9.953187572871773,-0.0017795869050530435,-0.002388963561034559,0.0005113260698605
1687553964.4170628,0.14291709671339242,-0.13031547105113947,9.724528136464508,0.0022984803846338273,-0.0010083496484191614,-4.448078161963572e-05
1687553964.427263,0.008639740440353904,0.08894689053914462,9.8467026745813,0.0012248497643404285,-0.0017627420891449732,-0.0013125791452724
1687553964.437166,0.23745090542329578,0.1695726378831065,9.759583025706863,0.0008053995992473604,0.0008468181407943375,0.00121354716193
1687553964.447171,-0.019658834651465923,-0.008149794434658431,9.826716416160938,0.0023912311370406555,-0.0007844559628987231,0.0004971526208434
1687553964.4581678,0.10263305042448109,0.09646023057327345,9.798454179765983,0.001393974222322359,0.0005171412901018893,-0.0007288305792857
1687553964.4670844,0.14391635177991055,0.12679708292402875,9.791562226747992,0.0002626420194904897,0.0019483899312409422,-0.0010160318348456
1687553964.4771,-0.06053934663273432,0.04067278866907597,9.856390049297822,0.00021008122913402608,-0.00016832457960948725,-0.0026313323765892
1687553964.4870958,0.14856836288091677,0.1704955898088163,9.797028803972806,-0.00041167991692749636,0.0005808364016034193,-0.0001469508284602
1687553964.4970882,0.012230172231715934,-0.02714629818564041,9.806772858152835,0.002825982021284337,-0.001295966503889915,0.0018405247823435
1687553964.5070586,0.08459969846616765,0.3399559961011934,9.895146982337097,-0.0024806960262213156,-0.0011499327913760044,0.0022022271290521
1687553964.5170698,0.23196337586647253,-0.17788858050642528,9.635649775532125,0.00272385921965189,0.0022218802676611466,0.0017116044467881
1687553964.5272405,-0.13383588970315652,0.20024464656647872,9.962322421239406,-0.0010166565650739155,-0.0015101705900828013,2.9645277569803095e-05
1687553964.5372005,0.14243509151461617,-0.00017876726162836286,9.747628771738526,0.00015160807860435134,0.0002940059101785851,-0.00100782571881
1687553964.5471077,-0.06572900400192593,0.1248869931937186,9.891763328945375,-0.00021571033934534748,-0.002724985689240449,-0.0002538419799778
1687553964.5576217,0.15425741207450203,0.18634586208324605,9.807809588666402,-0.0013504304419251197,-0.001653215521908558,0.0023508708685736
1687553964.5670862,0.21068839211103402,-0.09011315076401155,9.673266480966086,0.0008072502116172464,0.0016961929484911942,0.0002177834970977
1687553964.5770998,-0.07268509429718699,0.2834641214329403,9.956658021242674,-0.003156465627967385,-0.0015150157113943076,0.0007903540967132
1687553964.587755,0.12459960641953362,0.0053078606689361575,9.757378763089907,-0.001767305206990916,-5.209471587285261e-05,8.365849443784604e-05
1687553964.5971596,0.06402108169425058,-0.18272557622266994,9.72668352042492,0.0030014553335498653,-7.964618294890295e-05,-0.0006654666509378
1687553964.60715,0.125528743411544,0.28436746570487426,9.8617685433352,-0.001680891599988357,0.0010893374876844418,-0.0009072580147434
1687553964.6171205,0.11412544051896861,-0.051321128393409764,9.736050578694869,0.0011331938847303539,0.0020106283380386053,-0.0007586021680284
1687553964.627265,-0.11115841767270326,0.22295235553606932,9.94717096227757,-0.0012278771866521933,-0.0023569297882141686,0.0004003170173715
1687553964.637113,0.18329749715212812,0.08204131260140382,9.750622053082346,-0.00023842654738016046,-0.000586666440642818,0.0026984197314929
1687553964.6471462,0.2152995178339219,-0.006040531976131769,9.70732105887888,0.0011320876462651505,0.0025597188956307357,0.0018155635620102
1687553964.6571386,-0.12871891048591516,0.11252101020573096,9.940075698714688,-0.0003028826034514245,-0.0013190597321008292,0.0006316587090592
1687553964.667216,0.06082826909681988,-0.055081674096219856,9.779499859664295,0.001227843365608866,-0.0008343943546125149,-0.0018762076511878
1687553964.6771054,0.19058714595912832,0.24286873201525042,9.795049957021963,-0.0011358741103897052,0.0010800310632959568,0.0004461265629257
1687553964.6872597,0.004405599428756569,0.048646598931166345,9.828164414473415,-0.0003371707455557771,-0.0002048289872732702,0.0007236627274293
1687553964.6971056,-0.0944940238106739,-0.053384388677060336,9.838891199094284,0.0011809008217682254,-0.002704119862770653,-0.0012727159779418
1687553964.707132,0.30633254653651265,0.12242526367613214,9.683024084413178,0.0010493824480115547,0.0021316888744670583,0.0002099775005232
1687553964.717386,-0.008288107919168274,0.15401979735148896,9.877206438595495,-0.00028835602326257435,0.00015615712728784962,0.0004714765813302
1687553964.7271874,0.1453607807110639,0.10914633221735964,9.773007933785285,-0.0006318392751074664,0.0015892777219540441,0.0011983044672857
1687553964.7371566,-0.027176749359452974,-0.04842710779326897,9.824247649812765,0.0001601515500675223,0.0007388102511002199,-0.0022692187927562
1687553964.747115,0.07327814303344954,0.17888935168604098,9.841940170576033,-0.001895490961782473,0.000770452767168243,-0.0023340481571752
1687553964.7572055,0.1667015442399999,-0.006880258834613046,9.713120549269329,0.0011473558048568748,0.002363017554789973,-0.0004598774254221
1687553964.7671158,-0.044611118134776244,0.024438121807238672,9.863962953443025,0.0020615520648596722,-9.71582399613871e-05,-0.0006643739767272
1687553964.777096,0.16692494281283327,0.31364657388160866,9.835539234645855,-0.0012286222147968194,0.0007767905570701659,0.0022141571384023
1687553964.7871757,0.010012709075221117,-0.04477058109358546,9.798457737214587,0.0002845862368494574,0.00022023759889630885,0.0003112852567907
1687553964.7971652,-0.05305185197201792,0.12059036052898274,9.887864598118982,-0.0013288192743009179,-0.00212074630917973,-0.0006904556654293
1687553964.8072023,0.21219092506466491,0.06057738606077323,9.727060051905756,-0.0007112177784772693,0.0008282037301359782,-0.0005578466230902
1687553964.817176,-0.014389336655669091,0.16934101394362028,9.894297695276325,-0.001155221517233301,-0.0019598125072730274,0.0020196989638831
1687553964.8273685,0.031189837924188158,0.12546104026179195,9.847574061904703,-0.0025697245835948567,-0.0027957639531810703,0.0013115146315582
1687553964.837126,0.18787667202505484,0.026449626267736642,9.726919328569675,-0.0017080710555029191,-0.00013926146223050954,0.0006625730888087
1687553964.847134,0.09742592587575284,0.06741947736471579,9.798040852912631,-0.0011056847797399885,3.806884390648945e-05,0.0010503868683341
1687553964.8571289,0.020813739482504062,-0.1037620940180712,9.764517810146568,0.0025309543581455833,-0.0007550743439618062,0.0006242296070892
1687553964.86712,0.044446243510651115,0.13890520673036227,9.846519341873455,0.00039150744918140684,-0.0007107211269472311,-0.0010164115816254
1687553964.8781908,0.11966048527380048,0.07491168873136343,9.784666853636338,0.001965819709836051,-0.0006820453690013839,0.0020632868976432
1687553964.8871152,-0.008568328273148991,0.1407512496153518,9.870782217579261,-0.0008184772812386025,-0.0009874766196853364,-0.0009038947760958
1687553964.897152,0.033044300559770555,-0.029438350984300234,9.797794551292116,0.0012908032301745035,-0.0017608832271032227,-0.001328957151239
1687553964.9071724,0.20146678921689878,0.19215457015517737,9.774423316905057,0.00018437628172937614,8.686774934328651e-05,0.0014366785102507
1687553964.917246,0.038222200614034085,0.0274583804577506,9.801317457931116,0.0005896835112948877,-7.069977889218429e-05,0.0002568964840944
1687553964.9292736,-0.0020180547290465953,0.09766468598771393,9.848002967804431,-0.00016729472497333306,-0.0016703597771802556,-0.0006025430053372
1687553964.937166,0.09694722739736973,0.32475679795183277,9.869974180234978,-0.0036798734619877785,-0.0015124203401352845,0.0004379524611037
1687553964.9550312,0.08836588324754557,-0.020628553092709695,9.756103327508029,-0.0009145852724793626,0.0002127659082305049,-0.0011844394035536
1687553964.9571345,0.5306375324830466,0.23098267553082713,9.612686928424386,0.0013205695361965329,0.0004053830848536699,0.0042191274691473
1687553964.9671292,0.1125053217971017,0.010696869011803275,9.775386725973652,0.0008430111310847473,0.0022244345510968647,0.0008290625986743
1687553964.9771504,-0.003395863663300355,0.03259693197145027,9.833265057835831,0.001914760716234544,0.0006084327734649354,0.000597406702033
1687553964.987136,-0.008870367811068381,0.14395240807855308,9.879820375121998,-0.0008680436634793765,-0.0002644227007437366,-0.0023087208397586
1687553964.9972942,0.11347831749942272,0.10059028650880915,9.791957727186325,-0.00037144513686027017,0.00015839929873253373,-0.0005395733756844
1687553965.00727,0.15640658730605292,0.04081129106716968,9.758556041235654,0.0005006712987030406,0.0016000810422397817,-0.0003123031934622
1687553965.017153,-0.1130581559162056,0.12040800837451493,9.916200810956232,0.0008139613071313095,-0.002948483319978064,0.0017257782450511
1687553965.0277038,0.2174218804869943,0.05512093149029857,9.730409429702272,0.0006604472055710616,0.0007406781819498716,1.99853669952477e-05
1687553965.0371325,0.0015289750397593643,-0.059888921979579554,9.79098977649625,0.0032763723868969143,-0.00040896158147821476,-0.0002176989806715
1687553965.0476336,0.058446655781344566,0.26529742120188676,9.886052129199117,-0.0007547657264221066,-0.0006842685539701373,-0.0001249531056631
1687553965.057211,0.07877233206876848,-0.08207973026246511,9.75625885916906,0.002589419664612506,-0.0007181548157311357,0.0001626188162814
1687553965.0674143,0.13780195569133116,0.03266308492748104,9.757232583997844,0.0033099040130380197,0.0008863123982242266,-0.0003156907629121
1687553965.0772047,-0.08782250985509342,0.18694885878064216,9.930357510018212,0.00045258239809976516,-0.0017116974458921943,-0.0014712858252126
1687553965.087207,0.2330466584655837,0.17874171757753404,9.760436613591812,-0.0008259279848842463,0.0009343741992486191,0.0003653101151909
1687553965.0971866,-0.05998762015776987,0.018363510484500276,9.858340111827161,0.0005285986154294546,-0.0019896103032852144,0.001005308411001
1687553965.1071744,0.016053822065780102,-0.0030196084606355085,9.803650363675894,0.0013191046518134506,-0.00261025585931315,-0.0004430945269663
1687553965.1172688,0.21351572480683498,0.22358861802464108,9.787887777724462,0.0007766977045036505,-0.0010221465739361976,0.0042511449422787
1687553965.1271827,-0.006468890076604923,0.013221564551063375,9.831993487063823,-0.00030772181973495,-0.0011193879102342212,-0.0002635384449634
1687553965.137139,0.05596136462856725,0.033584412101581904,9.815517995786578,-0.00024701926132065323,-0.0010757953334042784,-0.0018750933237273
1687553965.1570847,0.08600948426229771,0.0745062769808878,9.79625560615019,0.0010896172777477417,-0.0009636541456924059,0.0002546535100888
1687553965.158291,0.5963563010975992,0.8863083645549218,9.806508818612743,-0.0013303274117347432,0.0005823322290817086,-0.0004673049557853
1687553965.1671522,0.013937930452610502,-0.14370712933042235,9.750919677927191,0.0021371858201644682,3.3971247923320454e-05,-0.0012034099787373
1687553965.1772325,0.12296995763083478,0.13113351559066455,9.805035982174621,0.0007014343103071642,0.0011553107843442943,-0.001645973534872
1687553965.1879137,-0.01726792432054393,0.21481572785665515,9.905902057758626,-0.0009671052965660382,-0.0018569888153699822,0.0009099347802445
1687553965.1972575,0.1772317984494396,-0.039922850812935,9.716915263838246,-0.00012258345865282202,0.001187686958368367,-0.0018698767531562
1687553965.2072768,-0.011796409600168718,0.061218028269877295,9.853881543726024,0.00022869824321153834,-0.0005602329858490485,-0.0017022591788221
1687553965.2172298,0.17218503919750255,0.29754482381333636,9.82850328525376,-0.002095882355466679,0.00017664026334289539,0.0021389148891072
1687553965.2284129,0.024309540877609757,0.010868754747548566,9.812737343021679,-0.0005312470593432948,-0.0007163070872245964,0.0019720185076918
1687553965.2373996,0.1793896477357845,0.0649648956172477,9.753093313289806,0.0007118757022338355,0.0005905302601092767,0.0037728209275852
1687553965.247242,-0.09951829664834226,-0.13597690360463227,9.81541191285271,0.002694851499314754,-0.0011816069589513272,-0.001039523981129
1687553965.2632875,0.048367356868152384,0.1561962649976851,9.844954915897882,0.0008549368890931315,-0.00222763734478954,0.0005478319939326
1687553965.2673378,0.1936952115553024,0.21631508939824226,9.786460299607846,-0.00042098005506419864,-0.0010608869504197124,0.0002863246476378
1687553965.2773128,-0.02140895029477796,0.1617065699331336,9.895063492219009,-0.0029873258687073117,-0.0023252646364684214,-0.0017365150857616
1687553965.2871845,0.13456268559697016,-0.12527394984619578,9.704174731070607,0.0011034199123822002,-0.0009517522722235337,-0.0015953184343773
1687553965.2971697,0.160658063122856,0.21849172875581427,9.801443133402936,-0.0009652461325103998,0.0006613035314192429,-0.0002858907688308
1687553965.3071537,-0.03690171937184902,0.13015357547237413,9.884208396709747,-0.0021550975318644526,-0.001490799423933663,-0.0006580433115262
1687553965.317139,0.22536422740851386,-0.09707626860465489,9.676752871665338,0.0027984096456853316,0.0008494485949326642,0.0012623575234071
1687553965.3304746,0.07124184881926654,0.1583927981179884,9.840894145831774,1.9715607441109054e-05,0.0009827991635232949,0.0003507644863899
1687553965.3372068,-0.02250744232032836,-0.12364745251910425,9.803432493765847,0.003256254863164033,-0.0005750998032868554,0.0006968533847581
1687553965.3471992,0.056507755331108314,0.17621402986233856,9.848133319250797,8.119143900305413e-05,-0.0003057809158939028,-0.0013583902042258
1687553965.3571813,0.1271880636758806,0.15809935782013093,9.817030013292756,-0.000176234208584415,-0.0001094555406372825,0.0014374134110736
1687553965.3671556,0.10628948253272756,0.010339935591683978,9.77080620232858,0.0007685184279209179,0.0008840807247985689,0.0004573358450185
1687553965.3772686,0.007227762829384837,0.11299653445914916,9.847537337876993,-0.0008635611802146788,-6.732998702947711e-07,-0.000785444048782
1687553965.3871958,0.019588179377991188,0.09653202311274693,9.847924691363442,-0.0018444110280601686,-0.0007557992310635399,-0.0017350231069971
1687553965.3972642,0.15967879557328246,-0.008835675198981856,9.746582323369383,0.000978237396006723,0.00017255851770917705,0.0002799893258239
1687553965.407356,0.1617239984350276,0.12957169087790674,9.769294196443065,-0.00020675809503291592,0.0023555652435753227,0.0003660464421015
1687553965.417131,-0.07382371949199464,-0.16408257230795947,9.806664866911024,0.004839878079561252,-0.0005683953171527282,-0.0004669218329612
1687553965.427336,0.11125182230120399,0.33652050609961964,9.863916488113416,-0.0012100087440812509,0.0008647088544904913,-0.0015707378048349
1687553965.4373276,-0.024746797332482678,0.08813180368737339,9.861484308676978,-0.00029394405456801604,-0.0018696505131616257,0.0003641804209079
1687553965.4472384,0.0952664599923792,0.04745663984970078,9.792509797749926,0.00023318262729997443,-0.0014624817532643093,0.0002755161834981
1687553965.4571729,0.14256850753842615,0.18498867763014226,9.80937065254923,-0.0012476403077202138,-0.0004220130337193722,0.0018800125684689
1687553965.4672189,-0.05059534457522311,-0.07360350460792908,9.824159516761881,-0.00013413388776677485,-0.0016450295778005072,-0.0018236903712052
1687553965.4771788,0.05137770067870037,0.17841267327613275,9.84893497985815,-0.0020962305879655843,-0.0021136659138809347,-0.0018650385323811
1687553965.4872007,0.2758017500866059,-0.042026815192001694,9.663626970631913,0.0014390739716663786,0.0016623037966019558,-3.848574179151406e-05
1687553965.4972072,-0.031535801841945786,0.16008829779724112,9.89578608979081,8.15636243079334e-05,-0.000790441182737882,0.0009516536951165
1687553965.5072246,0.0633483700299742,-0.04224333286893995,9.763209268044202,0.0011693352011950219,0.000100292816796208,-0.0018329975433547
1687553965.5173154,0.10534422264792784,0.11595718271895351,9.805624780448483,0.0009201414296610691,0.00037221343444801666,-0.0005533695226434
1687553965.5273397,0.028701862781063837,0.07999517436871782,9.833575562592316,0.0013168677222771944,-0.000895851862246907,-3.8748845357572045e-06
1687553965.5371816,0.21107349142502577,0.04597285849113752,9.723773684292386,0.0024508411946340277,0.0017383061287962994,0.0011538784014161
1687553965.5472577,-0.06550697606895511,0.13360357185706961,9.897271694249927,0.00014115350101008843,-0.00022640273676060752,-0.0009676016639817
1687553965.5572193,0.07685613470449058,0.17454442864762706,9.839019142043195,-0.0006225160273028644,-0.0007397758433881808,0.0013107695589466
1687553965.567237,0.016488875475916286,-0.16281541079759915,9.766536011129096,0.0029999346880381166,-0.0010340359919615717,-0.0012976977746833
1687553965.5771737,0.12884474819257988,0.24136625698613406,9.83176776826682,7.336163460315035e-05,-0.0003273801698215679,-0.0002143605384875
1687553965.5872436,0.07181072453720301,-0.025458181029149235,9.776313444686618,0.0017683719393935952,8.277459895096119e-05,-0.0009951799880612
1687553965.5972114,0.08618796389940624,0.2310643051395452,9.852753740472624,-8.459004531634085e-05,-0.0005643180159232678,0.0017015619081545
1687553965.6071703,0.1244313869345201,-0.059818126513811784,9.7429114452918,0.002046281652382437,0.0009489153425224481,0.0002334512531857
1687553965.6172578,-0.06716289799896075,0.08929986858770628,9.889910728667704,0.0010397091759002364,-0.0015194771949245927,-0.0013054966699231
1687553965.627385,0.13322959594695719,0.06305460903162073,9.75718057319687,0.001653993226106152,-0.00019511000908764388,-0.0006759240064669
1687553965.63721,0.1760343454806366,0.22729622189924495,9.80295685452476,-0.0006076172267988553,0.0014659718415030902,0.0010231843620173
1687553965.647217,-0.012646628184457071,-0.005747376021994505,9.827227183428285,6.0315490736594984e-05,0.00035360519042691556,-0.000615198514973
1687553965.6572003,0.08545995383689074,0.17854872537820235,9.830368853989793,-0.0021852666857960293,0.0009246860014985824,-0.0010834689024735
1687553965.6672273,0.1001745947526525,0.07925474240984992,9.796393168452434,-0.0016376763124272896,0.0014186532647453474,0.000120537587824
1687553965.677333,-0.015247302655569167,-0.003282746007147136,9.822726677610998,0.00011770401886018926,-0.0003791662439167519,0.0001566824497755
1687553965.6872609,0.01714036124261845,0.047820338588471525,9.820451656820412,-0.000469777724270509,-0.0007192765625547067,-0.0021392082568157
1687553965.697204,0.1133926031797253,0.11738312874413694,9.81050162044137,-0.001493128856392468,0.00012148893993443425,-0.0019391780957479
1687553965.707171,0.15147804525638425,0.11523604811381137,9.782255398391186,-0.00243451786865706,0.0019055400730073411,-0.0022539658244598
1687553965.7172072,0.001541694622969273,0.053126209426584615,9.841524137427221,-0.0014014706738269757,0.00019637403741501564,-0.0010372850816596
1687553965.7274628,0.06856768105997967,-0.026974478413328,9.774260708433792,-8.460346308702714e-05,0.0008069880020183551,-0.0028600516967374
1687553965.7373366,-0.019994215828808438,0.13971287681428646,9.87966658728559,-0.0007469347167698123,-0.0015336396106856403,-0.0013680775888163
1687553965.747219,0.22268861086872146,0.04051439496031013,9.715902643342332,-3.80314557280467e-05,0.0014432460553309987,-0.0009434042736787
1687553965.7572155,-0.08766846029484306,-0.002368804252904611,9.872092101352848,0.0021658656231441473,-0.0023188989637033535,-0.0003428845671836
1687553965.7672684,0.12933242508937923,0.2986777045848345,9.8599839424734,-0.00279063831507966,-0.000843337682073619,-0.000575338490856
1687553965.7771971,0.12548394611155766,0.005964229697884202,9.758430221735212,-0.001513982083158965,0.0006195969847463783,-0.0014608233474094
1687553965.7872,-0.025647735744418816,0.07685803157352793,9.859652039904722,-0.0011414708805415146,-0.001535132752802683,-0.0012045394401896
1687553965.797196,-0.04196809225833829,0.17497478847900502,9.90372649655645,-0.0019379014176376715,-0.004843185666329074,0.0015719169890841
1687553965.8071978,0.2556813023752517,-0.00456898509383629,9.676615924360952,-0.0009615167790666693,-0.00026665998560725,7.994717397800336e-05
1687553965.8172326,-0.02491818873584581,0.04800407672613741,9.845115515457586,-0.0018555716172179587,-0.0012721211782111832,-0.0023605026077378
1687553965.8273013,0.13556258676542599,0.20829112248980108,9.815162512991368,-0.003024211022854649,-0.0007870839736510743,0.0006000022398408
1687553965.8380086,0.05322017701785856,-0.025903780638892177,9.781063522660135,-0.0017196267402310144,-0.00043205662108458746,-0.0015670090220768
1687553965.8474245,0.011970976519488303,0.07355452882411172,9.849657020462109,-0.0014148822964926474,-0.0017795059153347859,-0.0010991139575738
1687553965.8574286,0.2547049099474309,0.11160358332052721,9.72389158682685,-0.0011500206571983687,0.0012845478333285444,0.0012139446038387
1687553965.8672185,-0.0927880648593836,-0.04663532377218509,9.864942394886496,-0.0001710202976503263,-0.0012568498281755414,-0.0015364674623955
1687553965.8771827,0.08477035739912553,0.17258165746670798,9.840879457131532,-0.0018015619462942618,-0.0012300300857547234,-0.0009579291805524
1687553965.8872447,0.34150582641719646,0.18221435397552013,9.706989884015641,-0.0009525889564470563,0.002413308989362865,0.0046557149611513
1687553965.897291,-0.0676254463619134,-0.01716837752509405,9.861478650517055,-0.0005901020105453404,0.00047615783189430426,0.0011420032964421
1687553965.907224,-0.009684094394922144,-0.13839030479951556,9.780128966749622,0.0022381239091943924,-0.00012320081022747204,-0.0020475677452881
1687553965.917204,0.04332278881653001,0.14542448337190994,9.843234085381564,0.0015910385953767344,-0.0013287235809653006,-0.0006241522502053
1687553965.9274275,0.1873769044412868,0.22808719282917478,9.797192172255793,-0.0016480892577068168,0.0012659326330212244,-0.0003983548382196
1687553965.9372213,-0.05922900342800757,0.07810806076100484,9.88654784155777,-0.0011570924946261551,-0.0018853009728136715,0.0005564021988872
1687553965.9472227,0.18671281540560256,-0.05334329109963487,9.6999908709452,0.001814571107351733,0.0002656739023449052,0.0010883619246639
1687553965.957217,0.13080461885405592,-0.015624034431419706,9.738601049754081,0.003401146198139546,0.0020970587628719208,0.0005355445313367
1687553965.967227,-0.07369801078365179,0.16566177338528015,9.91099188367219,-8.649088355925777e-05,9.345369276181549e-06,-0.0024227449908752
1687553965.977245,0.09326881003960878,0.1468123069172386,9.81400335280231,-0.0008311314683253851,0.0003237972428755587,-0.0008375981129605
1687553965.9872165,0.02219875640261946,0.20867626767547376,9.87306286464127,-0.002231842548000595,-0.0015053263971023059,0.0014445133414452
1687553965.9972007,0.09268836769270165,-0.08809161935609153,9.744172878183317,0.0010244453720887948,-0.0007703219966894289,0.0006339029636334
1687553966.0072496,-0.08969699833270169,0.19570785776906863,9.942105675422264,-0.0021468977107627707,-0.0036153314698647815,-0.0002992940140787
1687553966.0177815,0.2254816142296853,0.05099149388665225,9.7179496129315,-0.0009205348179584062,-0.0007543010754202531,0.0008317073801632
1687553966.0273664,0.019534226437400937,-0.057760567916701644,9.796500332872554,0.0022012551193737306,-0.0019441475442125277,0.0020405655372056
1687553966.0372238,0.1657125359665589,0.2994374572551465,9.83470092538994,-0.0032924457329906735,0.0006437808081720743,0.000125003163154
1687553966.0473216,0.085617352574095,0.0957020553331557,9.804937477418317,-0.0031389333332822026,0.000491436865758675,0.0013469240906457
1687553966.0572965,-0.033983065571734805,-0.15913104986734947,9.776267830694955,0.0009398712458123687,-0.0009364659774748522,-0.0007720313738931
1687553966.0673113,0.027490569658945294,0.10464733785837431,9.850514591817237,-0.0012077619301926485,-0.0009525039288730843,-0.0037358828127283
1687553966.0772169,0.1893650020309953,0.06315940778529765,9.744745308588932,0.001046031812207951,0.00019006872616380958,-9.923183879741778e-05
1687553966.0872638,-0.04804755742379822,0.05316910699897431,9.871857162812317,0.001291897967503858,-0.0021873983024882407,-0.0006394203524936
1687553966.0972328,0.26567741876646433,0.13565824466525578,9.715926990728311,0.0006083137519191264,0.0014845933705049902,0.0003634183662112
1687553966.1072707,-0.04529809729335345,0.04688354440937423,9.867624714352635,-0.00019669695036673586,-3.867065548384447e-05,-0.0021339916862446
1687553966.1173162,0.06464479027782266,0.11693402279256615,9.820423542090646,0.0013012222240408673,-0.0016062746007774428,0.0022786085022713
1687553966.1277654,0.17787839757427323,-0.01432778780480582,9.724533390542092,0.002519780033662601,0.0012066743241879272,0.0007445405348304
1687553966.1373613,0.022704696038187127,0.1768225061215692,9.87524145517442,-0.0007581164835717778,0.0011049943046772274,-0.0017376289475608
1687553966.1610715,0.10157801826506353,0.12771949918770809,9.795414152264714,-0.0012480211487573363,0.0020303516223527662,0.0010891218256771
1687553966.1629066,-0.1566211593755106,-0.6591117907344638,9.680719785642793,0.0013116375440165786,0.0013367005134964057,0.0005224547925505
1687553966.1725926,0.0750264400283106,0.16417901158550482,9.841771346911123,-0.00033420488743982865,0.0012417156789945936,0.0007162211108121
1687553966.177212,0.051991754027808805,-0.0706846227652668,9.76608516792202,0.0009938826738792844,0.0011415084285038382,0.0006804629223521
1687553966.1872103,-0.07516924657150237,0.129461958406265,9.902667995967887,-0.00011922869780983302,-0.0017593926907823502,0.0005970128107916
1687553966.1971996,0.15960302098535656,0.010484585748056063,9.746672023045278,-0.0005204599921935778,0.000832279936746007,-0.0019853735580939
1687553966.2072728,0.04059262094603246,0.18126793691699192,9.859394025563951,-0.001944987871948889,-0.0003385665188627572,-0.0007381386827577
1687553966.2172277,0.2076822162291637,0.03822817078747512,9.723597830764605,-0.0006180484715990197,0.0020016592455178316,0.000427484046119
1687553966.2273102,-0.1167531122303076,-0.042427188111669276,9.866559534381581,0.002129371300313853,-0.0023256511128305394,0.000725931603844
1687553966.2372477,0.16301980245640724,0.14120054210960448,9.776692013206103,0.0005524442070501107,0.0001568897481559616,-0.0001663228036735
1687553966.2472537,0.08077355248204073,0.1324323164625195,9.827976421242509,-0.00042509833703777616,9.172321210493931e-05,0.0002051227487724
1687553966.2572377,0.009481261022397951,-0.05399456616230598,9.793630160335454,0.0018954203962085196,-0.000879491529566879,-0.0003186612162638
1687553966.267263,0.16695832167183258,0.24775128277625863,9.822839417049334,1.9723755214958506e-05,0.00010587094955802826,0.0029457914637502
1687553966.277233,0.0009840548870910016,0.01454687447024392,9.83409987860983,-0.0012371973896728463,2.0184540356209693e-05,-0.001507404610132
1687553966.2872896,0.006686185453210493,0.09818304698490869,9.866366080980418,-0.00045263932672922816,-0.002439624497236287,0.0010820473538812
1687553966.297282,0.13672639026177363,0.11647232033106697,9.780733169290842,-0.0026278414564130667,-0.00015753598617652194,-0.0013759174622494
1687553966.307276,-0.012071394877948192,0.13967133304135784,9.875935715269884,-0.003363958623764611,-0.002468672606789861,6.988469922057042e-05
1687553966.3173482,0.23409957517578395,-0.05654274593388344,9.674770359745047,-0.0005189787567361476,0.001107977965457169,0.0003261967789482
1687553966.327411,0.05257062665804994,0.095113937643821,9.833924707276575,-0.0005867692393562897,0.0005074586611484219,0.0009736323258008
1687553966.3372812,0.09616415752053924,0.11955617411122836,9.81779977741086,-0.0005241819830958688,0.00020310144569065487,0.0031249873567473
1687553966.3473153,0.03454572941914525,-0.079668241435228,9.77351567180493,-0.0001546076673246851,0.001225321618629586,-0.0021529867086459
1687553966.357276,0.0325473335987063,0.1969642384955283,9.867961231091034,-0.0006355589183615961,-0.0008239603374095599,0.0012981106332487
1687553966.3672383,0.15875804487040265,-0.003929741738747,9.73748157621704,0.00042241242493199367,0.0017144495750424356,-4.82175970349585e-05
1687553966.3772664,0.03210365312474151,0.11311247953316668,9.84182246880857,0.0002570155556784405,0.00041098449621050225,0.0009233599988844
1687553966.387265,0.09535700604100193,0.10829646172740127,9.802174284228977,-0.002019134645030956,0.0020493685800914304,-0.0019559032522041
1687553966.3973713,0.02195457866380887,-0.017119365708242407,9.80802668892318,0.0010136017078192139,0.00038641332491780685,-0.0002724743686515
1687553966.4072928,0.03325639115149305,0.3093088196671805,9.91310007274143,-0.0031989262352488793,-0.0009517450624338584,0.0012653338630085
1687553966.4173186,0.009276097225414235,-0.15669186523584605,9.760289212646779,-0.0006560372830175493,-0.0008321666242016682,-0.0026343088835377
1687553966.4273665,-0.023420462213936243,0.1648287593429363,9.884062908602392,-0.000910098232273336,-0.0037304313926413138,-2.6611029719201228e-05
1687553966.4373467,0.1557673859109333,0.08456140432420656,9.768288828842124,-0.00034572423418562,-0.0024243505960633346,0.0009706626000448
1687553966.4472847,0.1358863495580561,0.017299067802496147,9.773735408306802,0.00014450776884469268,-0.0007941490765407556,-0.0006219031061876
1687553966.457512,0.11377041025528976,0.08299207784760464,9.794238397362076,0.00022313267571147464,-8.376045520097552e-05,-0.0006543308269132
1687553966.4673195,-0.040551553160091375,0.08346414466922202,9.882151626750312,-0.0002589057045485302,-0.0020510512193772563,-0.0017636985290695
1687553966.4772472,0.17419553413566297,0.14197912050002726,9.778363178014997,-0.0004537671714522107,-0.0005263100914832877,0.0003057083807986
1687553966.487296,0.09309428504758337,0.08047381471861702,9.797318244251398,-0.001766938511739452,0.0006218398695859892,-0.0016336630802501
1687553966.497351,0.07251770733803793,0.1503743770024983,9.831212676003904,-0.001956170821695107,6.973388290888343e-05,0.0006249589490804
1687553966.507254,0.0443823926771078,-0.14996552031878213,9.75627672052227,0.0023983116228608516,-0.00029793116848400526,0.0001775452396001
1687553966.517284,0.10136921977594238,0.2206610418955754,9.844138815844198,-0.0008162472170408999,0.000433694510330443,-0.0002694836590338
1687553966.5275626,0.07718930572899955,-0.026497598041585954,9.772144123910037,0.001242749489035752,0.0008930103399055039,-0.001003003097688
1687553966.5373783,0.16278686937011777,0.33823772106274885,9.849980371686058,-0.003403088361052929,0.0022642894778197313,0.0001626407023619
1687553966.5472836,-0.05316635140220119,-0.09217736020086069,9.819789079653695,0.0006560148621369449,-0.0005956205963623546,0.0010440580075707
1687553966.557358,-0.003018812095387589,0.1176536689289288,9.858594017513036,-0.0010665601108660393,-0.0015235835720182884,-0.0006684706319023
1687553966.567354,0.20636240557385008,0.20177430867260682,9.778978471184224,-0.0028345868607548416,0.0009611928218861221,0.0010514945310175
1687553966.577362,-0.04489046866528284,-0.16335819445262456,9.790550607993646,0.0015567771935246421,-0.0011882955944509123,4.566810038945327e-05
1687553966.5873282,0.19721267760376757,0.058780402699728035,9.736144882652477,0.0020894798132197194,0.001064028790020652,0.0003705249395321
1687553966.5972807,0.07594630431140231,0.09790829357262437,9.821464424692692,0.00144164673478715,0.0012294329869880897,1.8834834369632104e-05
1687553966.6073844,0.13550490158952,0.28139588977200086,9.842607045742218,-0.0019330615708984934,0.0020459936954836493,0.0013815440064687
1687553966.6174123,0.06053153929073002,-0.041880499345844494,9.772602434260019,-9.132219043607933e-05,0.002229653531774118,-5.394919392851492e-06
1687553966.6296828,-0.006389846031242136,0.10987529250744285,9.857751225379568,1.2641224103731196e-05,-0.00035569498193872904,0.0015305660775963
1687553966.637397,-0.02550156672264512,0.08068983376313968,9.860373853376208,-0.00038781976636753185,-0.0015965923384957952,0.0005049968016434
1687553966.647375,0.17565415959787611,0.061106831804170335,9.749699598602978,-0.00027867196138295694,0.0007063799689331147,0.0001060117496278
1687553966.658086,-0.05305664494912438,0.09596480447523255,9.880940746376252,-0.00024588269326091065,-0.0022622961431567703,0.0009438450209896
1687553966.6674533,0.19347114430160045,0.04392005020828505,9.737704975383293,0.0001657514024143117,-2.30244057635744e-05,0.000395846552598
1687553966.677406,0.0314024150142666,0.0942675562814997,9.843224843013711,-0.00035802553755338574,-0.0007181539058925407,0.000203631934161
1687553966.6880028,0.14558638916065864,0.1396256632947817,9.796314642488277,-0.0016533126733479242,0.0008512959345773621,0.0005448603764276
1687553966.6978734,0.11124108188654139,0.04740817471458239,9.771582942357787,-0.001446960654306987,0.001938351325237801,0.0002681108884613
1687553966.70752,0.02606168435582116,0.046952868171655955,9.824415763748613,-0.0013918019748242589,0.001392205520228987,-0.0004717799607563
1687553966.7176435,0.1882692483845167,0.0867434505924599,9.754695024745777,-0.0006866274632424174,0.003342028757476938,0.001104049413149
1687553966.727559,-0.18934396207009363,-0.033592487958090285,9.912819839725906,0.0001028011062449185,-0.0010791439067641333,-0.0014649330411005
1687553966.7373483,0.13708888832048488,0.18912888755127233,9.820713669691115,-0.0007298076324744919,-0.0007893195786827636,0.0012839598270117
1687553966.747352,-0.023596677288962736,0.06266093254514468,9.84750722188495,-0.0010211304092243333,-0.002287622818382686,-0.0001573581254009
1687553966.757344,0.24487529372135936,0.10750146332317413,9.721203086043287,-0.0014297998515537022,0.0013247865125602717,-2.210366128870597e-05
1687553966.7673335,0.1520849889861653,0.009768359458751935,9.74677052290518,0.0005882093665205346,0.0025969652331115146,0.0009211002028647
1687553966.7774286,-0.04845222706910842,-0.006194285050962048,9.844949322290985,0.002108852327006395,0.00033461793230848876,0.0002725364169206
1687553966.787372,0.03569862973672725,0.2128440015549865,9.87038575498802,-0.0007871761555137527,-0.00031285789570801334,0.0001671087224136
1687553966.7973006,0.1848055319442918,-0.012313977672758833,9.722320205767051,0.0010709836851522153,0.0019029398093163756,0.0002460509998824
1687553966.8074608,0.035535563566205734,0.14988754566665502,9.859675823587793,0.0006939873306021826,6.154713933001133e-05,0.0022849311348151
1687553966.8174622,0.0674439643278027,0.1987625715903515,9.856222646588026,-0.002219154464670426,0.00014834682207358495,0.0016579761862855
1687553966.8273635,0.15881809645929526,0.02084366096938456,9.733134562696932,-0.002772038777377281,0.003113275963824455,-0.0014943891443211
1687553966.8372934,-0.10003390564876076,-0.22260738286282225,9.817946378815199,0.003039070935036133,-0.0004111523326285331,-0.0021138625457782
1687553966.8530376,0.15101441763026963,0.24553883810463958,9.823926252936262,-0.0006184168587687267,0.0012085479667932905,0.0006677788909625
1687553966.8572917,0.013711075616833627,0.17961255080613803,9.867381862053621,-0.0011813042186959448,0.0004728079255997471,0.0014910706953711
1687553966.8673973,0.1412701119096263,-0.0491434451011014,9.731083617974472,0.0007088935951821703,0.0025254343916917004,-7.917650564500441e-05
1687553966.8772924,-0.039678653706789656,0.08994956667487455,9.872950307191156,0.0002827357975363642,0.00022693520028142555,-0.000567139825401
1687553966.8872738,0.015501423055096,0.06021974388813456,9.82889433963231,0.0009041189377645644,-0.001024749864485223,6.653938853255163e-05
1687553966.8973851,0.11347771556988503,0.050950197874534385,9.786353059731946,0.0018383913334339647,-0.0004443329541378858,0.0006417002872664
1687553966.907347,0.053893973111619205,0.12587567757642268,9.837789045523907,-0.00010956356612837247,-0.00030502763287063473,-0.0010275939717788
1687553966.9173188,0.038244593717903334,0.0339954968972514,9.810491146465809,0.00012255686412380637,-0.0006697406205501143,-0.0022297349065441
1687553966.927364,0.07981998420819232,0.054383445232733134,9.779614263490291,0.00075621430130687,-0.00044771524616912475,-0.0019682304706324
1687553966.9374406,0.13015278570878588,0.262113097141567,9.849811799192445,-0.0008337483987137787,-0.0006518530336102361,0.0024473528605054
1687553966.947359,0.09740102267568335,-0.08778908766168805,9.738552339702089,0.0018652214315570883,0.0003107737980873473,0.0010802077880695
1687553966.9573436,-0.011905090917327625,0.14881116355120969,9.870607381346865,0.00022276277216031016,-0.0012486503506124777,0.0007054238225433
1687553966.967319,0.16155484639212891,0.10625351526098367,9.762085634080055,0.0004261451356198695,0.00014647536398059807,0.0019626953284356
1687553966.9773295,0.16519393562222295,0.07962914546560132,9.752002985003863,-6.300441845231288e-05,0.0023257688905863067,0.0009844273730747
1687553966.987472,-0.05179935068635667,0.026915504596840292,9.859886889205173,0.0005889447814517733,-0.0001303188611278979,-0.0003011587547037
1687553966.9974675,0.08881807608807872,0.2042722161091501,9.85139505487536,-0.001586253794290343,-0.0002513949380985633,0.0007299931015919
1687553967.0074124,0.08530869909592763,-0.14419221452439124,9.738200937557057,0.0008817418755168459,0.001410130898109306,-0.0034873645059663
1687553967.0175126,0.04628028316745432,0.13928280786187586,9.848425601747092,0.0014610328019183379,-0.00039592404089456304,0.0002416125493224
1687553967.0273774,0.006384771068808918,0.066055247869771,9.841020680470711,0.0012975030585067454,-0.001633093965035577,-0.0008044404681671
1687553967.0373714,0.1531743283458657,0.253632420284287,9.822085123926927,-0.0015687409002098124,-0.0005415862747286481,0.0007892363932084
1687553967.0473635,0.08839824702560445,-0.11294900236156462,9.724083855024453,0.0027652535393637113,-0.00016903026099992702,0.0007289011258732
1687553967.0580018,0.08053510562162397,0.3046011115250434,9.8842917019377,-0.0008851481713357251,-0.0007863232276783215,0.0031857043499227
1687553967.0673666,0.0379499540607456,0.09167279438325289,9.836733424028317,-0.0023197592784501607,-0.0008049672230480785,0.001187103770823
1687553967.0773427,0.18559538463255973,-0.11978555769976557,9.694956167415278,0.001267686942431957,0.001810194107031505,0.0001615307986836
1687553967.0873811,-0.03005135960779134,0.2100620499918954,9.913040874129992,-0.0005107531311727776,-0.0011551263229824628,0.0024484633462604
1687553967.0974329,0.08012504870338329,-0.0871533504449937,9.739067372570721,0.000981586270909349,0.00040874309567224886,-0.0013688182230938
1687553967.1073773,0.20639528379375205,0.2919760244378316,9.806276392494226,-0.0032037843772416124,0.0028703719208495824,-0.0008704249054093
1687553967.117344,-0.05019904244932401,0.0034672526598653513,9.853423550297947,-0.0016544210739683617,9.842035024976648e-05,-0.0008416940696437
1687553967.1276562,0.0794826893229355,0.0003637674470542288,9.777035706305352,0.0009961198456984164,-0.0003132323282751474,0.0006610660924676
1687553967.1374445,0.04143533690186311,0.031552593647985426,9.816121869548937,0.0005699441019582713,-0.00010425724628111532,-0.0021828144095737
1687553967.147433,0.22996772024458845,0.17193841502806445,9.767999187363221,-0.0005424355920381767,0.0026733339435912615,-0.0008130132924664
1687553967.1574416,-0.1075832232346174,0.03827885182353722,9.89310234073446,-7.15599481700873e-05,-0.0010329561248505848,-0.0011762407380987
1687553967.1673892,0.1883407354559329,0.17399215602633963,9.780787820260683,-0.0006973984979513042,0.0005555099558212198,0.0012653408479278
1687553967.1775467,0.12778065138336261,0.055524992826538035,9.77620468660884,-0.00022391700976863763,0.0017394096332554324,0.0013714729215249
1687553967.1873274,0.007347592622371529,0.004251488462074917,9.822197614537291,-0.0007704267149523925,0.001613123170231012,-0.0024197258759189
1687553967.1974423,0.01397285905612112,0.1468274574483044,9.863391599649308,-0.0008173489895549464,-0.0006563288099712472,0.000528469331945
1687553967.2073834,0.13755479461808023,0.04140669820206332,9.761042899054177,0.00010205147074128103,0.0005581148909989061,0.0009412356588624
1687553967.2175426,-0.04337921286174799,0.11671872535321669,9.889468714550667,-0.0014160062300830388,-0.001526545231977354,-0.0002013165509227
1687553967.2274575,0.07215079655464139,0.07972248053726178,9.81278653586673,-0.0013560207125345794,-0.0015738580640284635,-0.0001052005687628
1687553967.247951,0.12445712317496443,0.057152401578381265,9.77208683543868,-0.00010282893823435882,0.0005279439196949377,0.0003921296442028
1687553967.2505116,-0.25650350417349577,0.06007048753048518,9.982092823810596,-0.0006303542539225554,-0.0007900527313017961,-0.0008949615299601
1687553967.259073,0.12466779814868048,0.051776364689627166,9.77743379042276,8.121352071731815e-05,1.5332821465813722e-05,-0.0006360508274186
1687553967.2705855,0.11442799383594245,0.11774027418906315,9.799628608268934,-0.0002667552239107936,0.0006188384725088393,0.0009736345085881
1687553967.2773268,-0.027065425510804614,-0.21079258614453034,9.758303867264335,0.002808479879170188,3.1390006101678654e-05,-0.000894193188836
1687553967.2873485,0.07702488000506348,0.1822822756823804,9.84311249646845,0.0005915512347609857,3.360719026807021e-05,-0.0007478120975095
1687553967.297406,-0.038900485616447746,0.08502253648536058,9.86907915032404,-0.00033606953513283153,-0.001776525468818043,-0.0018687701091069
1687553967.3073268,0.023532880362909903,0.07315640180540672,9.831269917784693,-0.00033640556445873,-0.0026333268133288436,-0.001968597877388
1687553967.31736,0.324774842813649,0.13227070843633654,9.686529527591762,0.00013225179260956807,0.001839605054926584,0.0004200538382034
1687553967.3274212,0.04145099223015703,0.09058193312440928,9.83774934375304,0.001019209187332954,0.0005670626780884934,0.0020524972927857
1687553967.337376,-0.015733693625037043,0.040937250759180505,9.840873391680873,-0.00030624747546301845,-8.933745538234033e-05,-0.0018788214079935
1687553967.3473666,0.07537988004517446,-0.021445683107286846,9.769447715279433,0.0015228823658159471,0.00023106005917561593,-0.0018918354768205
1687553967.3613167,0.10655140670292734,0.18362382403908062,9.837938106537838,-0.0005614209372816338,0.00045232000821272356,-0.0001920051878217
1687553967.3675065,0.15665602696014438,0.16137218582104002,9.787954540158008,-0.0003844743050159284,0.0006937225487267508,0.0022018437151897
1687553967.3774416,-0.026553681081186466,-0.020325938116384872,9.830977681703082,-0.0003569013016382939,-0.00021859515143622088,-0.0018184602964569
1687553967.3873637,0.17321332986699944,0.1128317470717614,9.772937498556521,0.0001191993119445816,0.001223446195874385,0.0004577049397963
1687553967.3973184,-0.05857999497695454,0.061045617111578965,9.878055614849718,5.58310044471575e-06,-0.0013287259836763197,-0.000746320118745
1687553967.407434,0.047504664606912175,0.0845029562121215,9.827641221913236,0.0018004244872614642,-0.003132508704277886,0.0027703363442893
1687553967.4173794,0.2566879438944619,0.12752142373044897,9.727396362584793,-0.000346470722173912,0.001382895766855097,0.0009930184454757
1687553967.4298587,-0.024710968928573825,-0.002687248112811358,9.832577976046037,0.0016011124774535524,-0.0012404609496834392,0.0008488271845605
1687553967.437451,0.0920909871340321,0.09707124977563587,9.811906025046282,0.00035572216606728367,-0.00043690959100102907,-0.0008402253739435
1687553967.4474294,0.1288763754649987,0.15587345067770625,9.799307807371285,-0.0002015671173141763,0.0001550425644682007,0.0009650694550115
1687553967.457435,0.04715253842091388,0.16003146325929263,9.837809463977889,-0.002532462345558694,0.00035471450036381663,-0.0006248924188215
1687553967.4674551,0.06849038459993238,-0.07710617297248434,9.76013318330799,0.0015690757261598882,-0.0003806727649570083,0.0007739455317247
1687553967.4775443,-0.0734355997833751,0.028883438667170917,9.87229526949405,0.0025488282792382817,-0.0033791272225076902,0.0006201096688497
1687553967.4874349,0.22534026415684655,0.111594248642,9.74135571109485,0.0013049420540249832,1.2725105901415867e-05,-2.327084130534281e-05
1687553967.497373,0.03101473763233802,0.15078411407572814,9.85729614016823,7.448068025637315e-05,-0.0009647787339050239,0.0005683250486951
1687553967.5095396,0.07233402862307951,0.13217579108635202,9.840885010565671,-0.001040867319166234,-0.0012888825316250323,0.0004655060469273
1687553967.517456,0.15972345453136566,0.015232851093435928,9.73996453302636,-0.0007018795861709405,0.0005666841850111891,-0.0005094041122023
1687553967.527387,0.06086605844355387,0.07456545664937456,9.822353409717238,-0.0002265369769513939,4.365678394540179e-05,0.0001212855562668
1687553967.5373747,0.06921065990074923,-0.13397368022128053,9.747316398284662,0.0034622730061041837,0.00037371262464822654,-0.0010476937755841
1687553967.5474198,0.13231375747492397,0.3855946870657462,9.875987855564658,-0.0006947940165196542,0.00029995574674894536,0.003195025957572
1687553967.5574236,0.05836811601784745,-0.07119958887095204,9.761400367593128,0.0009123130674397631,0.000947774955740681,0.0006238341442409
1687553967.567489,-0.030380938121240746,0.07713259352409256,9.865910234739324,0.00041496668370269777,-0.000942803157831363,-0.0002709989208627
1687553967.577337,0.035679745662221415,0.10328919672725044,9.832725262773307,7.311362257805735e-07,-0.001589525945144061,-0.0003801306016642
1687553967.5874238,0.06963309798054616,0.02422465338242101,9.793541062353466,0.0003736243685992968,-0.001259436062685623,-0.0013908020924676
1687553967.597397,0.17109960299422028,0.08622485419205432,9.75769867313954,0.0007167265304007981,0.0004020315152011212,-0.0003652179153535
1687553967.6074586,-0.10584338424316002,0.136267927359616,9.928681227148198,-0.00020789465413096798,-0.003568393836797296,0.0002662112232398
1687553967.6174736,0.36053670804340704,0.09927999462915407,9.660535748433094,9.569891950190412e-05,0.0022251925272577106,0.0013334572462523
1687553967.6274412,-0.13306723362816997,0.04342720276127516,9.898753701061038,-0.00021982062916088354,-0.0011842109878029473,-0.0006766783777523
1687553967.6375134,0.13387837974622263,0.24771185565088966,9.833288163637521,-0.0024877775950615647,-0.0007457439350571601,0.0021228898543964
1687553967.6474578,0.11657518705777224,-0.0023427767394658284,9.757725267553754,-0.001238319089813007,0.0007503423672033442,0.0011096165102541
1687553967.6573825,-0.05476286470062339,0.16108934877911807,9.914640818870382,-0.0036008831273101555,-0.001591751118755918,8.959963397196184e-05
1687553967.6673946,0.11923333072053449,0.03540458144843166,9.767470275407995,-0.0010427312825796978,-0.0017243535474327598,0.0030001936242084
1687553967.6773908,0.12912201520263025,-0.09806673409664117,9.712285015298294,0.00238713975907289,-0.00022864987897300504,0.0021758131910215
1687553967.6873977,0.057031196396413616,0.10337361902640721,9.81349695065249,0.000584862169452571,0.0003684947050364808,-1.5810365406063696e-05
1687553967.6973915,-0.02601651000863198,0.04436915587673308,9.847169341800736,0.0008042683287794915,-0.0012791943835452752,-0.001115509193008
1687553967.7074208,0.15015603043873696,0.2599555590364191,9.821930903050774,-0.002597663999291498,0.0001766361378524468,-0.0004192579077456
1687553967.7173982,0.038836654075621944,0.1032467164850907,9.843483004452342,-0.0037379929741610876,-0.000336325974450788,-0.0013017567112941
1687553967.7274368,0.14981435520063374,0.07245429193899451,9.759658720063031,-0.0024445582486841977,0.0006862678984958983,0.0008157041733253
1687553967.7374315,0.045919713513987624,-0.0330084787731071,9.799651875139359,-0.0003394070192932669,7.792473139835029e-05,0.0002199973672728
1687553967.7474835,0.07331019608370912,-0.11878011021969884,9.735684905152581,0.0012349682040859197,0.0018023993159210672,-0.004462625017007
1687553967.757388,0.2208922036611513,0.2769794599771349,9.799898231096817,0.00038073109086404105,0.002676684963614061,0.0012478591519508
1687553967.7674172,-0.15066980098035573,0.12186559316590818,9.945052931835662,5.1762605445609205e-05,-0.002334573290180098,0.0020349731779757
1687553967.777368,0.2039500369246914,0.11531086255432696,9.751613626938758,-0.0009078913886279383,0.0005078217233179655,0.0017000855290431
1687553967.7873778,-0.038276945403887895,-0.08168325802787128,9.807411504715127,0.0007710794038209907,-0.0005467888365498892,-0.0013725700560856
1687553967.797361,0.08237356444726374,0.14323271920426198,9.821159677499809,-0.0011504094272275886,8.946655547368136e-05,-0.0022558207861978
1687553967.8073838,0.012707078868905534,0.12269369356869451,9.86172315229222,-0.0008922360502257738,-0.0020622612361945367,-3.7790858735529086e-05
1687553967.8173594,0.18096743715285982,0.029283733171772654,9.734800044061872,-9.351366719570958e-05,0.0005029844994140582,-0.0007045971002329
1687553967.827571,-0.0743017686390028,0.14693970597475026,9.906707321241955,-0.0012554513451880603,-0.0027901766047275993,-0.0003287249715898
1687553967.8374166,0.13819512997410696,0.004750643192182581,9.755282299254894,0.00027341297666312164,-0.00150940784783073,-0.0003995015291396
1687553967.8474014,0.0258674966671502,0.09360853296445396,9.846771403459707,0.000412743432638837,-0.00289149419516772,0.0004595394706454
1687553967.8573775,0.13718137674801542,0.03043742743825492,9.751889867508286,0.0016346357438330509,-0.0015328827031870712,0.0009557484585426
1687553967.8678262,0.04262639311235296,0.15571464254774564,9.854152203141648,-0.0007119217756092276,-0.0019449046691195051,-6.75780471313869e-05
1687553967.8773773,0.1257768537558595,-0.07256333302266382,9.732919023538154,0.0019825755959595576,-0.0006805463608542299,-0.0008152526575971
1687553967.8874445,0.16980501324417463,0.10166069279000066,9.770599959349319,0.0008404436525625025,0.0018064579041175584,-0.0024662934016335
1687553967.8974483,0.042336571695561716,0.09426210394239758,9.83583804324006,0.0007740936387958412,0.001028997093340702,-0.0018676394835014
1687553967.9075148,-0.01505425005846854,0.21820280615522777,9.892910242440939,-0.0015776730437610544,-0.0012970923422215529,-0.0002445421419937
1687553967.9174676,0.10079902426286938,0.00048285968932254087,9.766004715711242,-3.0567662323866115e-05,-0.0005527539894069829,-0.0004892759030584
1687553967.9274757,0.20394027779149215,0.03637039128657868,9.72745318446623,0.002197146065004741,0.0014123374322027452,0.0017168290500163
1687553967.9374814,-0.015389564462842332,0.17990598981018763,9.881628397498782,-0.00025111461487634746,-0.00020631072596250538,0.0011010304728157
1687553967.947443,0.10023441722474374,-0.030580443217999777,9.752513491187312,0.0007498597059802415,0.001199996701298187,-0.0009959245804596
1687553967.9574208,0.020360352106288566,0.11492851689628404,9.837479013252347,-0.0001658003645890886,0.00037148062873605274,-0.0013393965788085
1687553967.967622,0.17119209729990278,0.023800448108972003,9.739318722750026,0.001599918307895587,0.0020866362088323384,-0.0002814251935009
1687553967.9774096,0.007783425301209794,0.3010709007719982,9.920313126289132,-0.0017587381149044372,0.00017775944356681497,0.0020815450110573
1687553967.9874675,0.12820192728558216,-0.005466065410529012,9.743437871130075,-0.0010937850742636596,0.0021190092841228514,-1.6191276339081427e-05
1687553967.9973855,-0.08844477016187238,0.05683659382859229,9.89096565165539,3.7602136609454634e-05,-0.0015667848708841704,0.0008771514398146
1687553968.007404,0.08912934600053209,-0.020843435546919434,9.76327819693181,0.0005181686285020945,-0.00015117904479574845,-0.0020717779412765
1687553968.0174496,0.17541702599972658,0.10757675686732691,9.754251440390966,0.0012159115349329294,0.001431320304753678,0.0006085333874549
1687553968.0275233,0.08978097100313177,0.06571581623995137,9.804528362135844,0.00017917701847956972,0.00290913602413905,-0.0021764623239535
1687553968.0374722,-0.06258700391686967,0.14438550609188197,9.913080693301259,1.1897146158139748e-05,-0.0008127907810885161,-0.0001521492382411
1687553968.0480275,0.003783153475791018,0.019932790352119138,9.823223819848018,0.00032819433175237657,-0.0015645569000421796,-0.0019268718320775
1687553968.0588655,0.21971964196399035,0.15221228484548777,9.748386110517316,1.8391731799203895e-06,0.0010442640777049879,0.0005370280699904
1687553968.069006,0.02794022580439097,0.19646068136151654,9.875194445759444,-0.0011436851164180778,-0.0008489328887153407,0.0032348951784994
1687553968.0774362,-0.04386634796995771,0.025601567241619144,9.850555534751768,-0.0023089522268940586,-0.0015887643150488562,-0.0005716120364043
1687553968.0874176,0.19097406624412486,-0.24467980233648678,9.634985983016174,0.0031370163722452033,0.0018306844388162723,-0.0033488419145245
1687553968.097519,-0.005410694021339454,0.3720356326567669,9.941115482376896,-0.0017840710285490808,-0.0005978237120568767,-0.0008711145497758
1687553968.1074743,0.12673620569336444,0.1607014331163509,9.796192112296419,-0.0030968618102696415,0.0004198895175879872,-0.0004568943992156
1687553968.117503,0.01582117433532022,-0.021053772081417458,9.807333664287533,-0.00028127303085772253,-0.0013548206571858139,0.0009140360629286
1687553968.1298528,0.0886855860229993,0.021727826567422597,9.789398563669236,-0.0003412437734577396,-5.511764443805334e-06,-0.002228613128503
1687553968.1374469,0.006346408939318303,0.3144983837572552,9.924351123650405,-0.002858431816593398,-0.0018197383700529006,0.0002658284496616
1687553968.1476955,0.22808664319955282,-0.18114001797524626,9.640835485033797,0.0026408198244671525,0.0016503827969583432,-0.0004844674846056
1687553968.1574605,-0.006844791504018726,0.2583677684097852,9.918544254371874,-0.0013992446674789877,0.0003252916722216772,-0.0012220410868425
1687553968.1674595,0.10322541864103303,0.1093562495063123,9.80121794509669,2.30763045342722e-05,-0.0002968360660243989,0.0024868469912659
1687553968.177401,0.0784990240947129,0.03524067855834499,9.792022600749481,-0.0002842698500051679,0.0006404472052390824,0.0003999466420251
1687553968.1874013,0.07747311607810374,0.0668517010967076,9.806529326488441,0.00022945331039213453,0.0006691302769495183,0.0008015517954815
1687553968.1974254,-0.07027676145124646,0.11161398526015912,9.906244404861097,-0.0013344156600690528,-0.0017810124071121465,-0.00086442765369
1687553968.2074013,0.2327170397475378,0.05723169853932574,9.714490957614776,-0.0005658854529945494,0.0011936483419800403,2.5550485039862493e-05
1687553968.2174027,0.005152739907748205,0.11688794787715394,9.859949486330965,8.826924634996092e-05,-0.0011350355234117252,0.0025621056551214
1687553968.2276196,0.01692007556185325,0.01848320940436807,9.811046714997259,-0.00038300852893063145,-0.0012989235282980965,-0.0005649159435082
1687553968.237464,0.13690482612380195,0.10042572650923663,9.781683287180385,-0.0018354742712386818,0.0008386194524626605,-0.0029021595843035
1687553968.2474875,0.16279550911328225,0.14930007940801954,9.790006592750396,-0.0008952213384760145,0.0011701807003144133,0.0014598030460516
