time,ax,ay,az,wx,wy,wz
1687558008.889524,0.05342269056884886,0.12055855279683197,9.850705766874924,-0.0011009404112663765,-0.0011782219344716868,0.003974107416118
1687558008.8994863,0.03608264954146101,-0.32348075109120805,9.69912807532575,0.0027234321976590233,0.0010398463138223438,-0.0009034009689889
1687558008.9095492,0.05056072194751592,-0.0001733037202713147,9.807950506870839,0.0036901424753282342,0.0007742272988904344,0.0022228597973049
1687558008.9195178,-0.05249946837133326,0.05015092896932423,9.871616807638475,0.002035383515432872,-0.0006633786091206136,0.0022694100353442
1687558008.929494,0.04650740325668612,0.023186743893974095,9.816409515136083,3.6013911630484835e-05,0.000526480209548202,0.0006731399062597
1687558008.939518,0.007097114892200628,0.002589709976660143,9.82226423591254,0.0007374874001072468,-0.0002800428129874483,0.0028788670625113
1687558008.9495726,-0.04092190648926892,-0.13836306329987746,9.809167471245365,-0.0003525338437576063,0.0005179096138314139,-0.0031046915373257
1687558008.9612637,-0.01125683217549151,-0.08806709188676674,9.802898544607423,0.001225483213100916,-0.00019733611529964857,-0.0027519116683355
1687558008.9695098,-0.04951203595924642,0.13606713671223086,9.899068865643718,0.0003239856677848895,-0.0024369847084177187,0.0008120797884226
1687558008.9794545,0.2543032143113702,0.0551587178895479,9.711250201943384,-0.0012935755933942193,0.0025194995404665787,0.0009454132251017
1687558008.9896636,-0.11616397327039694,-0.04503706322114016,9.87340404676593,-0.0012696949837409986,-3.9403932001051586e-05,0.0004659965361975
1687558008.9994438,0.05765359872845795,-0.004269965664855025,9.800042776907464,-0.002062794177678213,0.0010181964285954092,-0.0001885610672137
1687558009.0096111,0.016710888171218036,-0.02899340151630841,9.804220559891734,-0.0011184709795006701,0.000650513480474315,0.0014833872356144
1687558009.0195217,-0.0073166751089742,-0.05810581765505278,9.815685363802027,-0.0014239178371681087,0.0006490300044048458,-9.802778181201692e-05
1687558009.0295289,-0.07405254186098709,-0.055426855844125274,9.84939336402307,-0.0013225972277692215,-0.0007747743982403322,-0.000854987794762
1687558009.0395813,0.07969114137508099,-0.09837810884143991,9.73304228018831,7.62404060486297e-05,0.000747768613618896,-0.0010173971804282
1687558009.0495644,-0.20817383706875395,-0.053717192071411284,9.91885134702171,-0.00014238997410864407,-0.0032591621278179566,-0.0026129397137514
1687558009.0596738,0.1452682136779137,-0.038334936910342475,9.724546205285506,0.0014154935116537262,-0.0009886075267523456,-0.0002347484969026
1687558009.069646,-0.02256587335650044,0.07520283047514655,9.866128159406038,-0.0016995800566353364,-0.0013197985824040378,-0.0018075505776754
1687558009.0795538,0.09266732854569025,-0.05022888299648993,9.767689490120052,-0.000988055064068078,-7.591452202894544e-05,-0.001196596216639
1687558009.0895844,-0.008368742497894181,0.1111421410055291,9.874745741020275,-0.0035585118516387,-0.0009565471404054968,-0.0002473899202845
1687558009.0996375,-0.04558430980942097,-0.40429726346130807,9.713213298374297,0.003686790349881734,-0.0019221503135841249,-0.0014067279680124
1687558009.1095996,0.17728161398428277,0.1941477831739948,9.7914492383675,-7.313727860514696e-05,0.0009031011811460437,0.0003892602126621
1687558009.1195424,-0.000739040172312919,0.026767179778239288,9.83886116917138,-0.00284104585326314,0.0018951474903004936,-0.0027951003557494
1687558009.1295445,1.414612922419223e-06,0.0708333629929095,9.85465946620742,-0.0023336460531405492,0.00018001400744258587,0.0019739974250593
1687558009.1401005,-0.016787954674206282,-0.15475979964642056,9.77924038603253,0.0007430896667333908,-0.0005039547475554191,0.0025502954104491
1687558009.1497917,-0.04336995229297277,-0.08489432130047088,9.805095267870575,-0.0004419627498320867,5.523903166287044e-05,-0.0018410663159987
1687558009.159476,-0.00662498406956417,-0.10473405289548991,9.800466068117485,0.001675884354695882,-0.0007389857266752834,-0.0011980884282342
1687558009.169515,0.07915588498537646,-0.0428707127980659,9.768652816694853,0.0014870133102982339,0.0010122386317621065,-0.0020616223609498
1687558009.179509,-0.03431184405369795,0.04423702892590089,9.852462839117116,0.0005877343286358588,-0.00018840153468944765,-0.0009577967266044
1687558009.1896358,0.12812047456346262,-0.06720940115725223,9.745386041952639,-0.0006986627740843929,0.0032980905167927055,-0.0045709541572681
1687558009.1995175,0.024137057089038547,0.03136133069564538,9.822204885300549,0.0007542445633529518,0.0018724281032928673,0.000441420563268
1687558009.2096062,-0.22054869870224386,-0.06099405071714908,9.931867515115332,-0.0011571532332268976,-0.0015965803332287302,-0.0042181756852618
1687558009.2196083,0.17095428847040764,0.05103052340661898,9.748427153297921,-0.0002489670183146198,0.00028730440746207287,0.0001806410455652
1687558009.2295067,-0.05558467233370978,-0.14700681778639033,9.806415091001137,0.0019567954842946685,-0.0009245336583622302,-0.0003811333135194
1687558009.2395115,0.13858062896871998,0.02781632352489604,9.753904320453724,0.0011662387341878646,0.001566220578570016,0.0003072989366524
1687558009.2495384,-0.05170201894392413,-0.03393698703536475,9.856975692802154,0.00024204118386564265,0.0006233180477544097,-0.001522185657402
1687558009.259664,0.05182256579250921,0.0036908419784250513,9.782400859735993,8.890847916346047e-05,0.001409365070252095,-0.0007290776392868
1687558009.269566,0.037013027672998806,0.028338637159208736,9.825833918435334,-0.0005410445242061883,0.001259982982936709,0.0005620931934141
1687558009.2796297,-0.13591398651970557,-0.10251056775477144,9.853214323419737,-2.9930325194915697e-05,-0.0010668642282474618,-0.0012211996635845
1687558009.2895749,0.11737980560743745,0.016606065525000345,9.7672107409618,-0.000705686037762872,0.0011210252597915798,-0.0008307724764994
1687558009.2995286,-0.010608290293845031,0.10516546315884907,9.860679471807503,-0.003413233197000773,0.0006166209864084971,-0.0005658987483433
1687558009.3094995,0.017079232452798156,-0.014160266570132703,9.813722518167976,-0.002444297019021464,-0.00019028014184799152,0.0018205072283786
1687558009.3195343,-0.043842939346647715,-0.2870127465835405,9.762649901881987,0.0019120681348858515,-0.000617178933805286,-0.0004060925256884
1687558009.329525,-0.04909449617557603,0.12912540997357003,9.891490837052544,0.00045400231617093964,-0.003117224772974463,0.0031999927905895
1687558009.339521,-0.022589095128212087,-0.04101795747158331,9.835100240588574,-0.0005309666486862871,-0.003293443396682975,0.0007450255525805
1687558009.3505282,0.16080868603566584,0.05201411802992525,9.744366318997416,-0.00316177799162055,0.0008900670419706263,-0.0005427886771462
1687558009.35954,-0.04014324677818184,0.013172224223529958,9.83941310841793,-0.0031081333245866,-0.000477872218963749,0.0013153514465126
1687558009.3774092,0.02475000820260308,-0.04629926990425273,9.796163753656348,-0.0030403260317734245,0.000302585358894539,0.0003970927519299
1687558009.3803697,-0.28409384194239096,-0.29865557990028974,9.867060927584538,-0.002166728147092189,-0.0010657077242745485,-0.0009782960677943
1687558009.3894928,0.17892944052852994,-0.1483057150702603,9.68470764357388,0.0016662070669742832,0.0008960186646902213,0.0018723358244211
1687558009.3995292,-0.03967301441988355,0.08978790591773927,9.882107630225287,-0.0007250543540628087,-0.000323635268017873,0.0022831841798075
1687558009.4102066,-0.09631936680217433,-0.19071609738100004,9.812147731291448,0.0014151348360532353,-0.0017344147782027495,-0.0003673220325685
1687558009.4201877,0.07557575458930904,0.1173493450428201,9.838915414974545,-0.001831078977083079,-0.000338162993411975,-0.0009283715898594
1687558009.4295805,0.13766823188761318,-0.031147876799993764,9.73040335215958,-0.0010022125184771967,0.0017275017335236724,0.0003300126136788
1687558009.4395566,-0.012555774693179018,0.006631166481763405,9.852115767361559,-0.0007205983594792736,0.0004571780233708578,0.0018343052961905
1687558009.449686,-0.19269316105179984,-0.2540384871557268,9.841955038070031,0.0020164033708047124,-0.0025848836282701968,-0.0015668665564111
1687558009.4596455,-0.003464725357652072,-0.003354786329227658,9.82767308831685,0.001155832573291346,-0.002810274706078975,-0.001942039378216
1687558009.469628,0.06871702434470178,0.15563882886130295,9.845531778502068,-0.001232064584115274,-0.0024995822565254057,0.0001642532607116
1687558009.479508,0.09707837839693335,-0.12415638720489815,9.73390794259413,0.0005046483467103746,-0.0007960023071976004,-0.0002000910735181
1687558009.489511,0.06150363193549024,0.15937457439950178,9.847539635723912,-0.0034184438342790275,4.776495305296969e-05,-6.3366516721909e-05
1687558009.4995358,0.11325706912232798,-0.20841012923784819,9.693478009352704,0.002873538472324149,0.0007291870707417283,0.0045790847817012
1687558009.5096014,-0.12368970341294012,-0.016076054931259635,9.90170130137008,-0.0006662083675120938,-0.0004629459514511543,-0.0013813594395718
1687558009.5198386,0.0604182663730644,-0.08011327886212634,9.767939665673119,0.0004968474759079639,0.0006065476998126265,-0.0017509194130501
1687558009.5295582,-0.0871859385208142,0.18798848788205771,9.933478739617758,-0.003940737517136666,-0.0013309412848639397,-0.002384947058042
1687558009.5395794,0.1499046307158091,-0.22959923925346573,9.662262410512326,0.0008436561518174139,0.0012715429735314305,-0.0014905120751313
1687558009.5495763,-0.0204493887616772,-0.052691402076930696,9.817278496808513,0.0008213001078953566,0.0010502155013333812,-0.0024799924849025
1687558009.5607114,0.06040979862768862,0.10919824206714472,9.843725784171667,-0.0016757508074048283,0.0014465997863776544,-0.0011288115328601
1687558009.5696144,0.10782661561722588,-0.009348293531547482,9.757343204236967,-0.0007705419367430179,0.002565699650358615,0.0012669364241924
1687558009.579677,-0.1423615414292169,-0.15924037247965067,9.852875981334135,0.001380453372937133,-0.0002647525154345515,2.2686990680630256e-05
1687558009.589565,-0.0834320928821461,-0.009821667720866204,9.867906938607529,-0.0014239193999135476,-0.0008157580990805583,-0.0045564390292815
1687558009.5995991,0.07901150168354741,-0.06036697555959591,9.761959117799828,0.0010522710168968325,-0.0006607914426484962,-0.0010338115079752
1687558009.609517,0.003954455478589393,-0.07629778969338101,9.798018160914204,0.0021985375150740103,-0.0010224764867603894,-0.0003993994595906
1687558009.6213071,0.14196569653532182,0.06380766047698085,9.779719979460948,0.0007151596593760932,0.0016429261356351573,0.0010180922418408
1687558009.629565,-0.1788640534845292,-0.02344917173775463,9.917850419024091,-0.00039797968245743433,-0.0011148808208024485,-0.0009481137657961
1687558009.6396403,-0.08009537183694976,-0.045332128311624885,9.856169658401956,-8.914078526256449e-05,-0.0032174524721815057,-0.0012718354391357
1687558009.6495526,0.22949794568678233,0.04179748702503126,9.705568010178615,-8.357385028726355e-05,0.0005726706979447002,0.0014621440405358
1687558009.659588,0.12509230286825726,-0.07387139025594865,9.735144443969324,-0.00020014784859716226,0.0036445363868244434,-0.0006906941106966
1687558009.6696014,0.001963777665272003,-0.11521534850307606,9.79418877795631,0.003130575300548111,0.0024163659082253723,0.001873727307659
1687558009.6796305,-0.08281293958392595,0.1676971993890295,9.930860595241969,-0.0015926906261131525,0.0008971392455342693,0.0009085718502798
1687558009.690029,0.027318657430617604,-0.0335329385198828,9.803044450197804,-0.0017815553114421082,0.0013926042167072125,0.0001251476078801
1687558009.699624,-0.01760410138290791,-0.033797845485848715,9.822055949961745,-0.0014779405662802797,0.0006609652255057252,0.000288326265993
1687558009.7097645,0.07644819656425786,-0.1321675660415579,9.739575440750103,0.0011912194760670756,0.0016127762962106214,0.0012594990858384
1687558009.719571,-0.09251630512635041,0.011103564450382767,9.874566350028513,-0.00209039677668031,0.001084879983014769,-0.0031534988938323
1687558009.729548,0.0971168614077741,0.054391500046991385,9.799041079673936,-0.0013259504445508805,0.001316235810423668,0.0014498624878366
1687558009.7395835,-0.00626896384263154,-0.014903703243957778,9.827531479373345,-0.002413365144230361,0.0014425386596103645,-0.0002395342143676
1687558009.74964,-0.03012543468151024,0.02144009635329755,9.838616194821073,-0.0021239061691815785,-7.814572537162013e-05,0.0019032212458592
1687558009.7595692,-0.027551511558910502,-0.13450030356188664,9.796352207776216,-0.002282208101721121,0.0006784645051317636,-0.0028886209747246
1687558009.7706923,0.031183654233949098,-0.07496569727362942,9.793199623942748,0.0009125789261612147,-0.0001377437095451609,0.0008791407763534
1687558009.779546,-0.04227961426293121,-0.13998846700783407,9.79984137741214,0.0020860345678175053,-0.0006294663422191784,-0.0008747381197712
1687558009.7895308,0.1216258126110842,0.06735400914596697,9.788749980948422,0.001441932303689939,0.00043744694100818394,0.0020377183991991
1687558009.7996187,-0.08722716646219121,-0.024072592828845222,9.86542073343994,0.0015712179060351622,-0.0018819112671051273,0.0026463943959721
1687558009.8096378,0.0946223962329752,0.0415498661063381,9.78659535862919,-0.002103040002730711,0.0013035677613320034,-0.0015672577118924
1687558009.8195927,-0.06716407267908804,-0.3010570706566631,9.746772447805979,0.0034022045731917565,6.11456685565978e-05,-0.0025868859647265
1687558009.8295884,0.1048896354456999,0.06646758334933862,9.794121396777468,0.0019161696021412827,0.0016932610213536603,-0.0020954750052145
1687558009.8395462,-0.07467845748383406,0.13023043642616916,9.905333003784072,-0.0006557576013340712,-0.0006339504854271098,-0.0003714377798563
1687558009.849578,0.07596301945112278,0.006453785538901863,9.790505480094108,-0.0009035010656742357,0.00033797686320478383,0.0002644899960183
1687558009.8596327,-0.10789985775091981,-0.06948111129458856,9.866875631690293,-0.0007842821994938259,-0.002086442881734086,-0.0010099577757022
1687558009.869609,0.22124784884870638,-0.06365099351937635,9.679765379755706,0.00022414472397147436,0.002221091982482072,-0.0002332605926743
1687558009.8796296,-0.060235548408632024,0.0033901795804177413,9.865702036786212,-0.0005704871691540186,0.0006192187708010507,-0.0004150588337755
1687558009.889578,-0.04868064332435489,0.06510127270191343,9.859332497895942,-0.0023861553409970245,-0.0005505169564101965,-0.0001974880269221
1687558009.8996215,-0.04357781611114604,-0.21743452628023294,9.791845781890073,0.0010809832370873216,-0.0018055330283087722,-0.0008937035726807
1687558009.9095366,0.020936026101099573,0.05740755454640188,9.836623051452534,-0.000341711512553881,-0.0018781938469043947,-0.0003595213910988
1687558009.9196658,0.09022594020556668,-0.021543483318159348,9.770256353776512,-0.0016825027803394066,0.0005365367270833838,-0.002833844306176
1687558009.929799,-0.07448702669942739,0.1498951722536227,9.920649544952342,-0.0038811191638200584,-0.002460856467818064,9.831760148936038e-05
1687558009.939613,0.05876708200262089,-0.32500490782961233,9.67200776190035,0.0009923095722395767,-0.0005341078664724278,-0.0024769717401317
1687558009.9496653,-0.016103975952487484,0.05629103126516585,9.849680449753567,-0.00014465085441414007,-0.0013808766442999925,-0.0014152663333765
1687558009.959579,0.09514525229138918,0.04218460265822989,9.791636116148789,-0.0009671943553052072,-0.00019102360858954198,-0.0002235588889992
1687558009.969538,0.037057448075898065,-0.06608197071188325,9.779992383016275,0.0013216218697137253,-0.0005821742969186456,0.002506707302066
1687558009.9795794,-0.09334995716763726,-0.20100525513783374,9.811436443978632,0.0031052822123725176,-0.0017086788982460317,-0.001020026536887
1687558009.989563,-0.04678590976682082,0.06848104977106358,9.868117037434294,-0.00013159848251026568,-0.00221534135094149,-0.0031274069605819
1687558009.9995918,0.16227636302009357,-0.029357075686285698,9.73501361163666,0.0015172034965305048,-2.8600412600064907e-05,-2.9818880600397535e-05
1687558010.0095582,0.031042704129256322,-0.11009719738038608,9.763017500541919,0.00301403508519375,0.0006978218962328958,-0.0001088052794761
1687558010.019689,0.05799720781846823,0.22863731110822402,9.873121722962372,-0.0024554832144817727,0.00150696744355831,0.0001739669551649
1687558010.0296197,0.00771437733427568,-0.1285001483051499,9.779817875285826,-0.0011680039961834178,0.002021410399985734,-0.0016723409334621
1687558010.039572,0.18442503315078673,-0.02515847709558328,9.720028557194086,-0.00013426387093851575,0.004958085562427919,0.0002845760628157
1687558010.0496352,-0.24492967261421206,-0.17010906709326473,9.902102718599576,0.0026664452648976996,-0.0004506661181276472,-0.0002984274451113
1687558010.0595906,0.001845780838350214,-0.02626349552235308,9.827383587204935,0.0029495690961256153,-0.0009416547864665671,0.0005133252434939
1687558010.0697756,0.009420846226763698,-0.036431914183796564,9.80619357520501,0.002823274167090432,-0.0007144163715154016,0.0001634969103657
1687558010.0796306,0.04811162105308615,0.10819748547771141,9.842353930670608,0.00014405832026747706,-0.00032475613677435507,0.0005464703736402
1687558010.0896802,-0.003283827109833161,-0.003902018880930949,9.826009617888396,-0.0008681197497768147,-0.0003832313284505567,-0.0004712745121172
1687558010.099766,0.08347131405588895,-0.08514805093627542,9.761650254796221,0.0006100590944996772,0.0007645375617881783,-1.0462272209589433e-05
1687558010.109672,0.057230787033226455,0.024375554421721925,9.803419257011354,-0.0002120838029961957,0.0015855698041679677,0.0004931887688622
1687558010.1197095,-0.19580832399669884,-0.10902257436532799,9.901861483520193,0.0012195479310297174,-0.002667934599847951,-0.0004764987660995
1687558010.1297271,0.11990245129108126,-0.040965362413671186,9.750401054960749,0.0016293185998060894,-0.0005288999665043556,-0.0002675154518759
1687558010.1396468,0.0038257754366102805,0.028612974281646147,9.82835333442346,0.00021260110672700514,-0.000546411076895097,-0.0003136995055205
1687558010.1495662,0.07473169065317033,0.09995512687638819,9.830378415371397,-0.0017282819720631742,-2.2265088239519547e-05,0.0012639489742037
1687558010.1597056,0.010305936951423957,-0.12207834040686143,9.775219674919576,0.00032956867165925596,0.0001234029484125978,0.0010076635826886
1687558010.169697,-0.06484090964273824,0.007733928426491222,9.86939435751462,-0.0014716318939832227,-0.0008671625751960265,-0.0011101720428518
1687558010.179659,0.2131907248399613,-0.13012936086789756,9.66530360547392,0.0003914189392351757,0.003512298067246068,-0.001657027662029
1687558010.189617,-0.19566068141047133,-0.00070405501131193,9.932965675283938,0.0011487703244440943,-0.001658415313776731,0.0006749988843263
1687558010.1996026,0.17047791437240525,0.06675898036524888,9.762800987762246,0.0001738348549624359,0.0009262042242947578,0.0025760091103189
1687558010.2095823,-0.04817654854537551,-0.023357515058284026,9.837589033714325,-0.001197055500030369,0.00038526096115959946,0.0005490552594461
1687558010.2195954,-0.09329586276511895,-0.09549619179716726,9.841572408763682,-0.0005786426208319753,-0.0012542221749472684,-0.0010893057605675
1687558010.2296178,0.04857807222564056,0.005637900267932935,9.808032206442599,-0.0002690675811181279,-0.0011376330384664922,0.0008005200380035
1687558010.2395945,-0.018787826804874588,-0.08736511656334878,9.799122769575725,-0.0013415886198065473,1.9827527307195218e-05,-0.0036228780208579
1687558010.249571,-0.0070607232575231795,0.036783985719645834,9.847979322980567,-0.0016254336339552517,-0.0010750451250178858,-0.0014692886306396
1687558010.25962,0.01419952260962549,-0.1807316740915829,9.760017834909185,0.0012951697508298084,-0.0008466704439647495,-0.0018384616395882
1687558010.269649,0.014949699158251567,-0.05592860791224939,9.80004641334772,0.0019437513477076579,-0.0007367622981265568,-0.0015597971195778
1687558010.279678,0.11323987329447747,0.043347566937936045,9.776633131940061,0.0014989490434868748,0.0008732820756725573,0.0001377917088144
1687558010.289665,-0.018625475893241282,0.05735060931742055,9.86335942476861,-0.0010905215686689022,0.0005250020052269443,-0.0011403212828985
1687558010.299656,0.02880736584360768,-0.0887472067852946,9.790408360171035,0.00049792767526828,0.000525744060629348,-0.0004347750490955
1687558010.3096712,0.126243699685622,0.015303215940830587,9.753984771409629,-0.0003674654632424964,0.0031122022037283546,3.088367707514291e-05
1687558010.319681,-0.08212163361442296,-0.012161696124791796,9.869143805186717,0.00040295451880197183,0.00031525326521350826,0.0019006104867481
1687558010.3297071,0.012126188777519576,-0.03304360969946871,9.80845178465039,-0.0002892242404706549,0.0008095948899255579,0.0004585451406934
1687558010.3397348,-0.04807551221052282,-0.07641122274455905,9.831744660144288,-0.00033578421615744437,9.211968737204647e-05,-0.0017039774956605
1687558010.349654,0.057509445553005134,-0.1358122194108584,9.75171134986799,0.003339617156235013,0.00014090024247529558,0.0010367076338776
1687558010.3595872,0.06743627399785729,-0.005224428277186211,9.791625213161673,0.0017108947307381155,0.0020318884334471488,-0.0009991323149255
1687558010.3696914,-0.19660314276778093,0.08900172528026919,9.976452713359349,-0.0016165105945875821,-0.0021531514115039952,-0.0026073634198359
1687558010.3796594,0.16357418622373537,0.09146791325142897,9.767439334517249,-0.002689769622348663,9.95616931509124e-05,2.56888761692596e-05
1687558010.3896525,-0.07102297194782443,-0.19955708645786466,9.796384488712164,0.0004890208174566902,-0.0014341427141502992,-0.0008855307514271
1687558010.3999114,0.06978215836454335,0.019662485134158258,9.79328635794307,0.00011385999931499231,-0.0005177104218854907,0.0002179118765094
1687558010.4096076,0.07322095777956257,-0.09635248713533834,9.747850939077098,0.0020815634656055396,0.0007075231045712576,0.000825845842021
1687558010.419624,-0.02041189291813013,0.21861408811789135,9.91013410179484,-0.0031438901113077554,0.00011259271771868563,0.0005773945904844
1687558010.429693,0.08478536168958807,-0.094362832919629,9.739322372284928,-0.001694750118120655,0.001845225588502781,0.0004533576739528
1687558010.439669,-0.1703249424101115,-0.13351245331093753,9.868708768384481,0.0008283934702384769,-0.0021751086678066006,0.0010367157829501
1687558010.4496589,0.18103366351243091,-0.09132605938308275,9.697840141756634,0.002080825485607719,0.001374356585298009,0.0008087339538657
1687558010.4596512,-0.08072610161723165,0.19857050741487448,9.937657620161119,-0.0018921879204791415,-0.00098189110725541,0.0019650446211495
1687558010.4696567,-0.03307850033588795,-0.2493291218363678,9.76401920234229,0.0008310056337919269,-0.0005217936489333692,-0.0019475993739864
1687558010.479598,-0.036727223477997555,0.29178569562331774,9.951527029441817,-0.003910174483572915,-0.002842698698649208,0.0017165723566473
1687558010.4896064,0.09697600442196465,-0.12778668042792196,9.746670187541648,-0.0007626810026320782,-0.0017954978267254458,0.0028673237848603
1687558010.4996066,0.05227550232380313,-0.28200213954420467,9.702039831350858,0.002589692748806119,0.0002992186663864996,-0.0009421952108345
1687558010.5096598,0.08020660043200788,0.20642128114472774,9.859250265122409,-0.0020527578791621538,0.0014942920478324048,-0.0004742706932551
1687558010.5196908,-0.053613319986772115,-0.223501811972166,9.785087429130677,0.002000354989664568,0.00024673172034125234,-0.0008158545514992
1687558010.5296288,0.05653747011985309,0.1556256282166509,9.852502245902844,-0.0013687748065624096,0.0007932070343553367,-3.766457479960198e-05
1687558010.53964,-0.08327730918720072,-0.2033806651262012,9.803375560442605,0.0014188371644712002,-0.0007148093911512986,-0.0017568980383179
1687558010.5596108,0.013770584703061244,0.04813561803436748,9.847137405752482,-0.0008871004324121402,-0.0015865065480676391,0.0001806546661578
1687558010.5626476,0.06887292589505917,-0.09541125693009617,9.766864931497116,-0.00047248337159265763,-0.0012326069440251922,0.0001709591324948
1687558010.5696702,-0.015692085037229322,0.003625359739653579,9.84596061288049,-0.001961122101252665,-0.0011089413844852958,-0.0014052138703367
1687558010.5858643,0.13861579824798045,-0.009937683942846765,9.743961792705978,-0.0013266925401181516,0.0026223216557772493,0.0006027263898909
1687558010.589712,-0.4751978232843088,0.07797966282387599,10.11098180898287,-0.0015520708092640922,-0.001760114349323455,0.0017724623340223
1687558010.5996563,-0.008874949728573962,-0.1088686764730391,9.778169427330418,-3.7366633772725626e-05,-0.0018826744471116465,0.0010255463731051
1687558010.611545,0.09294521079534039,0.024863172309348893,9.792435557346973,-0.0017047991336162612,0.00026086472016963777,0.0003527545796283
1687558010.6219678,0.07092086976784383,-0.1049694550053062,9.755227042339746,-0.00017444518016281483,0.0017036583468781486,-0.0002276337745091
1687558010.6296377,-0.17176074639460662,-0.0503953959337419,9.911602359036449,-0.0012041398194318842,-0.0005814212728637817,-0.0028141128404489
1687558010.639685,0.16090722173150898,-0.06501037070430837,9.726983109071922,0.0012746696812537535,0.0014458809511445467,-4.176076431340451e-05
1687558010.6496737,-0.007519035315344709,0.08288649328349962,9.833866293359778,-0.0008632675468465249,0.0012134143693435207,0.0003426900093951
1687558010.6596255,-0.2384551894399789,-0.10948752695138976,9.917090400049176,0.0004461850322900173,-0.00386490638910606,-0.0006988809017888
1687558010.6696734,0.16816508104299352,0.09982786606224116,9.76336783296014,-0.00203599231880911,-0.000724119328158386,-0.0003975319249979
1687558010.679634,0.058105480289533856,-0.013585905057752113,9.794864940428521,-0.002069513418103886,1.9609660670431116e-06,0.0002186723013915
1687558010.6896262,0.020546951160318568,-0.11064683364961118,9.784536318626957,1.2527002558806708e-05,-0.0001310261398766352,0.0007435455645942
1687558010.699636,0.05842348526499138,-0.009812802039927238,9.788600525594834,-0.000541392873548687,0.000922092399851943,0.0003326227616094
1687558010.7096813,-0.012058414311582166,-0.028482157253788536,9.829088415705433,0.000610075603849524,-0.0003679556947632,0.0023197038990952
1687558010.7197242,-0.010046809699593541,-0.09148255250999153,9.797738600927776,0.0020566136940405083,-0.00100757267537574,0.0027872249211692
1687558010.7297392,0.05981361123584875,-0.2273241390542562,9.72250455771076,0.0033187291969815473,0.001816932273887421,-0.0028454076072624
1687558010.7396312,0.16001465598871076,0.20073607465721072,9.810969832394447,-0.00010032918732791312,0.004005534045430795,-9.46136696687984e-05
1687558010.7496536,-0.1640916923143154,-0.2930672795150397,9.819384566429868,0.004685574887646833,0.0006289031061872121,-0.0019062486516735
1687558010.7596033,-0.012044681581155639,0.2849696356017236,9.941352050273158,-0.00011709501153454394,-0.0011566070520829998,0.0015262258476037
1687558010.7696784,0.08534238813201796,-0.01357363243043987,9.771524213824344,-0.0007686416582644794,0.0007771787027081772,0.0006205919508398
1687558010.7796729,0.05583151333949686,-0.08056355640540849,9.772404732778128,-0.0008483710146730148,0.0025410780689269813,-0.0019830422515473
1687558010.7896807,-0.044613693867461196,0.015887398284423006,9.84664977460698,-0.0002251290227644759,0.0006460550487355977,0.0006008543733083
1687558010.7996244,-0.02422238237954176,-0.04602059946308547,9.812428401589326,-4.966199131028725e-05,6.155280990956877e-05,0.0004410334823229
1687558010.8099356,0.025480652364336453,-0.10397288254516698,9.771208486254201,0.001423660255033197,0.000599893065430234,-0.0001430843530646
1687558010.8196723,-0.033821856575298855,0.0491066329210433,9.862572057638573,0.00069093356771815,-0.0009655153271390363,0.0016469149577938
1687558010.829655,-0.09866424500453932,0.130192097776369,9.93359221935125,-0.0034869787572392465,-0.0030010202596631058,0.0006329035696149
1687558010.839659,0.13441593190017692,-0.24307043485742946,9.676149423355977,0.0010012361177014976,-0.0005534834268734061,0.0007018071792595
1687558010.852385,-0.05390797567510786,0.043512211479706714,9.868776091406476,-0.0007954606072196804,-0.0025781824822604256,0.0008325753461145
1687558010.859718,0.22049048393026108,0.06321666258906386,9.717972741378418,-0.003378211910238128,0.0014693560939760286,-0.0014588343019089
1687558010.869629,0.012889466454636159,-0.14627214516608358,9.77609682208261,-0.0003074448260287518,0.001056946433983169,-0.0003602871710858
1687558010.879849,-0.020296271000223947,0.06389421088672936,9.855152001039949,-0.0014023121912555758,-0.0002979319800462668,0.0012561303320149
1687558010.8897417,-0.05678507576194811,-0.01760290570995629,9.85309361640479,-0.0019022559689030828,-0.0016233961350869393,0.0005617438310333
1687558010.8997664,0.14567786230180657,-0.1953486411389115,9.692156061547026,0.0007464372119707637,0.0015494379631169224,-0.001040113535007
1687558010.909688,0.007243996901042367,-0.02969957232081034,9.814368203665046,0.0013808492938756117,0.0011858396719230675,-0.0001971274886704
1687558010.919706,-0.18818496580850785,-0.04737745458908242,9.92684535018373,0.0009639784565605806,-0.0027965028751552527,-0.001223791999971
1687558010.9297144,0.00010824430227718553,0.05878642194863084,9.84302548157909,0.00032957738046711496,-0.0038604279682735187,0.0012043580227806
1687558010.9396522,0.26687205813623904,5.801417176910116e-05,9.669809429269318,-0.00043042360494976,0.0017442773017083562,0.0009003593314015
1687558010.9497817,-0.20426846159046522,-0.0766716151268277,9.908644291391733,-0.0003760006293357461,-0.002261170280629793,-0.0010148032142273
1687558010.9602256,0.09479314519151853,-0.029692124118848966,9.757617074323258,-0.00011115021071865919,-0.00043055144959478056,-0.0006702243389985
1687558010.9698155,0.01686379701966639,0.028289592991842506,9.824029222953369,-0.00020240571166080083,-0.0007032418938599066,0.0010020713689778
1687558010.9796774,0.06039027852713627,-0.09882627469436714,9.76828019096963,-0.00109834341746028,0.0017882423367484139,-0.003370288437461
1687558010.991974,0.03505617556692325,0.06826704174883325,9.829430335902925,-0.00166867588195966,0.0011001594489255847,0.0002264514060267
1687558011.001249,-0.14168674538533554,-0.2794430561606857,9.817600044813807,0.0013268625571665478,-0.000984138461322226,-0.0033136705441824
1687558011.009679,0.22802918451523324,0.20599242788756855,9.777404448956625,-0.0013602503638033647,0.001800889002318059,-0.0002913628977215
1687558011.0196872,-0.04354465331100793,-0.06824001149933068,9.832568097790487,-0.0001532314255581717,0.00035399248012189945,0.0006425772754051
1687558011.031562,-0.09017821327573587,-0.05746621195191751,9.856591788485563,-0.0007228404154715404,-0.001511996057060172,-0.001562419025456
1687558011.040908,0.18107599706797284,-0.01994467681842646,9.717628360956482,0.0001329001788838652,0.0011977675338814752,0.0005621362088755
1687558011.051769,-0.026787194973151175,0.029623738536782435,9.85187714150835,-0.0023254729246997537,0.0008539269603667888,-0.0015732111914507
1687558011.059738,0.02490410700750666,-0.007877668381003318,9.806982613842745,-0.0022334381042435412,0.0007842642760079036,-0.000684731085082
1687558011.069772,-0.04637094767241772,-0.150442591494371,9.799673211363427,-0.0004691177931770846,-5.2412383965013944e-05,-0.0018518498672596
1687558011.0796394,-0.06608353218906157,0.07984279581980479,9.890411540203871,-0.0008263868703635626,-0.002827036554669418,0.0018749097380828
1687558011.089672,0.17243278718339108,-0.12226423312296164,9.691936367962596,0.0007363869628326246,0.0008028753251334553,0.0010236747057684
1687558011.0996473,0.1396188831026566,0.001009401346214236,9.760185864336048,-0.00020764357019270745,0.003546187771731527,0.000584800584013
1687558011.109763,-0.18074715116066484,0.009869682311129958,9.933713298202951,-0.0018459809189658766,-8.783283812384082e-05,-0.0013053767888299
1687558011.1283925,0.04341317521138457,0.030395525507125463,9.822280807378284,-0.002062788734831952,-0.0002871243372177435,0.0024832490326412
1687558011.1296537,-0.8549040387913452,-2.5084918403740355,9.433444234629686,0.002366579217388883,-0.0012519917582123517,-0.0015776808413169
1687558011.1396875,0.17278748677664962,0.035753701005161904,9.749357926991312,0.0002960396422970129,0.0025437223365450293,-0.0026803725904277
1687558011.1497018,-0.012922098730709859,-0.005490468504363272,9.835112562613295,0.001317533868876752,0.0008945108595288762,-0.0003152216358534
1687558011.1596987,-0.04490637851999698,-0.003117684667699151,9.853391693312634,8.51586174232837e-05,0.00027166489560689444,-0.001503950361391
1687558011.169702,0.03056682088538811,-0.059831126041759546,9.791071521618798,0.0014669229632539894,0.00016847173454749608,-0.0007521551141939
1687558011.179709,-0.06999920641671219,0.1259770854662655,9.900097388414668,-0.0013728911240164974,-0.0017146635277751111,-6.485337321228261e-05
1687558011.1897857,0.14197927438330699,0.08908687278473068,9.776533133852888,-0.002100065122147984,9.58188755735005e-05,0.0031240072294645
1687558011.1997902,-0.038112479253729466,-0.20148507150056194,9.783304627693264,0.00027664824754147885,-9.675206976932102e-05,0.0007424012019806
1687558011.2097137,-0.07635848351485168,-0.09631747074467757,9.821665444485822,0.001236678795084448,-0.0015712386309065037,0.0001426395920612
1687558011.2198217,0.11436637251540031,0.14098707595746618,9.811217093634504,-0.001757713500487041,0.00010514046036096566,0.0013973339283007
1687558011.2296982,-0.04586089399255576,-0.0955037704492503,9.811571917224246,-0.0017029349228345953,-0.00018656033485918682,-0.0009529701473615
1687558011.2397156,0.12248424671000702,-0.10961732084669948,9.71690942655951,0.0010422085285603179,0.0017133533837507464,0.0002979738365434
1687558011.2497237,-0.11176799992574087,0.12246308059995026,9.936511428285522,-0.0021589047064728382,-0.000971087192578213,6.216982915484433e-05
1687558011.259687,0.10213130920117788,-0.06213377690060973,9.744925879224485,-0.002120541086951016,0.0012890351246062535,-0.0011738782322458
1687558011.2696538,-0.1509268928932935,-0.14041009937728227,9.855936699780493,2.2627233588877884e-05,-0.002031684328244757,-0.0013686985748312
1687558011.2806869,0.17525504952953894,0.03636374916135391,9.742694017592747,-9.660107636066002e-05,0.0010122518917974337,0.0015429948271526
1687558011.2896645,-0.12880559468350827,-0.047164653790551604,9.87476126357923,-0.0006397619743295032,-0.0010020151780673731,-0.0002775703596375
1687558011.299786,0.011320237650706095,-0.049712237400711914,9.799797351651558,-0.0003178817282499037,-0.000947627181047246,-0.0007778749840757
1687558011.3096838,0.0335832963342396,-0.04616334187541511,9.78714838226256,-0.0008491167726647807,-2.8903144210749715e-06,-0.0021268042309633
1687558011.3199725,0.14556330538419654,-0.18503386927918958,9.69456055767654,0.0029186328313133346,0.002589567595970409,-0.0017788420936516
1687558011.3297255,-0.09675746236639846,0.25643247983642486,9.967228171352778,-0.0025940261961213996,0.00015357097313130295,-0.0011217188129625
1687558011.341579,-0.02763161717669098,0.0633547358670162,9.86957564052888,-0.0047319875376917765,-0.0009833758369372947,-0.0006917942354879
1687558011.3500807,0.1655638248365654,-0.2606838212863477,9.64843091868493,0.000604116360367155,0.0010144917193608796,0.0013656567771728
1687558011.3597698,-0.0941736004890232,-0.061766543233457656,9.85890682998515,0.00028709554747163396,-0.0005627951716113669,-0.0003643667132086
1687558011.369744,0.0018423717401716802,0.1065840555133557,9.868397389376268,-0.0007995665479266232,-0.001842813913527219,0.0022217319074594
1687558011.3796778,0.0938213996941633,-0.05545370944837449,9.747791927090619,-0.00033911736325947653,7.086829435830322e-05,0.0018439997821156
1687558011.3896582,0.062022174312728,0.057774261145577065,9.818115792809886,-0.0032754231464423482,0.0019625615191889794,-0.0002380576024255
1687558011.3997078,-0.10220499208360205,-0.22106271795008006,9.796172748054406,0.0009494706583144408,-0.0004696787351913057,7.187374472105031e-05
1687558011.4097364,0.04834653959655834,0.0258180217163237,9.804239470356904,-9.825337004650702e-06,0.0002258559129112812,0.0004585531733506
1687558011.419782,0.06592729616624035,-0.025626922177137156,9.786124849749147,-0.0007511262091093615,0.0016299149279755966,-0.0010207436552695
1687558011.4298038,-0.1630675531371996,-0.05765631838928699,9.884297623361471,-0.0011624499799234404,-0.0013242442223749646,-0.003061112625753
1687558011.4397626,0.1267439481661393,-0.08819818415960684,9.723497495790616,0.0005985342436967476,0.0008397576615902168,-0.0020601343403062
1687558011.4497128,-0.0014878096679684862,0.10580371540271892,9.861296955989033,-0.0010245930543155268,-4.53651430624953e-05,-0.0002373326842165
1687558011.4597163,-0.0028578697232015974,-0.03705280819239366,9.82397394939958,-0.0015222836633086438,6.0069263435304926e-05,-0.0015933410304091
1687558011.4697666,0.02664071592685032,-0.07751505490393133,9.800831833437252,-0.00017221244858749686,-8.104157443178214e-06,-0.0008344998622736
1687558011.4798276,0.04971112432582246,-0.10903396271302368,9.765077487856912,0.000869741404153329,0.0012447211854325953,-0.0021454085635445
1687558011.4897733,-0.007631112880944154,0.10669247076850426,9.870724668500102,-0.0014801808696038607,0.0004277483098683581,-0.0011336411389014
1687558011.4997656,0.06589678474108727,0.03018404884677057,9.805055925294441,-0.0015770494298028694,0.0007719648763980474,0.0012017352292355
1687558011.5097442,-0.16820639056613812,-0.13947059503573028,9.870493055805087,-0.00019085638419637287,-0.0025882639872620663,-0.000362881602948
1687558011.5199068,0.25078217230390193,-0.0352481719070696,9.686390648620096,0.0005892377974426395,0.0019744894437398568,0.0010181045527611
1687558011.5298014,-0.16455846891952794,-0.07182824984291458,9.888334270021401,0.0005750751502443588,-0.0011748658898984873,-0.0007499299517325
1687558011.539856,0.04538302645028171,0.012009007212142124,9.806914546613733,-0.0009157999814490438,-0.00011687389712529502,-0.0019993906880221
1687558011.549722,0.10305276986830976,-0.012746533326437768,9.758941948069895,0.0001779602086477739,0.0009034648304292743,0.0005051096396096
1687558011.559768,-0.06594661555477696,-0.10148771121353163,9.836118401845171,0.0004554691655339614,-0.00022789229113717353,-0.0021167485082945
1687558011.59666,0.03487479721240122,-0.006808499742586232,9.80472082874276,0.0004256792417074799,0.0010223036452791903,-7.120429467922921e-05
1687558011.5979967,-0.143614625371566,0.24515767083063375,9.98737524403869,-0.0004828964085382305,0.0006672771107264683,-0.0003494748652405
1687558011.599302,-0.6026955166040159,0.0786003813959141,10.176243222759616,-0.0004356062631997675,-0.0012303710899127659,0.0002652097919532
1687558011.6012414,0.33616790477674724,-0.4644247299036072,9.48680291477161,-0.0005294901536474227,0.0012693120718272018,-0.0031948309896937
1687558011.6097317,0.16091013256772213,0.04758949644506577,9.75433962933147,-0.0003089532736127596,0.0029199708603363274,-0.0002991818163967
1687558011.6198,-0.02127468961987556,0.0293644672700429,9.85079967303969,-0.00207508517682316,0.0024386796219417403,-0.0011965724679133
1687558011.6297014,-0.06723061203431906,-0.051824994719523794,9.84264984300588,0.00029976435322648327,-0.0003966470742662684,0.0019930047874846
1687558011.639722,0.0382941502736666,0.012848851458796917,9.807164548419108,-0.002200298753308918,0.0011415071307152049,-0.0010479538741014
1687558011.6497712,-0.18380436561655747,-0.1383661970602144,9.874125520249068,-0.00014912522560745923,-0.0027603574162568954,-0.0016726894809356
1687558011.660046,0.19142761819326098,-0.05811461641218427,9.709780934617806,0.000719236898929709,0.0010629056647319362,-0.0015080351422033
1687558011.6697545,0.028201476348734142,0.10985785821899886,9.854056426105029,-0.0008889783814982643,0.0005175328673301625,0.000708513691327
1687558011.679736,-0.11911165952377777,-0.11423020203988207,9.854989270848705,0.0006655933067256966,-0.0023174198094462538,0.0002551518573933
1687558011.690186,0.0022805297706717143,-0.09880324326348455,9.79427971342338,0.0011696325001952807,-0.001953453535235813,-0.0012349571606568
1687558011.699693,0.24739483156314168,-0.09146694095555186,9.647839770199573,0.0038227741998771874,0.0020974302757622836,0.0012263197295875
1687558011.7098565,-0.038967124859223094,0.21479606650811575,9.927320618494809,-0.0024599547933859454,0.0015758582938597164,-0.0005249559453181
1687558011.719765,-0.1503011115291285,-0.1799358761548534,9.846178077904067,0.001018380048993196,-0.0019243802577092717,5.249699647956615e-05
1687558011.7297287,0.22522965760756183,0.08323183185608751,9.732242036181724,-0.0005309594641133014,0.002049371325453201,0.0012945148355835
1687558011.7398024,-0.07945874812467149,-0.042604429212836595,9.852100586477345,-0.0005376815070012477,0.00022472574923713216,0.0007681307343342
1687558011.749761,0.04115015700831601,0.07680805942128317,9.838211378980981,-0.003337241113703697,0.0011858443815141177,-0.0003051243529147
1687558011.7598653,-0.13667065379805096,-0.2520327834387064,9.823241005249368,0.0018144698147819082,-0.002495467738210705,0.0002167651855894
1687558011.7698674,0.018954339776845658,0.09852474518852973,9.841194157241612,-0.00171260947366256,-0.001579073932309179,-0.0015162298495373
1687558011.7798626,0.2488565100283557,-0.13140587205974283,9.655933916593497,0.0016721241092490478,0.0026067145934591473,0.0009026600474067
1687558011.7898223,-0.17255942382294803,0.06063225189175377,9.948258919881603,-0.001004424839130088,-0.000907396333288796,-0.0002745641667819
1687558011.7999687,-0.040178343817875904,-0.16405522648965595,9.773638294908839,0.0006041140439735407,-0.0010519290211003425,-0.0027474385260096
1687558011.8098197,0.06845992561151781,-0.018473304489561852,9.787288480429405,0.0016550306695279433,-0.0006603869297428327,-0.0004809588699094
1687558011.8198073,0.12375804973292451,0.2346438646767484,9.84278363555683,-0.0027769552220243783,0.0007838849496018262,0.0015094526479993
1687558011.8297932,-0.05675298319449103,-0.21294134746331608,9.780450652233428,0.0003109340601519004,-4.795696230619442e-05,0.0001005513786845
1687558011.8398192,-0.023264750288448904,-0.01817296074750428,9.839129049593213,0.0004532556658648789,-0.0010694508586742567,0.0006064558129333
1687558011.8569474,0.04650122800500096,-0.1475534088609638,9.752704356942367,0.0033537324929715775,0.0009385030936253173,-0.0020754280539653
1687558011.8622177,0.009807887649305975,0.44330699218265945,9.980798901469782,-0.0011899584308823782,0.00041060622536859894,-0.0008173716759733
1687558011.8697493,0.02820761150947466,-0.10811903134454898,9.773513555759305,-0.00013126904022667753,0.00081667755159259,-0.0010788830968043
1687558011.879771,0.09876487785710207,0.14411886857593845,9.816762507001725,-0.0018475065700170748,0.0015241035296067887,0.0022131495371037
1687558011.8897617,0.06266695189121273,-0.15474278059846178,9.742171333098645,0.0007013625912239281,0.0025165264646205736,0.0019274154056371
1687558011.89974,0.03424732820822184,-0.011967658120938598,9.806884089711726,-0.000355157662837271,0.003366633510177304,0.0006746090094135
1687558011.9097288,-0.13125858002467475,-0.08001558031794717,9.878833189840895,4.009603326850741e-05,0.0007827797272541808,-0.0005945958236656
1687558011.9197538,0.03551489032814234,0.019481850740791687,9.81530059146785,0.0004327658019158048,0.00018486678688996573,0.0021345467267134
1687558011.92978,0.031030723609944726,-0.13862846023397635,9.757871084419415,0.001706061998288383,0.0012797504467158113,8.978447481476789e-05
1687558011.939826,-0.002552354401010827,0.10277811798223216,9.85688252558245,-0.0011762086182525733,0.0011184128155491534,-7.307450682437892e-05
1687558011.9498584,0.010376349893324161,-0.016844875061096713,9.823140939005734,-0.0011594253246226779,0.00077755717967783,1.7119660744900752e-05
1687558011.9598246,0.0036896608652257704,0.01571715897691419,9.840078692565752,-0.0010294101270868616,-0.000304640704005979,0.0021710583551363
1687558011.9699583,0.11674202474272184,-0.08475670928588207,9.741970409164331,-0.0014909829543106696,0.0029426943228416107,-0.0011071904136291
1687558011.9798198,0.03772677549175624,0.007540529084776845,9.820268872112964,-0.0002702154222792947,0.0021913111656683285,0.0022291706719011
1687558011.9898174,-0.2202130331298306,-0.13042314385761627,9.896521144750828,-0.0005380610732124784,-0.0012691248000612405,-0.0017706678754142
1687558011.999757,0.10321949725294595,0.11871442507826192,9.813004533817272,-0.002545958468229843,8.168533794691609e-05,0.0001966589789413
1687558012.009831,0.13424012351775383,-0.16303259227905653,9.712110547360528,0.0015034169620329377,0.001964435448435622,0.0022049534327858
1687558012.0197923,-0.11822657257318614,0.0677373455006821,9.910349616422057,0.000596276812656221,-0.001257929213499665,0.0044882086531766
1687558012.0298235,0.09460092227097874,-0.09008223821890692,9.74505730894575,-0.0003972540231536108,0.002027767790489218,-0.000257812001971
1687558012.0398006,-0.10623639532627763,-0.07659423594226497,9.845737396913131,-0.0010085587688479873,0.0008446260767350187,-0.0033851984462193
1687558012.0498211,0.05927124952879324,0.056036608617642564,9.819687708133111,-0.00014800092298177225,0.00023663723486569454,0.0012624974206597
1687558012.059804,0.09223539198995385,-0.09007499290691276,9.759786400649364,-5.601188748722803e-05,0.0024390398136349147,-0.0011068223083815
1687558012.069834,-0.13270520078826056,0.10507843913846246,9.93684676874287,-0.002353376725205201,-0.0012158481288014388,0.0001027753769927
1687558012.0798256,0.12255179799252867,-0.11246770113302454,9.723696774457329,0.0005165764307948609,0.0004121099503265952,0.0018786382880103
1687558012.089838,-0.06273746519327558,-0.05943377530711926,9.83887633973663,3.789582853603128e-05,-0.00041863571306809014,-0.0001069406552664
1687558012.099741,0.04537615940453934,-0.16110337102015276,9.756218318345624,0.0024019448485845126,0.000394974892657725,-0.000769687261661
1687558012.109738,0.02911007874775359,0.1746275377422693,9.863030551803748,-0.00026460876105540283,-0.00017127584298851062,0.0020112567890942
1687558012.1198072,-0.0320258367586365,-0.04521895854774347,9.82007676756334,-0.0007775888213008952,-0.00047115550625851846,0.0001985315193929
1687558012.129784,-0.02991950648733501,-0.024857104177006394,9.825840335145713,-0.0023049518514840204,-0.0004041442643363302,-0.0023946684359065
1687558012.1398482,0.00636532142956747,0.06175092272461702,9.8390957166844,-0.0036158889840842393,-0.0007014475620938717,-0.0014968583399853
1687558012.1498413,0.07085544024937564,-0.10973210011584303,9.75272295896286,-0.0011411673998788234,8.091676644115426e-05,-0.0003036518155089
1687558012.1597562,0.03462220936389486,-0.008736748890332326,9.80953000307298,2.471256296430709e-06,-0.0005169728771558196,0.0026985803579487
1687558012.1699,0.0016651081024579217,-0.12772408504885152,9.787997449289117,-0.0004281345324555259,0.0008237345591344747,-0.0021100485736928
1687558012.179824,-0.039721911485397755,-0.184678622210423,9.785787645500289,0.002492855595926692,-0.00019172688880590935,-0.0025753082281402
1687558012.1898153,0.13195811319726616,0.2163975628002566,9.827205808788264,-0.0021074946357593377,0.0018083613487609117,-0.0013902894260785
1687558012.1998625,0.09843952020253201,-0.14954081753002388,9.723587778236402,0.0019038844701416268,0.0027672347077883405,0.0010128861195449
1687558012.2098262,-0.12007699066679144,-0.019738270645874655,9.874920915136864,-0.0001539642627504635,0.001232443171742943,-0.0025548140092245
1687558012.2198093,-0.0662777026878103,0.02986522076944192,9.871101424624676,0.0005620341255508974,-0.0015894839244279771,0.0006552545547061
1687558012.2297914,0.031004078319070722,-0.08921027491021405,9.78418115622487,0.0015697258850413689,-0.0011640631682669116,0.0001027947019361
1687558012.2398171,0.0546968650957893,0.22343103390252536,9.868452992291473,-0.003851707305557043,-0.0001768816790275158,-0.0001129186984575
1687558012.2498071,0.0833538526296777,-0.2124093101747021,9.709314259474509,0.0011219399876337582,0.0005719048572679136,0.0017043012213003
1687558012.2597897,-0.0530612839872668,-0.048277468760760466,9.845651793675657,-0.00028434773003047586,0.00028728056485047726,-0.0017829701809636
1687558012.2698133,0.027204343491487544,-0.07467140835130556,9.78587079804408,0.0011856570873941311,0.0004087345173059846,-0.0006702124646357
1687558012.2797956,0.016368212930618173,0.0935746313494473,9.859957645385283,-0.0014112563571199133,0.00032941084060369476,-0.0006061265284619
1687558012.2898035,0.00894246715384964,-0.07048465227008031,9.793238705501912,3.4163661991470015e-05,0.00011073245222373462,0.0004727148062125
1687558012.2997694,0.0017153858318487306,-0.07430055623873147,9.806102733563304,-3.9621812615831334e-05,0.0003476665401764865,-0.0008296602445147
1687558012.3097768,-0.028986987512677136,0.0518296624503186,9.865681394032036,-0.0010644301561639898,-0.0009897204022557826,0.000540135983149
1687558012.3198884,0.04795305947274327,-0.023148641724828906,9.79297143781836,-0.0018094984109939677,7.197872003069394e-05,-0.0006754364857873
1687558012.329821,0.055580320411954355,0.06672679678212066,9.837426342782873,-0.002302334500159426,-0.0001355089173550076,0.0016935123731424
1687558012.3397644,-0.011417861590133613,-0.2446088719790763,9.74051204515102,0.00118302504050722,1.8748770135518245e-05,1.489147148513322e-05
1687558012.3498206,0.0072774928441177835,0.039165420111488825,9.847634611746042,0.00028448964135221387,-0.0006697033266813494,0.0011309977872338
1687558012.359766,0.039736734874815965,0.0629387462149985,9.821764588264195,-0.0013330472777328345,-0.0003184330000806714,0.0016882625077892
1687558012.3698027,0.12950279816958343,-0.21167859526946503,9.687327954494524,0.0017060516998040152,0.00252846076981798,-0.0001054333096793
1687558012.379768,-0.16603826906332458,0.09682150887863987,9.945062943515486,-0.0007265501270626062,-0.0014602318194307429,0.0003683950945311
1687558012.3897736,0.1383144470343971,-0.06395757093673721,9.72933323541152,0.0012605296529932194,0.0003893774091042923,0.002668393515753
1687558012.3998294,-0.007132990511954025,-0.02000799171424924,9.82048706689996,-0.0009746348189074469,0.0011731711597099228,-0.0012811724136076
1687558012.4099166,0.07130165368202289,-0.0037539846784664724,9.779842745806784,0.00047966343612570615,0.0012987317373794709,0.0024035447004758
1687558012.4198155,-0.08670803699576407,-0.04965815793660196,9.856070146324726,-0.0014977097247657523,0.000887046289172284,-0.0021257075986317
1687558012.429797,0.10011583197487592,-0.014533673407416736,9.767754082756008,-0.0012484793952228016,0.002376830820588788,-0.0015419175887904
1687558012.439834,-0.021947526126641127,0.014068934375402686,9.84530473161904,-0.0007846650153110058,0.0008688238283295832,0.0008899349796161
1687558012.4497752,-0.08662488997423679,-0.205884122089046,9.816840460843729,0.0011987059548712515,-0.0004212204289430959,-0.0021249245891771
1687558012.459926,0.04586978302867016,0.08531915206202705,9.825508915423304,-0.0002649995401454593,-9.376372878519219e-05,-0.0003568900555796
1687558012.4697795,0.11836551437039931,-0.08043209045013706,9.736093272882686,-0.0003316763612741546,0.002868937582578494,-0.0028696210628799
1687558012.4797904,-0.03665527921912372,-0.03511326372897298,9.837307622621665,0.0007445949450991961,0.0012402328098582132,-0.0011984486172399
1687558012.4898562,-0.09125899487056197,0.03021338629003911,9.896921021078095,0.0005266422788814374,-0.0018681526419948016,0.0010214202357497
1687558012.4998546,0.1481643387983115,0.06907923162955343,9.775899350932402,-0.001468630673060486,0.001017468081193818,0.00073385777255
1687558012.5099275,0.014336153965995113,0.0014637230568247865,9.811192496107164,-0.0021093705460546127,0.001016348793843427,0.0010426931567531
1687558012.5200007,0.09959154198131567,-0.042517565245567414,9.760115464702421,-0.0010513770095749379,0.002287415994551152,0.0024422877195798
1687558012.5297632,-0.07752651905703667,-0.20062927173372797,9.787476052114112,0.0002502193016770601,0.002005378651278846,-0.0018917807883075
1687558012.5398333,0.03136220774878092,0.10557298224505399,9.842249470944676,0.0003951408782664255,0.0006952244730206493,0.0031452314888634
1687558012.5498729,-0.01404644567431017,-0.06964721217674856,9.813848487149926,-0.0010309321056999551,0.0014149546907151684,-0.0008214667013338
1687558012.5597742,0.013501842006803865,-0.1196839224052841,9.77461811666766,0.0005512129337136649,0.0017591843273920087,-0.0013642245011827
1687558012.5697737,-0.045426166802708216,0.05358871873871873,9.882470111720385,-0.001670546084650045,0.0006140167434231223,-0.0019517123273066
1687558012.5798018,0.10731763677694371,-0.22424081257702036,9.697292601482353,0.002940209143182475,0.00245323041020401,-0.0008978230452588
1687558012.589795,-0.059858252447975366,0.17680869742604252,9.923140433612287,-0.0008856102542073285,0.0005726729934512848,-0.0002123586873016
1687558012.6000023,0.15684971545308699,-0.08347433754717683,9.719388054986416,0.00139235235415025,0.0030049296888377754,0.0016160015675746
1687558012.6098857,-0.09570224959029279,-0.05091913575465021,9.854995883762935,0.0003623000281406795,0.0020005817061132004,-0.0014864417298189
1687558012.619835,-0.015736443218661546,-0.0036109756132590744,9.835286931204415,-0.0003190100423010744,0.001471584252030089,-0.0019993927834979
1687558012.6299334,-0.02202797861781135,0.010654729198403348,9.843275804058335,0.0003023696214325464,-0.00018095520379299586,0.0008500660497271
1687558012.639886,0.09323497246968879,-0.12971601425844081,9.731151788323368,0.001177436706106711,0.0025381209074797615,-0.0018153860273263
1687558012.6498756,-0.1403796156250604,0.13545305103714653,9.95861348911068,-0.0016310651024344996,-0.0011432251701735331,-0.0006892151704481
1687558012.6599092,-0.01822000457509829,-0.08847841446845832,9.731736095052602,-0.0006870651662108887,-0.00039553303714000504,0.0003155042377808
1687558012.6698036,-0.765017052168317,-0.22172252116646163,9.886199290391929,0.004144807213240275,-0.015035080697849118,-0.0008543642742983
1687558012.6798863,0.39530399910464153,0.2943422315857413,9.975329322231504,-0.0020691621307644516,-0.016824069132824443,-0.0027705120427957
1687558012.6899369,1.1920684596500495,0.03162723300255366,9.706505063834033,-0.0028152585532801692,-0.005748044283659701,-0.0019822813610038
1687558012.6998346,1.1827312563732628,-0.2706718932570055,9.650233882883983,0.00212063789454307,0.004972264412952779,0.0009435952252284
1687558012.7097888,0.5615329952107594,0.02527013103827917,9.832910906001239,-0.0020705602587349245,0.011114128230457062,-0.0009842197450301
1687558012.719899,0.04674656508385326,0.07607359545837422,9.819844551343797,-0.00224648060643555,0.010183194481854044,-0.0001031218834645
1687558012.7298172,-0.6708001670607597,-0.18287894439916608,9.89155597326051,0.0013864009742040034,-0.0011204918444977703,-0.0032872540450147
1687558012.739837,-0.603611285990208,-0.04209453674695033,9.971541128388294,-0.0014500038161489133,-0.013289156289415616,-0.0071957806630483
1687558012.7498343,-0.8099190991616303,-0.5981669194956059,9.593009311222119,0.005897705918928593,-0.03105796405866182,-0.0216094168408266
1687558012.759834,-2.509975071182218,-0.7944555211300903,9.89470859378869,0.01328415876710849,-0.0836518033708182,-0.0510324227197519
1687558012.7698317,-2.0075230114719327,0.3615308257225627,10.703217045378556,0.010439926334020239,-0.1537327021700552,-0.0587620797140947
1687558012.7798507,1.8217781081278759,0.10985207697076223,11.157928584965012,0.0018310035211278038,-0.19690734945781113,-0.0799578154964796
1687558012.7898552,8.927679302376983,-0.5088852644778104,9.645706404463109,0.0057562060882357866,-0.14098565036585625,-0.1002688656134954
1687558012.7998204,10.337915599856988,0.22692628287111966,9.154717090318238,-0.007054217218613458,-0.05507324811229041,-0.1220405350013128
1687558012.8098123,9.652267707470576,-1.2102020085954275,9.062933088062836,-0.003651198005702576,0.01685507392017008,-0.1462422634048811
1687558012.8198626,7.721038213926253,-1.6159495769515642,8.34986399913705,0.007778028831602899,0.07603824174020363,-0.1514810199423185
1687558012.8298323,4.024633377445144,-1.5673161497276793,8.581719740042594,0.03370569258857491,0.08692721487474048,-0.1274719113989225
1687558012.8398263,2.1596915152208727,1.8112537716644348,9.383145862294299,0.03042633996118152,0.0651924097081641,-0.0741195181889883
1687558012.849787,2.0337215727983766,3.6799717074048925,10.342478099836171,-0.0050158558585222295,0.047639101675279016,-0.0112773530690423
1687558012.859795,2.7301016406168084,2.314157352574486,10.928015103942396,-0.019196246899147514,0.04796934083362025,0.0505984400825151
1687558012.8698285,2.4813051321390036,0.7979967687293218,10.820958191916553,-0.016736142346609823,0.06020073083445275,0.0876672019676812
1687558012.8799834,2.009132924095381,0.627979863636686,10.35654548752013,-0.01314969034828772,0.08213253761750877,0.1014967685060151
1687558012.889794,-0.008534971711186274,0.16611500990082304,9.650121009122172,-0.015544802089146813,0.09078363136098198,0.0910819744186052
1687558012.89981,-2.2846459332512983,-0.07338292901084928,9.377380399303318,-0.02067106522217184,0.07187589194691126,0.0685345282272943
1687558012.9098866,-3.268289190166735,-0.8898612639338598,9.096352535815964,-0.015727493060472178,0.03811638560718794,0.0473204416648992
1687558012.919923,-3.761775643220553,-2.052712971454942,8.945750689612261,0.002646771427083889,0.0015226458285543052,0.0094697543846019
1687558012.9298875,-4.428150078779981,-2.2258701830832064,9.584075220397713,0.02253320829394672,-0.042346203307689255,-0.0326316120608202
1687558012.9634666,-1.1735203049431369,0.1035835099583209,10.140532604369154,0.018707541159376558,-0.07435191467362819,-0.0495739194138399
1687558012.9673283,0.8985382374174556,1.0352164439509177,10.441924306096757,0.00857911805825151,-0.06470214327623419,-0.0533183055503717
1687558012.9704754,3.9246708835873405,-1.0653416167115597,9.487225883410279,0.01280299824246167,-0.04322764026287504,-0.0514505530281416
1687558012.9726863,10.855006151177493,0.2035609790330312,5.726153295680739,0.021198868768792952,-0.002983294491021208,-0.0304863514883867
1687558012.9798124,3.1199692963810537,-0.49694612820154344,8.724735886046208,0.03039943554924297,0.03444501090256987,-0.0172415679825893
1687558012.98987,0.3341926463556672,1.1134631699448312,8.580908167189802,0.022275849254183692,0.050015961460760414,-3.234218270099635e-05
1687558012.9998798,-1.5769855830819621,0.7307334921944917,8.632815796882488,0.014520656391903114,0.041217002637047515,0.0117795209826477
1687558013.0098588,-3.664593003769843,0.7922111154945441,9.172223679735694,0.006239934121678063,0.0023770369562813656,0.0182622273878701
1687558013.0198617,-2.795291046628864,1.0998210244737983,10.06068803275016,-0.0032166468184700913,-0.02873884415935735,0.0194405497477897
1687558013.0298457,-2.2132513991383744,0.9200318832509107,10.931342388012014,-0.018708145341913094,-0.04786444370342395,0.0148799562321552
1687558013.0398998,-1.280526032550273,-0.16882330350157906,11.60372068270151,-0.013876252558439701,-0.06448999170172381,0.0121810802684673
1687558013.0498898,0.7207313273379793,-0.5301288950551636,10.754367465025247,-0.006277694311712385,-0.05318589850251041,0.0036504832988181
1687558013.0598588,2.1922638279957365,-0.3435719686966835,10.293162568700561,-0.002513002467451621,-0.021585752202589195,-0.000446705174861
1687558013.069855,2.998162553491122,-0.118414693433147,9.254825162049347,-0.0008988755683865853,0.020805095934145115,0.0036771868781694
1687558013.0798166,1.9730562130305844,-0.20258849258139827,8.410429231876245,-0.00266946485082044,0.058375036913974644,0.0048988013023086
1687558013.089846,-0.3395267553225137,-0.18691478056284203,8.399308411912143,-0.0032588292859988873,0.0654798829302626,0.0083775775001891
1687558013.0998487,-2.326173166594883,-0.6940305035797181,8.630148850810311,-0.000511328914787957,0.048700143360676774,0.0120896225289949
1687558013.109898,-3.856882605450438,-0.8833671228882739,9.525292345229126,0.008914077862582479,0.005367982775459833,0.0118232558907517
1687558013.1198752,-3.1595820801792596,-0.6781469187934247,9.919952126379115,0.018399535960541297,-0.03221340790110149,0.0170731780545362
1687558013.1298356,-1.3796064937127275,0.041291948367760525,10.53164213417139,0.017075525351675065,-0.04851015762380371,0.0124825316907414
1687558013.1400142,0.44092585198750767,0.7876323031115582,11.133608776889131,0.006106394524222939,-0.03586049041103748,-0.0005067596484399
1687558013.149922,1.2515375846675276,0.7052474163499903,11.203931473469115,-0.005935682396877369,-0.0077347054095083575,-0.0235358892513862
1687558013.1599908,1.4856392276184918,-0.668017771243436,10.703706453648488,-0.0012775569278522792,0.0297156670856216,-0.0527911508961073
1687558013.1699955,0.4728185903643016,-1.3228042621516798,9.946171988251969,0.013337506949340865,0.05597183873901087,-0.0774705434723249
1687558013.186435,-1.0359354312971814,-0.12189968131735338,9.191778123053528,0.01975611656018263,0.06418760354504405,-0.0863319213075987
1687558013.1900427,-3.3054006150281596,1.6990776501693785,9.44686051675209,0.012427984758855617,0.0510638371377869,-0.0810329789800993
1687558013.1998518,-3.609051450755583,1.4298014074117062,8.718612274988194,-0.005692698684753961,0.01849156804188818,-0.0631799499078146
1687558013.2099738,-3.5574173142219347,0.6522521096769608,9.078288791338824,-0.012774605505934683,-0.01974715309263621,-0.0358065279705873
1687558013.2199452,-2.5553305534255144,0.010996635760591393,9.413607266952303,-0.011312321136815346,-0.04602956586903917,-0.0085631773380986
1687558013.2298434,-1.2932389852960833,-0.7629144396197808,10.517045862576081,-0.002506624676128616,-0.06334250878952997,0.0029670586537145
1687558013.2398598,1.4521572806245977,-0.34205225759943036,10.393673440820187,0.0030485044556178213,-0.040437155492840965,0.0109669317917474
1687558013.2498667,2.0668941418504265,-0.2976136366853199,10.584337686547741,0.0006960660981915978,-0.0024615587772279725,0.0053744878114708
1687558013.2598438,1.2720203177388354,-0.6297517769027507,10.178032234756554,0.0035304724565178394,0.02845753755165527,-0.0049167714586905
1687558013.2698636,-0.6002878836699962,-0.6854065781239463,9.83406281512446,0.010480601703235328,0.0347909555584974,-0.0118419021873227
1687558013.2798522,-2.1250594298322807,-0.4696536342209179,9.146839287713338,0.017998449388253176,0.025846266653789793,-0.0212110547854057
1687558013.2965662,-2.5816864582985173,0.43327251681582435,9.0424688412666,0.013952489548368441,-0.008794779915114508,-0.0222567866130224
1687558013.2998402,-5.480818029347089,1.107079615654126,11.050013055163308,0.008028706007745906,-0.03717261823481106,-0.0243525120003572
1687558013.30988,-2.266351448645013,0.5296071028544158,9.975217825136989,0.004503782584796449,-0.06903845905315317,-0.0308510536833158
1687558013.319971,-0.5243884528828724,0.10595758946629442,10.143627760796807,0.005074612082353384,-0.08413211193260868,-0.0519785086198202
1687558013.329854,1.0849170628590081,0.4951030843687126,10.43761740444959,0.0010591585917338084,-0.0817261662004468,-0.0755800704045645
1687558013.3398554,2.54880385982151,0.7218026090313943,10.412543238597234,-0.008977020166650095,-0.062287512570906395,-0.09790602573589
1687558013.349848,3.0008079617897025,0.6892450316948823,10.21062271599101,-0.020196755459179937,-0.03911043640997205,-0.1111712554974905
1687558013.3598752,3.236266060804118,-0.02595575704532411,9.792463315681754,-0.021205157335924932,-0.014798788541366377,-0.1110879133029333
1687558013.3698423,3.556432962134407,-0.036110482832027835,9.740464892693671,-0.02216979952485823,0.010703687602815147,-0.1000634903593412
1687558013.3798506,3.1189211964573995,-0.421851716305368,9.615375939498353,-0.021691560221172274,0.031220432755428816,-0.0819474706931463
1687558013.3898962,2.571498316398861,-1.0291767678157844,9.366493207229622,-0.0145593475380333,0.04699446329338963,-0.0645838628096929
1687558013.3998716,1.3639766339119304,-1.566354058112307,9.206577433843721,0.003313687424839647,0.04799072412742069,-0.0470344448967329
1687558013.4099967,0.6095695011626869,-1.094167965694803,9.284886967924235,0.014108850265282474,0.04208091871624112,-0.040815326063191
1687558013.4198828,0.10096345852541623,-0.2440711530826057,9.432701567299642,0.016875497156712264,0.03173456555312344,-0.0419124873860231
1687558013.4249628,0.02940942020233434,0.9944080518796623,9.782286465635153,0.005870797172802588,0.029500047625493818,-0.0511143269522539
1687558013.4388714,-0.13926456257488207,0.5078490762972679,9.833608894412079,-0.0030712810486852814,0.02217531527118623,-0.0661498183889738
1687558013.4488428,-0.23588150620847914,-0.060823073067130674,9.978994335517719,-0.006489146422940004,0.019631199285971502,-0.0829298073931089
1687558013.4588432,-0.4222638244974396,-0.6700589970419988,10.045688974004022,0.0034980160366009775,0.014003142886544653,-0.0938287476582876
1687558013.4688675,-0.6118200779964027,-0.9563742680007622,10.24485849412888,0.018612028898533566,0.0061982416069230415,-0.100830833105599
1687558013.4788928,-0.3777708730594708,0.4891125526338684,10.349631176141669,0.015248447914755584,0.0018394698061442274,-0.0945146779103628
1687558013.4888787,0.09972608410810875,1.3296066896241867,10.156660008137603,0.0019355709769682157,0.0035121145032933547,-0.0836878965182653
1687558013.4990203,0.2991335638698346,1.2131141555614904,10.026831749424504,-0.016378149851743105,0.008428032092880395,-0.0715058172626844
1687558013.508921,0.5187712207973731,0.10552565490557156,9.592318705779347,-0.020295192956616453,0.019310852877298706,-0.0631378317757002
1687558013.5189097,0.06357913254511974,-0.4251646920119088,9.532501811434456,-0.016000401608475195,0.023137854997536563,-0.0572107533498159
1687558013.52887,0.02818074634130667,-0.6589919450247358,9.198118296595323,-0.005366251498085776,0.03130268950769851,-0.0569704982025972
1687558013.5389023,-0.7398495220911646,-0.13930768575422928,9.324704990196974,-0.000875941376506926,0.03167594198343413,-0.0638445714993826
1687558013.5488727,-1.44734145909847,0.25519754792658655,9.570915243276126,-0.0014005789478319425,0.024184316608447748,-0.0763997609300962
1687558013.5588694,-1.902979361037144,0.3323056551813181,9.703346434662745,-0.004351004737494597,0.01361095888609766,-0.0936451877041212
1687558013.5694156,-2.0608767990075245,0.5572919300471022,10.022573891386891,-0.010106664148675233,-0.002626720365363678,-0.1101999903602949
1687558013.5788753,-1.9071096947796435,0.8881924918377548,10.222174155208666,-0.020797227282385318,-0.01604814365422235,-0.1210695902390829
1687558013.5888815,-1.264152606894264,0.9356343071300066,10.20984407903457,-0.03260539585462108,-0.023607690524116064,-0.1261544401331297
1687558013.5988626,-0.8476792617838325,0.3551529863907133,10.130238263937306,-0.037109670162614974,-0.029324506891620025,-0.1216422344131819
1687558013.608956,-0.9025140960251579,-1.1763689533040855,10.163581215080143,-0.02775547347175779,-0.03641995868189284,-0.1202811101956716
1687558013.6189454,-0.6304178081275746,-1.8811195344973786,9.939287233962993,-0.0037293954502303633,-0.04461093657495417,-0.1153700972481123
1687558013.6288965,0.10606247838259478,-1.0733506718963057,9.845594326730566,0.008746384060537054,-0.04627721091869966,-0.1126938785000196
1687558013.6388726,1.5923367990374762,-0.22933564494437852,9.736606930632455,0.005016869548312306,-0.02935534295421883,-0.1045912454409948
1687558013.648927,1.6376560038763495,-0.4490810651316596,9.473344607132802,0.0028915372288388676,-0.00963053530396913,-0.1014176631851545
1687558013.65893,1.2449130416926188,-1.3384361793102404,9.487344501350327,0.00996476610549752,0.0029426604604426915,-0.1042083452029577
1687558013.6688647,0.6382195238587433,-1.2570994132034152,9.291200078533798,0.02322705159493588,0.009396316854348025,-0.1049436430020681
1687558013.6788652,-0.2554023697606081,-0.5970322172119896,9.634815435825072,0.02812715035891588,0.0020314146389699603,-0.1087408984585157
1687558013.6890182,-0.10814555830123526,0.7519379607824752,9.751176606584176,0.016934852853387136,-0.0022018464286456684,-0.10916270562843
1687558013.698876,-0.07389875948011532,1.0168137310147527,9.95966516787462,0.0037199262303469604,-0.00626737874286559,-0.1172580445690504
1687558013.7089036,0.24236556527726663,0.9059036455697159,9.957269790676872,-0.011113245545779445,-0.0055940318356987465,-0.1273905361576429
1687558013.7189422,0.5111802671537172,-0.36127575355953184,9.770097057902632,-0.009711114101329136,0.0010130468740120054,-0.1417309219522825
1687558013.72888,-0.08637087840112727,-0.9125270269210056,9.835411340869578,-0.0015262134595411768,-0.0001672873093844477,-0.1559399391098371
1687558013.7388954,0.11550247473643743,-0.9965938695215765,9.870467523092538,0.012309373252372711,-0.00012985962385633214,-0.1636367762966505
1687558013.748871,-0.22136794295009515,-0.21090564452108834,10.08091058405422,0.015717562098113324,-0.00360715307625494,-0.1652210826559416
1687558013.7589035,0.24440250462185595,0.7019666112011078,10.153756296563644,0.010220607612486794,-0.00503354604436078,-0.1569978768511167
1687558013.768985,0.8804011509227506,1.1701708816802214,9.972596836351538,-0.005250660255952022,0.005453557015727137,-0.1490085596723905
1687558013.7790165,0.5314593430092842,0.45762743964074476,9.896881115138477,-0.013122865678519873,0.010616036902491853,-0.1415110851211897
1687558013.7888846,0.5147374225862239,-0.13881730661202854,9.505745342097956,-0.010120502441339501,0.01799385937108227,-0.1320736581964842
1687558013.7989118,-0.5358366105944877,-0.5571968742582786,9.539981731731757,0.0006100570834523683,0.012533987831463778,-0.1269673580808988
1687558013.808937,-0.6959690384006751,0.5149657046698285,9.597506169128513,-0.0013816804990017795,0.0031399226571576853,-0.1239508266134611
1687558013.8189275,-0.4545305581775745,0.8573648847920577,9.454076499617527,-0.006618888994655519,0.0012144154020447963,-0.125224101035153
1687558013.8288846,-0.7444905871340205,1.2324098499230365,9.924728813719666,-0.021910007146852983,-0.006824245406011664,-0.1289293641729704
1687558013.8389015,-0.21304526179995728,0.5877270963810292,9.80188224812931,-0.029058455650319986,-0.006776915469706685,-0.1338866675777784
1687558013.8488877,-0.2995243715916858,-0.054775663368594546,9.982842933428266,-0.0290690880175624,-0.009438159510345396,-0.1397362525148741
1687558013.8589191,0.28319995444632906,-0.2990494493312614,9.827802858532461,-0.02302262262980178,-0.006200202163136057,-0.1423364306373945
1687558013.8689406,0.31046052047058903,-0.38903155969012604,9.850976056517052,-0.01887967747605959,-0.0018082340368322186,-0.1424586499615064
1687558013.8790145,0.03876173140453624,-0.913297247142341,10.051480404116138,-0.0089486975455654,-0.0016343785374237252,-0.1357726330442777
1687558013.888935,-0.5131763964895901,-1.1882299576066628,10.106626789090663,0.005015460732883474,-0.008050222407786233,-0.1301567728205076
1687558013.8988917,-0.24744703582489996,-0.6678000826223016,10.285333689248631,0.016050064146379772,-0.017419737811395133,-0.1177805984897962
1687558013.9089985,0.6607566934975182,0.5693410088069636,9.94771278039572,0.008093765498302931,-0.010883803219376405,-0.1064837972207418
1687558013.919018,0.944244112491978,0.33541212070744314,9.828326884444891,-0.004603102466712944,-0.0012610604964226634,-0.1013346711678854
1687558013.9290023,0.574153065946956,-0.7793252359395242,9.349702251533648,0.00027780828545300216,0.0044373129582521535,-0.1047991613431326
1687558013.9389932,0.3468476334863332,-1.1223671359693428,9.177155315887113,0.009210700713987744,0.008399809209343878,-0.1129412154240957
1687558013.9489384,0.12624020479911208,-0.5748492944614855,9.252122211799144,0.014889344936929734,0.01092474781134642,-0.1245655442161909
1687558013.95893,-0.11901196930306483,0.6426493826015122,9.730504096570384,0.003398603673254517,0.010041548778734574,-0.1324708039446226
1687558013.9689589,-0.11855282985899594,0.5650403664138228,9.89930461624865,-0.002713509389179414,0.008129876559966906,-0.1347172135992399
1687558013.9789166,-0.4318956454782774,0.583586266940145,10.303257663478863,-0.014771641538076903,0.0020520204021524085,-0.1401848221702925
1687558013.988964,-0.40575674211049667,-0.3580587760996872,10.26071305585557,-0.011621165018154671,-0.005109447654313668,-0.1420258755369535
1687558013.9990098,0.09802362431420354,-0.8624714153931365,10.096492679650376,0.0006668301333338744,-0.005662998540473402,-0.139839949695622
1687558014.0089989,0.01645256750132766,-0.5107733389026068,10.066838989566097,0.006711554043640515,-0.005181122952236634,-0.1446000958366743
1687558014.018944,0.43943187423773394,0.5410887395983551,9.994281024050686,0.0011030949723453954,-0.0032251763754631954,-0.13921521851257
1687558014.0288887,0.6688470096725125,0.48284960807245636,9.562496565322842,-0.005017561993316641,0.006908774302825631,-0.1375351274891249
1687558014.03901,0.011059035098607024,-0.0348294749594697,9.653197197135295,-0.0068745667696989594,0.006275546392807082,-0.136794957010304
1687558014.0488863,0.03651496369854054,-0.39145702180257896,9.280219348964357,-0.0019059555829756226,0.00910052916718316,-0.1391854161901823
1687558014.058974,-0.6205730135244646,-0.2774880565637773,9.487697959377241,0.0035704196033791826,0.0016358165452085769,-0.1420293624086729
1687558014.0689178,-0.29028768940760113,0.4774132603778166,9.396001656515608,0.0033670975554936752,-0.0005098011468963884,-0.1387827272100797
1687558014.0789115,-0.4644491659528242,0.9845512508277494,9.7784871407647,-0.007564252488038627,-0.004288142625923894,-0.1403440410776487
1687558014.0889208,-0.3046701865911247,0.9825993635043502,10.084455614386185,-0.020003768356878303,-0.00904071450074507,-0.1368239546699873
1687558014.0989523,0.08428830791702686,0.1742225140543304,9.922452728147604,-0.018075959958084357,-0.009218456955111207,-0.1296963865442625
1687558014.108914,0.12878524368456973,-0.3474176127138056,9.973607026311972,-0.014541633394253826,-0.007200833610433307,-0.1323610270901075
1687558014.1189506,0.4503363734091211,-0.06540398326092234,9.846201759239051,-0.014597226271449078,-0.002498801447049243,-0.1315933192654005
1687558014.1289213,0.3918194664715891,-0.41023305161070156,9.657709641007115,-0.009486737944946257,0.001692724123233977,-0.1381349290294996
1687558014.1583054,-0.24969537459767666,-0.928727783490806,9.933223166530942,0.0009118262800293784,-0.004473018398594538,-0.1441836232824674
1687558014.1610177,-1.6014212436609299,-3.3250680898186404,9.954235765219192,0.01849879427184752,-0.014594942400329115,-0.1393251592798582
1687558014.1689754,0.351429646548474,-0.6456036676148446,9.886245640727466,0.026281357135781804,-0.01362798819269533,-0.13185517737106
1687558014.178993,0.6524516443346164,0.5484619950171329,10.197975344055045,0.013745640839027124,-0.009457946398392366,-0.127237262813603
1687558014.189015,1.1728088358508033,0.11664380371001283,9.66677594118415,0.006489174176827928,0.005545767682899988,-0.1252624417229048
1687558014.199163,0.7371667313525802,-0.5022096231269536,9.511952796880538,0.004488151452271298,0.016176602808668037,-0.1258226061745039
1687558014.209479,0.08299354937513556,-1.2838821358160832,9.121975179362362,0.02247314703900753,0.020926637807893885,-0.1312679226084104
1687558014.2190044,-0.6819884852617971,-0.16260987557936124,9.611459923856245,0.0262311976019962,0.013884072152628307,-0.1370449984951368
1687558014.2289474,-0.45371945656164775,1.45898121374703,9.897918961629692,0.012651918686278902,0.009571219111473891,-0.1385209883137098
1687558014.238968,-0.20097422989259367,2.244227732788118,10.178093635362565,-0.014133767806839566,0.007771499405604468,-0.134581925956761
1687558014.2489748,-0.5695551782919432,0.7185595254143574,10.213916290270898,-0.022677993116506076,0.00042528039976312966,-0.133808615295445
1687558014.2589428,-0.3093908783178477,-0.13783070994614158,10.075404651796603,-0.01836893635918259,-0.004650514451971611,-0.1286980087442747
1687558014.2689795,-0.6060178326330399,-0.9069527694124342,9.980446671227522,-0.003052785335464018,-0.014192188606019576,-0.1270259047432295
1687558014.2789516,-0.14919346588642549,-0.3118249793928286,9.993909378951166,0.0015160406301755343,-0.01674577823148002,-0.1280519838018766
1687558014.289058,0.3625694048358573,0.7080165025181063,9.812681667133486,-0.0017060361543242977,-0.013386183085966757,-0.1223222787065855
1687558014.2989666,0.8440841651282458,0.8258911073821943,9.82075478254209,-0.013970794157559117,-0.0036782535851919316,-0.1180925095959059
1687558014.3131196,0.30349532146331515,-0.00977053633181452,9.595051086012074,-0.018187280583217308,0.0032798581732604234,-0.1244818741960874
1687558014.318984,0.11139242500222327,-1.369559717919201,9.233088798179653,-0.007802835345793813,0.004974881639253583,-0.1316440577192655
1687558014.3289902,-0.078023290865784,-0.19427551798014073,9.468605500061415,-0.005735923316036959,0.003784095751776256,-0.1348070377989164
1687558014.3389702,-0.22264069881444679,0.17739834050606926,9.611142658034732,-0.007353813674289521,-0.0002364788531504409,-0.1395527149124494
1687558014.348971,-0.08165561740698632,0.7388251710928894,9.761111137771596,-0.016989508264089556,-0.0031199109529415083,-0.1393194968386045
1687558014.3590066,0.08750403498672331,0.5082987610671683,9.889862177158841,-0.027494091340425637,-0.003052277893503905,-0.1409000332041136
1687558014.369057,0.031073435665297987,-0.3752979106468717,10.009632085949713,-0.02515216009372723,-0.007800336878233069,-0.1410740340633741
1687558014.378983,0.6266529426832768,-0.6609311150758459,9.719015349939776,-0.018613755722618953,-0.0015655682703883136,-0.1397257322950712
1687558014.3890684,0.5700283826117379,-0.4120731462610225,9.84956534179593,-0.01350434578728691,0.0018937357145920204,-0.1354568476362577
1687558014.399356,0.3766009946987582,-0.2591723668745096,9.806442810657085,-0.010624943791447605,0.004578271829117819,-0.131815435974156
1687558014.4094114,-0.37687255187852514,-0.8022849093868164,10.149968787520622,-0.0021408312959375754,-0.004718290066290688,-0.1309353882952085
1687558014.4190311,-0.09256192776669905,-0.8582248476315942,10.125206937896202,0.006278852772493774,-0.008181144848463174,-0.1266184026880613
1687558014.4292386,0.5493196635267388,-0.5760300802566494,10.036120540272716,0.012969158476715459,-0.003987068733658176,-0.1178729111833921
1687558014.4390123,0.7516986872936005,-0.22777335086820583,10.052159288605502,0.014924177769466146,0.001985918023539195,-0.1127242917700163
1687558014.4490306,1.1506973827526583,0.24008151320051957,9.6473622562662,0.006879469988002354,0.018904911186011605,-0.1141474718733183
1687558014.459092,0.5977356255516811,-0.022354140790297038,9.47075429135574,0.004971283168813621,0.029081467895325668,-0.1179077649994245
1687558014.469478,-0.04941550184707269,0.09537544961486727,9.375764998675594,0.0026661934910224435,0.032308647236519494,-0.1229403863234869
1687558014.479113,-0.895326196111994,0.15744765608886394,9.496383496603897,0.001590546586651399,0.024085164768503087,-0.1281288439913145
1687558014.4890697,-1.0177589379257883,0.5074789780975553,9.659715252502467,-0.0028136273014580295,0.014198007249416398,-0.1310680384321562
1687558014.499224,-1.3310761168695937,0.6952656776953862,9.97869780801068,-0.010986198430427124,-0.002716583540686187,-0.1351978654547087
1687558014.5090015,-0.5973306734379493,0.5513082706803372,10.096681108816243,-0.01803755736940391,-0.011487675063345477,-0.1347172583027235
1687558014.5190322,-0.2732264533599927,-0.12788757354241062,10.114175529092996,-0.019071923948857282,-0.01476651348475202,-0.1347701425238004
1687558014.5289865,0.36275838706743824,-0.8535743063625443,10.03662379876306,-0.009535319805462182,-0.011512227310671044,-0.1306042099876753
1687558014.539006,0.3066428971826452,-1.1872200786676297,9.963787231284753,0.003965228133285609,-0.006763186756646008,-0.1296176935119978
1687558014.5489583,0.29151678848335805,-0.8185019925107284,10.0948063266403,0.014561378543872076,-0.007594698381460959,-0.126010718433415
1687558014.5591855,0.8410312714567068,-0.02102769677766556,9.61569493980326,0.01586734243779382,0.003617458909979777,-0.1242248291654936
1687558014.569082,0.5098796178751447,0.624410511128847,9.518755844154056,0.004061107221704846,0.011877626915575992,-0.1267949963493696
1687558014.578956,-0.12421971003494152,-0.024383060634643176,9.294834194314893,0.005319384175380811,0.01096815464486347,-0.1317508990450254
1687558014.5889494,-0.6003770967906427,-0.24739184917441193,9.317445893571882,0.005937817954490472,0.0065059588629361245,-0.1371035153551451
1687558014.5989432,-0.8734475968408701,0.10501760646816048,9.615642664168808,0.006423000727540116,-0.005790419393471914,-0.1387700761242262
1687558014.6089797,-0.21147705962281366,0.5352910856864099,9.758880837275115,0.0013777847260664788,-0.009674965735963078,-0.1361036027355543
1687558014.619008,0.14796882312786536,0.8758813339260532,10.064982720956404,-0.010701751320104293,-0.008598464330965947,-0.1301929826422087
1687558014.6289718,0.41158760243930803,0.1955721864593718,10.157561475943242,-0.011653239956568083,-0.006793079884137825,-0.1206622520966879
1687558014.6390152,0.3087115339690521,-0.2717539627995904,10.044133143193097,-0.011860991969338215,-0.003625556432922794,-0.1222431460900656
1687558014.6489716,0.3487114149391141,-0.5579394525867657,9.851559158376247,-0.005812434734022939,-0.0011261070317749493,-0.1251329208298078
1687558014.6590188,0.3977493919460539,-0.2957331914077096,9.647117626936181,-0.004270427071823683,0.003569893120133378,-0.1306895489378324
1687558014.6689937,0.21496360665746797,-0.7695265400806881,9.65970944844235,0.0012565120663256457,0.006566691024277514,-0.1367278868837705
1687558014.6789472,-0.10961592183395742,-1.4054875436639414,9.946616781040923,0.012739630818679414,0.004592740923682682,-0.143072115866696
1687558014.6889725,-0.08025636710996865,-1.149252296891093,10.104989808367112,0.026847387954722614,0.000774306909510881,-0.1388243610544554
1687558014.6991076,0.5932563161082282,-0.0994595979388185,10.097693826238027,0.025551895633445215,0.007192799842143878,-0.1362671727819792
1687558014.708997,0.497588214222955,0.6437259960666075,9.919570300538068,0.014440823803965688,0.013697180304441179,-0.1323286617679945
1687558014.7190225,0.42906949733207633,0.37574526133573777,9.82759634808839,0.005572541664228702,0.017712395727289346,-0.1267501587553373
1687558014.728992,0.368766938675067,0.0430109214925659,9.336830531047285,0.002990486033550052,0.026529581042647618,-0.1297849143429151
1687558014.7390094,-0.20321391389434565,-0.28529822902680535,9.487121935086773,0.006441514561885376,0.02366334625667951,-0.1353743399067274
1687558014.749021,-0.30377991180138153,-0.07729758802859181,9.483404462834104,0.003617944468854421,0.02254090879715218,-0.1443824196739546
1687558014.7589796,-0.602215729925022,-0.29897244703379944,9.620553833625777,0.012630518014043194,0.015115389791971405,-0.1490233863277784
1687558014.7689705,-0.3169439598524103,0.26179977549623756,9.792731857743512,0.009525738031508866,0.01375418282983794,-0.1497262293978086
1687558014.77905,-0.8488246493170701,0.30248018346904476,10.327110258179726,0.00848281256401871,0.00030995312865103006,-0.1467824453993192
1687558014.7890017,-0.04195062425955841,0.48734427935625,10.179390019620145,0.003396010866899427,-0.001538740569695743,-0.1452613497658125
1687558014.7989516,0.20279426084662977,0.22700900756669043,10.124487940008624,0.0010745060472917803,0.0005914264167148624,-0.1429967606945387
1687558014.8090382,0.17962767099097648,-0.23941956261240005,10.294123917291909,0.002293438292931721,0.0009308953327257233,-0.1392249340696684
1687558014.821563,0.42414691068298516,-0.4597360864058865,9.793269138226332,0.010339816662562744,0.008042480497479576,-0.1396495426578871
1687558014.8291204,0.34634091821882634,0.07726132212307961,9.59894666046384,0.008786017820996282,0.012535654242776549,-0.1418349320574156
1687558014.8390296,-0.05388501712891388,0.31897981282216115,9.385986367673194,0.007543423339060335,0.012067296273245267,-0.1464799220247618
1687558014.8489792,-0.3082251717047702,0.653371435008377,9.362979874414412,-0.0024599936363648945,0.01226537787238528,-0.1551884586496702
1687558014.8590243,-0.7155562167402374,0.39662314669261683,9.576896221330927,-0.008140236461598345,0.006269775353534285,-0.1576385671778074
1687558014.8689742,-0.90119319715431,0.06345349319857363,9.847075175074142,-0.008552886646506556,-0.00592204220744206,-0.1570336098356596
1687558014.8790004,-0.6158398627941708,0.057777916121122465,9.987874557824933,-0.008952682853904464,-0.013324302891995056,-0.1540275836868635
1687558014.8890684,0.18652183830447633,0.34878904358753354,10.112613237367478,-0.01327857101049359,-0.012081998974456842,-0.1456436390562406
1687558014.898997,0.44535873296861345,0.15727399695594574,10.068948300111698,-0.017441550548533354,-0.007785308154148326,-0.1412966127081266
1687558014.9089668,0.5356551702358929,-0.7057867900039437,10.016899068962616,-0.012324497925353253,-0.0016142889721762865,-0.1381970817728391
1687558014.9190114,0.6613107473810743,-1.0007471757442303,9.688043987277872,-0.00031812258590939056,0.006157329596104832,-0.1366924519224516
1687558014.9290354,0.44341180030337923,-0.839811387714375,9.769898912343958,0.008873928438914422,0.00821622135316676,-0.1408692027016035
1687558014.93903,0.3977322348932329,-0.3119565732722354,9.672316661454836,0.008170141387036709,0.013337809123915354,-0.148656221715962
1687558014.948975,0.23299555926651128,-0.31961952123655546,9.642811376222257,0.008579028128390159,0.01727023037329358,-0.1484927112741819
1687558014.9589746,-0.13979817306187625,-0.12411080454210127,9.904055899256704,0.010053020855600687,0.013185159174454258,-0.141266050426518
1687558014.968986,-0.11436603681728438,0.4331123450893426,9.936285494267855,0.004317891543291091,0.010099686235900287,-0.1350928271694532
1687558014.978987,-0.005722270993645839,0.40017648119802085,9.879935961882673,0.0015938354400950243,0.006842330805192446,-0.1280377829952589
1687558014.9890325,0.15434998851584572,0.4806524284304396,9.781887355191623,-0.00700965553576301,0.008893084940979925,-0.1271087104959837
1687558014.9991305,0.08852018938488179,-0.13118854753629625,9.635567120922618,-0.00549315040844727,0.00872409303341736,-0.1278873259706846
1687558015.0091453,-0.05921812206276161,-0.2862252894560632,9.590360866816978,-0.001959068172761119,0.00831841084733738,-0.129447134820973
1687558015.0190833,-0.2682582435757504,-0.21301754178222246,9.664373535358033,0.0010114689700056342,0.005608972255005083,-0.1345820302648893
1687558015.0290303,-0.4312740245131401,-0.4022400601711801,9.748454807732598,0.0059519811370335116,0.002258746118002248,-0.1416359866543165
1687558015.0390065,-0.6292288584994856,0.4165609095451132,9.96636627018326,0.002515487783098853,-0.004447530596356052,-0.1431473220272413
1687558015.048998,-0.042854527357069086,0.6726202565185408,10.0382480837673,-0.0072835185607008635,-0.0050810464051066016,-0.1420058185739866
1687558015.0590992,0.12406506748775767,-0.009067477004285767,10.12547768379341,-0.011832762523174454,-0.003673643918585393,-0.1446414763613096
1687558015.0690684,0.06783084062486622,-1.1333668950454308,9.986950277363997,0.00030496250120535086,-0.003193465620937363,-0.1442595894022337
1687558015.0790727,0.05291403919737122,-1.3520065016547993,9.939603919311436,0.018183059904886327,-0.005050365788564906,-0.1462007785721174
1687558015.089008,0.2630984147304383,0.040743404475127136,9.683112036568962,0.020297798228796213,-0.0025883985026370054,-0.147270324317967
1687558015.0990338,0.4381730896535043,1.0054779845761586,9.64373436646546,0.007709335344930037,0.0013067148941292854,-0.1475463385267607
1687558015.109017,-0.09670333062673656,0.8712216325285912,9.537431035009922,-0.006893835051781181,0.00018990000289463812,-0.1538388157768598
1687558015.1190767,-0.11115796116949422,-0.2938370218244188,9.427701187093083,-0.0025999797489817808,-0.00201234930385171,-0.1608300978823057
1687558015.1290116,-0.23426237924148424,-0.053301257458656645,9.540667576844196,-0.004217667805544255,-0.003653292124536603,-0.167379486052548
1687558015.139022,-0.05685801497271199,0.08538265680707838,9.871494844623443,-0.0043051892004657005,-0.007028815381964267,-0.1642357433719984
1687558015.1490471,-0.11795048178456226,0.03319086566919832,9.923931783132442,-0.002178369309046993,-0.010418112379422044,-0.1590087885542265
1687558015.159153,-0.036019135184194036,-0.1941640550705999,10.214441368917818,7.634086337951516e-05,-0.013199745271959539,-0.155314820496594
1687558015.169038,0.28030145062657097,-0.12044418086513271,10.059196113919755,0.0020812476163974726,-0.011176043983660915,-0.1517392272634855
1687558015.178989,0.7777043625721698,0.012379448151212133,9.94082308960844,0.00047053667657580376,-0.004041777170676908,-0.1469251240177503
1687558015.1890516,0.9297723925591709,-0.41225648143647414,9.70017820296482,0.003536267002943582,0.007102298823830031,-0.1466675872488371
1687558015.1991498,0.6454850390872156,-0.9993062748984164,9.734336783904858,0.010818610699383677,0.014646832871331597,-0.1451301003380171
1687558015.2090788,0.3355802274988769,-1.2911568052397646,9.6700256732554,0.024518760883905134,0.019824246017763426,-0.1483509267254225
1687558015.2191164,0.09048721806109683,0.04825248660114026,9.927638525629849,0.025283550694540215,0.019541280584065162,-0.1435449744148603
1687558015.229066,0.29694299178751166,1.1569234321320339,9.96504039636888,0.008207642870896974,0.02249394879095555,-0.1340049231930128
1687558015.2390397,0.061968320658777346,0.801009428535873,9.78589850578792,-0.0031759926008979697,0.023859278456041053,-0.128620239584004
1687558015.2490156,-0.2868146884885032,0.026929871049402962,9.594595443456129,-0.006738097933093793,0.021964638511934535,-0.132380592314755
1687558015.259131,-0.4871061745688961,-0.5111285481398158,9.460551266297019,-1.8667720117606268e-05,0.01862936482277312,-0.1304073507471433
1687558015.2690785,-1.2151782384810212,-1.0230792144481706,9.639582872396652,0.012535755253351415,0.007302692100096603,-0.1374585355205885
1687558015.2790253,-1.0778402637040183,-0.3602589942971636,9.63405230422017,0.02349036971869924,-0.0038289992154722534,-0.1394057596607557
1687558015.2892094,-0.7230529595425446,1.1921324211390973,9.940341567979543,0.011372855536602118,-0.010574520917437156,-0.1394180531187406
1687558015.2990627,-0.40653607361522104,1.4901652768624007,10.064575810706732,-0.010173390834681429,-0.012371832289642342,-0.1468931908293119
1687558015.3090696,0.23956749052181647,0.9635796582460107,9.923950518417465,-0.023736314026417998,-0.008200021845588204,-0.1474233890457502
1687558015.3191257,0.4660053615753071,-0.900877195588328,9.918546733953088,-0.020116283068707646,0.0014012240815547022,-0.1528278017921797
1687558015.329155,-0.12953630933971835,-1.8843053506459644,9.939034897556798,0.004934124474877287,-0.0004545835298134548,-0.1487449134273878
1687558015.357591,0.033846787367211785,-0.738815983265088,10.072049768169968,0.025509787322637513,0.003491660023274363,-0.1471542591734281
1687558015.3589835,-0.09236581868016927,1.927267894770418,10.477371604891205,0.023690202023933897,0.0016798090354364075,-0.1426024908705107
1687558015.3599107,-1.0711955469517729,13.545208562905634,14.609994780308728,-0.0019221391834641853,-0.00024091243633086684,-0.1434482658787123
1687558015.3698304,0.010749543970804205,1.295503151476449,9.76325741962857,-0.021149597812107755,0.001140575117401028,-0.1433498586101881
1687558015.3790104,-0.4405273344044488,-0.23854770173378068,9.573987327097326,-0.021811567952133695,-0.004114951988853882,-0.1523001069708219
1687558015.3893073,-0.40924016888048154,-0.8875266979905003,9.413011794368758,-0.00825095793557787,-0.012058627131740019,-0.156416910378491
1687558015.4104142,0.05156963305766052,-0.1484222367931669,9.532404343675319,-0.0020787257596549197,-0.012219967977155882,-0.1601480717344633
1687558015.4134836,0.15347497780586203,0.706384978925031,9.873557926640649,-0.0037243790015349166,-0.0129785476195876,-0.1555976296348921
1687558015.4196324,0.1938798448782465,0.648108759384735,10.079668501813787,-0.008614436729137124,-0.011924283883552364,-0.1506976807995191
1687558015.4290342,0.09266840759175797,0.5852294656280417,10.216226144295158,-0.014952668889902942,-0.014570149952886849,-0.1386650378389707
1687558015.4390275,0.677995895979799,0.2712638053165825,10.031451009915482,-0.01773000713164493,-0.00922508239721274,-0.1317516441030851
1687558015.4492052,0.7614069796705066,-0.3954490182780631,9.920007359228155,-0.016408803815685376,-0.0015944791121773403,-0.1353306348009458
1687558015.459013,0.90670647294433,-0.5208415222540402,9.779544043649997,-0.014669290769546095,0.007561890800612262,-0.1338052476330152
1687558015.469097,0.4389966377514253,-1.4722488642467888,9.567394373793647,0.0033593181927813543,0.012485493709834027,-0.1363845641298643
1687558015.479046,0.15278766822322368,-1.1287796584548504,9.744076174644581,0.01667427276163826,0.011746640994623369,-0.135881575433766
1687558015.4890149,0.13627591681931575,-0.1346839441342244,9.851109823861815,0.018591204207289956,0.010529862893085405,-0.1334374869747511
1687558015.4990306,0.34324909998744374,0.8267633846946397,9.852162653612128,0.004298681441734258,0.014728760780809456,-0.1296644235535017
1687558015.5090394,0.24824012925410047,0.4650765559834537,9.723016365229148,-0.005390451541005018,0.01852686596950614,-0.1263326729221693
1687558015.5191054,-0.5138682831097753,-0.3909533360717474,9.656716015045378,-0.0022262589673110182,0.012110994080749267,-0.1271426553411833
1687558015.529046,-0.7997607130025913,-0.6831421936486004,9.654471346762872,0.004744583806615591,0.0026138725099121656,-0.130255969850575
1687558015.5390365,-0.7504921295883048,-0.5429066754523509,9.684200164718927,0.01354302571595254,-0.005831818277384723,-0.1321585799141279
1687558015.5490837,-0.8319882674898249,0.3954044359819153,9.881334222373964,0.008825592641251552,-0.01383589919253066,-0.137804495780026
1687558015.55908,-0.06457327491131212,1.0975074825195572,9.898966781837586,-0.003820900894290285,-0.013823261176186583,-0.135814624516522
1687558015.569054,-0.037611490223517216,0.8546566397360327,9.933956700950304,-0.01946765707686383,-0.010831933702131757,-0.1402384067459455
1687558015.579024,-0.20305576752264837,-0.8719262068128956,9.875398239472188,-0.012324214195189757,-0.010617626735170681,-0.1436440224333158
1687558015.5890818,-0.2425208662481062,-1.822380241564852,9.969124135124607,0.011925866291641041,-0.01435682438514408,-0.1404931718988767
1687558015.5990608,0.07371608839718707,-0.8837498961807619,9.755813063155191,0.027797725271287196,-0.010780826750138398,-0.1400237704201093
1687558015.6191518,0.42380978923208507,0.4161051814309106,9.937244929407743,0.02088230562248691,0.00020703972989669046,-0.1354654605074278
1687558015.6217804,0.7090614019482905,2.4817950847002797,9.87656570188436,0.009228941765276518,0.005529010215453538,-0.1364745224399915
1687558015.6291747,-0.5861970345664389,1.0442851455900855,10.153936944736593,-0.0038957980171930215,-0.0012153463971814344,-0.1375309998674742
1687558015.6408677,-0.6890961469869834,0.07305374622700492,9.493366505521253,-0.0030069862484239786,-0.007136085862162342,-0.140628176419293
1687558015.6491,-1.1430678158133345,-0.29849479985238603,9.843123647298636,0.0013552487020403916,-0.020950995311815643,-0.1464761818333021
1687558015.6596303,-0.6004618751660747,0.01342634805032702,9.568580882566462,0.003104314185527021,-0.027360540756199692,-0.1546493793411604
1687558015.6691108,-0.44639449151123195,0.33809129114006364,10.014072616353516,-0.001609529878872038,-0.034996709197976775,-0.1563902074976316
1687558015.6790917,0.16423882368581183,0.33750636049412885,10.02427753443296,-0.009586591093749887,-0.034982585438561746,-0.1621607268734327
1687558015.6891544,0.9556585269095447,0.10424954175901936,9.714531342249172,-0.012458758124992935,-0.02379833653622789,-0.1610233361406675
1687558015.699057,0.9656121731868559,-0.23978572471212772,9.831941662029667,-0.012310834212835018,-0.015758121254918697,-0.1556489045305601
1687558015.709709,0.921377618220442,-0.6392286212451855,9.520620802686087,-0.00709361182845999,-0.004484776401659336,-0.1564403201027265
1687558015.7191267,0.7218224990970841,-0.7707408649698178,9.659181094291299,0.0006573291361917051,0.0005203393202230187,-0.1560595060272566
1687558015.7290814,0.8688449362831128,-0.4662623868496808,9.682590043942927,0.00243976923084722,0.010618223035230315,-0.1552429521961561
1687558015.7390506,0.3335241607201265,-0.7929192595639543,10.174104929070564,0.007879267380383402,0.010384932782581962,-0.1473073984070173
1687558015.7491827,0.17155192934132443,-0.9755437270861029,10.05903336659449,0.0207196673197362,0.00987542630532359,-0.1401898438616148
1687558015.759065,0.4144646027136008,0.26619210435660234,10.124859448195286,0.019013897154204113,0.01014526970093734,-0.1320017898960462
1687558015.769075,0.7516227841910773,1.022413170881663,9.964544300313813,0.006005850847842254,0.016240732120572487,-0.1244465137405744
1687558015.7790737,0.61448985460778,0.8394587524144659,9.621293868846402,-0.010051842814586187,0.026166876384584332,-0.1309062565250746
1687558015.7992108,-0.4419580524632335,-0.606520058896661,9.223593035715808,0.00405922106843775,0.02301789986322634,-0.1452558065338484
1687558015.809166,-1.138834971920843,-0.4256566232632289,9.531905300641842,0.012918430992619164,0.009076381126438684,-0.1506266916675916
1687558015.8191535,-1.097560199249077,0.42788726931631804,9.812292360874954,0.01273358408586421,-0.005364221521384923,-0.1563162232323042
1687558015.8291132,-0.566103576889449,1.5905499798076075,10.093285088807603,-0.00484719022719319,-0.012408773035851703,-0.1569861049337736
1687558015.8390913,0.07509095938484767,1.128598643130185,10.083214414398974,-0.022716872187258094,-0.00937219477133897,-0.1601001645012251
1687558015.8492467,0.05868418982377919,-0.040568334621611926,10.04914976968045,-0.023332941952495696,-0.006608878508209883,-0.1528854543848387
1687558015.8592248,-0.3069082863706357,-1.5100779538241225,10.331833550323271,-0.005587219601336753,-0.013201957290679389,-0.1502746964378706
1687558015.869133,0.33323802060946783,-1.1685850177478456,9.98569922488185,0.013083319225532155,-0.009662438653631259,-0.1449304247780195
1687558015.8791187,0.8101792560897724,0.17340350406714,9.94087588366941,0.014504626029855744,-3.208984109990211e-05,-0.1370565170927397
1687558015.8890886,0.6734503630939128,0.9611665366827992,9.569008313230057,0.004153849008692999,0.011970450220041777,-0.1366423095150343
1687558015.8994477,0.01463993825524134,0.8331258566187857,9.52866754611756,-0.006951263952854048,0.014162946876052889,-0.136088895289456
1687558015.9091594,-1.0766269263423311,0.20380995947687905,9.565605034882935,-0.012194431308624647,0.00260914766477713,-0.146861987797772
1687558015.919242,-0.9734732776078908,-0.09206710899994304,9.549528969739812,-0.009405189583133956,-0.010902344789434266,-0.1512272531671873
1687558015.9291189,-0.6796310877482953,0.00044476307274314916,9.599329974243611,-0.007077199688639052,-0.019366111557039944,-0.1495874250812879
1687558015.9391935,-0.2546594089178685,0.3688265983525366,9.921186376395898,-0.00911117377370091,-0.02426418824345256,-0.1429931099100462
1687558015.9490757,-0.1378940314341126,0.3046895396041461,10.164650464748624,-0.012884176557372442,-0.028514089521695898,-0.1375064576549879
1687558015.9590771,0.34062201647757634,-0.005462709444154897,10.157035430829442,-0.012737222229177574,-0.026762202451011026,-0.1363741929216734
1687558015.9691055,1.1154916329677644,0.42687856968854376,9.969623647666541,-0.020399784223071663,-0.01507787490884989,-0.1314657653255811
1687558015.97932,0.8665146937117358,-0.5773246735174475,9.765089604469338,-0.017120060629882153,-0.004686847852369651,-0.13352534422115
1687558015.989121,0.31943863365323766,-1.302692556728521,9.689456468161541,-0.005768343395036463,-0.0017279262819247414,-0.1356978441162458
1687558015.9992938,0.6259382465207725,-2.1173509394555485,9.604976821143994,0.020886856267147997,0.004342309413665294,-0.1335332865400663
1687558016.0091343,0.26764523061897744,-0.9001766952410877,9.958545149206108,0.03482685389693878,0.0034713795865139573,-0.1296802932901731
1687558016.019671,0.9207413159235772,0.9317895853543007,10.083731715609707,0.01914575539452143,0.01375760954746034,-0.1274541641159406
1687558016.029118,1.0456545986327288,0.919057558316508,9.761161429441666,0.007280877661188736,0.02725540936289041,-0.1200719202442518
1687558016.0391328,-0.3109293088620506,0.09465910135982916,9.913874371015668,0.0026462363817967736,0.021176976857527816,-0.1208731035275808
1687558016.0491588,-0.13061694533895984,-0.42787601786677654,9.316350077507208,0.010308047867544837,0.021198097233083146,-0.1233817661686293
1687558016.0590644,-0.7473120954326944,-0.011158229774317147,9.406779799377237,0.01448917453443324,0.012924517971937464,-0.1293610955162397
1687558016.0690749,-0.7007043982414705,1.0022783765686964,9.58371012998609,0.004767867650961757,0.004425740617183416,-0.1328303242607466
1687558016.0791538,-0.5737337728318517,1.0914972173096904,9.715200471434613,-0.005676758484167527,-0.0013942432885430817,-0.1304227436466566
1687558016.0890856,-0.8322266117329278,0.5671766457517625,10.055797954758527,-0.012380304056581087,-0.012361905590626507,-0.131437468020474
1687558016.09907,-0.21096279085847086,0.11265284639667701,10.062554456754198,-0.013740342155467544,-0.016647563252716813,-0.1330052638931623
1687558016.1091716,0.16221752273284748,-0.2393034222093306,10.002359016295916,-0.01082944217351147,-0.013859514741390916,-0.1327457750721327
1687558016.1191168,0.5583580854545018,-0.7905533178325669,10.10846173385746,-0.004130943808925497,-0.008016624536664354,-0.1290603751821867
1687558016.129225,0.593312765832509,-1.165119842965459,10.077093026631308,0.008749834087478052,-0.0018581968687748144,-0.1281894768162123
1687558016.139128,0.4291551229094516,-1.0427964551353945,9.786134900657618,0.01920754158644371,0.005889485539296344,-0.1365274215622297
1687558016.149106,0.6051440061328788,0.30571561003710956,9.605386020018997,0.016336241477153388,0.013265616040959351,-0.1371055568142286
1687558016.1590905,-0.3158007486116983,0.7826953993655561,9.500266195982398,0.0026465250342324067,0.01347739413250337,-0.1447103644295088
1687558016.1692412,-0.8432498516328174,0.2180176980157928,9.45661536817959,-0.0035252317767388883,0.005989678365708427,-0.1517720694227567
1687558016.1790843,-1.3650371744897922,-0.038409085258214314,9.384328675735464,-0.004094092162955007,-0.006403426125007422,-0.1625477994366041
1687558016.1890962,-1.4528114822118392,0.07051646146983104,9.852999845955386,-0.0024104232864047407,-0.02779153794997168,-0.1642778838558546
1687558016.1990852,-0.24584213205920352,0.9544782453391667,9.96234037765712,-0.014325506787417652,-0.03253259565632773,-0.1554421658201566
1687558016.2091222,0.16676622265691,-0.2793012562365717,10.13729084039815,-0.015404494864827357,-0.030557946929522833,-0.1518043155355802
1687558016.219103,0.42847475704593324,-0.6582620875741374,10.175362163707405,-0.008951116221542167,-0.027067712774842444,-0.1432427490635267
1687558016.2291992,0.7397848597216177,-0.7318730672835533,9.933326701243935,0.00041197351814862665,-0.020111663833602487,-0.136837619034802
1687558016.239138,0.4565766404685419,-0.25770979131651917,9.889803225977532,0.0023983785504226754,-0.016702913631265366,-0.1406584406776777
1687558016.2491035,0.7978571336647516,-0.013422318949560674,9.612806529028664,-0.0006460593787280689,-0.007328552308437076,-0.1425456429405561
1687558016.259091,0.4816341716624889,-0.8432761094376636,9.825603922152188,0.00020359708642456206,-0.0018210592523858612,-0.1484066421671263
1687558016.2690892,0.33325085790458625,-1.9127060454841736,9.654808647570956,0.022998689989241605,0.0007649944139393093,-0.1505918676538816
1687558016.2791405,0.45576115060175126,-0.7667965096222569,9.935346428317033,0.029060693586190716,0.002590282838481508,-0.1532502497120252
1687558016.2891097,0.8167462425866977,0.4317496092904952,9.849053147168906,0.024412457605998836,0.010093865707157573,-0.1465934092684141
1687558016.2991884,0.8307357000036306,1.3943072572186195,9.904348917598082,0.004758109025722447,0.018901048018685696,-0.1388844723387113
1687558016.309073,0.5420297943611538,0.48616641818000056,9.622342265322118,-0.005411491911586059,0.028152447938162614,-0.1393104965372434
1687558016.3191776,-0.37264721965815817,-0.12797530112399397,9.656243536514406,-0.00446912913064133,0.023824575808102034,-0.1397738034410826
1687558016.330785,-0.5049244970215276,-0.632945025447209,9.448317223817847,0.007777872279918967,0.0167585354104722,-0.1428901726885191
1687558016.3426998,-0.5612614029507874,0.263103374253629,9.628760978685804,0.0083241831570737,0.00839228642709991,-0.1467425102873197
1687558016.3493369,-0.8233092721945916,0.49962611214689623,9.864017569833676,0.003947415276002658,0.0025058071735758088,-0.154185282675778
1687558016.359271,-0.34243831837735017,0.660375965269055,9.902132364399264,-0.0012270626528930973,-0.00013108251462579305,-0.1539662505073896
1687558016.369315,-0.7538642912358656,0.193458378793008,10.250488224779057,-0.003512391614671867,-0.007967943595627794,-0.1537013674660078
1687558016.379151,-0.44987677979817786,-0.1111391334468287,10.432010987503823,0.00023863433030618775,-0.01584365042135236,-0.1471142048521391
1687558016.3891726,-0.07615369346149785,-0.1690216769493387,10.444578922093422,0.0046723016087947865,-0.020578405325806192,-0.1407782609148374
1687558016.400263,0.8718369031971389,0.15042286474818398,9.9783508700546,0.004592498350392887,-0.00966465072415978,-0.1296363795681349
1687558016.4092116,0.8717636824986389,0.342650663653253,9.584523792033094,-0.0004252354950895952,0.0015896607714518272,-0.1315049851818434
1687558016.4197736,0.35809148799685486,-0.14906496234164704,9.230753842219181,0.0015044882095495396,0.008459690496893942,-0.1379393810911527
1687558016.4292305,-0.15695362762360707,-0.06843108406561663,9.084931304843906,0.003335827688076225,0.00923461534324532,-0.1482636208219877
1687558016.4427474,-0.6191886177085932,0.3353925769628079,9.26742335390256,-0.000884110315808341,0.0025085748162353223,-0.1540418888016096
1687558016.4491909,-1.4485601214934785,0.8071717987210931,10.058295366880813,-0.007148870263050212,-0.012103446900122678,-0.1542638863010755
1687558016.4593377,-0.6986239771149376,0.7251868662028264,10.064872025760819,-0.014762790027304866,-0.022949931999092642,-0.1501867050810209
1687558016.4693155,-0.3803802523639636,0.2162147898704212,10.368435064186624,-0.018825257161263317,-0.03036574592858257,-0.1474327767773023
1687558016.4792535,0.25195094798730033,-0.4351030656857036,10.329365328303028,-0.013007102695684414,-0.030993332008816574,-0.1414186830206266
1687558016.489172,0.8014489023889225,-0.3512378913818774,10.024319903737403,-0.010490145031645406,-0.024224267966547877,-0.1383773411198011
1687558016.499184,1.1885924507571408,-0.20673014286867075,9.718137246517935,-0.009821683927662457,-0.010762948325638219,-0.1395233596248976
1687558016.509183,0.9260216108552095,-0.545700512305447,9.57538400899621,-0.006201544988410749,-0.001844086639583377,-0.1418609345836988
1687558016.5191476,0.923889263578721,-1.4658837049992184,9.594827133507009,0.004416727233603896,0.009392700905325076,-0.1513315612955442
1687558016.529255,0.3779154287408746,-1.2571473642737263,9.646742523326278,0.021300494142256376,0.013366903093458712,-0.1468655044718138
1687558016.5391574,0.4802585397698104,-0.37253717191096736,9.854619846891774,0.025061172376679215,0.017049638204280758,-0.1369136596603742
1687558016.5493035,0.030932910235321586,0.5723415680358869,9.901978492443211,0.021722150091013883,0.014901500297914438,-0.1276476109905592
1687558016.5592546,0.07245738084772188,1.1720761426044268,10.040318562004648,0.005710621481124578,0.013123694331421383,-0.1197829718275419
1687558016.569303,0.009865856739217796,0.7649129309784166,9.72596191708415,-0.004754384455583222,0.013233410819813727,-0.1178330952806822
1687558016.5791376,-0.3286314836328619,-0.04108876238180473,9.563921403173719,-0.0035069007769241763,0.00975865146686625,-0.1226854423566213
1687558016.5891132,-0.3874869494337787,-0.08389483307998617,9.575841857540704,-0.002303389072506612,0.004151004510859282,-0.1272551889105192
1687558016.599296,-0.2127400846779741,-0.17134959406515807,9.429354307634629,0.002743034930797541,0.005155133114710746,-0.1401185716076246
1687558016.6091814,-0.24045269410235454,0.4873985029080929,9.72812025218693,-0.0030277026563265905,0.004471660676559678,-0.1500688815994612
1687558016.619208,-0.07530631248523313,0.3985941814121686,9.939063680058474,-0.008278803678101253,0.005362804168234841,-0.1545887465162626
1687558016.6292517,-0.8452955905890386,-0.7413860754192957,10.132428650912942,-0.0010854834639866975,0.00010319717698672245,-0.1612027014179579
1687558016.6396775,-0.8452398290461046,-0.7907770536446513,10.3599546215916,0.012239920835023952,-0.01242589010607325,-0.1546371752901426
1687558016.649243,-0.36288199752830186,0.0845893688277562,10.265649510252132,0.013238597505679644,-0.018009752092733887,-0.1503915662451139
1687558016.659197,0.1868655387858767,0.6271015969377708,10.10721292260732,0.004002730538148456,-0.015151510366528243,-0.1517426992340437
1687558016.6693358,0.5647364744772351,0.6936751934760597,9.691314719691448,-0.008161481778462824,-0.007949555792299234,-0.1495734626932493
1687558016.6792047,0.3142870216874434,-0.40992360481004836,9.264213054553256,-0.007896070282752327,-0.0009033707018544905,-0.1567073340101591
1687558016.6891549,-0.13925381528410982,-0.8515261791904291,9.168043813899272,0.0018059082072300375,-0.002159904968612918,-0.1600958729668012
1687558016.6991467,-0.4495842946236915,-0.7991872146576335,9.149139385094122,0.011146896887093662,-0.005572373300430812,-0.1700458104296079
1687558016.709171,-0.164207788548235,0.3584134738621795,9.521217112388385,0.007266509751189266,-0.007691822087292972,-0.1690675342960707
1687558016.7192762,-0.4064876639344165,0.8669536691222071,9.993825044815631,-0.002821968796827852,-0.014980532063845338,-0.164408745853459
1687558016.7293606,0.3022481352865831,0.8515662713977996,10.25643254112672,-0.01583317079511825,-0.012211041427352711,-0.155727686969792
1687558016.75742,0.09195569662145982,0.004290928180013599,10.213389442675709,-0.02006375598140395,-0.00791011792534024,-0.1519446248693815
1687558016.758661,1.0223841911397777,-5.4055537784333065,8.04799541341961,-0.00865882368915953,-0.004155482238587395,-0.1547805542631498
1687558016.7595112,-1.0668606075234737,-8.526848657459398,7.642179729168427,0.004942792500491467,-0.004743974142503873,-0.1572929198427549
1687558016.7692213,-0.6793612281529628,-0.9353203955448317,9.93707603853777,0.016583844616710575,-0.01054633830701772,-0.1646537954492918
1687558016.779163,-0.6218241461200089,-0.04930995958386601,9.997166357683,0.018949052500279506,-0.01638187914267527,-0.1631483907385221
1687558016.789186,-0.32352802168870454,0.717582688531702,9.837904530140552,0.009531936986477342,-0.016807050093182573,-0.1641074443741194
1687558016.7994924,0.17985912245051028,0.3798180870591041,9.760400927750267,0.0021118205724354293,-0.012215461363097292,-0.1645714665336958
1687558016.8091674,0.02428015371345939,-0.2007081458246273,9.78782554966241,0.003238708798810722,-0.011608157823050457,-0.1630362147970548
1687558016.8192527,0.5624524191358585,-0.5113809261341493,9.620015800966842,0.006050510198831075,-0.0038040450705123852,-0.1602693820877424
1687558016.8293357,0.3188133805843941,-0.3471517907200668,9.561949518266031,0.010211395208609274,0.0004918485068829331,-0.1546118880195967
1687558016.8391943,0.0642619814204827,-0.1646369878407049,9.69373476461789,0.013311640811711408,-0.0006904580897226403,-0.1517608339472166
1687558016.8493736,-0.04556809853839197,0.28884012883867183,9.666363551251516,0.009009902608416376,-0.001313508765745724,-0.1539215470238081
1687558016.8592508,0.05848031501829815,0.6005330496240899,9.83068960345526,0.0022146662136372816,-0.0027977429301877903,-0.1541007483883253
1687558016.8692086,0.049531414675422054,0.6681795571263025,9.783811418099864,-0.007845886021931568,-0.0026370600212136525,-0.1560189450664869
1687558016.8794312,0.42219052687014097,0.23570960695415183,9.907716018244516,-0.01182791630030386,-2.084368192255749e-05,-0.1582942778749815
1687558016.889275,-0.11667276885537851,-0.3273929169069214,9.994925867328826,-0.011199668824439252,-0.003737814904203142,-0.1666668827219358
1687558016.8992376,0.41626655294879206,-1.0760801302790093,10.03527691237422,0.0008856732274807038,-0.0013577131983803434,-0.1650031680746427
1687558016.9092689,-0.07458548476945437,-1.1054554354895936,10.103652094642953,0.01713581793254863,-0.00732970606308894,-0.1642287994308821
1687558016.9209063,0.46958629487938236,-0.11138044611517393,10.049399556260223,0.018933595441443143,-0.0034345122614838773,-0.1662167782469145
1687558016.929175,0.9862397323534445,0.7653183010917489,9.865237290371741,0.011870434635915066,0.005749069191500434,-0.1611108655615202
1687558016.939186,0.19060537195309474,0.5776629796222955,9.783092292477637,0.004445950464751043,0.0072147696145128766,-0.1631945247335783
1687558016.949261,0.24199960328391437,0.32885537153447925,9.457107880235927,0.0021843420181048632,0.009435923250114006,-0.1616518373175016
1687558016.9592285,-0.1761332402133292,0.09600290911435753,9.3237483889958,0.0036545535841786382,0.009296022011648019,-0.1638141150160185
1687558016.9692273,-0.6102680215781157,0.4596051822965761,9.559296129775445,-0.0012544315929122567,0.002148760616479594,-0.1671068395061842
1687558016.9791777,-0.25376721343634245,0.44902399888954997,9.469919906441632,-0.0012641247966952733,-0.000392230585170839,-0.1640692377968183
1687558016.9891474,-0.6497624602858263,0.9797624099963064,9.978205731627867,-0.010969906606278392,-0.009108738543818875,-0.1617811793966642
1687558017.0092306,-0.04074154489235779,0.4878149169342605,9.962832831879608,-0.0163777614179521,-0.012306261292501865,-0.1542828554792753
1687558017.011754,0.25615466830356604,1.201414615333466,10.177063379925372,-0.020622607287913135,-0.011412350033914293,-0.1518996382637373
1687558017.0191586,0.07510727063722,0.08904304165706851,10.157068044818342,-0.02167766501694257,-0.012251024644532668,-0.152403506128346
1687558017.0291886,0.7451042475677285,-0.08819415722824324,9.666744420581244,-0.017793085939749577,-0.003485202420913013,-0.1486711675806394
1687558017.0392034,0.20506281553960928,-0.5155615163592658,9.89347590934079,-0.015424517494098773,2.3382500991821956e-05,-0.156941088525807
1687558017.049578,0.01289564812109152,-1.1204679662436938,9.875323024504867,-0.003089519299930916,-0.0038232148718138413,-0.1605227614326826
1687558017.0591965,0.11870680709738177,-1.2530028134076057,9.680424406707857,0.01090978407569709,-0.0010299465592901553,-0.1618401730938307
1687558017.0692446,-0.10856882400233027,-0.89953722473851,10.150127848600693,0.018776298921662597,-0.006294171589787285,-0.1602299834175459
1687558017.0791986,0.39146986438978576,0.08789308400580961,9.843434241802601,0.017475751316224513,-0.00406270310188688,-0.151488515226399
1687558017.0891714,0.4451913378232738,0.2391401414553342,9.870082183760449,0.012269168824505275,-0.0011210919580798815,-0.1470304603262296
1687558017.0991647,0.517302233502926,0.18816907411796005,9.575999234563374,0.005143502500870668,0.004478772518346908,-0.1488432163877836
1687558017.1094875,0.12858517023648997,-0.057305584526502924,9.512790371975077,0.0012673186991395181,0.005940696065165881,-0.151815983144795
1687558017.1192143,-0.0392842609595005,-0.43826375063678685,9.472096040689037,0.005348165523496546,0.0042165233346355925,-0.1539730752392164
1687558017.1291747,0.23455313145876444,-0.05873873430233305,9.352781137150261,0.009017035970877867,0.007323923436818305,-0.1511999095363966
1687558017.1392746,-0.3127579520777918,0.45888678880294825,9.905590053695924,0.005561191518684991,0.001436642430004011,-0.1527958239002577
1687558017.151124,0.23587418339774024,0.8594357291132323,10.002409379790127,-0.00699800108939034,0.0038509147974684936,-0.1531813169403425
1687558017.1592004,0.3331126963662361,0.865375639804209,10.091432431704078,-0.014534628779946322,0.006435168725272977,-0.1473490173502317
1687558017.169212,0.10002574242539572,-0.7084939116925157,10.066395219213838,-0.006895105637997991,0.008360961053423892,-0.1472984875126234
1687558017.179211,-0.5313623389768203,-1.252377503678803,10.099290870568291,0.011631546993835154,0.0007135824852710961,-0.144893946735417
1687558017.189206,-0.5955031618885377,-0.6017450185115516,10.126175841421517,0.024995033947450247,-0.009765073717146213,-0.1485889429731718
1687558017.1991973,0.12971664960793391,1.1077028122518657,9.879672590917947,0.014594119335108433,-0.009404600783772102,-0.1521825815124861
1687558017.2092342,0.5755028266797403,1.7282755528407197,9.824534840358162,-0.012158906610031758,0.0010808041075960266,-0.1581024403257719
1687558017.2192287,0.29544388739127175,0.15886016576189133,9.645444340523527,-0.01824083098311679,0.0037375416092948403,-0.1608533138914457
1687558017.229343,0.06857308087726958,-0.7390863606268643,9.264554760274066,-0.012085192390326021,0.00808585321897179,-0.1655548388643614
1687558017.2392108,-0.5266856072343167,-0.944452704161968,9.586648591040252,-0.00019651884047388606,0.0002690049893692578,-0.1716125781221739
1687558017.249305,0.0753031643369571,0.1674837346230194,9.481658371131187,-0.0007511029992939263,0.0030394513884566487,-0.1693908149881712
1687558017.2592688,-0.3698717745246286,0.7207093787630221,10.009427320497284,-0.010415705142946487,-0.00324411407046688,-0.1630730653686872
1687558017.269283,-0.08198239271533461,0.4935845423625639,9.893835843163236,-0.013343532184136557,-0.006631804910926861,-0.1554268772287718
1687558017.2792325,0.06064092944719349,0.1553569003483994,9.910574278929552,-0.01713255245255068,-0.004338528120336298,-0.1542017484588972
1687558017.2893913,-0.1732738257005878,0.057925176529804355,10.032021967359873,-0.019283863507196283,-0.008319969034834772,-0.1580727870149961
1687558017.299227,0.22504616944661385,-0.26797579102799607,9.852375891764735,-0.017571613164685144,-0.006497013241440022,-0.1587365592403761
1687558017.3092587,-0.031676069834715714,-0.43096070490363414,9.782135936747535,-0.01388110160968249,-0.006008659334060707,-0.1634705985470167
1687558017.3192272,-0.3717279112156175,-1.1024333733040834,10.022624445566148,-0.0043264820802242305,-0.013414467786888519,-0.1695181305094114
1687558017.329254,-0.3579941444773211,-1.1327574900209292,9.78126433869048,0.006508194148160324,-0.015525841376342999,-0.1743502492590299
1687558017.339254,0.11569331989646395,-0.7771960342957678,10.069947859875317,0.016008778881919292,-0.020327441551585723,-0.1718551243229261
1687558017.349196,0.7793817944050696,-0.07396392270264614,9.78505977072405,0.012033492179949075,-0.009940824001543473,-0.1726440812034956
1687558017.3592238,1.101448963462903,-0.1836980576524803,9.753440063958971,0.010466615353320366,0.002055862024528211,-0.1654241407795301
1687558017.3691876,0.9277477158831731,-0.43512441554509135,9.491299677287456,0.011321807808767563,0.012968487550341603,-0.163101794807469
1687558017.3791983,0.12396857536984769,-1.0090400258170045,9.39601968929843,0.020242350679754724,0.017189452325812777,-0.1672006423158994
1687558017.3892107,-0.12851677190456284,-0.2650749974570253,9.418946884648397,0.028457958986124837,0.01289076572503159,-0.161705749718701
1687558017.3991964,-0.46561362543123713,0.49821946558661534,9.513009903437224,0.02365334419801881,0.011432911839988295,-0.1659666920585981
1687558017.4091942,-0.8816541361324189,1.3085191753243954,10.059263650856284,0.010048206510605374,-0.0010768863391711534,-0.1624759609384886
1687558017.4192398,-0.4518879469724576,1.038804139818296,9.920138604887828,-0.001185601760176482,-0.004506393950648695,-0.1620423222465864
1687558017.4291935,-0.9768991147194216,0.5784455024256232,10.345567478109018,-0.008337332134987482,-0.017993332387410407,-0.1673321152611128
1687558017.4394207,0.3319027747625735,0.153776905617333,9.970359179696203,-0.008377123012223823,-0.015315768915099247,-0.1691606367512098
