time,wx,wy,wz,ax,ay,az
0.0,0.003643398048061,-0.0010907260798934,-0.0420350405349762,1.555181758805993,-0.0976634530941889,9.811472077857276
0.01,0.0047512468667566,0.000625047083998,-0.0381388115658791,1.41377358760214,-0.0311023468818333,9.76776830585456
0.02,-4.0949455198176926e-05,0.0042644644079812,-0.0255499380602867,1.5156518143191622,0.3639830155874888,9.82452218475821
0.03,0.0051676188559452,-0.0009610194178219,-0.0078712413980991,1.027067886512877,-0.1090139315934355,9.88536155144562
0.04,0.005249631945403,0.0025892698821604,0.0130589864254562,1.473309413998923,0.2089483290216642,9.713269331828462
0.05,0.0041763729755809,0.0066407903173096,0.0194527515248029,1.2299447972427822,0.1294186338338318,9.730523396729248
0.06,0.0020079841235917,0.0136780544461777,0.0242962957397668,1.1687025384628928,0.1725228810328321,9.646049389367262
0.07,0.0051022364154308,0.0067114484926175,0.0213814628348319,-0.1897270667179174,-0.1731938945295037,9.49366070259502
0.08,0.0103584696235434,-0.0480156252883674,-0.0097559849693806,-2.729907932124101,-0.5367132882505088,10.590683814514744
0.09,0.0118170204881619,-0.0792747744563451,-0.0554488572254212,-0.3642883311059595,-0.4681018364253828,10.20615901313132
0.1,0.0065140179422216,-0.0727375448044462,-0.0838818336799175,2.657318695025076,-0.1872607719969306,10.012889939001692
0.11,0.0114457956019848,-0.0418313648360996,-0.1039414788558514,4.536807407152208,-0.6275792554445618,9.627046254282629
0.12,0.0158194080505155,0.006739688555025,-0.1062331433370144,5.524731500918153,-0.6150557757591014,9.222510233967744
0.13,0.0158156034464892,0.0492637217711517,-0.0850926647856266,4.688888374088318,0.3001121710347169,8.966293373233515
0.14,0.0133497787249329,0.0570320891643064,-0.0571460622324974,2.2265270295073285,0.6174044478529543,9.538280807091528
0.15,0.0005209607873104,0.0504504245640874,-0.0291885408535034,0.8033603066908159,1.2130160125956055,9.763444938559823
0.16,-0.0074007496378629,0.0260322767513159,0.004952543092948,-0.2584843386948838,1.0068916994620094,10.350761389671506
0.17,-0.0107531266138407,-0.001389161432256,0.0190352824554412,-0.3898992857241866,0.7645341388623735,10.43666179914602
0.18,-0.0168459396857621,-0.0300908559842791,0.0189585358873574,-0.2841529482718974,0.6069460596606224,10.872571630101572
0.19,-0.0177355843264969,-0.0316143158125923,0.0151076893359987,1.830554031684692,0.1315859268205091,10.216306999709186
0.2,-0.0065767768187211,-0.0089162316458112,0.0073059898838965,3.28928134571337,-0.827995957467112,9.667198955588068
0.21,0.0020438574746297,0.0229901310355013,0.0076906861775188,3.957617105404446,-0.6669973512552729,9.124790135795426
0.22,0.0022890331338713,0.0593645124982739,0.0054663754106132,3.4720502930953083,-0.1520960735189201,8.627523949816363
0.23,-0.0050660053785693,0.0726022561772954,0.0137661573514907,1.341106897532837,0.4358454022523466,9.001739558161953
0.24,-0.0102382682754495,0.0621599631729625,0.019770023323652,-0.8784363333971272,0.3563288317724402,9.454815506812333
0.25,-0.0040903285537265,0.0271472723727297,0.0283568193242518,-2.437249670486634,-0.3284949621398254,10.115194980985075
0.26,-9.459882244660144e-05,-0.0028621160761261,0.0368706611022918,-2.0924111298663277,-0.123767879978539,10.291054299117947
0.27,-0.0005562190610181,-0.0118049468625281,0.0392883707807033,-0.6477656749791111,0.1472995944202623,10.162258924869088
0.28,-0.0103550834658342,-0.0040480069312998,0.0402121719942061,0.5376202906304817,1.1040456478588578,10.118195367238949
0.29,-0.0222577430193081,0.0143354199735409,0.0275643066540925,0.8238608953554323,0.7935835162343968,9.93211158444044
0.3,-0.015443569841153,0.0210959794052345,0.007629918776509,-0.0237784234653164,-1.0716313249387603,10.444796801995878
0.31,0.0084358599923779,0.0159910073918988,-0.0097103492319018,-0.8069936259622275,-1.836689491420324,10.108497490168135
0.32,0.014431220692766,0.0105391028588245,-0.0249211500360996,-0.6990488751029783,-0.5834829165609096,9.673272204097534
0.33,0.0039223496173496,0.009274448812323,-0.035080899573806,-0.883741085641197,0.8279280096111549,9.066830233181308
0.34,-0.01541857456686,-0.0022332952919752,-0.0367130125834972,-1.215859226970835,0.7989341938171182,9.38438586681514
0.35000000000000003,-0.0142062455801344,-0.0051594796301655,-0.0279809563382895,-0.9591424912532176,-0.2750711610884447,8.869598875889174
0.36,0.0032645600607881,-0.017168016443012,-0.0096848961859376,-1.2175656830989967,-1.200954648349129,9.394708720445212
0.37,0.0117281787129568,-0.0160551659528537,0.0046007981561689,-0.4739439463442659,-0.512789529488177,9.56564850927596
0.38,0.0100954430285228,-0.0165493598458795,0.0176028692201344,-0.2128460608312171,0.6182965296332245,10.611619943916216
0.39,-0.0131849155408939,-0.0064858669964078,0.0201859054193465,0.5260262423820218,1.5623061120140158,11.021738947560424
0.4,-0.0260284076090258,0.0179413401024106,0.0196265512183873,1.6461344590758789,0.5818405598910548,10.728973200086148
0.41000000000000003,-0.0083899728107049,0.037717354952647,0.0113228549287288,0.8287695233464547,-1.6761327731659592,10.088229499038675
0.42,0.0098643781952414,0.0336303464275564,0.0048123802096216,-0.6692644789993221,-1.3236551597165025,9.962013723919783
0.43,0.0131813408595846,0.0190507052147244,-0.0004668149360821,-1.3839751736160009,-0.1240784408817601,9.436390842945787
0.44,-0.002682694305874,0.0025743816651006,-0.0014464534781308,-1.5353721479760971,1.2618573177436674,9.067531943206005
0.45,-0.0168928110893193,-0.0143723233824325,-0.0010107579603226,-1.384168958528634,0.7961784132089342,9.128525953524369
0.46,-0.0057623609056595,-0.0201219013055145,0.0049422468562244,-0.5705257919507182,-0.6586289282790684,8.846667377414215
0.47000000000000003,0.0052492597868706,-0.0210651435284413,0.0102443163320987,-0.0895449813918167,-0.4780368029734029,9.443947143913512
0.48,0.0028888117826251,-0.0171183341747057,0.0135134373829333,0.2324589672713261,0.5333749113717767,9.980619393705222
0.49,-0.0095937823181312,-0.009622397298782,0.0132302417457668,0.3829739697621936,0.9337456786965505,10.493508197736258
0.5,-0.0171579877029942,-0.0062225707613863,0.0158119536042778,0.1708640975032135,0.3784599391593681,10.588503820838858
0.51,-0.0132043898200269,-0.0021521268823212,0.0107767907009093,0.161420615554281,-0.400183198575205,10.269259311932032
0.52,-0.0146527384082562,0.0004643000744819,0.0067732733712165,0.1735699053421219,0.1128036701396025,9.95373676200665
0.53,-0.0206899848385361,0.0074815223525622,0.0001975572938664,0.5893322962386003,0.3687121126524392,9.606551195386029
0.54,-0.0200134785142269,0.0162084553248428,-0.0049580844081373,0.6309673211603177,-0.1764827515987652,9.39340807246658
0.55,-0.0109081784721372,0.0146377983765441,-0.0085828910543949,-0.1072505445840186,-1.0378315471154786,9.525151452291556
0.56,0.0105188580992083,0.006098436545173,-0.0110949157699377,-0.5070674038728726,-1.6509699620395082,9.801044285855452
0.5700000000000001,0.0128782981820863,-0.011273800300267,-0.0173663190528185,-0.8699668900044357,-0.3978032018802473,10.121263597728005
0.58,0.0002747425543586,-0.0161667883477884,-0.017611240126136,-0.0038648449497068,0.9193104905668144,10.029056995082428
0.59,-0.0132935261355303,-0.0202655386817245,-0.018401227049473,0.1279368994592261,0.3904852765573237,10.07715321862923
0.6,-0.0051215473374573,-0.0146220942812592,-0.0154844681694538,0.790388574526677,-0.8106972114482387,9.370478489801712
0.61,0.0163197603351579,-0.0077112927959775,-0.0117986557036073,0.8469355144939689,-1.484628518914721,9.115505373699149
0.62,0.0212348782113517,-0.0124962163042924,-0.0107285381256969,-0.0914204347824664,-0.2579104452430935,9.445984405110853
0.63,0.0216767005845705,-0.0164133252844334,-0.0087832986339361,-0.0457295698863486,0.3166801600288844,9.590497032017826
0.64,0.0066861594763108,-0.0255552190737349,-0.008607873782459,-0.3920291251503003,0.9914722895844228,10.007213697766858
0.65,0.0004065650394173,-0.0228581684019451,-0.01171387740964,0.8605341229441131,0.4024335917886337,10.369303807348524
0.66,-0.0052030704553996,-0.0006601488371266,-0.015490985564831,2.111925481511698,0.5634577179633017,10.264928584585723
0.67,-0.0178847326985177,0.0290485904087686,-0.0120270821228058,2.72261088487526,0.786094186522647,10.52695721803723
0.68,-0.011067343306047,0.0521698909577103,-0.0064796387180121,1.9712494047205988,-0.4207861214749864,10.059747731496328
0.6900000000000001,8.644553984074648e-05,0.0574941129004517,0.0043255813923298,0.6355322906647112,-0.7917600738692466,9.793443368276922
0.7000000000000001,0.0036664892803341,0.0397892630244032,0.0113400657699077,-1.1795758117682975,-0.2607868169741951,9.482883963175157
0.71,-0.0055331828250151,0.0126618143571382,0.020165641702768,-1.7408588794029705,0.6627405188114529,9.310429861371253
0.72,-0.0100004407986807,-0.0084927576459222,0.0234530986324517,-1.4487153767514045,0.1762567277733094,9.01356898114038
0.73,-0.0055832786178545,-0.0206983131355415,0.0275811822191445,-0.724690999436232,-0.4799519492052788,9.160523743493174
0.74,0.0069788292110413,-0.0226544055222027,0.0295900040343968,0.0558150015035546,-0.9196419176456384,9.41714052913342
0.75,0.0172835062806574,-0.0169520409276832,0.0263750338033406,0.391499493354311,-0.6500927531987265,9.883237808110984
0.76,0.0094381063955841,-0.0106407484969632,0.0208101225123374,0.4220785103220145,0.4970270921417577,10.58439191376734
0.77,-0.000436610142483,0.0018482489180336,0.0156976365522115,1.045332904280476,0.6915158348509629,10.77804970047095
0.78,0.0013353383504066,0.0400530185674878,-0.000821671770829,1.023146822926856,-0.3025368320159505,9.946792489743558
0.79,0.0170971522754773,0.0518688877328055,-0.0076879999562532,0.5367660981059815,-1.366698082066996,9.48014815341064
0.8,0.0240777053606447,0.0428131763008633,-0.0196645530834229,-1.2794789305319396,-0.2564375552631174,9.233364924843404
0.81,0.0078036777556457,0.0263473313705587,-0.0249257340058119,-1.7373207391677623,1.1362145292086263,9.320007216373838
0.8200000000000001,-0.011664871201001,-0.0009342954288294,-0.0230291291102202,-2.641150476105428,1.3476526652912075,9.577913508882688
0.8300000000000001,-0.0115247935850552,-0.0353974508390924,-0.0210598736032278,-2.474951636997214,-0.4684838614045442,9.981457963136693
0.84,0.0001839990548435,-0.0482484456779904,-0.0131937657445104,-1.0816137173660574,-0.8954857802655077,9.758618751919672
0.85,0.0081602449610041,-0.0491532118441284,-0.0025994187183113,0.1333674756049422,-0.5184853575440114,10.008434830553629
0.86,0.0139055003085853,-0.0347482030942409,-0.0021210653669567,0.9716466656299126,-0.4222837798738888,9.776448806288052
0.87,0.0036638437731471,-0.013876507200582,0.0028177744513942,1.7264045705804187,0.9237930154572018,10.195683126691335
0.88,-0.0148892527740748,0.0114729273924659,-0.0034807031936378,1.9749514309066163,1.3873912387842593,10.173712890018624
0.89,-0.0237386956603878,0.0349688024917985,-0.0118898768871457,1.6716664939718404,0.5089825728410718,9.90754143316053
0.9,-0.0168381558678622,0.0440295836256603,-0.0240844516977102,0.3499125851744037,-0.4942452733709628,9.458590895451866
0.91,-0.0153347428231539,0.0301787235920829,-0.0273027579262287,-0.815857610952913,-0.0763959336219027,9.981512553210838
0.92,-0.0059104239727993,0.0121697965712464,-0.0220185658856661,-1.0260918815525273,-0.3346579288533082,9.694465501706649
0.93,-0.0184026983777496,-0.0118695395307975,0.000373233893477,-0.2721055685826724,0.5510649782955059,9.698180736657866
0.9400000000000001,-0.0254464630189231,-0.0102222357833964,0.0147591465190617,0.5841309360444775,0.2648189033911532,9.61721432166076
0.9500000000000001,-0.0166841875827708,-0.007628298485019,0.0235139940903155,0.5865249159073839,-0.6978585005914573,9.55292953597211
0.96,-0.0066673670212225,-0.002251623619303,0.0248684928790299,0.6532286164252601,-0.9157021921880144,9.62925672869083
0.97,-0.0019239130665292,0.0011610555711433,0.0165767482519714,0.304723991505425,-0.3903312162186752,9.902895895934808
0.98,-0.0079616192164453,-0.0056866049080696,0.0068817500994174,-0.2673598643463482,0.093637145230736,10.324952128798891
0.99,-0.0106498439074943,-0.007342088907811,-0.0021837876140506,0.0913397568691098,-0.0780016391515309,9.988651487168156
1.0,-0.005193418615426,-0.007007127524364,-0.0046622316315205,0.2517206281381076,-0.3808010573590428,9.650037051621853
1.01,-0.00704443951196,-0.0027766761840824,-0.0076850029602081,0.6765724246411469,0.2581854392283576,9.52980235085214
1.02,-0.0113556817543043,0.01568734371394,-0.0071461052596004,1.3586148075743871,0.1624475865965152,9.488681952941118
1.03,0.0042769798875024,0.0214343626003916,-0.0018251415769935,0.4916297400282326,-0.9968293175564336,9.796608462024947
1.04,0.010867373576018,0.0223679490132617,0.0018669782709895,0.0659990393770144,-0.5589263477975271,10.100148045862529
1.05,0.0076323402767536,0.0155435494660664,0.003304162671846,-0.6255273086638495,0.2425036435447769,10.1048976303493
1.06,-0.0010170222683345,0.0024327165546889,0.006737597663012,-1.0807694140687705,0.5719832009344744,9.991938526629855
1.07,-0.0065434419688991,-0.0140131332311957,0.0068912700787751,-1.408955373840001,-0.0576197881884882,9.82450872026243
1.08,0.0050254914370202,-0.0235443322664465,0.004100473042634,-1.0105094855607597,-1.2196719117630783,9.265291068162952
1.09,0.0232609160871841,-0.0348192232800873,-0.0026708362586231,-1.046193267249112,-1.4904838595022691,9.278090543847108
1.1,0.0284676343346547,-0.0394337638092169,-0.0111226961910159,-0.5518952831633324,-0.3348666447931256,9.363363395650708
1.11,0.0171116175494651,-0.0372660996728087,-0.0174285220875771,0.2226390915203739,0.7261948695305973,9.877624243983655
1.12,0.0023584954147128,-0.0232201850708832,-0.0202231808527739,1.1639019000585844,1.0458005030674906,10.142537080699343
1.1300000000000001,-0.0072367331477971,0.0051970447311916,-0.022230402655843,2.236021854585774,0.5300347177681802,10.262654925950017
1.1400000000000001,-0.0047745060040842,0.0347609704404528,-0.0193597423806221,2.1724492013675563,-0.1816755079055857,10.185255916254349
1.1500000000000001,0.0049523829428449,0.0530183869594216,-0.0084460481032164,0.9946688729898548,-0.4771675745505863,10.101311806799355
1.16,0.0055452468465102,0.0467819470991875,0.0040364522990404,-0.6611145064327016,0.2785346741318024,10.290403170670002
1.17,-0.0078838107408243,0.0209115957333145,0.017953597851154,-2.1729620970586225,1.26072808519436,10.161490695436369
1.18,-0.0166616681447658,-0.0136166522886412,0.0225538973734347,-2.591767041273368,0.5081536907149629,9.750429824966709
1.19,-0.0125576033702099,-0.0371303319667263,0.0296967093870608,-1.5800400298492476,-0.3854820813777309,9.085204537704286
1.2,-0.0004924166955403,-0.0477196797679548,0.0292008806989161,-0.461565297452464,-0.963266347223108,8.845789280038572
1.21,0.0101717342510968,-0.039389060446675,0.0221059237644641,0.7674969321355878,-0.7118037901858807,8.905133550359736
1.22,0.007746625000444,-0.0263224919507295,0.0140962748826115,1.0318389656966145,0.1497998499332844,9.561821884537803
1.23,-0.001526506893631,-0.0143377212258204,0.003592627499309,1.0242837343496811,0.4304132414960258,10.227166763018012
1.24,-0.0054150710606972,-0.0057784344726747,-0.0070818449332745,0.8112156316083371,-0.081933403388526,10.580588859985353
1.25,0.0027016323621137,0.0021400680822859,-0.0191488089933426,0.7724216543490076,-1.102033337525016,10.540870112120643
1.26,0.0186267773020081,0.0075185797002367,-0.0159757780804665,0.7762909739329902,-1.0546108068042852,10.348982778694308
1.27,0.0174954133776982,0.0134020831973124,-0.0140341595708758,0.6805838372583702,0.1114947525504814,9.98742749601224
1.28,0.0135464798370993,0.0211594104823955,-0.0100092851519019,0.7649609594163334,0.3056767903114614,9.562078456471433
1.29,0.0051282089270852,0.0180224012771534,-0.0033709957226545,-0.0762994235504797,0.4903827420586296,9.5176333322724
1.3,0.0071626121086168,0.0073941078192695,0.0021914767837716,-0.5863683025877389,-0.1544895291408441,9.283710675437105
1.31,0.013254266888738,-0.0068252387704022,0.0058030219786434,-1.090765047441947,-0.2084613308934692,9.209556634320936
1.32,0.0109375986015907,-0.0290652359160274,0.0044475995507656,-1.6799615557471728,0.1161287953711459,9.86263215588816
1.33,0.0119706454243454,-0.0461151231863539,0.0008372073914489,-1.3190270544858766,-0.1546131706298735,9.908640354767828
1.34,0.0128592430774853,-0.0557543914320709,0.0008296824214613,-0.558073254120427,-0.050656603489413,10.10365517910402
1.35,0.0131307813311032,-0.0522376049110504,-0.0021590074486465,0.432564843729892,-0.0752838712747895,9.869989994470242
1.36,0.0106400567573492,-0.0360415654957937,-0.0077992184981138,1.3123750542160342,0.0375375027311807,9.626052885185109
1.37,0.0035513110803121,-0.0077139246025261,-0.009984122678581,2.265119858860708,0.6112114048033606,9.699014202599315
1.3800000000000001,-0.0094378212080549,0.0293465950690914,-0.0156082614287169,2.704837472339173,0.8000963657504339,9.86998060621491
1.3900000000000001,-0.0100781782963919,0.0624034932751676,-0.0136636412664682,2.438639241962504,-0.0918406456230178,10.088037730539591
1.4000000000000001,0.0043088108414554,0.0727715209924717,-0.0158927879258425,0.3563567640683697,-1.3322657362140335,10.084152705479973
1.41,0.0143113318783985,0.0497190339355825,-0.0134517234712274,-1.8654312292381925,-0.5663170916734996,10.2972786157403
1.42,0.0059841589227265,0.0114208622453721,-0.0014830828606517,-2.9736590658770954,0.94988895742225,10.077533914038389
1.43,-0.016138863807653,-0.0307728076126737,0.0099784190804331,-2.8302969735856864,1.4489286752281323,10.09885651146907
1.44,-0.0144996694165798,-0.0523837282370842,0.0211505693421332,-1.2116683754796973,-0.1921015121453954,9.240364186912627
1.45,0.000629463851275,-0.0466017246229523,0.0323554006442992,0.6550530948601289,-1.0305321975710957,8.732736939733664
1.46,0.0208911919270996,-0.0390511779738823,0.0322297130749194,0.7348983253527555,-1.1248827677656985,8.97824306420627
1.47,0.0121199702319331,-0.0227025561579923,0.0293873612806765,1.3177544865708404,0.8804089741512208,9.593614634060732
1.48,-0.0087537261297406,-0.0080304043677576,0.0172639404461352,1.0475486884751664,1.4049638529632154,10.284927589643402
1.49,-0.0188489606189579,0.00021525817242,0.0049678409975587,0.714775273710846,0.3839232959251017,10.534793489914383
1.5,-0.0106942634050298,0.0028613320902288,-0.0058630021251173,0.3102852439723771,-0.8469868091086524,10.342053012875471
1.51,0.0085192291476112,0.0023212602195,-0.0141022187619836,0.1016663407824801,-1.32229161293664,10.239418727437563
1.52,0.0089455352211362,0.0077047551951801,-0.0203868943228752,0.5098180839325502,0.0212862225216534,10.00982742282124
1.53,0.0047591424653867,0.0184069769164751,-0.0192253227307827,1.0919630423032878,0.153387609615267,9.916093569460331
1.54,-0.0040752002065519,0.0265544576544521,-0.0176906186118156,0.384760416696595,0.3984044544595768,9.433534141739214
1.55,-0.0008755730985298,0.0179414366500379,-0.0126598394438059,-0.6866520132768275,-0.2167303812334247,9.425565943110794
1.56,-0.0005854291070648,-0.0016538844300276,-0.0046704398430318,-1.8527190130242548,-0.1183420938768038,9.41166882701036
1.57,0.0095311585291415,-0.0323893385332134,-0.0030574012509913,-2.4149660402910715,-0.8557011717798851,9.74710371610882
1.58,0.0149192546635163,-0.0605267845865059,-0.0039684428795607,-2.083116206754489,-0.6276480085043156,9.945184064167943
1.59,0.0190655413905173,-0.0652553851426542,-0.0005856749796674,-0.2365950258898507,-0.2738012508425387,9.70102134806353
1.6,0.0143683223219522,-0.0566319875908181,-0.004020595081094,0.8958169009803906,0.091285182179331,9.706701947369192
1.61,0.011477343127473,-0.0281076970413176,-0.0022403354253054,2.356543173505439,0.3692492451176103,9.522381716086468
1.62,-7.09505498022106e-05,0.0129263458832729,-0.0088156825825007,3.043614317101733,0.8688626473305839,9.814641258005937
1.6300000000000001,-0.006387540896185,0.0465279176913331,-0.0125414739325077,2.0035545264866395,0.2149475688046548,10.238239588635574
1.6400000000000001,0.0049089499484896,0.0503238657448297,-0.0161352354064018,0.0802646872502921,-1.083995185962363,10.297023113149956
1.6500000000000001,0.0171986693029037,0.0353459924573645,-0.0146204336508543,-1.0902128459767224,-0.7830260830747713,10.486505054406878
1.6600000000000001,0.0109495398328844,0.0099624857368932,-0.0090189903005392,-1.7278918402365715,0.7790287399286656,10.252379097404235
1.67,-0.0078771598268318,-0.0118562747125827,0.0057805500962405,-1.1957584422010483,1.5419309391849074,9.925766894701503
1.68,-0.0171659466995876,-0.0273130512815501,0.016696934498903,-0.7326197545658404,0.4954899800135311,9.389954640041942
1.69,-0.0048887486202576,-0.0281235263878515,0.0255517725870578,0.3384941617919124,-0.9635109600635696,8.899757700842391
1.7,0.0166525870127556,-0.0273387312366739,0.0250842281655042,0.2941330895178541,-1.3630089127114695,8.924975119953528
1.71,0.0186665747212912,-0.0220165507919122,0.0223172650710313,0.5768782870587309,0.0559318619975456,9.38563535275154
1.72,0.0067867597848325,-0.0209079824893704,0.009202610611972,0.2347066603381625,0.7364794582906357,10.095621218883371
1.73,-0.0057569367768086,-0.0134935397604957,-0.0045077885463268,0.7315300116442909,0.4984961443912382,10.415053308592418
1.74,-0.0066297071515624,-0.0031210182177562,-0.011128307409528,1.096863358349687,-0.2213549337131203,10.342558462207492
1.75,0.0017731161424162,0.0151958134589843,-0.0161645888313086,1.6362598101067949,-0.5581469927675973,10.055075505369503
1.76,0.0142495637545764,0.0335808452306829,-0.014129858553353,1.694034860685133,-0.8261691390261267,10.105584903481668
1.77,0.0149266662240265,0.0468331574823273,-0.015131215654257,1.0588972386361926,0.130022572835961,9.818903007692358
1.78,0.0055976646256206,0.0490064633618238,-0.0079160026236803,0.3341028597728963,0.8448968306737576,9.622622461344712
1.79,-0.0059000659376181,0.031172700782962,-0.0050614695958228,-1.3213093949632788,0.7273834740555082,9.471284593388416
1.8,-0.0042473359942247,0.0035291349577472,-0.002585688695255,-1.8891898670243876,-0.1726872980139214,9.38643806293354
1.81,-0.0014252514332524,-0.0198887797561779,-0.0013939136135758,-1.7862309796536018,-0.2073512747507801,9.27126034252291
1.82,-2.06756046277257e-05,-0.0371957259723749,-0.0008105971812636,-1.1816626166052102,-0.0644763411927769,9.679543490998448
1.83,0.0026792894634089,-0.0380439711340282,-3.1996840554601464e-05,-0.1451823821066874,-0.2988495044040567,9.707484694643892
1.84,0.0077065703313772,-0.0360185100078255,0.0021655474245181,0.2799742485186217,-0.4980279242458743,10.152055974199232
1.85,0.0158026757161011,-0.0282842699117424,-0.001857975121531,0.6615892563206786,-0.7849443121732745,10.047445417698407
1.86,0.0166365527278556,-0.0123586451537361,-0.0070849853529961,1.2861301949462398,0.0773043222354298,10.029180855681822
1.87,-0.0074770126959702,0.013690561153451,-0.0180444802119762,2.016242895586314,1.4251677160639515,10.39282671433882
1.8800000000000001,-0.021097673700914,0.0448885423090891,-0.0172741181179316,2.1262039949990554,0.9945407043743264,9.820521285060536
1.8900000000000001,-0.0177620800206277,0.0636855017391422,-0.013715698473099,0.9085980267265892,-0.333923345453289,9.678151228950082
1.9000000000000001,-0.0010849140668109,0.053464783651249,-0.001181927133295,-1.1215497372136094,-1.0111213625875628,9.864991769191942
1.9100000000000001,0.0049766619886235,0.0244402285557396,0.0120486010835139,-2.4047199670369146,0.0144420878561948,9.825927087843354
1.92,-0.009366701319093,-0.0093999200312708,0.022037149317619,-2.6739569521399407,1.347935036367323,9.890203639487112
1.93,-0.0233059567198263,-0.0408047558708643,0.0269780353680818,-2.18320649891446,1.0301557672831954,9.850902954348362
1.94,-0.0159593721193724,-0.0506841391923729,0.0278511242047517,-0.3986576284740608,-0.6002524837231,9.399449674867483
1.95,3.446960067006712e-06,-0.0427784235979164,0.0219452724829881,0.8096746388672945,-1.1904187976375018,9.253530362342682
1.96,0.0108747542581735,-0.021484372770877,0.0086936335117189,1.5860145599043742,-0.896570937367012,9.393953491011958
1.97,0.0052184124139604,-0.0020727533157878,-0.0058680429085524,1.4076320294016265,0.2034912221144496,9.880891925926669
1.98,-0.0085594312309573,0.00686498360742,-0.0177204656376869,0.9305319576200172,0.5694564256538682,10.488119049904029
1.99,-0.0124554379740185,0.0154238752272139,-0.0251331916972429,0.8020023887076306,-0.0422727219518903,10.36963002205689
2.0,-0.0016907096769181,0.0298476373695701,-0.0258174045904905,2.961180007736119,-2.2672959697031603,8.99391381338679
2.0100000000000002,0.01875777348508,0.0355676737190885,-0.021232172004822,1.0400063678625304,-1.68251001273678,9.922164432769035
2.02,0.024356424140969,0.044212984672443,-0.0129686855673224,0.841379337235744,-0.0671843167838989,9.642751708446813
2.0300000000000002,0.0099164412458289,0.0423080415122684,-0.0074159811213047,0.1437940402545745,2.7756402083535865,9.923729186986831
2.04,-0.004690150221351,0.0332405753853624,-0.0001823306977183,-0.5718430227847439,0.9591162174691718,9.160260053733376
2.05,-0.0039820058899101,0.0092217615458112,0.0017058186620107,-1.774999119828803,-0.1061127450008725,9.333179576025266
2.06,0.0042122079063678,-0.0158084468821731,0.0048841854129551,-1.8136210612480688,-0.4202771304861684,9.630314439268206
2.07,0.0036722795522554,-0.0352324472072972,0.0005024766121624,-1.4614827251894655,-0.015760132544471,10.095683108807128
2.08,0.0066596378104491,-0.0450613085335054,8.56366511999304e-05,-0.6815335410552567,-0.1016537599399588,10.27239109709768
2.09,0.0092211443325929,-0.0435469786805683,4.481911106097051e-05,0.3400507732396072,-0.0636913283912441,10.213198812049889
2.1,0.0052312376834007,-0.0250709929376984,-0.0053870595022471,1.49781197874156,0.3050925713201549,10.01697332727682
2.11,-0.0162163730955996,0.0081719758023217,-0.0101878513544232,2.576360442571033,1.7542558824123018,9.92391701210661
2.12,-0.0329435272663033,0.0401203367333908,-0.0140233869626553,2.2581541209897624,1.2576896168398903,9.65429081987072
2.13,-0.0313882269622761,0.0650441534585976,-0.0174419331326515,1.3411046496686487,-0.4692251767341308,9.48319490120335
2.14,-0.0096209364403299,0.0575936529748493,-0.0116826389878423,-0.9911870426056768,-1.5239580249091116,9.770253995260838
2.15,0.0058877065720816,0.0298195762413081,-0.0047978424429328,-2.266899985930756,-1.0033057760333253,10.074707817235415
2.16,-0.0056267391913312,-0.0059803567115727,0.0013340380981009,-2.6956903023230963,0.8616600620938867,10.281890112512754
2.17,-0.0200825572091659,-0.029177233401943,0.0122413727492659,-1.5696391603809448,0.8684591278527831,10.01900965290822
2.18,-0.021646075645892,-0.0364990721151144,0.0261187133417098,-0.1716416739885845,-0.1878958991462551,9.6168487194974
2.19,0.0008657416952631,-0.0260800403774692,0.0325386011079518,1.0350827115028516,-1.599034565585582,8.971814033801422
2.2,0.0111234958657116,-0.0124530716778069,0.0297465090677707,1.103978840327679,-0.7254696561242913,9.199187587868238
2.21,0.0103010358690691,-0.0030833188710796,0.0209510651454894,0.6583389776837765,0.3855768651026259,9.502672649007168
2.22,-0.0077490683033182,0.0010501538210383,0.0092331365720002,0.253908803810297,1.21369094840534,9.99489573734667
2.23,-0.0172343417163921,-0.0067498583317318,-0.0086493194996745,-0.4736545696657653,0.3284020611189845,10.290535868850856
2.24,-0.0091173254499822,-0.0084525054034665,-0.0183480597063334,0.1225325182987242,-0.7422995355870442,10.147799152675606
2.25,0.0001381063240595,-0.004879637107297,-0.0291049602403671,0.5865793755009503,-0.6296937418030165,10.316476614375304
2.2600000000000002,0.0025346125728396,0.0128035625725181,-0.0285364716275961,1.7981633360205462,-0.1737855642741042,10.214390389373444
2.27,0.0005136578962137,0.0361203019247908,-0.0246471512093575,1.914322894369745,0.1108872794993428,9.794578327671058
2.2800000000000002,-0.0039857321245484,0.0459904652575165,-0.0140306885316402,0.9520588710772818,0.2858950535642057,9.62440007418835
2.29,-0.0025498301587225,0.041911924391493,-0.0069973218216927,-0.4941196641953189,-0.2779530150220702,9.133715607124165
2.3000000000000003,0.0011949672983213,0.0171592634295286,0.002507713766825,-1.8498463646064207,-0.2824649414990431,9.29747737742803
2.31,0.0038859226156696,-0.0180324628199963,0.0046050158832787,-2.542200199358252,-0.4164354739946257,9.560752088038766
2.32,0.0122711546797587,-0.0423794422558081,0.0014871074506646,-1.9072729527881005,-0.7433885661612797,9.706774521502052
2.33,0.0141670452437821,-0.0567663928736036,0.0013814332357998,-0.8721367197820674,-0.354532440506846,10.004348491432346
2.34,0.0185997708827841,-0.0535771191082503,-0.0037588440775306,0.4438515631428313,-0.3873155095593545,9.896434874894725
2.35,0.0153080658069249,-0.0306195886571229,-0.0108173974751861,1.8393569642873304,0.2974508616454784,9.808922805285876
2.36,-0.0058916761395992,0.0011730807567901,-0.020287250257972,2.587075658351915,1.8115776092094056,10.18257046240238
2.37,-0.0339480470081701,0.0355085848657782,-0.0252981475516588,2.500179820225424,2.010717240609793,10.119360649325412
2.38,-0.037256193190743,0.0603978068155523,-0.0254569138362438,1.4129382074987658,0.2309615088326438,9.759315849273952
2.39,-0.0216119194990804,0.0474229825944144,-0.0202987502291233,-1.4665993363208008,-0.7680700106684207,9.99773141222198
2.4,-0.0132019729753552,0.0132668360998191,-0.0021954780406684,-2.54021547690414,-0.2527229796165345,10.223039901990363
2.41,-0.0139092824446624,-0.0134909955997839,0.0173108176366059,-1.9601120483356809,0.5417196603930785,9.928336235849176
2.42,-0.0247883822921752,-0.0350706588667502,0.0379681539759604,-1.1541932634938032,0.913642411930936,9.845876250251049
2.43,-0.0295027732099877,-0.029910347101298,0.0445722480342357,0.4855983779151721,-0.0130207184818286,9.177747243634771
2.44,-0.0152065504830419,-0.0198260414592729,0.0459385094270675,0.9845861746462962,-1.4110263651194064,9.088876977460338
2.45,-0.0010297184909293,-0.0039078692444527,0.0382210900113551,1.2429013378688432,-1.2868451062476765,9.048254150762087
2.46,0.005927779067153,0.0059489210120741,0.018519888542649,0.5517968029390712,-0.8577217019883592,9.544058199308306
2.47,0.0004588877536144,-0.0017427899609713,-0.0030998425520391,-0.7172153806001735,-0.0716467183545952,10.25504848580712
2.48,-0.0075968678713848,-0.0122758534151201,-0.0226665596439869,-0.5927418260001669,-0.0335095361168552,10.665663948182614
2.49,-0.0026174126734469,-0.0155422129196171,-0.0298883496745855,0.1728763120139643,-0.2911074582748211,10.424494980159585
2.5,0.0104398454791692,-0.0033233582234023,-0.0295030261352093,4.833362844474128,-4.75123830169436,7.415434579466309
2.5100000000000002,0.0293688580451386,0.023182013154377,-0.0235799486711056,2.415335291259786,-1.0295279022100716,9.767752040011295
2.52,0.0236536699191761,0.0507409468333804,-0.0125980797185928,2.358150178475248,0.6191723834191866,9.46522051749325
2.5300000000000002,0.0043165755724041,0.0633598581960416,0.0045760415066598,0.999167998274077,1.6774823572283133,9.139331804532546
2.54,-0.0039687806835157,0.0477554035377878,0.0096652236804931,-1.2013826354455066,0.3876927029112862,9.245066996841942
2.5500000000000003,0.0045339609716481,0.0171041230922695,0.0109971760809986,-2.251362508244428,-0.5958503368966064,9.08474927786026
2.56,0.0163218689498592,-0.0140665323344683,0.0075214853548078,-2.13122820504354,-0.6691211479732854,9.421639725904273
2.57,0.0078782471108632,-0.0319958460930698,0.0029190666080086,-1.2707349834655857,0.6522537358407187,9.940709105181108
2.58,-0.002566470446663,-0.0385040584059848,-0.003563290085587,-0.3253684382230333,0.4331664897152549,10.455070202945814
2.59,-0.0006027596925291,-0.0334999508309019,-0.0070065707861812,0.4918685269156807,-0.4181527157775814,10.36209459970791
2.6,0.0059477400767968,-0.0194859780789215,-0.0138178058862121,1.3561543976740456,-0.3906020546232949,10.280372956097008
2.61,-0.0117182003993961,0.0126799820179081,-0.0161170634403259,2.4712024092340648,1.6027609379489975,10.127175613657863
2.62,-0.0280374450934688,0.043061112540188,-0.0201289757117064,1.9820931570058704,1.083261444019714,9.90645400344218
2.63,-0.018330518997033,0.0562110815011683,-0.0195909990891249,0.7769592355262425,-1.0118312463149457,9.888064491055792
2.64,0.0042711446554191,0.055665140578826,-0.0149193453564674,-0.5426241863102389,-1.6766575032047517,9.613402292848196
2.65,0.0118215714144066,0.0307464293124508,-0.0034813430122466,-2.036766410682968,-0.2811652520926535,9.80153621896886
2.66,-0.0009232336615798,0.004719596149348,0.0099186803252069,-2.0408441961247497,1.054976724402886,9.664194267062436
2.67,-0.0143257747958139,-0.0176124697640564,0.021512671284434,-1.598992987878015,0.5490135874766269,9.65264371540001
2.68,-0.0087066477255494,-0.0287555655457385,0.0283831459507911,-0.6621276226908119,-0.583341086858711,9.375070274221434
2.69,0.0068860834373438,-0.0275622522191348,0.0296226115003793,0.2039409505579303,-1.026458731198503,9.4345853270458
2.7,0.0166121916992204,-0.0223768868101671,0.0197015301362245,0.294856448562609,-0.7204822274546258,9.53691128523955
2.71,0.0086319384785602,-0.0179374683619221,0.0092597928867309,0.2351095134689694,0.4989941684518831,10.15728989159174
2.72,0.0002210493548845,-0.0157249420525143,-0.0051395460925431,0.0767283081939259,0.4085360347649089,10.21600935283548
2.73,-0.0039645784117536,-0.0136304692251032,-0.0176805566027195,0.3496845541712386,0.1041168212110865,10.522033308215182
2.74,0.0016650473370818,-0.0005990524984553,-0.0263478617146046,1.1104306304076352,-0.4758075004691087,10.2388653909201
2.75,0.0072118199845298,0.0184304639296264,-0.0323740812912018,1.5510767982546596,-0.3957081381714011,9.993644746958363
2.7600000000000002,0.002979671753156,0.03301713792466,-0.0252196091189415,1.0745101516923223,0.5997400641437375,9.721547346898124
2.77,-0.0069542017515977,0.0279127933030701,-0.0160445786043436,-0.2711224527649924,0.8368421246233659,9.686184209184889
2.7800000000000002,-0.0129111285329469,0.0136732241336488,-0.0089397934227616,-0.9286001120494808,0.3902439389634209,9.356551863603343
2.79,-0.0075325684052869,-0.0047391905019737,0.0005976143563731,-1.0724068805008584,-0.3381696476451862,9.1593806649018
2.8000000000000003,0.0009673880182667,-0.0154310910359391,0.0028938332377566,-0.4352932226382102,-0.6424478936420502,9.057621027785666
2.81,0.0051192488714896,-0.0110073331794223,0.0053025245704321,0.5998703450001114,-0.2910141742206452,9.201486202145766
2.82,-0.001816029239787,-0.0066047592702454,-0.0025492697916359,0.517242307265127,0.1417377131782677,9.964946976435634
2.83,-0.006716655916138,-0.0011819008310362,-0.0068020840137631,0.5463372906100797,0.0313266019432277,10.2981095868118
2.84,-0.0029381601429273,0.0037514712073565,-0.0148743922784359,0.3121477862461702,-0.6011375690576066,10.325861065402538
2.85,0.001809394877307,0.0057214671410114,-0.0208035401030809,0.1089558672830488,-0.427718626208695,10.311920418895475
2.86,-0.0002764576609223,0.0071635857418117,-0.0249009664132626,0.0231377667006721,0.1805461223731743,10.366455538201333
2.87,-0.0075687220604457,0.0095422322332575,-0.0197221237196953,0.3815474517642942,0.5233185619724334,10.403945880461986
2.88,-0.0074487754637099,0.0187805408471867,-0.0104893838017613,0.7512401891995484,0.0881879801421746,10.01004717600514
2.89,-0.0038431399740437,0.0200519752301274,0.0056228655428259,0.2430003865017816,-0.0558104557889701,9.6083374635934
2.9,-0.0028703550930153,0.017090686811242,0.0214647361115186,0.0250730971109664,0.2827754501757925,9.198449686137248
2.91,-0.0075143827268354,0.0143100544791809,0.0307639044747321,-0.2324127401859624,0.3212268635813217,8.937923904382219
2.92,-0.0028425639171863,0.0029474779118289,0.0311176748052804,-0.6600345852781967,-0.3079766081210514,9.03441864581081
2.93,-0.0003190050564667,-0.0021438504413546,0.0226374556348292,-0.276231474528929,-0.3554933583372758,9.34063295975903
2.94,-0.001155921021471,-0.0063763655583249,0.0072117828801839,-0.4382228063571362,-0.073966971859319,9.86119205589842
2.95,-0.0049123857880913,-0.0098852767499941,-0.0085898340641887,-0.2135045085001973,-0.0106798749618167,10.430881642721925
2.96,-0.003463655647591,-0.012392423544516,-0.0139776795133383,-0.2042251670237951,-0.2730722434689505,10.504984549512814
2.97,0.0067655261914164,-0.017609831238896,-0.0216602059974701,-0.4008503890800267,-1.1447339831776258,10.540308778549214
2.98,0.0197754549750334,-0.0111738613303339,-0.0189995682760508,0.595746053734488,-0.9479931191275328,10.116353747768116
2.99,0.0144856128496798,-0.0031955628708153,-0.0161161861344606,0.8549156284250573,0.4585606650148419,10.123408704175034
3.0,-0.0010444617514263,0.0155112840538598,-0.0069895108192594,1.559830892214333,1.2336161903406904,9.767251735518448
3.0100000000000002,-0.0133095397150591,0.0283258813303886,0.0010977952167723,0.7446282913207345,0.6443221770429363,9.406868264078438
3.02,-0.0033951917746055,0.0248017103734829,0.0078538664654462,-0.200324299898323,-0.6910683028450864,9.15087408435142
3.0300000000000002,0.0092011368031477,0.0132820127765138,0.0090231424235372,-0.9398342465595584,-0.7709895871859782,8.89239188020331
3.04,0.00921753873413,0.0004930227731638,0.0067116305269865,-0.8891751829833566,0.2011599511036468,9.165161410806386
3.0500000000000003,0.0016014891943415,-0.0092728114952243,0.0011159844268678,-0.6301961014105016,0.5751566540732876,9.53646144659938
3.06,-0.0076613546949044,-0.0092226121768696,-0.0045817639640898,-0.1109345613316804,0.4676385556110462,9.883698402873913
3.0700000000000003,-0.0045784012733196,-0.0171299657194863,-0.0153555414601595,-0.611151699359623,-0.5056292397188248,10.385796491950195
3.08,-0.0014065936577015,-0.0203415980556732,-0.0169636840894253,-0.0369193596185718,-0.4455793472454205,10.450168902418095
3.09,0.0057487526426267,-0.0104905108099991,-0.0161222434564859,0.9123292364458498,-0.4200803355902852,10.208737442744232
3.1,0.0051362201768481,0.0038033458804368,-0.0208653184547455,0.9441060683102525,-0.1685727356456675,9.990259705707723
3.11,0.0035820078717581,0.0130181066828098,-0.0204187455549271,0.8101373799092543,-0.1993694255238114,10.05109242991572
3.12,0.0012042570819617,0.0262565993143451,-0.013580529108587,0.8840812613034842,0.2957060718797977,9.869295004559865
3.13,-0.0070198675754806,0.0262076234510796,-0.0046920409388275,-0.0431033681582608,0.277412512436674,10.131921238844898
3.14,-0.0060671631700618,0.0205689856052012,0.0140764935911266,-0.2519941889839032,0.1722712449810669,9.68521962925322
3.15,0.0022085069312334,0.0071061157631958,0.0242361863181559,-0.7587825053967316,-0.4144407995161287,9.454561040526134
3.16,-0.0002709892272396,0.0026673619974007,0.0328984101340739,-0.1822804789237487,0.4342081797135337,9.05034725447316
3.17,-0.0021690731000185,0.0004877357074944,0.0326961156949965,0.0131859244076462,0.306727058684734,9.133496540298728
3.18,-0.0042316681633414,0.0052119128884021,0.0240176421627967,0.2285456254579475,0.1433684533112548,9.206936438351851
3.19,-0.0075973941790188,0.0028573258420916,0.0101380514950125,-0.1664827061971187,0.1932131452526595,9.905745291494776
3.2,-0.0055306428655569,-0.0016438486984315,-0.0060230592227907,-0.3953550314081909,-0.2292670401563724,10.223759123713725
3.21,-0.0088632058174295,-0.0043734857767978,-0.0138003687336475,-0.1156497661276365,-0.017771872189359,10.472528972519152
3.22,-0.0044130649026914,-0.0083825231209188,-0.0183030898644955,-0.1673572652347179,-0.2416219249344449,10.511948095572036
3.23,-0.0017216473623119,-0.0049553974503544,-0.0172838429882557,0.4423110618434394,-0.4114784076012443,10.422691045483148
3.24,0.0047102985015876,0.0113198224729164,-0.0179294637366564,1.2796292814935617,-0.6989205577419582,10.0856289266201
3.25,0.0055098997875726,0.0243606056158943,-0.0109537263363034,1.0859082464466787,0.0062936058250976,9.860406270247696
3.2600000000000002,-0.0066095657943095,0.0335137383790274,-0.0055779610722692,0.5639356796622674,0.752285992953284,9.532640640845552
3.27,-0.0118015022029596,0.0251851135705539,0.0021180105084187,-0.6025523220119389,0.2133259110193104,9.310380703033497
3.2800000000000002,-0.0030763224862843,0.0130298339233209,0.0053194574118225,-1.0125838750866851,-0.7500746710394269,8.871823864402174
3.29,0.0090993670970832,0.0011349791521485,0.0033753462173609,-0.9237177642345298,-0.8816509399990342,8.865595826193593
3.3000000000000003,0.0115897947656665,-0.0095159565742206,-0.0004846381218538,-0.6888201761732972,-0.1603203188636612,9.335328243356388
3.31,0.0039454868725761,-0.008076880918632,-0.0067938790618808,0.0416178740792057,0.4754171658779562,9.779955820192448
3.3200000000000003,-0.003579193925378,-0.0086086013258012,-0.0108100856616528,-0.0093196726597843,0.3017958376614275,10.545252518442172
3.33,0.0020598040396652,-0.0041199071310535,-0.0148493397011787,0.4474148954328699,-0.7739203046557668,10.620110585771442
3.34,0.0137931078257321,0.008248609219485,-0.0137718693315417,0.9301333746003636,-0.8027804470450712,10.215721348872137
3.35,0.0175450553533149,0.0236975451923575,-0.0128166974484355,1.073817446451382,-0.5129665495467933,10.180292107884654
3.36,0.0193925218421382,0.0314056655979948,-0.0087963613643677,0.6991951595305337,0.1793186795195701,10.196576840164427
3.37,-0.0023317521987245,0.0395248073756936,-0.001144714975673,0.6231933806760349,1.3653352484592542,10.135619685591749
3.38,-0.0147323455658775,0.0371525096075366,0.0062910499089031,-0.3067517461024661,0.8099037634493126,9.7905066499527
3.39,-0.0087500685397381,0.0209919870619079,0.0169834614769189,-0.9738821254809996,-0.4235745897038844,9.440439826216004
3.4,0.005840651910971,0.0070269508753826,0.0228735198304622,-0.8008894673691146,-0.557556265054001,8.905579721756412
3.41,0.0076973554844585,0.000961672831624,0.0238277473524777,-0.1233631802574253,0.2462229143302471,9.063806341572114
3.42,-0.0011467881816459,0.0076377821536624,0.0170483895615308,0.5580306759611975,0.6400330303865044,9.260611979418703
3.43,-0.0067400767245444,0.0154544768894339,0.00907661477482,0.6084098532564158,0.3584996732872612,9.83119057817555
3.44,-0.0062999366611464,0.0139472535422992,-0.0014097868427069,-0.1667993830647047,-0.4366287199347557,10.378468497777876
3.45,0.0023951717443621,0.0092761714318727,-0.0049882494806678,-0.3822809173120752,-0.8297297881267433,10.41958416965858
3.46,0.0096949038698399,-0.0036875315412347,-0.0069832700266869,-1.1001595152426962,-0.7946111454636251,10.350874905156902
3.47,0.0125944125426167,-0.0158769681180873,-0.0091263215019733,-0.8466009369892569,-0.3842245451719179,10.177450623278684
3.48,0.0116211263940697,-0.0127026778458135,-0.0051421924456389,0.5890835251664551,-0.2581834173835139,10.094907078926228
3.49,0.0182477355617255,0.0113685414206642,-0.0039666845425398,2.0008239555372844,-0.5734603474437451,9.402716030831828
3.5,0.0166941908742706,0.0366053068776337,-0.0049954821317822,1.799977606426178,0.0384123593545052,9.423529548708494
3.5100000000000002,0.0083952581188459,0.053870790944465,0.0014685253679618,0.8404148218771856,0.7991180944848846,9.294029880850418
3.52,0.0055555296107294,0.0446642089987578,-0.0007575725633086,-1.1214621983912787,0.1390745476527623,9.547565567817903
3.5300000000000002,0.0090171283557468,0.0187451458543316,-0.003103186000082,-2.258988182933828,0.0101805393635475,9.57504558892884
3.54,0.0057182419311943,-0.0120253090735146,-0.0057293522133858,-2.406747512732036,0.6375981305981784,9.942673046949915
3.5500000000000003,-0.0095645839000508,-0.0368443446641374,-0.0110242144166858,-1.8022395391469883,1.2321231484837103,10.20446085456088
3.56,-0.0179315852932712,-0.0384807863120088,-0.0118155498951108,0.1826797183547331,0.579899992178463,10.15521535044156
3.5700000000000003,-0.0127010762510526,-0.0210445400145002,-0.0141878054439456,1.4698701554521554,-0.4986342509768456,9.83918191227482
3.58,-0.0083024142463565,0.012345038124074,-0.0176688871308596,1.728601282168166,-0.1269752834636794,10.234715733326038
3.59,-0.0066022454481112,0.0434594849097085,-0.0159061188771755,12.62245135972138,-0.3084544729153447,4.042752875077146
3.6,-0.0144569225124781,0.0584731513792735,-0.0206697463020117,1.1042413928476116,0.4858420358034098,10.075560739424292
3.61,-0.0214773689890187,0.0444362202787831,-0.0177874873354466,-1.329405631878805,0.1982320716635895,10.455161985756153
3.62,-0.0187150114215893,0.0139536858390966,-0.0099215079992444,-2.337943791289701,-0.4820724152785781,10.34068353584476
3.63,-0.0142548073256428,-0.0199782915482356,0.0033408663273422,-2.0747187895990886,-0.4959017658785938,10.04388119978584
3.64,-0.0051512673144309,-0.0295093145864044,0.0202629239336221,-0.1348450607681616,-0.262479146938617,9.051335064853646
3.65,-0.0088596739876993,-0.0141209977075371,0.0310367130712239,1.5517369639624408,0.5061743668988671,8.705841006593422
3.66,-0.012028193924868,0.0077711698943022,0.0346747328565089,1.8642383677761696,0.2264373230431738,8.787009987022579
3.67,-0.0117424414995403,0.0273093711130151,0.0259204850569932,1.223886626109401,-0.0525579436312002,9.204100797922608
3.68,-0.0094354245480553,0.022539912280141,0.0104968062639801,-0.5419682784769376,-0.3314206533579255,10.181764853756295
3.69,-0.0078289557985363,0.0098400638454542,-0.0001347457020909,-1.0449084763279428,-0.1190236836518216,10.488047241430118
3.7,-0.0058530139882325,-0.0122229552533444,-0.0123987617864639,-1.6410915195315612,-0.3229521410015571,10.706596237489466
3.71,-0.0042760087830342,-0.0316824920244103,-0.0193721531852514,-1.46619635275836,-0.2230216332369924,10.568853673771976
3.72,-0.013088449239058,-0.0271588395202197,-0.0207171748354466,0.5774309971705887,0.5800093049019572,10.053381543945738
3.73,-0.0149383728195267,-0.0098493040120517,-0.016555943615678,1.6245286442535627,0.1084409824482413,9.925901458421338
3.74,-0.0147797209552702,0.0174762506942397,-0.0073538078888685,2.052148598120189,0.0610486904840781,9.615485168802696
3.75,-0.0113759146958875,0.0360278496477275,0.0012548191932711,1.3631403259180226,-0.1338023873548593,9.460281085309225
3.7600000000000002,-0.0080839951305985,0.0382324553794468,0.0016566729443712,-0.2000417002682832,-0.3236889855901037,9.236246645167023
3.77,-0.0065725448806525,0.0237205798566354,0.0048519514073251,-1.187884361093844,-0.0610056003035644,9.267083019300827
3.7800000000000002,-0.0074320060130004,0.0068263953856195,0.0029656715030415,-1.5068325643281504,-0.1477668726419024,9.17922158921266
3.79,-0.0065040277405756,-0.0137342588261852,-0.0032770518175692,-1.452135071675239,-0.2900102418634312,9.512320278265898
3.8000000000000003,-0.0068333863387188,-0.0249294341185971,-0.0104278746023209,-0.8709692091538975,-0.2347405998994314,9.701876057780424
3.81,-0.0044332645673462,-0.0241848949558955,-0.0133252694233686,0.2169923972593267,-0.4097450427952606,10.039968891944332
3.8200000000000003,0.0004885520542027,-0.0096133036534772,-0.0133167934566171,1.1356117150184162,-0.562508910482324,10.11734422675462
3.83,0.0011211939906876,0.0094330400257271,-0.0144670820757181,1.5365806036632152,-0.1694356799310309,10.392068242274828
3.84,0.0035290186549989,0.0350371668708785,-0.0125797913371951,1.9184530437423395,-0.3468410366592768,10.307876341835692
3.85,0.001992119249554,0.0555409780561599,-0.0135042118802101,1.334386363062669,-0.0269742150748617,10.394596362225572
3.86,-0.0019292793126261,0.0611195190918274,-0.0048077368139655,0.219292493335082,0.1128529367297121,10.204999561410554
3.87,-0.0014598585476989,0.0448854577253636,0.0012868091341789,-1.2835076187335586,0.1255548292025105,9.80231082020207
3.88,-0.0066545979503927,0.019443262785481,0.007132426746246,-2.081681775576087,0.2422213132463209,9.440630230791069
3.89,-0.0092120132543156,-0.0076608167393842,0.0198477235660521,-1.6434186994804234,0.456845014356496,9.1455793230394
3.9,-0.0064307167671768,-0.0170889058284891,0.0289968409613339,-0.3857367690229209,0.1412510402667217,8.80978005563024
3.91,-0.0066255195678452,-0.0099240857823425,0.0286016062871186,0.3999268239613106,0.3151213187585011,8.962361942063826
3.92,-0.0107676145934904,-0.0065309356631716,0.0224365805313556,0.2213961504019304,0.4142449514249265,9.86153200341326
3.93,-0.0145562857142611,-0.0013928700390547,0.0141143071503012,0.1471841093777469,0.1652576248198301,10.367363306089189
3.94,-0.0095024918065224,-0.003459573296562,0.0048782335632114,-0.2951063851853668,-0.584683132075615,10.691176916377795
3.95,-0.0067129114623062,-0.0124397610486276,-0.0047292244582803,-0.7694478546330292,-0.5098841547225554,10.654807269879306
3.96,-0.0041468821984938,-0.0125072006202925,-0.0133458302318484,0.013466862646488,-0.4707545071438722,10.302224782058095
3.97,0.0010548812947933,0.0067007769030856,-0.0157915345355303,1.5227119918659957,-0.7987359799300268,10.018791590594352
3.98,0.0095110891062002,0.0267060701812002,-0.0151238693817884,1.5300673774987452,-0.7607599507838877,9.63052966019016
3.99,0.0017137221376297,0.0447040817621122,-0.011825031690243,1.2263821950002305,0.3315954571926691,9.383360102773752
4.0,0.0001327335240065,0.0438170859467501,-0.0109742266088159,-0.5012936578009642,0.0276466310126573,9.119874820290464
4.01,-0.0008696620802506,0.0217029088462223,-0.0068186159207851,-1.7288450835955491,-0.0496117968987835,9.334234063312818
4.0200000000000005,0.0030311341854199,-0.0036118489969744,-0.0033502886965305,-1.9152485601701423,-0.2147840398165396,9.261728830967009
4.03,0.0057858239076924,-0.0236404632276332,-0.0009158058985502,-1.2542225480434446,-0.0207071957439742,9.538317387640127
4.04,-0.0009159608228571,-0.0275236994041642,-0.001739054076317,-0.2030904131231378,0.6071333767626136,9.710337885926007
4.05,-0.0111411581395704,-0.0260697941629226,-0.0013294472321302,0.1622087247977919,0.7762448586849241,10.143732149694737
4.0600000000000005,-0.0099270761417916,-0.0182147220489788,-0.0032245182394416,0.593280116140935,-0.1225519554952164,10.19358567789328
4.07,-0.0037286391525057,-0.0118231915081634,-0.0062066866978437,0.4259541922692846,-0.6261323030767207,10.187237033722312
4.08,0.004162319394585,-0.0025132402202275,-0.0127315550073416,0.6345483858363712,-0.5069061232242555,10.055144665802525
4.09,0.001930604482973,0.0070119471375918,-0.0172916679605276,0.7405946071839763,-0.1998039843504737,10.158798421805855
4.1,0.0053195823947617,0.0200593271902511,-0.0202771137430698,0.9779502469618866,-0.5824945480130652,10.137963849747354
4.11,1.8477311041869854e-07,0.0359247339974448,-0.01681652208412,1.0184155920682698,-0.0429906244777833,9.843328473030496
4.12,-0.0036261720114378,0.037836908434208,-0.0048612366392643,0.0351524822480927,0.1555976066347628,9.735356122028069
4.13,-0.0052596574953016,0.025090808442214,0.0106752495319216,-0.9353049725665632,-0.0663883301657635,9.592682935128854
4.14,0.0002823163011768,0.0079187734172626,0.0283393085972039,-1.0828301606187811,-0.1842783058016328,9.220575970399263
4.15,0.0032132183841979,-0.0037591558054251,0.037796388290879,-0.7911021992554007,-0.1561928474424425,9.109616643797608
4.16,0.0064111355951216,-0.0144492772636255,0.0345795665905444,-0.7713742163041273,-0.0638637697127855,9.235380779583991
4.17,0.0050285925397095,-0.017501963548155,0.0308393769935338,-0.2783547936647468,0.3263850907250752,9.597527345593695
4.18,0.0001631670122806,-0.0233787876802612,0.0207086698189942,-0.5117625025873558,0.2660627253457779,10.182672490607535
4.19,0.0033811931034908,-0.0298997005053896,0.0070442551784782,-0.4170704475088845,-0.4260415805021734,10.48949027699962
4.2,0.0096687072695085,-0.0235573826756879,-0.0005706199174181,0.3771686159962781,-0.5168492792030082,10.24651859437128
4.21,0.0175265062123696,-0.0117541865015598,-0.008149941541198,0.9196241064632882,-1.059615408120384,10.45344129958745
4.22,0.021277390617536,0.0115981772854466,-0.0073546414225728,1.9641931910916133,-0.221992103473378,10.3890321210276
4.23,0.010184692129712,0.0401343800384195,-0.0084648496433527,2.107122257027438,0.5218750816320732,10.019249656109263
4.24,0.0041645673889987,0.0631998565743548,-0.0086193523331911,1.3358520200316186,0.3644375874778848,9.388015675948177
4.25,0.0058906752471399,0.0548819323934639,-0.0132219447716505,-1.1521678304180027,-0.3220195597296234,9.228223429439392
4.26,0.0096749487875592,0.0249536419055498,-0.0121101905553968,-2.5961494830416054,-0.0450545447268474,9.084157447451288
4.2700000000000005,0.0070128821373959,-0.0163549879658927,-0.0118328287228376,-3.0880349196635826,0.3588408982872593,9.414113294680485
4.28,-0.0043755712924377,-0.0450436501380865,-0.0104369345083267,-2.066514318167912,0.920143681818446,9.656917612832448
4.29,-0.0093998863468817,-0.0535683272169445,-0.0048027914910943,-0.3914540057942485,0.4846545484108407,9.876686076276677
4.3,-0.0058497667795414,-0.0459732741669489,0.0013220433609222,0.5925660044686417,-0.3474233279222559,10.148647773855348
4.3100000000000005,0.0026122694959786,-0.0328173443196276,0.0055110351220338,1.4622144130560215,-0.8266966875887013,10.169202191780704
4.32,0.0106910476699413,-0.0157119726109368,0.0074801970311074,1.265910721417165,-0.5552447010641256,10.081771754558368
4.33,0.0015433547016219,0.0028131774681752,-0.0014196583963365,1.2922674346801029,0.1898059641969,10.112141585209868
4.34,-0.0006161529984979,0.0236252990113307,-0.0062150923497409,1.4285259125788643,-0.2135605557991994,9.87102016351006
4.3500000000000005,-0.0025979058827922,0.0377145875305638,-0.0114949607252509,0.8517316654598931,-0.1097079979238936,10.012764057840084
4.36,-0.0044253811791044,0.035488744079597,-0.0105147949382097,-0.370255669900808,-0.122510148915546,10.040833907773017
4.37,-0.0017372975101456,0.0247230887958147,-0.0048767571299703,-0.8961571810219112,-0.1320647867771275,9.59696265517618
4.38,-0.0007271096689055,0.0046090859330764,0.0058293253221182,-1.2811255226816904,0.2197148203954965,9.473828666535312
4.39,-0.0047879748239073,-0.0054124151205514,0.0174589351788728,-0.5815012527266016,0.6111535921452345,9.02063383357023
4.4,-0.0058184928472258,-0.009868987994294,0.0228303828314511,-0.0709311711529004,0.3506619234988499,9.116537834272403
4.41,-0.0067070165771293,-0.0094862898827254,0.0244024944529502,0.0615616093592064,0.2410953997400134,9.378737764858068
4.42,-0.0069610061393953,-0.0115163311598476,0.0186580502465932,-0.1649743344836401,0.0007073697489773,10.059144461988163
4.43,-0.0004328193015353,-0.0172169737748944,0.0084292408116726,-0.4765284914123598,-0.6397067496540408,10.493866382378169
4.44,-0.0022954895899671,-0.0178774922453509,0.0024973859815491,0.0235211323638399,-0.1962625623687475,10.572310330755446
4.45,0.000949614122483,-0.0094382310154468,-0.0034387960060865,0.6436209371169522,-0.3756145219427994,10.074154039216385
4.46,-0.0035739858514798,0.0041572048563814,-0.0090033366307051,1.1010398616130217,-0.1428651912614242,10.09909994263752
4.47,-0.0023829242153998,0.0223395383162032,-0.0084358491897018,1.3871923798584422,-0.2058818934429806,9.694045935906397
4.48,0.0068019627419892,0.0429501391847264,-0.0047127433083386,1.489453011877281,-0.8858660834554859,9.51861226470294
4.49,0.0152446927753901,0.0452856243074788,-0.0076615950986177,-0.1480953457421004,-0.6336849454562096,9.363927572849049
4.5,0.0127477117319984,0.0347495989224661,-0.0104548578112752,-0.9743787974095098,0.2823132396763148,9.495069167614847
4.51,-0.0008279861057765,0.0149952797678945,-0.0049246839209826,-1.7742253159617642,1.054930496546877,9.583467336122364
4.5200000000000005,-0.0037813193774306,-0.0099943726002889,-0.0046029585375816,-1.7793336944235576,0.1724115962241727,9.721566225324576
4.53,0.001313287058245,-0.0230702765748913,-0.0056842296346457,-1.008914647973118,-0.5068375160796189,9.61382579721857
4.54,0.0078352646006684,-0.0277425127726503,-0.0018924924972833,-0.2301694103729508,-0.4799300226766228,9.868487476010063
4.55,0.0140237332805472,-0.0262151310539085,0.0001167763528047,0.2072103006486526,-0.5238138494106812,10.024684244238468
4.5600000000000005,0.0145249750585161,-0.0196383383181174,-0.002250821186173,0.3783586784887988,-0.2132940240811161,10.011908571587774
4.57,0.0130019881590921,-0.0148191010071037,-0.0025869720577628,0.4234742738108297,-0.1433187562299253,10.04244604461943
4.58,0.0168983446159533,-0.0070588439177773,-0.0070853560193808,0.537277385560366,-0.5736435215119554,9.953874649489808
4.59,0.0174095872129925,0.0116973091039189,-0.0100466777532727,1.4591769150569076,-0.374396101982266,10.363640085896847
4.6000000000000005,0.017989669733868,0.0338559529427711,-0.0129980222284228,1.619796594742022,-0.2168866647817979,9.89976214381311
4.61,0.0095342752464688,0.0516498094186111,-0.0063605556226701,1.1313806996925757,0.577511637897968,9.85854156374612
4.62,0.0045598151021639,0.0461777918048104,0.0029144613342924,-0.7248031696166504,0.6303944554933439,9.644755560049637
4.63,0.0027429048873542,0.0235362362338559,0.0102547117546765,-1.8475953120013977,0.1952628005685946,9.49960630009957
4.64,0.0018756853954429,-0.010739539048855,0.0183201086745231,-2.4876133826361664,0.4577543487327619,9.507625320463603
4.65,0.0019258238646214,-0.0335598896299163,0.0222480547652213,-1.691657295325852,0.4100336317449157,9.336012731582638
4.66,0.0009823590988207,-0.0459039246595445,0.019872947506663,-0.9181580213861432,0.2236523589859794,9.582155669105813
4.67,0.002881757705663,-0.0500188752830152,0.0162200703323452,-0.088621090878926,-0.029978559735328,9.958953096195945
4.68,0.0036095722875216,-0.0382462668298075,0.0137890595049231,1.5017965456348814,-0.0696772250158813,9.769365589569269
4.69,-0.0004832068961336,-0.0191191341433585,0.0101591990367143,1.4838694433300343,0.1761021753628922,10.006487760762797
4.7,0.001216667165286,-0.0033037773100005,0.0002883700924559,1.0811329832094303,-0.7697389958629405,10.083280708747145
4.71,0.0099578685412653,0.0159083826292199,-0.0042386675215692,1.1775720271427217,-0.9803912925691328,9.987137389906716
4.72,0.0202000073333694,0.0226510716265406,-0.0070403628944785,0.6343465331429471,-1.0891491205006714,10.334601697061872
4.73,0.020386876354233,0.0342037449556592,-0.0116620604842336,0.63757345770677,-0.2179166736692656,9.835962359284627
4.74,0.0146209792594469,0.0373145519455267,-0.0124321403875382,-0.046866771083625,0.3132835274327398,9.597963736422118
4.75,0.0055164633423836,0.0211796808302815,-0.0158067802860767,-1.556020730902393,0.7095449587917838,9.417315527578982
4.76,0.0073101420338606,-0.0035037788450469,-0.0167442644908459,-1.902424214022299,-0.0437160894107077,9.305948505071273
4.7700000000000005,0.0060406652515322,-0.0258548421600278,-0.0118830353915126,-1.7068965956686617,0.386951943104974,9.332696713819647
4.78,0.0040275109098206,-0.0402392774040026,-0.0067624422683746,-0.9984693993387762,0.5120480798947579,9.65247875663225
4.79,0.0017053172421644,-0.0515704655394108,-0.0055121137722761,-0.7981290470166421,0.3669126401779158,10.077152551201854
4.8,-0.0005497059053442,-0.0481555351596081,0.0007220363165816,0.52365487818079,0.3266228163736721,10.238948009751637
4.8100000000000005,-0.0029683400990309,-0.0350808864918231,0.0020290627414925,1.1838022066650216,-0.0566273167609421,10.17913433174193
4.82,0.0043370880417001,-0.0131847199369636,-0.0002545535992266,1.7000184868717816,-0.751041445501168,9.75760809186347
4.83,0.0111043887011566,0.0100655779688733,-0.0068283156453998,1.6683976520139063,-0.9352224320848204,9.606433689846387
4.84,0.0154231194223193,0.032596999176991,-0.0124558248519332,1.583721431595335,-0.6402483696894379,9.87428802601002
4.8500000000000005,0.0093356667021092,0.0440340638239622,-0.0115300138443143,0.8283832460597597,-0.02285479713013,10.229414797008609
4.86,0.0078156654079731,0.0478813794232845,-0.0090760729237825,0.0420969842320532,-0.1702788664773074,9.923839649769148
4.87,0.0031931822652982,0.0319057130318405,-0.0039026342294545,-1.4170335545586734,0.0821692798105596,9.913843809862453
4.88,0.0042112131648583,0.0044056977214014,0.0080960419998137,-1.7574003729262044,0.1728194366182686,9.61780092943269
4.89,0.0020299046500637,-0.0138679722396995,0.0174983953163592,-1.1727216609917994,0.5363964055372844,9.204387143857216
4.9,0.0018504237634157,-0.0243497428663685,0.0266734705344407,-0.5610490319540234,0.692036835335577,9.178099829255268
4.91,-0.003461718704424,-0.0276689272886217,0.0216966037676303,-0.2763921733688253,0.4854941229053321,9.474818111498264
4.92,0.0002506425069443,-0.0317483673593986,0.0208842800036637,-0.1881557857117879,0.0865492743723617,9.94106766952197
4.93,-0.001002038284252,-0.0275066676053339,0.0146875892803637,0.3733205347488356,0.3182060539772425,10.096391985611708
4.94,-0.0048591489267622,-0.0213424511595076,0.0045513304919569,0.4994426547666798,0.1474277953946383,10.273265254915016
4.95,-0.0065290688380922,-0.0189377937416405,-0.000503968071136,0.2683353606432092,-0.3218773500330427,10.448688157452684
4.96,0.0090842257891115,3.141215246560782e-05,-0.007814436308983,1.407335323828546,-1.5974472654765808,10.01208987532821
4.97,0.0189660886892702,0.0198628413007204,-0.0060935696549148,1.5974974037758891,-0.9201919794614782,9.990474602510194
4.98,0.014337510116669,0.0375512486883003,-0.0077106906994612,1.383568687375962,-0.0274937355894823,9.885367685270246
4.99,0.0095219550521653,0.0554079306677938,-0.0069694966971309,0.8527293881261905,0.0104463819653004,9.233768345125942
5.0,0.0112755391924442,0.0429018116888501,-0.0098596644549996,-1.3787867052235294,-0.391253840214486,9.32429198903416
5.01,0.0167029521972778,0.013652431778374,-0.0096244505568773,-2.5524648826513627,-0.2214839636392402,9.222482073070063
5.0200000000000005,0.0126080579492461,-0.0252280651292398,-0.0065825759395392,-3.154621121979918,0.6518692487811,9.677453498202222
5.03,0.0069363072714195,-0.0610554617162302,-0.0033851504288048,-2.7899613288667764,0.654726709466054,10.14649166145814
5.04,0.0019507515530859,-0.0816078679949241,-0.0032577808908553,-1.3539020412888347,0.4182286820594248,10.349557440344542
5.05,0.0081465197351119,-0.0771080585012076,0.0016793083611975,0.7732101192403613,-0.1277959896009097,10.071032409179985
5.0600000000000005,0.0088462557023429,-0.0510570978618692,0.0019206431732146,2.3166920561773017,-0.0359836876965547,9.807296537264332
5.07,0.0102666716882165,-0.0114158981843394,-0.0041404069363505,2.969861896139357,-0.2789520002790549,9.394768605866602
5.08,0.0103638286539146,0.0203474750163922,-0.0105355531870753,2.1827542240139617,-0.3417270810651571,9.670652717812748
5.09,0.0108399399038402,0.0412082823873906,-0.0126947957053215,1.1130661569658118,-0.4690162842230748,9.874429366640568
5.1000000000000005,0.0082676945113507,0.0469850236229069,-0.0100447825118334,0.1918392985861625,0.0334897636025531,10.383707913763196
5.11,0.0037571386363291,0.0357514397368838,-0.0034976555928022,-1.3028089397958815,0.2045983933222965,10.313794337564522
5.12,-0.0044254678001848,0.0149602171025902,0.0066232354418008,-1.7263738092481944,0.4731224186875868,10.155628065892332
5.13,-0.0002795807753514,-0.0096456006990454,0.0168677818999259,-1.9984535778877568,0.0021342018588249,9.48806823795302
5.14,0.0019664729455716,-0.0328117413340527,0.0255864252374141,-1.6380623747759488,0.272965205751477,9.229023030168577
5.15,0.0022974048717376,-0.0468328819105219,0.026588686652538,-1.0216040463500913,0.3172017379247585,9.211840283684523
5.16,0.0055188643192659,-0.0549904507277556,0.0192581088319985,-0.5806137745941669,0.0385492662275,9.454253067823933
5.17,0.000409349674585,-0.0497876046461717,0.0088569050692586,0.5830600848409317,0.462477844338738,9.781212663648583
5.18,-0.0035457736379762,-0.0373037910969366,0.0017641556021391,1.276030776382322,0.2280668575528009,10.130924518138803
5.19,-0.0021712466564863,-0.0132566651124971,-0.0078913216441304,1.8625592238562936,-0.4208103167412613,9.987854855387283
5.2,0.007464490770922,0.0099402020469854,-0.0148613518997461,1.6253837526125652,-1.1279646225891502,10.05519823929113
5.21,0.0164405701216917,0.0173756389433177,-0.0157757597937614,0.7809486323146482,-0.8697337285281553,10.392024509842342
5.22,0.0149953358615934,0.0273678602039237,-0.0170347458645136,1.009468596946517,-0.0947951746451662,10.330506872506344
5.23,0.0061736502801426,0.0330770229911362,-0.0151272724344761,0.6017484422912439,0.4335276740451688,9.921022478923367
5.24,0.0055529494149393,0.0334206756487947,-0.0155115137770206,0.0034913276186063,-0.0107975914807105,9.312405201478644
5.25,0.0028407226619031,0.0219443677948216,-0.0073199608325393,-0.7861706139362346,0.3356684827491882,9.059948893813234
5.26,0.0045994643509685,0.0033399011135091,-0.0057545803449482,-1.347950341373773,0.0557569815915898,8.991001590165501
5.2700000000000005,0.0066864951456685,-0.0179821323044287,-0.0023598019927175,-1.2724055275004789,0.2323487642235327,9.32283389523496
5.28,0.0020842974258669,-0.0255545793593868,0.0015883840367297,-0.5406512700837377,0.5593823963356499,9.673035091341813
5.29,0.0011997619439125,-0.0333664800722255,0.0016790989591373,-0.3819338949858776,0.1390075127676252,10.339410293936602
5.3,0.0030483867729187,-0.0332070644069262,0.00314144047821,0.2558632513342843,-0.0338590709764623,10.436763180211884
5.3100000000000005,0.0017248317625636,-0.0227233354720333,0.0040281188246427,1.0319174811294525,0.0032309202022222,10.313332946968917
5.32,0.0019398542873951,-0.0087471302267115,-0.0020351173318357,1.1495300744217571,-0.1205844680663182,10.113687980567413
5.33,0.0022137672307562,0.0186165698954468,-0.0099010421856672,1.9954016614147536,-0.5954890522851521,9.716998609750334
5.34,0.00487453083237,0.0442677617981027,-0.0136641357987554,1.7878633791384035,-0.3746649194552265,9.904735411647415
5.3500000000000005,0.0079118820845965,0.0605618692485511,-0.0142394025772244,0.7950219495318571,-0.4005127096564041,9.69990822383947
5.36,-0.0048679144704176,0.0580395679349861,-0.0090341382622153,-0.6512922255969947,0.6383814439486062,9.799613119948898
5.37,-0.0046418680988172,0.0327898228379485,0.0048061403483717,-2.2249426234082192,0.2468171704000778,9.615224519511864
5.38,-0.0065323227262149,-0.0005696637824984,0.0150804453567235,-2.6793217499603723,0.1836399700680922,9.54300867506566
5.39,-0.001262571762627,-0.0292378889294805,0.0200153634921281,-2.2952312414943985,0.1889544108612435,9.360252668989167
5.4,-0.0041017012332507,-0.0527603237690274,0.0229545840100018,-1.514668762162756,0.635159195701588,9.758924436376306
5.41,-0.0088507328167059,-0.049571916283899,0.0221803848669497,0.3000852034261408,0.6649945529726355,9.744097810990938
5.42,-0.0088806287173999,-0.0386993288015847,0.0150459137783019,0.935533308613666,0.0613993659580581,10.08148322129806
5.43,-0.0108931001551347,-0.0201850120248222,0.005961346816328,1.5452112588372025,0.0548657007198253,10.0841648797462
5.44,-0.006511852026563,0.0009232157417065,-0.0019603579732955,1.467489844797084,-0.4430881091826556,9.965848299595445
5.45,-0.0046927771671034,0.0154856872163122,-0.011956551201585,1.285054459318988,-0.6414442642711309,10.614091105204864
5.46,0.0023502652750279,0.0397065208341555,-0.0173771019055874,1.66378966455988,-0.7814317036254301,10.100344393584122
5.47,0.0066962892047416,0.0464937244431887,-0.0245175073816807,0.5553866468167219,-0.6570098194173827,10.056721702609003
5.48,0.0033631868094753,0.0464745825075293,-0.0288908957465918,-0.3035338800774919,0.0347244288583925,9.346868065307604
5.49,-0.002860514376961,0.0274395097589062,-0.0250466681047709,-1.4996664703835332,0.3857005084453184,9.262288747201524
5.5,-0.0054961637482184,-0.0013526656563323,-0.019702174790147,-2.15500905465392,0.190393784685157,9.014914340917969
5.51,2.774378044737265e-05,-0.0241375924205153,-0.0094788028820784,-1.3507912709484302,-0.1248060605475916,9.081033928197304
5.5200000000000005,0.0011505376824748,-0.0307699342383578,-0.0017835149503679,-0.4119923669843591,0.3156532424444394,9.21780804180084
5.53,-0.0069409646358273,-0.0332414008382162,0.0049399148244975,0.035055901187991,0.8218911125625926,10.083109074827428
5.54,-0.0106397934857357,-0.0310527877018754,0.006913502145615,0.2238597456246587,0.3953911462332259,10.462755291443877
5.55,-0.0074754692454751,-0.0244831944734383,0.0040498018768249,0.6043511994377473,-0.3936980486497018,10.586228020317243
5.5600000000000005,0.0016635251373887,-0.0202709397783268,-0.0015840186699659,0.4745617532711913,-0.6763195151832114,10.281279964366602
5.57,0.0021812158708626,-0.0048959249413347,-0.0077124741821916,0.989860706379315,-0.1163176859041654,9.859053349620975
5.58,-0.0040097713412545,0.0083185024406553,-0.0175535409673483,0.843344580490191,0.0793053601423835,9.93493469964744
5.59,-0.0132716812460683,0.0247384548130954,-0.0194144911094935,1.092356013119651,0.3463047487215306,10.031399805116031
5.6000000000000005,-0.014035753960741,0.0292414738022926,-0.0113145495727093,0.2897808415882711,-0.0786039176840055,9.949666101354314
5.61,-0.0144831511750564,0.0331375413967119,-0.000618426451403,0.0883253614434256,-0.1972800343512767,9.52284746215423
5.62,-0.0008478619177295,0.0228448612548107,0.0159179530144302,-0.8984540772789367,-0.7003608035868858,9.221561146957535
5.63,-0.0004131553356381,-0.0005320387601147,0.0248975445554225,-1.5954990364055517,0.055441317382373,9.360939660120351
5.64,-0.0056928213600327,-0.0117052065319962,0.0322885354087321,-0.8452105563721505,0.629397424592078,9.214577619842466
5.65,-0.0065946013987418,-0.0250617464831359,0.0311836683229176,-0.9304803001862229,0.2613903660088963,9.48082660931984
5.66,-0.007195955554954,-0.0322184703265089,0.0240105212703912,-0.3365838384823217,-0.0417566304160178,9.990047809019453
5.67,-0.0007836803254754,-0.028535813861113,0.0121584207788674,0.1705940963011104,-0.610825032797547,10.064074055396858
5.68,0.0071307647708196,-0.0302230401655366,0.0012890964078525,0.0303939463349004,-0.7510963329676725,10.492509987399458
5.69,0.0091562929330215,-0.0215553608749607,-0.0073983148633868,0.7137493522911669,-0.4091200944375759,10.393500450760074
5.7,0.0137327888774276,-0.0026392400270447,-0.013303149580899,1.2968249157460194,-0.4430611605491749,10.712782913459485
5.71,0.0135530655114045,0.0249098651343125,-0.0181148099675209,8.743151926527194,-0.7577431755611893,6.275108319894938
5.72,0.0087957970475346,0.0537304491459165,-0.020945544443968,2.1201297909980483,0.1766932539913997,9.4568966768929
5.73,0.0049672121490988,0.0581990215569912,-0.0180489822253019,-0.0009238070519583,0.4961580132453021,9.260938768603436
5.74,-0.0001032466963846,0.03814274548966,-0.0190085909291536,-1.8461875523753877,0.3049110798245491,9.239419830270144
5.75,0.0036033691394809,0.006178963627168,-0.0147437500729591,-2.53424741316082,0.2051507333249943,9.02605695800273
5.76,0.0018302804741407,-0.0250719742632116,-0.0124931047632725,-2.267964649253233,0.436521680782691,9.403818367344522
5.7700000000000005,-0.0141848716208525,-0.0434549069108714,-0.0062885033860237,-1.154143971664837,1.253021584682922,9.852819523671023
5.78,-0.0155988128191746,-0.0424717394978985,-0.0017897310628922,0.244672678131734,0.2447000797810572,9.996965844151015
5.79,-0.0091690728068017,-0.034318321120765,0.0003464960298134,0.8511836692124644,-0.5722091856678292,10.288257766879196
5.8,-0.0009310399232851,-0.015383030515512,0.0020511677410087,1.3872417294360904,-0.7759562059764038,10.140745577274222
5.8100000000000005,0.0082146229098959,-0.0041866216909749,-0.0029005204289586,0.5087249179898518,-0.7158062896184317,10.229189924835024
5.82,0.0078875953756371,-0.0027332208341916,-0.0117093055471212,-0.2063893270143051,-0.4771947009663024,10.063947635602249
5.83,-0.0057912591634968,0.0033114947449587,-0.0169232218488485,0.2156561818140459,0.7075994141677221,10.213156494698165
5.84,-0.0159786047347777,-0.0008947094845576,-0.0160611989870102,-0.2676449747510832,0.2658810849213618,10.483266929348796
5.8500000000000005,-0.0078755098114533,0.0066781118223793,-0.0070901299788982,0.6257921507708007,-0.5766726833564052,9.702787265756797
5.86,-0.0002144588567987,0.0164347223914039,0.0096777509004442,0.6830861745004676,-0.3047968862324804,9.124904102480208
5.87,0.0032705372547865,0.0128525865517205,0.0180096634701459,-0.15772883149785,0.2670935801955762,9.062987146007853
5.88,-0.0078639447106721,0.0100360214728884,0.0276480493173568,-0.316068389639703,1.1405900324928036,8.949170296658368
5.89,-0.015140265375547,-0.0047668264994939,0.0252975550518004,-1.2760650635054012,0.6675212883691358,9.487184344205412
5.9,-0.0153076770711339,-0.0276009609991179,0.0192352579013078,-1.555786297244262,0.0209490106313934,10.016693410372936
5.91,-0.0080678402425998,-0.0360598653360505,0.011384467504975,-0.624222617911673,-0.5684947656702616,10.087956608783864
5.92,0.0026060762947688,-0.0432940043194953,0.0022287984882115,-0.1039931662949764,-0.471860503280153,10.423942835973016
5.93,0.0013412909054051,-0.0344422857928656,-0.0059509389995963,0.9837716618378752,-0.3027751769813325,10.049111304189704
5.94,-4.933077323677596e-05,-0.023770180281417,-0.0076583801730902,0.9922959285311374,-0.2543005428429115,10.160604277498312
5.95,0.0060803334330158,-0.0024753621268566,-0.011325836270991,1.854803840299961,-1.0553011634474392,10.0095989826686
5.96,0.0149696527677038,0.0291269347641306,-0.0106397625952394,2.285912876159103,-0.6555954956233377,9.497693002517495
5.97,0.0040403865524704,0.0450049945346941,-0.0103418529927165,1.2605669541910405,0.6379494846444645,9.860837074487508
5.98,-0.0045861328958688,0.0478047284684303,-0.0091280919461877,0.0075252796869487,0.7319191050785813,9.452602863846373
5.99,-0.005600691521449,0.0343904806773314,-0.0096829553096921,-1.158080686084003,0.0649792058181323,9.358640587656147
6.0,-0.0002682414203026,0.0084591141382311,-0.0104037244766385,-1.9579007033328504,-0.1036284950315434,9.308817753893988
6.01,0.00559220965924,-0.011456191221119,-0.0100748195275099,-1.308106274534525,-0.0983797565947022,9.331198910838426
6.0200000000000005,-0.0016319597328732,-0.0236825861423416,-0.0096232333182723,-0.6871560478312436,0.7851718880824665,9.690131637957483
6.03,-0.0135314524144012,-0.0232850305236738,-0.0084595364480645,0.2028413286838257,0.907609372296527,10.011311905120309
6.04,-0.0177147964141595,-0.0143646048995009,-0.0079551433175237,0.6719558375873148,0.2461210805873435,10.129277167981895
6.05,-0.0127989582244394,-0.0066658971451672,-0.0047252588867576,0.6633716466754565,-0.6111501959898903,10.282024034877228
6.0600000000000005,0.0033899473097807,0.0026498856650248,-0.0077762548773915,0.4140061903547016,-1.3690719374225693,10.145125977623335
6.07,0.0072296582657779,-0.0011214344923238,-0.0122625437527329,-0.3403904526923095,-0.3958867854582844,10.473417286543889
6.08,-0.0020144909033647,0.0074650334833821,-0.0135916872843535,0.70909523569275,0.4268972628752926,10.497888218064382
6.09,-0.017607501506331,0.0175628543272645,-0.0069907718300254,0.5293753345745172,0.7880165509299639,10.199767693999863
6.1000000000000005,-0.0146829668601175,0.0255770586177925,-0.0004103939011128,0.5444170030275706,-0.4842109750397438,9.558785714120518
6.11,-0.0042565778263524,0.0287431993339551,0.0148173942268459,0.0115221623060241,-0.5756654978878751,8.830643682619804
6.12,0.004770288600775,0.0199611494321247,0.0245990593955485,-0.8403567679452041,-0.3874028609707352,8.785026958133317
6.13,0.003370601636674,0.0020386162327898,0.0236562517509429,-1.5329545175363095,0.2999232771236048,9.013534966941126
6.140000000000001,-0.0043123033312215,-0.0172140960381498,0.0222876378372876,-1.4853670138940038,0.8016921410582182,9.630047027771496
6.15,-0.0118144441246293,-0.0350820424540051,0.011411484241542,-1.328927747202792,0.4221486896629299,10.260558447178775
6.16,-0.0074227429338367,-0.0418371220501982,-0.0002686433456273,-0.4065179621737977,-0.4162186547623266,10.480367700564171
6.17,0.0004871239607277,-0.0425941359286607,-0.0106621739416749,0.103697329541551,-0.7266960124667213,10.58633995398763
6.18,0.0111400348886915,-0.0319811244035893,-0.0128633883743913,1.044727306397207,-0.6960553437795501,10.237263616077326
6.19,0.007465444862909,-0.0102223179494021,-0.0127120372801454,1.875178873468336,0.049178902815377,10.161845330684216
6.2,0.0042359591976744,0.0200762315447792,-0.0165818287953169,2.220823547171372,-0.0150097169627546,9.7479876873622
6.21,-0.0034211070054268,0.0405135263325305,-0.0152552640959055,1.54607880270576,0.407629423429647,9.725355696237523
6.22,-0.0055844957728549,0.0426197326713165,-0.010842509657088,-0.0700943242416597,-0.0054301600381457,9.465815856083696
6.23,-0.0021361515969765,0.0277728879098785,-0.0092191464229853,-1.216214260347807,-0.2764615161862745,9.30964589502672
6.24,0.0038025534707837,0.0019507917975812,-0.0069548795893223,-1.897056533808395,-0.2010987808621739,9.180910020643866
6.25,-0.0002962571675368,-0.0217487825413513,-0.0043594577311904,-1.4084178806643703,0.5661255990316588,9.432304636332653
6.26,-0.0084301824953746,-0.0237649964275675,-0.0044375803283782,0.0276979055215819,0.6864421385000433,9.420404728525185
6.2700000000000005,-0.0129563688706702,-0.0233738939350628,-0.0036855024247796,0.3079594689376272,0.3690231285090388,9.942017421021651
6.28,-0.0079660673200345,-0.0096824134597992,-0.008742863401714,0.983158231337568,-0.4808805846368929,10.081562537546136
6.29,-0.0009416285979266,-0.0008388426150089,-0.0114057465418608,0.9218503676242495,-1.0110761591146091,9.885308025459064
6.3,0.008644822683037,-0.002603442778442,-0.0148181534334452,-0.1597444663259664,-0.8498255843784863,10.416187268464098
6.3100000000000005,0.0171467123988601,-0.0038567049064919,-0.0183031401559145,-0.3911548833567121,-1.3751809147446854,10.04880327508392
6.32,0.0146279204434762,-0.0072721614620262,-0.0147385998591215,-0.1083194138978065,-0.2432765294962833,10.197878929502387
6.33,0.0030309285910193,-0.000714508426002,-0.0110063469930918,0.4199562941802599,0.7065839909705789,10.16179884454106
6.34,-0.0070988867405484,0.0062665289098816,0.0018048031759082,0.4874923716864563,0.3438933582861364,9.958842651313589
6.3500000000000005,-0.0025683258487392,0.0130346837366591,0.0153078435957996,0.5877751501016,-0.2611847158657858,9.36771423083405
6.36,0.0110925188339718,0.0146888112780724,0.0267481085882155,0.0762110235139496,-0.5479838663493599,8.920143553305877
6.37,0.0099523815835674,0.0087402200005274,0.0315175474659173,-0.3741118753298946,0.5012994956572696,9.047207638960057
6.38,0.0047425751735986,0.0050681595889542,0.0267516494766442,-0.3483984124564759,0.7260892942869998,9.210853812607002
6.390000000000001,-0.0076866472778688,-0.0070451544531563,0.0135191082060902,-1.1059050234564356,0.9608053633566572,9.863737383715344
6.4,-0.0140877015367247,-0.0233035615936753,-0.0017000949903757,-1.3062920094301518,0.4085574677090441,10.380876599855611
6.41,-0.0087172739661195,-0.0412714252523679,-0.0121596335395605,-1.213963462529316,-0.4903267418384047,10.613124857979011
6.42,0.0019678737374203,-0.0456532025567249,-0.0197694013788731,-0.2255677023942119,-0.9091543244013384,10.313048045766504
6.43,0.0079453925305295,-0.0343983508209602,-0.0229856978132755,0.8917178345010186,-0.5854669157642182,10.004823128194
6.44,0.0045891332277321,-0.0115905502027772,-0.0174347097947628,1.9786120010201127,0.3455680568822205,10.01202678260434
6.45,-0.013691757700382,0.0190030470462716,-0.0094156173020036,2.327942896811384,1.17379910946483,9.993166957218405
6.46,-0.0186973729539215,0.0353063644233458,0.0001673619533522,0.9670351723510257,0.0575116094470292,9.821352024709746
6.47,-0.0087143362602562,0.0281015453665286,0.0061476108655898,-0.5277418344757292,-0.9430246677183852,9.571112118894598
6.48,0.0041585266099607,0.0125683334258226,0.011077275410351,-1.1603989719275756,-0.7191187860447547,9.05429110967619
6.49,0.0029374541569293,-0.0077656621317931,0.0103789082766144,-1.2654399931769056,0.3553545946137119,9.083542099227357
6.5,-0.0062173843742037,-0.0205679538721383,0.0027479513353301,-0.6990820067519049,0.587607688434864,9.208732701414748
6.51,-0.0113052733337886,-0.0178754206778282,-0.0056006145625741,0.3207613445639902,0.0995801711075397,9.353047525936391
6.5200000000000005,-0.007739060367805,-0.014897414149961,-0.0165320998951227,0.3040580967840434,-0.5486351631480532,9.82819110825666
6.53,-0.0004011164229164,-0.0045230972901333,-0.0166423759385378,0.8275983460289494,-0.4611967850951318,10.07774317600503
6.54,-0.0040088441092093,3.293295035921884e-05,-0.0159476204737455,0.4155244581015663,0.1214471053373272,10.492082550178838
6.55,0.0017662214778649,0.0012763519221135,-0.0126283942683966,0.1108206833288243,-0.5398861597948093,10.330596876877411
6.5600000000000005,0.0124923746253599,-0.0034599673211495,-0.0088274265601666,-0.1507983426790783,-0.9745773155949516,10.431192961830202
6.57,0.0182044159853744,0.0085751686969808,-0.0083834958224923,0.8440686165470304,-0.6196561874416193,9.97372246498647
6.58,0.0049388361253536,0.0194254084309764,-0.0054023797585995,0.8880536989923878,0.8871473006583581,9.999556310785804
6.59,-0.0114743386381122,0.0272197171254819,0.0076060266271798,0.5759126530015732,1.2163416178086848,9.828848147741526
6.6000000000000005,-0.0156129015977916,0.0269182537898357,0.0152998463288514,-0.2090775924569429,-0.016563677473476,9.443079779954951
6.61,0.0019071361615524,0.0214606456854348,0.0270211947188346,-0.6292116194895848,-0.7920421158012174,8.85166369489416
6.62,0.0109833194262431,0.0030968028147955,0.0311864101365773,-1.475841037052003,-0.1603167856619582,9.073617622536554
6.63,0.0008845890814587,-0.0173854744724587,0.0289133460298745,-1.720348353537366,1.255516068463374,9.549635230211292
6.640000000000001,-0.0142205356517991,-0.0389057985598488,0.0155947999135224,-1.7566911676571588,0.9707633683518948,10.180822699277154
6.65,-0.0143464649763243,-0.0530909704684176,0.0030821324596746,-1.0471505021891625,-0.3080374227730694,10.460682135789664
6.66,0.0006480998292754,-0.0512885421003338,-0.0069263867064745,0.3778609280666988,-1.2667423962196165,10.350195540543384
6.67,0.0093756936799547,-0.0334033760035143,-0.0121166874616773,1.2611410244040726,-0.7332448113556527,9.9461592334485
6.68,0.0049101423115146,-0.0197958579298881,-0.0137516428678662,1.2387899045374964,0.1339653104750383,10.015952927000043
6.69,-0.0006104175145676,0.0070670327816633,-0.0120025641247065,2.068123321286192,-0.0423464996923982,9.894386345567538
6.7,0.002237202946065,0.0335650628274229,-0.0134653580337197,1.8486474103734845,-0.4872091330555373,9.761344885773733
6.71,0.0040179275765742,0.0466340937249427,-0.0089002652987272,0.8557501093084295,-0.2248391397023232,9.750763376162066
6.72,0.0030741486036893,0.0427579415661385,-0.0035419143698544,-0.6927213668912928,0.1061813856678509,9.532812123611452
6.73,0.0060940347775441,0.009209501344763,-0.0042424859441251,-2.5281492517693747,-0.0895285165727336,9.741076899337209
6.74,0.0025913652885104,-0.0200169246719278,0.0031040051524161,-1.799104037150599,0.5392386851232045,9.277716844188928
6.75,-0.0027179671311317,-0.038872113764194,0.0015155130074691,-0.7186370528586586,0.3631622409651059,9.283630938439524
6.76,-0.0031834755758756,-0.0343932320012185,-0.0006100937919126,0.7809334660037502,0.012933947587489,9.139203781185412
6.7700000000000005,-0.0050293287470698,-0.018731023111864,-0.0049620429947407,1.3730570063934764,0.0845172754097319,9.628137807042451
6.78,-0.0003087417388601,-0.0053563806891813,-0.0108305738269717,1.1413923334934155,-0.3718100919994782,9.860022993244929
6.79,-0.0018607256929999,0.0028322880219379,-0.0163394930734665,0.6202820707998086,-0.2195218130117484,10.3273888066578
6.8,0.0061145248585977,0.0069082089051877,-0.0152511439248354,0.1447546824058927,-0.9416556910815448,10.244227883330456
6.8100000000000005,0.0236112724330285,0.0036952562475401,-0.0142445164694817,-0.0270744497401366,-1.671557549089076,10.470056091436286
6.82,0.0190123032076326,0.0084700152088819,-0.0124960244595439,0.7332867875590694,0.3261314922933104,10.396910797032188
6.83,-0.005990014926858,0.0278356264730936,-0.0004560382533253,1.6200062665783712,1.5496384207434757,10.031700312080494
6.84,-0.0170379816061449,0.038853769062832,0.0130153614134161,0.7616557945803436,0.7923568814814438,9.54054886034984
6.8500000000000005,-0.005817940268534,0.0324833102819574,0.0205501047000853,-0.3911078459537964,-0.9722735937809528,9.25265569230684
6.86,0.0099625545218347,0.0178270058655621,0.0306167238429753,-1.005790913773026,-0.6046419488094181,8.923494418239274
6.87,0.0142476204036919,-0.0012852308537937,0.0269060757980315,-1.2406159345137366,0.2611223449271066,9.204817369690604
6.88,-0.0028002105498621,-0.0084438184929264,0.0192831073925464,-0.7069344288092538,1.4426754798381982,9.468459866360693
6.890000000000001,-0.0111588614708133,-0.0194690938910634,0.0064965131730406,-0.8876712817509916,0.4439550074698473,10.26007671440552
6.9,-0.0073808089747209,-0.0285866238377609,-0.0032409933357865,-0.5194597553520365,-0.5633147288043333,10.475162334944091
6.91,0.0057856028368349,-0.0219301917654157,-0.0075704623907239,0.5471970482445266,-0.9224356342885658,10.126056074129316
6.92,0.0122223080968315,-0.0140848129679674,-0.0092796022965939,0.598644666283813,-0.5081756817720788,10.043062700682306
6.93,0.0071917212372329,0.0008349354841095,-0.0036813002973229,1.2642294982675903,-0.1615798941813312,10.033954514073775
6.94,0.0146496021216204,0.0220249399069967,-0.0043852250985236,1.6385505740742443,-0.5691355480327878,9.792413260285562
6.95,0.0057777714844557,0.0387346687457042,-0.0005950405923084,1.304255927009112,0.3150967086859195,9.901784663709783
6.96,0.0059113957136507,0.0533266200235438,0.0011848847332277,0.7400819647667105,0.0168931341292222,9.367340228177856
6.97,0.0083430047846493,0.0424960788154095,-0.0007797662130923,-1.3020692846420494,-0.1967856212995703,9.42010351919931
6.98,0.0042052571283111,0.009931865511854,-0.0038282196930975,-2.5364746380671086,0.4710506027331383,9.645066267258375
6.99,0.002400008813749,-0.0187182610419838,-0.007273781202677,-1.9227088611949463,0.4835078234575686,9.422499061398485
7.0,-0.005326290382789,-0.0368485057425793,-0.0126132248863012,-1.4038593266735957,0.786655513939206,9.904835720710809
7.01,-0.0102279401321676,-0.0300599296892165,-0.0128125754147203,0.741256257688085,0.3991281155505867,9.891088026371737
7.0200000000000005,-0.0077435006685495,-0.0139369505037652,-0.0113577545582683,1.296123239191765,-0.1628345093807758,9.948582428512438
7.03,0.0003469495061973,0.0030928187975971,-0.0106614605485827,1.4395186678997072,-0.6312538290239292,9.94872369342877
7.04,0.0054694367776061,0.0174557240609441,-0.0105143693237931,0.8404703819585678,-0.6086859684630059,9.862127326888608
7.05,0.0114185171954758,0.018873987666315,-0.0094777923970849,0.0292546637683776,-0.847236675884948,10.100675486053447
7.0600000000000005,0.0068126962912164,0.0123946935122173,-0.0093332976996333,-0.2813777251549751,0.2515661904994799,10.279004420522464
7.07,-0.0046282833650382,0.0213845076237983,-0.0061708577870757,0.6336966758951285,0.3799836961693123,10.031634873439096
7.08,-0.0102033733667455,0.0217556118372659,-0.0003328324257762,0.072333921120076,0.2630846799894952,9.898835266996434
7.09,-0.0063519210042164,0.0180758007897036,0.0106007698029844,-0.2068381978079508,-0.3249018311827465,9.627648373009622
7.1000000000000005,0.0026733281590912,0.0049150171927382,0.0168073167130916,-0.8747046472557765,-0.292740139401069,9.396194222644947
7.11,0.0052982565097779,-0.0020534776806585,0.0211152237877814,-0.4692682389752693,0.2794121763102612,9.20563777052738
7.12,-0.0021051681128483,-0.0073282956981582,0.020105716683027,-0.2743982049841009,0.7858862768033436,9.451210805491815
7.13,-0.0079310862044125,-0.0085196222079656,0.01510305600619,-0.103708075617455,0.4404392256011517,9.69353999830156
7.140000000000001,-0.0043272098696684,-0.0134328537815926,0.007994116660264,-0.4218897626748251,-0.3091685286862305,10.043111126428514
7.15,0.0006884563729886,-0.0168530090060051,-0.000916961204204,-0.3020982493599319,-0.3572273054015854,10.07995931407817
7.16,-0.0024102580020986,-0.022170107307929,-0.0055139326452643,-0.2683966722175943,0.0385307934056385,10.229789133836194
7.17,-0.0039978976479258,-0.0193310789602765,-0.0096515576317341,0.2506971661974517,-0.2170086678175547,9.937696483505984
7.18,0.004146767938492,-0.0018994581431852,-0.0095482357739837,1.5288582698572202,-0.8693387033454066,9.99478410019312
7.19,0.0095328959746552,0.022513168463811,-0.0064159050546021,1.95339251082258,-0.4164859016561597,9.956359107031451
7.2,0.010342209405039,0.0478954826261852,-0.0001381683125526,1.9219669679846845,0.1553469463667219,9.728318827433196
7.21,0.0015848707644059,0.053955050114913,-0.0054543051830859,-0.0485017765268195,0.4745167021519461,9.659260553633422
7.22,-0.0071826272083439,0.0312352487289721,-0.0032415404877991,-1.7359517850235575,0.7412704727327684,9.84632406427158
7.23,-0.0058053006065704,0.0023936097208475,-0.0024847202896506,-2.1755044928428875,0.1101870162603246,9.376817641507447
7.24,-0.0064352465535959,-0.0211878036403733,-0.0075078654065163,-1.5637007276372883,0.0876081936197297,9.41611409275442
7.25,-0.0071145156844481,-0.028496500908227,-0.0130568752958805,-0.2710180132376366,0.1094043661549545,9.267157771092576
7.26,-0.0086305670097842,-0.0163125611677871,-0.0099235066174895,1.120661513118603,0.1921010974220258,9.483902025007907
7.2700000000000005,-0.0087576729557711,-0.0007049566316525,-0.0097380151003034,1.226485186056165,-0.0725838073462201,9.922932238228864
7.28,-0.0036651856283951,0.0139017393490454,-0.0097366590946347,1.0412544992392156,-0.6171568475148242,10.204599350649223
7.29,0.0057092050763435,0.022105889092778,-0.0083686039745242,0.5237634980848596,-1.046322300337045,10.396547299382917
7.3,0.0177543777347077,0.0201192256021936,-0.0048435834198625,0.010157539477363,-1.2806149945868168,10.613904154277884
7.3100000000000005,0.0184677419149204,0.02329335923134,-0.0075744586958916,0.2187153853337506,-0.2889240667386626,10.38699879482922
7.32,0.0032025730993511,0.0302100912980545,-0.0016127045694173,0.6690012658424819,0.8136618014131813,10.062226771983555
7.33,-0.0083515035899792,0.0357830949247932,0.0036494109351752,0.2823293860499857,0.75581703381567,9.424252781188663
7.34,-0.0068179388761859,0.0276852305814833,0.0132638773918716,-0.6934578079554625,-0.1038842316045037,9.187952467566912
7.3500000000000005,0.0014977794122602,0.0154810973220559,0.0233305980489222,-0.9097204135113508,-0.0528813885127565,8.8673737214332
7.36,0.0057637802587638,0.0020460456898852,0.0259353452399938,-1.166897452756305,0.3593828516327769,9.088394287979064
7.37,-0.0051559600723957,-0.0160635926596036,0.0212231547609536,-1.4952007040108897,1.2846645977023956,9.86337445821272
7.38,-0.0147378824739475,-0.027702771670974,0.0143081936091749,-1.025096965142797,0.6748206076183223,10.45312563474223
7.390000000000001,-0.0095404562808464,-0.03959376902787,0.0047925137021212,-0.8959807384365369,-0.4930374505217795,10.676128895141144
7.4,-0.0045166868524612,-0.0330480127231383,0.0003042741716473,0.5235272431331183,-0.3975153995323054,10.22980026870609
7.41,-0.0026147131430648,-0.0186039358765129,-0.0036440613641769,1.015861791682774,-0.3484353932675272,9.751305864564982
7.42,-0.0022736633246426,-0.0034523747813194,-0.00961168957496,1.208114026380718,-0.5012908313812657,9.80625263566956
7.43,0.0024934422648665,0.0239578490267046,-0.0107621039226086,1.974954889227802,-0.8685002266484794,9.494136914025889
7.44,0.0057431283667315,0.0409332716580005,-0.0095332172661454,1.2176443969944433,-0.4384517983789271,9.706687083826246
7.45,0.0057682577200736,0.0504312495179336,-0.0053237458653183,0.5457186737394408,-0.166151908591512,9.615384815983838
7.46,0.0054521791874283,0.0394600787603766,-0.0069269622638256,-1.2075109543265,0.0361183401263861,9.60199890179861
7.47,0.0037307514723045,0.0050423951245913,-0.0047554034701914,-2.3874319505839585,0.131129505799793,10.043945517596498
7.48,0.0034369479544523,-0.0210607245553441,-0.0014537706467689,-1.765601776811047,0.3021384458239834,9.675853628721429
7.49,0.0026760707759111,-0.0327656427089178,0.0018730565477727,-0.3557571397439073,0.2753225251927379,9.68147920808302
7.5,9.367911836954024e-05,-0.0274384397312231,-0.0007815888113708,0.6758131842723144,0.3480036802400255,9.37888757668027
7.51,-0.0015377639659063,-0.0062538734386301,-0.0016584939751209,1.5959564428047737,0.1283080629266698,9.487585001616967
7.5200000000000005,-0.0010327059162205,0.0024495850932037,-0.0077243979051144,0.535345718434591,-0.0837568686500546,9.903502420286904
7.53,0.0015794290186646,0.0103579227893876,-0.0087232488169701,0.4582635969018006,-0.4784636719101375,10.236807174412382
7.54,0.0170465043830261,0.0030003841766898,-0.0103992857932479,-0.6531661998028198,-1.3534841784001377,10.355107723835609
7.55,0.0244833244239449,-0.0014623259957193,-0.012194749988559,-0.1555597970073387,-0.9570598478092036,10.537769810333208
7.5600000000000005,0.0160523458873461,0.0105660028252582,-0.0086818058937223,0.981584481334256,0.5081484094441185,10.084492595035735
7.57,0.0001303072235532,0.0298118421620335,-0.0017002768311084,1.5291514706176788,0.7917785828793259,9.79732751254543
7.58,-0.0018527241191501,0.0449923799650064,0.006362756159213,0.8511282495415947,0.0394621462824566,9.162699453044148
7.59,0.001816931861718,0.0370363654434112,0.0197761626020638,-0.7124115645479492,-0.1450348795944084,9.286213322544707
7.6000000000000005,0.0095690926805266,0.0116623255176888,0.0244905510023801,-1.892632194715648,-0.0673875895738793,9.316280982921484
7.61,0.0067789576421731,-0.0070493852500568,0.0232060913965671,-1.591346048135844,0.6786623410800278,9.450606208279146
7.62,-0.0048641591560561,-0.0310141411153158,0.0155287197828857,-1.8804235503099849,1.0019156981623076,10.189204507685329
7.63,-0.0049357012341502,-0.0467299452562395,0.0093557060734002,-1.0953208761180062,0.1984415326203993,10.376442228454431
7.640000000000001,-0.0045739655706831,-0.0466285493449976,-0.0002739485082582,0.1023099650193438,-0.0538857372089649,10.247892959119222
7.65,-0.0018639558426908,-0.0315504371212463,-0.0063281148634285,0.9571720474000968,-0.0894739536059564,9.992407876835296
7.66,0.0040077425723758,-0.0094978261482202,-0.0074035880118043,2.8827834080081054,-1.0305318853549033,8.754886348464055
7.67,0.0051468166201092,0.0077186236839462,-0.0033389912880392,1.22038352222227,-0.4494824083635462,9.82834956934618
7.68,0.0127389446991646,0.0268633083489423,-0.0065057334452302,1.2904251598100562,-0.6994846326935257,9.948260990249388
7.69,0.0051243965712684,0.0364432185975814,-0.0029430036395223,0.3890732128589066,0.3026972961491392,9.958926505418487
7.7,0.0037140474724618,0.0314643382941495,-0.004072247628066,-0.479612917432152,-0.0585586246812037,9.928674372409834
7.71,0.0034860469427867,0.0060910371515733,-0.0006907764784426,-1.876925953990909,0.2554958310641446,9.744815068814075
7.72,0.0002246038784868,-0.0214336514022712,-0.0018812996297509,-1.6987185720238915,0.3995163060595761,9.66820035339892
7.73,-0.0068600648432781,-0.0318343081863883,-0.0036064480393559,-0.6108797584406027,0.7009709336470104,9.238577239134145
7.74,-0.0032315470838058,-0.0325458792962183,-0.0069366917907626,0.1040390019540887,0.0401753170590405,9.23479869312262
7.75,-0.0108466963126693,-0.0288702002696788,-0.0094271778091223,0.4158235816201141,0.5598804920974859,9.780257575857066
7.76,-0.0085941240190081,-0.0239858898134943,-0.0107016759886772,0.4345518458805046,-0.0156952810003469,10.003853334193089
7.7700000000000005,-0.005918268649937,-0.0147992348804457,-0.0129726846664578,0.6234655816701957,-0.1700721244215839,10.061321192701872
7.78,-0.0065706719663669,-0.0094550720538827,-0.0147357537373335,0.2884696140339425,-0.3683081129922271,10.098073748371306
7.79,-1.3402676503716173e-05,-0.0089857351311974,-0.0133595849349529,0.1621529247444104,-0.8358420692144573,10.298209304553971
7.8,0.0055641840673364,0.000739973049924,-0.0080011404081614,0.9371288525021492,-0.6471757627637674,10.211200321296587
7.8100000000000005,-0.0039169767769728,0.015985479809347,-0.0014180008749843,1.1678360101478038,0.9169696524647178,10.188827180075716
7.82,-0.0262071866779091,0.0307739290755478,0.0105103337243764,1.166103900911822,1.265795012748449,10.120471571480348
7.83,-0.027086447024853,0.0366030337586971,0.0246747237668006,0.4991438743944953,-0.0150125400821347,9.494965417031228
7.84,-0.0051928708486773,0.0269804975135978,0.0321270068213908,-0.6942840429107645,-1.2714357929782147,8.943354663964355
7.8500000000000005,0.0039501510041262,0.0119025787930581,0.0331903648600547,-1.1564182491572232,-0.2220929023551854,8.73488653194181
7.86,0.0001887405907364,-0.0046181169373686,0.020383982829806,-1.3615479261360128,0.4417668993310507,9.096048130321009
7.87,-0.0096660872629538,-0.022663161282346,0.0092635805756418,-1.3866789364638876,0.7464272874633342,9.789352830851914
7.88,-0.0146573575366635,-0.0315609652124573,-0.0023330686110438,-0.968980615423659,0.0735544443356464,10.356146865282527
7.890000000000001,-0.007696934073223,-0.037452094743325,-0.011571498677078,-0.4327365129913165,-0.7338786687015785,10.607428532161869
7.9,0.0033712998551669,-0.0312002086880656,-0.0132441353946359,0.4904147496135825,-0.8479998039164722,10.352092933096245
7.91,0.0073464153423405,-0.0147938306067731,-0.014031877830568,1.3109642010167764,-0.566435223270444,10.369922602121862
7.92,0.0095685753499622,0.011830601535711,-0.0082140239849121,2.2227959091282403,-0.2517967987962406,10.19062408219819
7.930000000000001,-0.0014517951926293,0.045370553873557,-0.0050832117869885,2.3137286028952286,0.5223971411998123,9.746522133996327
7.94,-0.0019928933846709,0.0604929548971406,0.0050084650554327,0.904762690011946,0.0631920972525151,9.414670903292976
7.95,-0.002287101308954,0.0424543906860606,0.0101686668620078,-1.5439551031211751,-0.0286633519349244,9.371370653359111
7.96,0.0030426576897545,0.0082267737741156,0.0097194620445935,-2.504537358341204,-0.1499798718438946,9.25039038152872
7.97,0.0036572585260294,-0.0244563204898547,0.0040143210478691,-2.203519042279437,0.16409085245524,9.240814531960188
7.98,-0.0053427963394701,-0.0350459272179144,0.0026812324338226,-0.4247123423651657,0.7711324238790498,9.427662458162606
7.99,-0.0076562657883514,-0.0299899656385327,-0.0049733464568288,0.5115469253209781,0.0774428636939252,9.6623515243514
8.0,-0.0044074821582866,-0.0177449762352801,-0.0108662676959664,0.8974628001084864,-0.325943970320444,10.060192726179595
8.01,-4.312311234010294e-05,-0.0084768382035497,-0.0140592177360684,0.6979297201862067,-0.4203280147656449,10.379669037008016
8.02,0.0042751401542086,-0.0035198919107339,-0.0185303530617983,0.1642280171339973,-0.6774635307514221,10.324802756045877
8.03,0.013569652672371,-0.0078453528023806,-0.01669495096052,-0.3799794687637906,-0.9654854583161576,10.16507750072043
8.040000000000001,0.0231154478367462,-0.0083757659694204,-0.0105085625275404,0.2011620878625309,-1.0324334710056022,10.02540984215042
8.05,0.0225857943580598,0.0018346693939621,-0.0088062613233358,0.882632375395359,-0.0480663496906577,9.766766996436507
8.06,0.0030690580681727,0.0209702198888401,-0.0007232868540467,1.5089643394585217,1.4089556658297682,9.729692281474303
8.07,-0.0126175782559334,0.0332537195251352,0.0109921972305147,0.772985900755014,0.9429898291727198,9.743443849230523
8.08,-0.0070862248311967,0.0332482990045326,0.0212862947062222,-0.1336861431400693,-0.5417364464999455,9.53144739549505
8.09,0.0125018707803073,0.0216626981550458,0.0300181814507214,-0.9732232371494216,-0.7754947207550361,9.264144610460557
8.1,0.0099522797340926,9.240630567519144e-05,0.0309997675046889,-1.725498466258441,0.8369210044474275,9.608546745610534
8.11,-0.0084981447304659,-0.021696301926975,0.0259815779552428,-1.826065387019796,1.4580895871090402,9.974392528358694
8.120000000000001,-0.0122829987546801,-0.0432584822078036,0.0134277929589717,-1.6220137463093012,0.1731236361653858,10.185135241511135
8.13,0.0105844796400117,-0.035874735967836,-0.0089386292695434,0.3973092582634678,-0.9023228176903336,9.701071340432016
8.14,0.0013482001124063,-0.0190715182108958,-0.0160227241888077,1.1577868485083906,0.2502588945272009,9.904692951100184
8.15,0.0024836227098733,0.0055906516360142,-0.015620856635216,1.8637670434566151,-0.5659419750501575,10.058144781958692
8.16,0.0078127928939132,0.0279950552334392,-0.0098054773136408,1.6653278556073965,-0.3475361355765421,10.201155195464596
8.17,0.0064686165412364,0.0404083019489971,-0.0037977910562784,0.9748551827028072,-0.1654551061761689,10.234881011656377
8.18,0.0019587213485467,0.0398257775134835,0.0031749046445457,-0.1692898897375743,0.5089116055621384,9.875424948820346
8.19,-0.0066819549941777,0.016776647763174,0.0059442388862936,-1.527105647812548,0.7052876656231397,9.834776160923528
8.2,-0.0095385096293945,-0.0091302085382474,0.00434308932541,-1.631565169827276,0.4766175913076295,9.33780027982364
8.21,-0.009087512300841,-0.0234125242423255,0.0013620477163914,-0.6629562183001232,0.1342783913998281,9.072322117158818
8.22,-0.0078612894829475,-0.0205083107487741,-0.0046255426443548,0.4644037815884174,-0.0351285370132001,8.942563185352688
8.23,-0.0023926744536959,-0.0149985639461913,-0.0073806104212434,0.7895312986040532,-0.0663860848723712,9.344929597712852
8.24,-0.0124830102052993,-0.0040695690866719,-0.0127424738332064,0.5976625400102791,0.6381794851469654,9.922818756262307
8.25,-0.0173036068894519,-0.0036215975593762,-0.0145245800688297,0.0499179008672768,0.097481937462025,10.54880171155856
8.26,-0.0134860028435532,-0.0061245325643775,-0.0155910058840544,-0.0895534313944246,-0.6819266405739246,10.59235055678058
8.27,0.003000066149411,-0.0072795767742759,-0.0114812851845653,0.1403396740668131,-1.5509467641717156,10.32534369029292
8.28,0.0220887602562686,0.0047487647694873,-0.0107481461911828,1.07131885166524,-1.6642316968051245,9.950676700921752
8.290000000000001,0.0222179799841901,0.024183089578144,-0.0063256286978156,1.4537966391013126,-0.0680227834988676,9.632152661883158
8.3,-0.0011141122038696,0.0459255745953281,-0.0001233288514794,1.5476821392580855,1.5021041174037315,9.598210743948664
8.31,-0.0155397004863203,0.0500487546733118,0.0091203250028757,0.0033698545466646,0.7351599942368867,9.599855920453203
8.32,-0.0064991705002548,0.0359549251298522,0.0219430782870023,-1.2309722181363472,-0.7990207670724948,9.459249169624677
8.33,0.0095572200921381,0.0134504014995168,0.0305623141155211,-2.0037496669097097,-0.5159625966708924,9.273579968903988
8.34,0.0085204770435328,-0.0194099324890057,0.0344537151083915,-2.5492074131619926,0.8979822547835707,9.785437427928942
8.35,-0.0105371245394602,-0.0391045479241715,0.0260692936406104,-1.743548536411069,1.6806779302799009,10.031393311961914
8.36,-0.0210255209501614,-0.0482673072247829,0.0184427005276648,-0.8573913951067059,0.6514051290988515,10.189152311932752
8.370000000000001,-0.0108679951365188,-0.0448609716794983,0.0079299154729216,0.2817234014489703,-0.6847744448242213,9.966036866584812
8.38,0.0003505860278795,-0.0300070322982315,-0.0028955127074749,1.1242777920996674,-0.8312962682550009,9.845453862756496
8.39,0.008240141019532,-0.00554191098843,-0.0093734339773089,1.684750868247182,-0.8476874431629966,9.718810870139098
8.4,0.0092363366658294,0.0341418233936821,-0.0175836115106375,1.1472200543168702,-0.5957628313430938,10.000704980941457
8.41,0.0078097572681918,0.0376390327333667,-0.012509836904648,0.1377542033799029,-0.2798576428498811,10.043745126953787
8.42,0.0098280865528952,0.0279637197139208,-0.0123138233050139,-0.8978624246896946,-0.3447144190374139,9.6868421063873
8.43,0.0063537623558096,0.0046947915219452,-0.0023224904164106,-1.61160420544346,0.3642500029842974,9.666406558619478
8.44,0.0043778697631409,-0.0175858345980411,0.0037807004098414,-1.4098197335895748,0.3655947458265813,9.392671661644636
8.45,0.0112765818150419,-0.029575512243074,0.0081500079520611,-0.6828232118456626,-0.163628797706415,9.292158460936047
8.46,0.0097848483931227,-0.0430648016855264,0.0059037826993136,-0.6448259880194623,0.3196882338839041,9.9031705240798
8.47,0.0057225467346941,-0.03843472365904,0.0020222859145707,0.6209280984373116,0.4533831172243295,9.927483700938062
8.48,-0.0023344391598687,-0.0280880958243138,-0.005468589343074,0.948396256730736,0.4997255573465818,10.05434921215378
8.49,-0.0003138894731188,-0.0087914452756943,-0.0132195997014076,1.3851830900183923,-0.3222194912992054,9.693945888941473
8.5,0.0054714968026243,0.0022114631703596,-0.0209547328724892,0.6968402167728818,-0.6997570053406122,9.521053856501265
8.51,0.0147534388974016,0.0031116678798725,-0.0216329629495174,-0.0210699895599141,-1.1619416532853653,9.688323911651729
8.52,0.0191688585121943,-0.0013494378414713,-0.0172994836195738,-0.1572149294474704,-0.5442408237444288,10.03034230336944
8.53,0.0110254632182331,0.0078165790280548,-0.0042968956715793,0.9764086355778008,0.7089156675526799,10.16698720703015
8.540000000000001,-0.0039702432166916,0.0202511829289134,0.0071071129330067,0.8363460214835746,0.9855048562356352,10.246910084641105
8.55,-0.0067087106618701,0.0201738088332253,0.0203366995826928,0.1072666883231304,0.1653125973699772,10.30301437521917
8.56,-0.0007866450055672,0.0127316845275021,0.0309659232423274,-0.4729137673978222,-0.2952094104867056,9.84854665591729
8.57,0.0099427331833782,0.0013315926659933,0.0326333408281772,-0.8805424313718823,-0.2606839677552804,9.353857478650289
8.58,0.0030786415249314,-0.0162878593613492,0.025198158718702,-1.552158488933853,0.6441933940206133,9.434091345605262
8.59,0.0003784701062566,-0.0357720791486116,0.0149085632563202,-1.6191730459451268,0.4970083935549692,9.415916304686435
8.6,-0.0066872851420969,-0.0482565813191204,0.0005348997344827,-0.7676602355516214,0.3672945654783361,9.466780233057465
8.61,-0.0040030069896152,-0.0468420293157522,-0.0070325295403034,0.1071201840681906,-0.5012886983266979,9.472723609103916
8.620000000000001,0.0012652840365398,-0.0362834548452234,-0.0138395969718129,0.9592470405412624,-0.5997460960100233,9.781996626266514
8.63,0.0087265805259297,-0.011663781224925,-0.0086406581997306,1.8295274969776107,-0.7661186700428108,9.95091441937417
8.64,0.0211626343917527,0.008986697258958,-0.002452101182136,1.6330742639532827,-1.0437785901755812,10.275316449424594
8.65,0.0201411865740379,0.0241635337436998,-0.0016386973168135,1.176085150648792,-0.0838182505857754,10.47829171661241
8.66,0.0094738768525613,0.0366570729783212,0.0024721361967368,0.9132917013967302,0.5825045992833077,10.277612806326196
8.67,0.0013931209321776,0.0326564771849387,0.0048850948494492,-0.1552924267414986,0.2840182327153577,9.904453567476796
8.68,0.0130186451161548,0.0236920011250282,0.0037680705115764,-0.6835422753430004,-0.6802731342309036,8.96355919337292
8.69,0.01124246297989,0.0005445810419389,-0.0026808381974132,-1.5988822955541877,0.3545138342349871,9.04029971768794
8.700000000000001,0.0063651092030743,-0.0156909464445649,-0.0050096373035938,-1.037837607320189,0.745064856118655,9.001830516623492
8.71,-0.0047105890155898,-0.0246731266503836,-0.0094705560206801,-0.5099997518382157,0.9200072836428128,9.372020836797065
8.72,-0.0110187226081055,-0.0341949891177749,-0.0129070534333021,-0.9404737614680284,0.6550812293928241,10.596314034575942
8.73,-0.005627207308833,-0.0268146941671774,-0.0123725040777952,0.6478570197975556,-0.2443054504946463,10.275286017645314
8.74,-0.0004219705110401,-0.0184848753678696,-0.0119099524765641,0.7431069259008698,-0.403836446817577,10.403968013262157
8.75,0.0057939432187069,-0.0059320061309661,-0.0132393074184091,0.763640650056908,-0.7980174364857672,10.177626213923606
8.76,0.0158355321661088,2.3131285031517583e-05,-0.0091771409809024,0.6295044835084707,-0.9845319404633136,10.199061935988723
8.77,0.0165247702151712,0.0134581611417769,-0.0074163489937217,0.9371511078618436,-0.4123852957902789,9.92776308744177
8.78,0.0008445756035574,0.0368019936746286,-0.0036098021976084,1.604211092367968,1.0184068105891797,9.61498747185414
8.790000000000001,-0.0112383668880391,0.0392447834717778,0.0095734222829906,-0.0062577581946022,0.6607092818423113,9.789225068194096
8.8,-0.0067422138558482,0.0293974375335406,0.0199635596052377,-0.9749985465707328,-0.4803182138407865,9.483596278924516
8.81,0.0082153744609513,0.009160023011571,0.0281934001520841,-1.6860048037232396,-0.6787921740612182,9.2764929174219
8.82,0.0090929516735835,-0.016234895850825,0.0321158961430756,-1.8413190619205408,0.4276841480490819,9.469333777984964
8.83,0.0038377606311138,-0.0355677787743954,0.0237381150052516,-1.8121282146309072,0.8475197335223417,9.941413338851222
8.84,-0.0044555555368241,-0.0515616492245422,0.0114424050823419,-1.2308134630815628,0.6028072404497961,10.261286477630769
8.85,-0.0052779399736953,-0.0525916420202774,0.0013369589407903,0.1685097216268867,0.0737913603096232,10.118140325078496
8.86,-0.0012655691040158,-0.0365013612412079,-0.0069635678976209,1.2262381536378748,-0.3700407631410676,9.737348214039214
8.870000000000001,0.005378956780203,-0.017936689095103,-0.0118060494735271,1.4181904048986695,-0.5520929587766485,9.602339444370935
8.88,0.0105893111257103,0.0035149041379729,-0.0129791610836417,1.6910203929261036,-0.8768676021850642,9.795429461220431
8.89,0.0166967212545051,0.0201185988094822,-0.0122610880955488,1.1798076657365173,-0.6848383280301381,9.817586884284792
8.9,0.0116995699681759,0.025501369260068,-0.0071877707689435,0.7660724461658379,0.2198280810210472,10.211731586413688
8.91,0.0038162277982657,0.0275021291170618,0.0015628840462869,0.3163721342344191,0.5414513391154263,9.96110599767054
8.92,-0.0018540119261545,0.0152995997350155,0.005901154507008,-0.5371048781131438,0.2374261219885559,10.04415479043841
8.93,0.0082668293271424,-0.0004009782915011,0.0083471456580429,-0.8935883373958956,-0.3472759429972063,9.401790105996636
8.94,0.0077210569861592,-0.0114252414481672,0.0024854365308402,-0.5085886451995675,0.2189878303053272,9.361073205803493
8.950000000000001,0.0062678459285822,-0.0145868880048381,-0.0034131511076719,-0.0224211817242738,0.401745955822804,9.16668967395162
8.96,-5.1761709141115846e-05,-0.0148389281137568,-0.0118306196256907,-0.1181588905835077,0.7237259473878122,9.50180716717078
8.97,-0.0125005623007176,-0.0193650817583182,-0.0177379558756382,-0.4914862572490495,0.9491285589377166,9.978440087041095
8.98,-0.0136364771170332,-0.0308603844099282,-0.0188177331312925,-0.6153708491647526,0.0479565272220766,10.274795214714777
8.99,-0.0046599162686569,-0.0270238051833532,-0.0197284567132027,0.1640361866160474,-0.8221620148912568,9.91302456453684
9.0,0.0057806796071876,-0.0216572863244395,-0.0193896024450094,0.3276634258138234,-0.9319063036105412,9.837245908061242
9.01,0.0094133495654677,-0.0059223736360442,-0.0157473619058163,1.3545342382909815,-0.544374625342404,10.166930106926548
9.02,0.0110062624830039,0.0115482246208282,-0.0113379909619124,1.4753410322317988,-0.1319974256345142,10.209224771710124
9.03,-0.0118213488622187,0.0361311135128016,-0.0031818273439438,1.7989172155220066,1.239383792278749,10.356519137397296
9.040000000000001,-0.0167253798938115,0.0509506256818143,0.0105578702912299,0.6830787468811281,0.2177370275461867,9.806463222074974
9.05,-0.0088979506965753,0.0377530567869027,0.0231285234019725,-1.0101266523144417,-0.7816412328080284,9.687071304367173
9.06,0.0059356730696008,0.0180149621524608,0.0339502570257155,-1.7279232074392072,-0.4954878746441511,8.97593197741611
9.07,0.0004415210357866,-0.0067015060536037,0.0393341210708587,-2.063348135467177,0.8713795757655345,9.077180775952527
9.08,-0.0108628873599389,-0.0306234113340728,0.0343591523394553,-1.983307376466911,1.1935333791275862,9.407844733200278
9.09,-0.0120190363280464,-0.0553659469235912,0.0235471827015845,-1.7971018868658406,0.1143178995207397,9.999242719110264
9.1,-0.0037022883896981,-0.0597884963644459,0.0057537359223334,-0.1788514985739875,-0.614041489937505,10.040882132506235
9.11,0.0003353466858108,-0.0465923488477372,-0.0054537259004445,1.180092388788189,-0.2045253557025912,10.078521035716902
9.120000000000001,-0.0025685680039638,-0.0210048406479461,-0.0150256725921661,1.9404474435405084,-0.0442861982472203,10.116175804703689
9.13,-0.0001694506413954,0.0060975839623075,-0.0179306427910358,2.041240527386793,-0.6064683964457221,10.127826905175832
9.14,0.0059859552943745,0.0292010740043447,-0.0185438237115175,1.8817920367065093,-0.7654604642938937,10.2751534676377
9.15,0.0057405496503494,0.0440483258711297,-0.0142736985310347,1.1038686000163072,-0.1478073653473953,10.020899318294672
9.16,0.0036654260989143,0.0468375085410063,-0.0042828792668314,0.3320369838760054,0.1744127418805267,9.656761826666967
9.17,0.0004407505846745,0.0237064833421037,-0.0030505490451486,-1.5778125456749212,0.2008531513062687,9.48948137233464
9.18,-0.0030338892540964,-0.0009952050036801,0.002552578019966,-1.4982827704077453,0.3702216503407382,9.270579570947817
9.19,-0.0004249139826684,-0.0209754796720157,0.0060943820551602,-1.0941715486762496,0.0497297040718631,9.115985543638072
9.200000000000001,0.002015493327956,-0.0282438330808211,0.0025567552345438,-0.3155751039952356,-0.0441252712123837,9.364657093128422
9.21,0.0017686667197931,-0.0248034927548981,-0.0023708276878477,0.3465155028985793,0.1580455960612355,9.72535678167085
9.22,-0.0026081547403671,-0.0198432971005737,-0.0072972011714608,0.4288876777969647,0.2300446798455835,10.251264346270242
9.23,-0.0015123066586559,-0.0133106875238491,-0.0133346925451786,0.4447595762109889,-0.2243307956774896,10.235425344102357
9.24,0.0020887309179186,-0.0074537495525554,-0.0167522869035036,0.3264133160183519,-0.5556061013253832,9.986240564881204
9.25,0.015402380302813,-0.0114634015653551,-0.0228163815065653,-0.3229563684596693,-1.303349636917967,9.907742359249175
9.26,0.0156118866883566,-0.0022570278489829,-0.0180480136498243,0.9087622244151016,0.1964337135809007,9.983171954620977
9.27,-4.7647074037039445e-05,0.0166407798163336,-0.014063980519715,1.5174656501666308,0.8684844944044416,10.20218505625507
9.28,-0.0109567370640479,0.0354820994566166,-0.0040271129421324,1.2035153160557297,0.7479060991217796,10.065673591673749
9.290000000000001,-0.0114156557053927,0.0355308920911643,0.0139097430781094,0.0080391383912914,-0.0774373836469186,10.078286265964838
9.3,0.0006560042833471,0.0211974077650183,0.0281728626266686,-1.0610493312051512,-0.3996878223891421,9.548850842605098
9.31,0.0047412096531126,0.0047931619151263,0.038646138183829,-1.2604329727793129,0.2331922632679753,9.280250573306006
9.32,-0.0048864619362011,-0.0101569299720418,0.0387850728855102,-1.4670081345765895,1.007258171184192,9.159127227001084
9.33,-0.0118481485923604,-0.0298538062257899,0.0312723618969886,-1.6305285227638404,0.536088464170053,9.541430075737171
9.34,-0.0086009167804727,-0.0449835165385512,0.016634371042308,-1.3077300548738466,-0.4737002438927201,9.72167006463578
9.35,0.0016195674922649,-0.0512746479149341,0.0032864753427548,-0.2351692732494567,-0.7229401650946067,9.999026319170122
9.36,0.0002998856111655,-0.0361812726941076,-0.0067515392749936,1.1598672332369893,-0.0378552480653022,9.954715139611714
9.370000000000001,0.0017230370293262,-0.0100603952837835,-0.0192332408353121,1.8879780528498096,-0.5944887870576258,10.092942693586656
9.38,0.0095010689437688,0.0130420406159312,-0.014132216662112,1.9764283720871632,-0.8364613036912659,10.385538523816011
9.39,0.0161305797550915,0.0397047431850819,-0.0148141710981161,1.9923980323013355,-0.6770584587014336,10.293313832391402
9.4,0.0145802699423086,0.0539140430761533,-0.0079602981879742,1.007278466141984,0.1157187172051104,9.98431733824076
9.41,0.0084850971281743,0.0437272317567558,-0.0031977576165826,-0.6380221019261012,0.3333736131050817,9.744489372568909
9.42,0.0078479800034285,0.0206699685841461,-0.0003890656828315,-1.4882538355945871,0.1996502535417297,9.134098846549902
9.43,0.0033688101786237,-0.0054849118393853,0.004045935723987,-1.748938483914526,0.721377884641957,9.069846871285987
9.44,-0.0018942664283163,-0.0241166055099101,0.003692493917477,-1.0326145198232195,0.6319689360157581,9.162441220141329
9.450000000000001,-0.0077017787354138,-0.0294091874138376,0.0001618813528312,-0.206929779085009,0.5915534992281094,9.514570435437966
9.46,-0.0071485132933983,-0.0275648077574392,-0.0066854097842605,0.4050767543596317,0.0565743813479573,10.158162049516756
9.47,-0.0060923242406992,-0.0159337352498155,-0.0155091724320681,0.8326485264512568,-0.204218870754933,10.412511539920112
9.48,-0.003286483575771,-0.0023244273930275,-0.0178386113568575,1.0503715139798708,-0.1947151445917824,10.401828138248442
9.49,0.0014589939904089,0.008998596636179,-0.0209674361124069,0.5401973362178024,-0.5428845714021812,10.09086918095133
9.5,0.0031492533858527,0.0077855525366706,-0.0215429860129387,-0.0060247122923418,-0.3913489617262732,10.3893694154123
9.51,-0.0028354218672861,0.0199368496701687,-0.0141985771208436,0.9609271354465582,0.303606227439969,10.036883842583578
9.52,-0.0100129814352992,0.0263954856236256,-0.0029231883547635,0.4074126516209401,0.4958298572778993,9.840668443440752
9.53,-0.0159170518364101,0.0251044501146114,0.0086263515092997,-0.1864052940367144,0.1791070254030623,9.63094146006439
9.540000000000001,-0.0078068406840547,0.0149559836506152,0.0249935899898974,-0.7121721282717456,-0.3493280054070675,9.262884619689675
9.55,0.0004962313345056,0.0072104985102948,0.0348134254143207,-0.7479117484781975,-0.3308137956442589,8.962417721878815
9.56,0.003014521288378,-0.0085385940059807,0.0356483225748507,-1.193332103226743,0.3113348041158665,9.303073863465704
9.57,-0.0045312359846651,-0.0214619762285878,0.0264555596784322,-1.1713683572937288,0.5808818094036353,9.796604998154466
9.58,-0.0090005219458045,-0.0336546155033432,0.0109016214535205,-1.0382097457005293,0.1175825652012102,10.339603836202356
9.59,-0.0038093231738594,-0.039265917097657,-0.0063909591137797,-0.4091479756623022,-0.5857672845743683,10.318415005648347
9.6,0.0001935187146802,-0.0329048391806597,-0.013042459353748,0.5436459561199202,-0.1799695234664336,10.052867895141771
9.61,-0.0027422636743164,-0.0212484452920611,-0.0214082217737467,0.894119153555376,0.0650785805090747,9.897458665609564
9.620000000000001,-0.008662370331599,-0.0024294367972529,-0.024328901521805,1.4244762877597767,0.1907415975171424,9.799934212009674
9.63,-0.0053989758316373,0.0226075668124599,-0.0140100439041287,2.1640547642114494,-0.221336054512471,9.859702026813528
9.64,-0.0015793619860239,0.0405134492633796,-0.0066754111050994,1.4318514332499714,-0.3268333835643916,9.794797222502655
9.65,-0.0004423530700796,0.0419406370709127,0.0058239804618625,0.3423181586627181,0.119069376496145,9.868571541468835
9.66,-0.006739474128194,0.0221113024335062,0.008101509328988,-1.344199459590004,0.4798346564316186,9.90097860424197
9.67,-0.010499237417951,0.0005593066972728,0.0119441411495773,-1.3252935853068804,0.3869299851184779,9.584397672864176
9.68,-0.0109998887826293,-0.018986225066017,0.0039898403026728,-1.1293206459527814,-0.206444419913766,9.47763442046626
9.69,-0.0016530752361571,-0.02040139148167,-0.0030733105688722,0.2985864095644439,-0.7589325451545547,9.12757246855733
9.700000000000001,0.0037874059660103,-0.003485896787793,-0.0136747072412998,1.3000135329428508,-0.5365939795863485,9.066845509379538
9.71,0.0040314206250136,0.0108177511907341,-0.0200997936501534,1.0617257337874746,-0.0596486095558567,9.617232067305345
9.72,-0.0035461657793139,0.018345036827543,-0.0219765949025185,0.3314278927658523,0.4742945612523949,10.167016485182238
9.73,-0.0009251428684699,0.0090940629807497,-0.0184195182248385,-0.7722895298743927,-0.4634203987734719,10.685905652510591
9.74,0.0163024252901063,-0.0107426328040237,-0.0124432873874337,-1.306691395643412,-1.3851738858051164,10.779784977624493
9.75,0.0279542800035903,-0.0106489229409677,-0.0118231206163199,0.1858177178392001,-1.0018044031389104,10.37675443000419
9.76,0.014996245734523,0.0045660158031101,-0.0074703880547912,1.4307895003808309,1.126780386358707,10.093955029300478
9.77,-0.0114376908814646,0.0331057615759973,0.0009717228219943,1.9738505712351504,1.7980518253092546,9.5487448709315
9.78,-0.0196520435249301,0.0450352518024428,0.0097626511976687,0.5776623686535151,0.4452600960868092,9.233037254626309
9.790000000000001,-0.0029347394182418,0.037847862622464,0.0213309404478042,-0.7022723212168327,-0.9539202373619186,8.951472584126225
9.8,0.0102751413649912,0.0190318307701464,0.0302094881460635,-1.6205644019787078,-0.3886851209777141,8.954154623587206
9.81,0.0069653705108248,-0.0078543641095394,0.0291248456612794,-2.1744342774589223,1.0143358326880536,9.552340617146786
9.82,-0.0179837774110297,-0.0325635800438912,0.0179823645428388,-2.0574760987120144,1.6683894626479716,10.364515152345149
9.83,-0.0187238275807093,-0.0505264102862856,-0.0002149201193259,-1.3547492453372307,-0.2568447231890629,10.608778541757664
9.84,-0.004620030026453,-0.049144014488376,-0.0070800502746732,0.2164491711472675,-1.1161972469109585,10.26721327815756
