time,ax,ay,az,wx,wy,wz
1687554856.4740753,0.0629271835762015,0.11964505434227618,9.809263457172838,-0.0010768527814353113,0.0011371315670282538,-0.0015964776561634
1687554856.4840531,-0.010096189456902433,-0.02395732790054895,9.81774629377297,0.0023388591317226714,-0.001137860510324086,0.0024603985198734
1687554856.494063,0.16712756348462743,0.15341155636295853,9.777063149587295,-0.0003735239891571834,0.0019373444159382757,0.0025356323872653
1687554856.5040238,-0.06061318201372928,-0.03372058230511579,9.824183285446834,-0.0004498933389249459,0.0013547099747570973,-0.0002367220171766
1687554856.5141025,0.033809140143766625,0.030027806067555275,9.791721044308078,-0.0003701594427563213,0.0018393581141456568,-0.0003384472387881
1687554856.5240257,-0.13504012803399382,-0.05321781040249383,9.868335772822679,0.0008207942602553756,-0.0010522126641029333,-0.0013576804944353
1687554856.5340104,0.07449610341144615,0.020564779233054914,9.769455918037739,0.0010893833706293872,4.937513274817343e-05,-0.0012567267571614
1687554856.54405,0.14513407986994722,0.06100905429036551,9.767631173672264,0.002637271209773796,0.0010455092931649457,0.0028153969156516
1687554856.5541089,-0.07514106027329005,0.11260221276476287,9.899897126508948,-0.0002453713226832698,-0.00043268330207236084,0.0007039095340257
1687554856.5640776,-0.09065869108138776,-0.09439133569744941,9.830289722565245,0.0009057490770925942,-0.001943664773724937,-0.0017696878225581
1687554856.5740511,0.009311181539035684,0.021557454985347165,9.801014720709373,0.0015241582649804474,-0.002139988288860519,-0.0014165154011027
1687554856.5840597,0.16277176094226717,0.16111849399225625,9.763455634342105,0.0002750558907684919,0.00043493213584603566,0.0011908064312262
1687554856.594143,-0.01819309187046184,0.07942537044303898,9.85067491514854,-0.001391268882091649,-0.0001547869042980503,0.0002117867530284
1687554856.604157,0.03917242555900404,-0.0405742305895332,9.802276364163315,0.0011028165823054768,-0.000758272774173743,0.0016318765825087
1687554856.6142051,0.06688960517540402,0.02698322597895246,9.786786345933512,0.0007705265392253711,0.0003269007304580109,0.0009784704430455
1687554856.6241484,-0.049872343471227966,-0.015108290559769179,9.833166030791439,0.0011780650734578664,-0.0009169600459077735,0.0001592727326749
1687554856.6340148,0.1620100417475604,-0.07627427524997141,9.69081790480139,0.0033066871963852193,0.0020308575712169445,0.0002415843023879
1687554856.6441169,-0.13510885837681047,0.2839446714933537,9.979695696856872,-0.001885973291877318,-0.0014370266767254375,0.0005060956878548
1687554856.654115,0.21348624776029368,-0.0508524220517152,9.684225652737782,-0.0007088060178574962,0.00271370100935884,-5.900913896428567e-05
1687554856.6641,-0.08055640557481593,-0.02583717676322944,9.853773135828108,0.0008539697760401554,0.00019764036344437736,0.0006689081033652
1687554856.6740866,0.05984584699032034,0.02582774865739456,9.794523938421062,0.0012171460332034516,0.0007989176168390035,0.0008439865028446
1687554856.6840403,0.0176968248154775,0.07691874427620107,9.83496490466152,-0.0003388617633386494,0.0008514263440330812,-0.0001357581517698
1687554856.694038,-0.055979001350593055,-0.04852166669462515,9.8339602488411,0.0015561805928134998,-0.0009862529345556347,0.0007366799814587
1687554856.7040749,0.1553763806420685,0.014251840022530536,9.736616285061686,0.0010320140777237599,0.0022636984769673937,-0.0004907550341488
1687554856.7140956,-0.08704818186765588,0.12028947658613204,9.90300977502814,3.5154581995060966e-05,-0.0006815426598193596,0.0013912198788272
1687554856.72409,0.06841451243075572,0.0937045969038175,9.80323654737243,-0.0016345308832420391,0.0006975625957655873,0.0009233216820245
1687554856.7340713,-0.03565331525293422,-0.13825179902201856,9.785861719260888,0.0018702337444941584,-0.000548918969045557,0.0009393559717534
1687554856.7440808,0.067173549858236,0.14754378620074757,9.82921770887201,-0.0008563109620294378,0.00039172181979695036,0.0011922725366855
1687554856.75402,-0.10099022135700633,0.02717966165137005,9.862666502980131,-0.0018725568209851187,-0.0013759329279665123,-0.0012842845921443
1687554856.7640617,0.07674704781994102,-0.14705097310242596,9.72845535475061,0.002975138810600156,-0.000998515968098834,0.0006867701718544
1687554856.774076,0.008519886667232078,0.21318866610379247,9.890687302082751,-0.00127838109720039,-0.0012269231735808513,0.0004464890058113
1687554856.7841222,-0.053151928073014526,-0.09626481110076905,9.804721637058226,0.00015623048618106395,-0.002089693602142534,-0.001639295444362
1687554856.7942593,0.2073244544667331,0.004438913119755073,9.708168649474468,0.002709156147287702,0.0005668168983139967,0.0017380187760533
1687554856.804113,0.026841934465278383,0.17849976990031702,9.850399643287036,-0.0010757335389793982,0.0011878248547186427,0.0003399757384283
1687554856.814087,-0.0375104948481694,-0.016877803178284027,9.831842246048513,-0.0004469161148684545,7.543900773376184e-05,-0.0001704303599001
1687554856.824165,0.07110025103621763,-0.03285451572053018,9.771043413237697,0.00016215177468061526,0.0013111371110831106,-0.0011907683969514
1687554856.8428645,-0.019121417509554837,0.09118463809988096,9.86156582923266,-0.0019262180393144275,-0.0010093665422595825,-8.026424842344742e-05
1687554856.8440769,-0.7242159371210845,-0.894892146028998,9.89945478236939,0.0005123670475457964,-0.0029569301977656432,4.713648883236427e-05
1687554856.854053,0.25391781819209197,-0.018356474716102213,9.66846066630971,0.0007827998921993286,0.0025073155030303318,-0.0011803434048818
1687554856.8641028,-0.08387888630880246,0.005528403180985101,9.869921457953485,0.0028849862979840567,-0.0009903263894360922,0.0018308060658125
1687554856.8740628,0.03486079121578103,0.22544979792781059,9.870776391569576,-0.001509734732477187,-0.0007292237230537442,0.0013599328927409
1687554856.8840494,-0.09886212369328073,0.03847866118918376,9.887792510366587,-0.0018841101172872902,-0.0032378325259330766,0.0010425345804503
1687554856.8940532,0.24965618298387088,-0.16324321557923008,9.619000000121352,0.001730179543984476,0.001838609316298252,0.0001871912223247
1687554856.9040942,0.02422933897799333,0.18549775175057903,9.861496751198231,-0.001273578142169514,0.0016709870308518242,0.0009647029051518
1687554856.914038,-0.13924191103528497,-0.10928857921274278,9.84675244954768,0.0011315160430942655,-0.0013062639486607762,-7.80080030711196e-05
1687554856.924142,0.07827690527916958,0.013434939152970964,9.76347802510703,0.0014366114424320797,0.00020620122965838664,-0.0007161652487741
1687554856.9341965,0.11090610781507088,0.2826568872905873,9.845717205535433,-0.0026217446152162083,0.001175138932740786,0.0019958530152177
1687554856.9440343,-0.03456331967081091,-0.14676821741190424,9.789239948965431,-2.6340070235444958e-05,0.0007679694947807623,-0.0005448165633754
1687554856.954116,0.13059105449252936,0.16514491011060697,9.79635798510852,-0.0016546660018648322,0.002292355593822157,0.001814752654867
1687554856.9640718,-0.047190959642903596,-0.07178488218258222,9.816003178850714,0.0010346435864207392,0.0005392343635955591,0.0026440662746278
1687554856.9740486,0.03683634976340506,0.18751198587704643,9.855373550190771,-0.0022808764112148875,0.0009743483199919657,0.0026891181892676
1687554856.9841828,-0.007359250082171573,-0.07758913452942236,9.791533124099809,-0.0006920537802079939,0.0007888363388404297,0.001279836663856
1687554856.9940825,-0.029730366900738946,-0.029996325469759517,9.811899166389697,-0.00017346000154559252,6.985785152313556e-05,-0.0001078156805636
1687554857.004048,0.01472805016658533,0.05607240503515081,9.827918781085897,-0.00021072513977457948,-0.0007154332094510991,0.0013599319805177
1687554857.014077,0.09511134215046205,-0.015253117747538533,9.764863927690397,-0.0015261377337778992,0.0019779730986596504,-0.002546003396161
1687554857.024234,0.006527397748432644,-0.003960867650669374,9.807950102118793,0.0007153819123145207,0.0005347724812736237,0.0004498355970679
1687554857.034908,0.028208986963653777,0.04868669862040407,9.816905001549763,0.00025494103958033853,0.0006655189372112838,0.0003898416012486
1687554857.0452526,-0.1409947048223666,0.015851406398975268,9.897854667034208,-0.000557173040473397,-0.0023690790417364347,-0.0015007162750737
1687554857.0540938,0.19279003286333088,0.04919585765689885,9.720581190875883,0.00031566160999797104,-6.836518593658412e-05,0.0007929357648788
1687554857.064159,0.08030497891223495,0.15722007294962878,9.82085957803292,-0.0018122275547207349,0.0008197523445134437,0.0016501403711697
1687554857.074108,-0.0948744394582596,-0.14854349602330824,9.81469040728926,0.0010223360976368517,-0.001192628099530165,-1.1712387673725896e-05
1687554857.0841756,0.14977021401148793,0.05174794755299178,9.753622375042989,0.00043487972343285387,0.0016076523160983556,-0.0003481134357901
1687554857.094093,-0.12375173623667407,0.0772127216917884,9.899050729765086,-0.0009647310524798653,-0.0011937531713719772,-0.0005701386421026
1687554857.1040602,0.276844757809826,-0.07502024342842091,9.633783358700255,0.001523756376095677,0.003922933836242179,0.0002565449518112
1687554857.1140587,-0.04340737878600643,0.21514236544515328,9.915711980336882,-0.0018599127580508973,0.0020822514703152197,0.0017794061691926
1687554857.1246328,-0.1408569562355597,-0.0708587267391609,9.866393302809477,-5.054047446314662e-05,-0.0012988133615432602,0.0009073137894699
1687554857.134181,0.07717692109693085,0.1193691116003299,9.80617173892369,-0.0012385359609681037,-0.000543701916724899,0.0019261769317051
1687554857.14406,0.06651380340075477,-0.10368467799038233,9.73361480454105,0.00048071715108730404,0.0009274160590450909,-0.0002337341015266
1687554857.1541123,-0.06510476423269218,0.10560570906719448,9.879955020753975,-0.0011103699791623427,-0.000999301087668762,-0.0001953702471257
1687554857.1640863,0.09876882703417161,-0.12532425511528725,9.711629601410769,0.002404804739294213,0.000596984190019213,0.0006267691329082
1687554857.1741395,0.010352139930392041,-0.02805607147452741,9.792934390032354,0.002447667203955752,0.0010458757311280922,-0.0012477488075421
1687554857.184158,-0.13584913603056414,0.21299902828100017,9.970248056310352,-0.0019731530539553767,-0.0020751728032761107,-0.0018643074021713
1687554857.1941383,0.169291061420273,-0.10649239326008643,9.67704503962708,0.003236282649549654,-0.0001428439168323957,0.0023359747552273
1687554857.2040713,0.007126585719495323,0.07904749949724216,9.84698600841362,0.0014153634636517912,6.3530238254677e-05,0.0006964556937998
1687554857.2140758,-0.08944811428253575,0.0337328508564567,9.861553286148233,0.00056414627058715,-0.0019101336146263397,3.932001487893838e-05
1687554857.2241018,-0.011871731584524177,0.02913209036857964,9.8331094755011,-0.0006335282178792799,-0.0022383580783635936,-0.0017719174088017
1687554857.23422,0.18022606454007747,-0.029712508771757892,9.701927463115618,0.0015617441166760368,0.0006674125240957977,-0.0001111679761709
1687554857.2440877,-0.019061366188239892,0.09710267332831231,9.86181319087762,0.0008092588373921273,-0.0006342159146962419,0.0011650956708433
1687554857.2666824,-0.0014055981445534982,0.0314302894471431,9.823673097319732,2.3228257140072227e-05,-0.0013681032160969507,-0.0005440597473682
1687554857.2689762,-0.10189658675337417,0.2970186741220391,9.957606072355984,-0.0005422698839221518,-0.002462962238521701,0.0008339263563936
1687554857.2746103,0.14813722567332435,0.08153109433241185,9.75742133469997,-0.0012917915605889436,-0.0008264541528347102,0.000729237433519
1687554857.2843914,-0.029474240381667082,-0.10421753432550741,9.789249726606775,0.00017484642233554074,-0.000890875082154955,-0.0020635987916068
1687554857.294103,0.18894284780988985,0.2215329148075626,9.776673504417024,-0.0015142160926618538,0.001270887885934806,0.0021966363834178
1687554857.3042316,-0.14086592012219457,-0.02350867624632611,9.888879278234779,-0.0010541258226760045,-0.002028227806880765,0.0013129906815845
1687554857.3142622,0.30886811905579964,-0.12303454874113313,9.617715037470726,0.0009094659076031277,0.00457857631377957,-0.0007783836503552
1687554857.3264215,-0.18922909783679703,0.0534881280444008,9.950360232353118,0.0002802445747255504,-0.001208287231030511,-0.0004423884260507
1687554857.3341126,0.022738289225922265,0.20668531062085194,9.88140395042291,-0.0019593670041359525,-0.00177975637290965,0.00081677983468
1687554857.345337,0.08441191856383798,-0.11077536742857333,9.732860125520729,0.000848382091685147,0.00010301657805182206,-0.0001395321036727
1687554857.3548963,0.04699145877091124,0.09087070899544675,9.822102803673225,0.0011937353718927406,-0.0003395574703598967,0.0030586551125122
1687554857.364087,0.03324437072775825,-0.06188103215096232,9.764249262738678,0.0010856707306241145,0.001073093744481648,-0.00034249569802
1687554857.3743598,-0.059057979442823774,0.08512724211325391,9.87477889011174,4.974684391329962e-06,-0.0007102162993318287,-9.404444648342353e-05
1687554857.3842793,0.02632960123077762,-0.03645163356607084,9.794773212200582,0.0013795845534097636,-0.0005287814680889717,-0.000333217629701
1687554857.3941734,0.1565561738191715,0.11365865499719041,9.766382024534755,7.575986945464389e-05,0.0019172206586383666,0.000114552485287
1687554857.4041667,-0.04735258039705128,0.062355637088222886,9.866161308462729,-0.0006223694509433895,0.00032466186010442037,0.0004319523409901
1687554857.4141145,0.010273708786839855,-0.12543475026221712,9.764248365752394,0.0019711876565829557,0.0005258453614988977,-0.0007109363381789
1687554857.4242473,-0.09288364130412588,-0.013846130161590017,9.8498462946028,0.0011780971335189215,-0.0008026249493810968,-0.0036289683361576
1687554857.434188,0.0832385149605992,-0.021211222094524054,9.762870779196104,0.003814446830619053,-0.0006911775241261565,-0.0003075006702022
1687554857.445738,0.021398289912081023,0.25513599822159083,9.884041298749537,-0.0020636759906126905,-0.0005131518364169523,-0.0006167065170632
1687554857.454162,0.1573795998365699,0.06751310569329919,9.751005411809773,-0.0016162590676808799,0.0012261827345889519,0.0013535624371467
1687554857.4641757,-0.020039944195958496,-0.06328175504762547,9.80318327091192,-0.00020849358238000454,0.0007791574551702011,0.0004088739347605
1687554857.4742403,-0.027457285494526983,0.09268548757452369,9.858429047808432,-0.0009822284655376231,-0.0006230502691934246,0.0017153265485501
1687554857.484099,0.11386868449771323,0.12131682136735032,9.786112676317657,-0.002643716692589163,0.0010745641854496516,0.0022241716338282
1687554857.4941802,-0.07734072797647364,-0.10041303619149845,9.811580277299777,-0.0020111599618869015,0.00028741342091186426,-0.0013401504424439
1687554857.504212,-0.036806346340005104,-0.16872223975029702,9.772728530725416,0.0022792556473047,-0.0009609466322126612,-0.0013275123951064
1687554857.5141523,0.1580339722410452,0.13924165556984716,9.773140110302082,0.0008435429296304155,0.0012474117750636,0.0003682494112251
1687554857.524161,-0.06865509660956809,0.04444144188656379,9.86144298221974,-0.0002930473767381026,-7.355915738468168e-05,-0.0010801191260145
1687554857.5569594,0.014558598109433218,0.023422298599974356,9.816457732454744,0.0003897967014904135,-0.0010592719523407808,-0.0005381027753503
1687554857.55859,-0.4213295467172912,0.5475393398093322,10.216279067902684,-0.0014568308857925152,-0.0025534927557597595,-0.0006025494826065
1687554857.5597675,0.4391761657361649,-0.266078596617437,9.480316571087796,-0.00018725422633398138,-0.0018609575565397558,0.0003142395704014
1687554857.564239,0.10163516753089111,0.43138590397775617,9.89271315452609,-0.003999719507634197,-0.0010537103331989717,0.0003231877176983
1687554857.5747275,0.03271823646966181,-0.20905586497950662,9.721302417976704,0.0001640446073643646,0.00011306955344709384,-0.002041254267566
1687554857.5841055,0.05613389139105823,0.07007301216117875,9.802231437814878,-0.0002941781838506224,0.0006748400190460499,-0.0013651105859355
1687554857.5942328,-0.023111822012591668,0.08478396399589097,9.857461428694188,-0.0006391236324498477,-0.0009553464175111113,0.0005932689360303
1687554857.604107,0.03159820739980814,-0.008832265650499653,9.796232764150743,-0.00015558795827552385,-0.0005962212124513171,0.0001045061922593
1687554857.61409,-0.07985035429992407,-0.02362163774171677,9.848708353590517,-0.00042082077013034174,-0.001780494728953969,-0.0025523666576521
1687554857.624225,0.08604920338042704,0.13023298867898736,9.826838839561143,-0.0016300784561677389,-0.0011255946973237165,-0.0009080211916046
1687554857.6341493,0.1674315585696509,-0.03164341128069844,9.71379227932519,-5.056369285392386e-05,0.0013968091430933186,0.000119024579875
1687554857.6442375,-0.027803729982679663,0.030895592972796208,9.834985435871998,-0.0002833342730458248,0.000456164110316971,-0.0002598013547288
1687554857.654155,-0.08698256645514817,0.03139057203313247,9.867716114477664,0.0010603413797935291,-0.0026354481816863165,0.0021519462875982
1687554857.6641877,0.1828218033203585,-0.06744531977011846,9.69184708696726,0.0015997579595308877,0.0017894668032405936,-0.0007913953908758
1687554857.6741436,-0.11223304060744523,0.13902201369323655,9.907245030616,6.644124024582663e-05,-0.001442613622217482,0.000517263700716
1687554857.6841118,0.018208013162436226,-0.07826939667283771,9.782325639221028,0.0008006872331021761,-0.0007430069870120465,-0.0024167761025057
1687554857.694141,-0.013201188407522163,0.07102278646285742,9.834066331130748,0.0008372104342672895,-0.002099016342237327,-0.0006252721236126
1687554857.7041526,0.090953338161435,0.11055052435430883,9.804243619870585,-0.000395101441696453,-0.0008745169822170321,0.0003056800174487
1687554857.7141373,-0.10171210847032447,0.018595008874808548,9.871561712470244,-0.00018612075180763818,-0.0034829536352046896,0.0004565606191715
1687554857.724223,0.26445770559170756,0.028279983012708187,9.683016146107649,5.5623738982925185e-05,0.0015681702174640071,0.0008611183562277
1687554857.7341857,-0.12493473648465409,0.08808281746182904,9.907315957522043,-0.0013376224754918405,-0.0012515057065555547,0.0005724101625343
1687554857.7442186,0.001998578080584693,0.003947228559478502,9.807297337002522,-0.0006570134364526207,-0.0016903483363482005,0.0011267296482071
1687554857.7541368,0.15904949443727373,-0.15083158607207134,9.675878399660151,0.0011944115035797832,0.002383641148320967,-0.0023907076851503
1687554857.7641735,0.07366773695888756,0.16682873521792488,9.834539319847059,0.00013385502825514673,0.002197371025147673,0.0012165299390869
1687554857.7741473,-0.06684513982435741,-0.04841462913190785,9.836681364214403,0.0015409006433299605,0.00040737719423445404,0.0006718695345295
1687554857.7841573,0.053743195151234525,0.003808132522364964,9.797854929056987,0.0012816220943932459,0.0012749882348271977,-0.000772436690055
1687554857.7941484,0.08720116182831428,0.2119637293440918,9.849432316257,-0.0005616526121014065,0.0015234650958841247,0.0027476016380785
1687554857.804152,-0.10483352616294561,-0.018624088594862587,9.872557889005881,-0.001221382681455271,-0.00030456407824638957,-0.0002944889296816
1687554857.814094,0.054251973106201605,-0.012540159561106662,9.768280485512884,0.0019995031976333013,-0.0009940858108263228,0.0038983376412613
1687554857.82418,0.013021560334768768,0.04151753465311785,9.822847740026775,-0.0006972297914025955,0.00013505532830361742,-0.0003130876743273
1687554857.8346226,0.03315274977372391,0.0431881075467051,9.810652031942212,-0.00044950277643360443,6.463170088330339e-05,0.0006670247944964
1687554857.8441331,0.027041286713484138,-0.07604944079511892,9.770852694183482,0.002080701056318272,-0.0002173567473623792,0.0016274191562513
1687554857.8541896,0.12342496685699586,0.16627801591848432,9.814105065718858,-0.0008414140680956371,0.001857249898594056,0.0016587078403642
1687554857.864262,-0.036546949919344596,0.034001419277517285,9.83731086331478,-0.0016751432246660796,0.0010861032812087604,0.0001741536376027
1687554857.8800066,-0.03353412636754693,-0.06702791691906274,9.801177997264586,0.0012000446976780934,-0.0005455670548611595,-0.000351099139549
1687554857.8842337,0.10249508431416815,0.17547605212431863,9.816695251542916,0.000473603741755778,-0.00018160101904178414,0.0007575673349162
1687554857.8941514,-0.07802432845892084,0.052034165793803884,9.875407887218847,-0.0018580400716479318,-0.0010656471158500217,-0.002647367381029
1687554857.904134,0.12346646121340965,-0.02606286742703485,9.730851185490808,8.841260660242818e-05,0.00046138702245661497,-0.0009028071821706
1687554857.9142296,-0.022452802414713917,0.049072373591557215,9.849513396321726,-0.00042269654195479616,-0.0007821127429886831,-0.000562688527167
1687554857.924188,-0.0617568522545081,-0.059981174216154995,9.835273304728599,0.001383705912746202,-0.002468187187968503,-0.0012343605798708
1687554857.934162,0.22386834100768196,0.3431412915666595,9.804815627570882,-0.0038320784434722243,0.000886432009306876,0.0013971906933545
1687554857.944219,-0.006529598308430877,-0.17341840327443708,9.754503546991582,0.0006144133162498839,0.0001678381038638958,0.0019865150512157
1687554857.95416,0.09395392936851812,-0.020616411294622754,9.75209793624304,0.00013872606152135744,0.0027300884820778727,-0.0009053869457023
1687554857.9642136,-0.10104728422324805,0.13407538239495295,9.913896263804872,0.0003491973867662757,-0.0016095023266029453,0.0041389967496467
1687554857.9741518,0.018739775692033365,-0.18227640003952747,9.749895280709278,0.00030636218951281274,0.0010026857853511094,-0.0041702441689597
1687554857.9841444,0.0873328642270545,0.08964231380990874,9.793505383613365,0.001375146608591998,0.0008599822961883328,0.0003392157792074
1687554857.9941337,-0.011749232829493106,0.18948098430019747,9.879448304962134,-0.001845002700417362,0.0001115787627531583,0.0007102518989665
1687554858.0042272,0.16363165143813227,-0.17664937145031348,9.671558313585773,0.002202584525812713,0.003422575133779067,-9.888092102872352e-05
1687554858.0141418,-0.22955961946675835,0.09871296790083124,9.97341429580358,-0.0004386995249039531,-0.0011516455177483361,-0.0019779208400325
1687554858.0243254,0.24823723237785544,0.08430904994733882,9.705446854244004,-0.00019584144475602672,0.0028176337789322615,0.0007255266951358
1687554858.0341706,-0.04758539723817214,-0.0902330093418518,9.819727596319343,0.001648542708644478,0.0016225832405493185,-0.0001894062901886
1687554858.044168,-0.07216829769934871,0.20109050583950136,9.914836411060175,-0.001983957764066317,-0.0004189093473220481,-0.0002020839187355
1687554858.0549216,-0.07003102006199931,-0.10934867795677104,9.81358217355962,0.0005939424224200266,-0.0021731543246948015,-0.001261564046614
1687554858.0649211,0.22489402036134576,0.14737969843030604,9.755271736795127,-0.0010455484420856336,0.001445216650240714,9.664932218922157e-05
1687554858.0741458,-0.1498328146126499,-0.09379187422334562,9.854455117590097,-0.0004458098481535739,-0.0005939745847933542,-0.0032538362597154
1687554858.0842042,0.04277077245828187,-0.11194539518017912,9.756788986556444,0.0023772041221187343,-3.930873754768881e-05,-0.0035004821424411
1687554858.0941334,0.12842947976140295,0.30159076208636815,9.847498887580036,-0.002676879809038473,0.0014694532509898343,-0.0014943634909616
1687554858.1041532,-0.01777818814347269,-0.0005563710709129717,9.826689685001861,-0.0019474637302791494,0.0005303148574201895,-0.0009694759086744
1687554858.1141636,0.048709695178064144,-0.010698207026780525,9.789312947818344,0.0002385339775941317,0.0003842762399450813,0.0015227256786272
1687554858.1242068,0.05130263063563337,-0.11377980069697272,9.73892346962739,0.001669443303296874,0.0021165255902824624,-0.001241804408379
1687554858.134181,-0.16632702222953638,0.1462559529802472,9.948212439045644,-0.0008101343271045434,-0.0019015706653236768,-0.0009788091578559
1687554858.144177,0.30565614087979853,0.19516714309541994,9.721248778391326,-0.003508391191161693,0.003241175128898156,0.0007877289731947
1687554858.1541684,-0.09184653671018313,-0.13894708169665787,9.820379427527909,0.0007135378918163629,0.0003160965388760798,0.0018423602865038
1687554858.164218,-0.09693545710173394,-0.011336917193293999,9.873800573431907,0.00013759405655003744,-0.0015320263377519097,-0.0004237405541391
1687554858.1749146,0.05373389690213224,-0.007037319556515496,9.779084334995604,0.00021135927555282385,-0.0004092124119703244,-0.0014116783444808
1687554858.184382,0.122101366545028,0.12284944498993378,9.781917799043308,-1.9616203522885207e-05,0.0007866029490348121,0.0016627993150575
1687554858.195426,-0.011740967691328942,-0.03813578478323123,9.813692810214928,0.0012585491734289117,0.00017303636027205026,0.0011952854961816
1687554858.2055638,-0.06676921409966124,0.030502982343280517,9.859851574309904,-0.0007240673498851348,-0.0006163662969288995,-0.0022550985035525
1687554858.214578,0.14192716311638529,0.14188283936676904,9.796805562989652,-0.0009572645799553206,0.0003522295166226212,0.0013953130197148
1687554858.2243278,-0.025732670689374886,-0.017843838157235854,9.817341259973702,0.00022328444780416907,-0.0006044218993327963,0.0012734924289941
1687554858.234239,0.12480261873054,-0.05919185418849389,9.720776210740173,0.001861664585425432,0.0016672584186693126,0.0009051077773289
1687554858.244444,-0.1901030545351349,0.031586499171356516,9.922260041454711,0.0016847234270416858,-0.0025892197322127256,0.0001294671506581
1687554858.2541828,0.12244378579465551,0.14534314424360725,9.799475170786598,-0.0016837094839287055,-0.00011566212046380875,-0.0016795267169402
1687554858.264467,0.08349745681336403,-0.014672398848325318,9.756755994659523,0.0006535331208561766,0.00027475939434288654,0.001036205690583
1687554858.2745502,-0.03541667485494783,0.01853371166752321,9.84529684340824,-0.00014478473871921814,-0.0005940000958588963,-0.0005466766473876
1687554858.2841775,0.05765296986916683,-0.14701165347092385,9.741357451412533,0.002632051842142103,0.0006957077799171533,-0.0018087977827565
1687554858.2941604,-0.03012203158230069,0.250127176044199,9.919195912806586,-0.0001611696155445044,-0.001646013854139142,0.0019421975426336
1687554858.3042014,0.15960982268483065,-0.033181897200367405,9.702692266253067,-0.0003567653155211867,0.0024238557318576335,-0.0009609438297377
1687554858.3141842,-0.05637571324301182,-0.10750407472446144,9.810577923693055,0.0028309782282072474,0.0004919312031692637,-0.000426345346965
1687554858.324244,-0.09040152553520035,0.09283456601369788,9.896438733831719,0.001965595822387863,-0.0023042658130596008,0.0007188214636368
1687554858.33418,0.1283846740137053,0.13840648720431467,9.797131842687214,-0.00010828519155409465,-0.0002747422711787464,0.0006543536852074
1687554858.344498,-0.04496387518971839,-0.041034535940771756,9.82433136604797,0.0007142646572331333,-0.0014329211425249408,-0.0003402939350383
1687554858.3542964,0.1034311512237022,0.1224305010151274,9.80214969277694,-0.0005579174649960715,-0.0001510568414897225,0.0011241241714412
1687554858.3641803,-0.010345790918624245,0.09336947018987682,9.852623052524828,-0.0016550196770769585,-0.000973965785887852,0.0011852135626793
1687554858.3742936,0.06528704403894493,0.0018252342312802816,9.769886127138458,-0.0020759848426037627,0.0009009604119794827,-0.000976198195018
1687554858.3842006,-0.046341716334756124,-0.05685547146995803,9.819599151949754,-6.2054160565115754e-06,-0.0008711531772601958,-0.0001823402293996
1687554858.3941731,0.06200801444402097,-0.02425823401820544,9.770418795971041,0.0009027595688322259,-2.7366342623427837e-05,-8.287241729365807e-05
1687554858.404179,0.0774267016244227,0.16791150322911846,9.83471335220114,-0.0005199285472366117,0.00029560253930595456,0.0025680509111805
1687554858.4141517,0.01920008785636459,0.030295553618835184,9.809649376256374,-0.00019060394924569083,6.500538258572354e-05,0.0033205616469456
1687554858.4244564,-0.21018996376553664,0.025179362018242495,9.931159878371902,-0.002198160669336266,-0.00366773768050453,-0.0007608668697105
1687554858.4343147,0.2210552021005915,-0.10144975040112257,9.650541614806256,0.0008688568493625476,0.0005053461219736466,-0.0001674494291694
1687554858.444654,0.06720113757764319,-0.022880789541266818,9.775790309407883,0.0029136690180587023,0.0008220077426946617,0.0013357042931272
1687554858.4542134,-0.06532169332792007,0.20303686450683156,9.904438141490711,-0.0014352351431021503,-0.00021812184548409476,-0.000797385424845
1687554858.4642642,-0.10920619380680978,-0.12402755613461282,9.826771188499965,0.002074011851206771,-0.003120100812001106,-0.0007373970751689
1687554858.4742308,0.21800620364549556,0.17512145097984005,9.76388593366895,-0.0003925244064407545,0.0005045953884190179,0.0004803822208156
1687554858.4843187,0.019536515962160977,-0.005719304864101294,9.790529805142238,-0.0009077624739655797,0.0013074031609050674,-0.0016329524391369
1687554858.4942255,-0.11658991091212627,-0.18606035362821577,9.819798440613168,0.0038122374266996405,-0.0018039556190021261,-0.0009996349276082
1687554858.5041842,0.16915909570596557,0.2228453937712191,9.800063401818093,-0.0005918472723546284,0.0014206581793928207,-0.0012079000757114
1687554858.514192,0.02283984325986964,0.004452173173336395,9.797921225131372,0.001447396663108233,0.0003667612701422035,0.0014568136735431
1687554858.5242643,0.09096486510300109,0.10756277116880411,9.79840639770481,-0.0001645342119625558,0.001761137342409695,0.0014583016650828
1687554858.5392292,-0.00926879159510183,-0.01640364874158934,9.807264018516216,0.0007187340355656432,0.001038433368337157,0.0004562173103874
1687554858.5442455,0.1899540557790834,0.07650355578188722,9.735050602710267,0.0006327045632021318,0.0026853718738125256,0.0012548415084563
1687554858.5542,-0.05962792240815287,0.21549304761127697,9.912659386342346,-0.004087281422472236,0.0018032143315172837,-0.0004058481012509
1687554858.564198,-0.11979697329630933,-0.20787187527907044,9.814126629922491,0.0014250649687880008,-0.0015726151396158808,0.0006223404030276
1687554858.574202,0.08285157943403151,0.09912446774564224,9.803414114811913,0.0006650977583070896,-0.0007552974287515362,0.0018021436822561
1687554858.5841994,0.07496028151988246,-0.047078293665779744,9.766475970614204,0.0009839446125883113,0.0011915549120660764,-0.0008592238468156
1687554858.594227,0.026954019596079584,0.12112031283875109,9.836703674993032,-0.0008514550814403624,0.0011069642986429838,-0.0002635514414908
1687554858.604179,-0.03452932854649773,0.013056819423949107,9.838062061087395,-0.00020103593440913637,-0.0002609456718502224,0.0006223353971688
1687554858.6141882,0.15779179865178802,-0.0015672254287143162,9.734672553358173,0.0013427263200560253,0.002095297553527635,0.0023366960645614
1687554858.6242342,0.04781658897549787,-0.03771986477498707,9.769909575925636,0.0014079296278929519,0.0036680906105184046,-0.000563119380273
1687554858.634201,-0.2779095406833282,0.2253809939501439,10.045202233602103,-0.002785272868303964,-0.0024223626645213836,-0.000652838107668
1687554858.6441972,0.0637531399848191,-0.0882938529527728,9.7475189468429,-0.0004904806187769693,-0.0013837457344566357,-0.0012093925201373
1687554858.654241,-0.00562545878563704,-0.01693514230738222,9.805354730661838,0.0005734582757729777,-0.0020643602008193407,-0.0009054148853795
1687554858.6642091,0.21884371084065024,0.03537268515746823,9.701052821509958,0.0014179653801682714,0.0014545578335611814,0.0008860942739954
1687554858.6745603,-0.15577215611252804,0.05203569191373485,9.90844212166117,-0.000693142953606112,-0.0012652751140362216,-0.0020136866536961
1687554858.6846466,0.03441035444045596,0.026438380597197313,9.801894501776376,0.00031567500860761203,-0.0015640630707266258,-0.000507922219582
1687554858.6942232,0.10811213428374246,0.06986780448811487,9.773150830461805,-0.00048527652873743034,0.0001827496182787998,-0.0003499656035603
1687554858.7042134,0.09225900208809819,-0.011738780427660623,9.769462588898955,-0.0003042348394607521,0.0019038346822459382,-0.0013278362625317
1687554858.7142038,-0.0859609931334681,0.0956180725232405,9.896219371498017,-0.0009181404000579763,-0.0009538628625538529,0.0003485036264134
1687554858.7242572,-0.04208650719389093,0.02142283356490316,9.841464718649766,-0.0011666205101115805,-0.00221300030686067,-9.926218120770674e-05
1687554858.734629,0.04933290269284798,-0.1366480896686793,9.727975681970051,0.0004129026675349527,-0.0003019292209114588,-0.0032806625408159
1687554858.7442338,0.06154152074301746,0.14296749693580366,9.828840412211536,-0.00020923223962287347,-0.0005142700905089461,-0.0004170296764971
1687554858.754235,0.01713689739382947,0.08278198760677458,9.827519703492184,-5.31442756522639e-05,-0.0013215426451321604,0.0019187159901445
1687554858.7642734,0.010522654939089094,-0.11229484737399355,9.770668802883822,0.0003290820963744571,-2.8888714692465865e-05,-0.0025490278662221
1687554858.774291,0.005396629328623307,0.14431373890850926,9.86017750502278,-0.0011465090565101323,-0.0010473668580584178,-0.0008480479759203
1687554858.7842166,0.0064531151905315425,-0.048582996354247274,9.796207193298391,-0.0002125894023667077,-0.0010052561430066076,-0.0021202301890628
1687554858.7942245,0.20120846134303705,-0.004874350126229824,9.687706536606978,0.002353774948016885,0.0019380869322436014,0.0012355249178324
1687554858.8042817,-0.12110119339243339,0.1228439933340215,9.920889363865834,-0.00029304966282995177,-0.0005939827941642855,-0.0001938866502644
1687554858.8142445,-0.059866214749376784,-0.12047323493893485,9.794285753626498,0.0021391809985301016,-0.0018352508673002978,-0.0015294168428556
1687554858.8243606,0.20226007053666328,0.2229782298957179,9.779491904322743,-0.0006715373475611284,0.0010492320896702426,0.0013148599915109
1687554858.834219,-0.02026553586213262,-0.12195159439329466,9.78466413543384,0.0007477662288237506,0.0010980474033779988,-0.0016228964836375
1687554858.8442357,0.037304812786615474,0.06569846824341671,9.814899028995773,0.0009925709878114666,0.0006651511595163843,0.0002878079372419
1687554858.8543246,0.049534814092309115,0.006872270145968776,9.782561226485202,0.0026975978997157883,0.0005049870604061312,0.0027159633296502
1687554858.864227,-0.012422966564263687,0.17817380505857003,9.870693991803508,-0.001057110758168981,0.00017192520122568698,0.0015685627273012
1687554858.874756,0.03315062493462763,-0.026451429123510263,9.778209837743177,0.0006427282406253159,0.0003280387003506542,0.002520722727753
1687554858.8842046,-0.18752712812263359,-0.02338633518087313,9.906250650649994,0.0002977765037761423,-0.0031879087774240333,0.0001994973695798
1687554858.8942175,0.054040314160885373,0.09133118394862808,9.810909799097168,-0.001247105290774322,-0.0022636583785170406,-0.0001529188179449
1687554858.9042091,0.19445166999765026,0.008657136289866816,9.717478996703932,-0.00041673814972920586,0.0009859060903576705,0.0010187003768475
1687554858.9142394,-0.009134957003190563,0.03697585622471631,9.839827579871791,-9.784761048261483e-05,2.6268896046235728e-05,0.001772320492422
1687554858.9252968,-0.12587787842869408,-0.05889778170391363,9.857116036894922,0.001851608242644009,-0.0032758173142843996,0.0012921440916795
1687554858.9342818,0.21340040905888433,0.1432508982599482,9.74713010548644,-0.0010101490188344376,0.0008730165781126476,4.293438508937543e-06
1687554858.9469178,-0.00031167080565212433,-0.017692081043822083,9.802103553693023,0.00018936712380613097,0.00016747213034705655,-0.0002061668369026
1687554858.9542549,0.04027466221935268,0.0656818278057931,9.820440928679472,0.0008599449813616191,-0.00044387847523813745,0.0018855880894659
1687554858.966963,0.03212587601657746,0.001792380699332419,9.808682052633648,-0.00048452312948762765,0.0009877680899721467,-0.0019283770402001
1687554858.9743898,0.04317794017185269,0.0962871253535417,9.81864956044449,-0.00042082163039361696,0.0006494960674244035,0.0003540649027524
1687554858.9870124,-0.048538431299370896,-0.0623111527898855,9.814092668515183,0.0007612101457843459,-0.0002780659496394056,-0.0017979832650201
1687554858.99549,0.1078671744600413,0.10779784512439589,9.79537139240002,0.0004233425867197522,0.00039022415631284114,0.0004092448921835
1687554859.0053422,-0.1068156443647864,-0.005097130119227722,9.881848069317277,0.0005652543778039646,-0.002110558304280083,-0.0009050472457932
1687554859.0152786,0.2778493946958303,0.03739611184281669,9.66983957320612,0.00047288246889688626,0.0031827112087339984,-0.0005257951146961
1687554859.024281,-0.12208271097932204,0.17741584300808855,9.926969745918239,-0.0020647993332130418,0.0002080618012496966,0.000651397085279
1687554859.034243,0.025093841560443312,-0.15426653616366762,9.743737130011459,0.0003599994460638721,0.0011989875388234773,-0.0018918733862267
1687554859.0445905,-0.015373555414940307,0.009500691992287917,9.828951258332763,0.0010908637572985386,0.0002062284846937584,-0.001318167271562
1687554859.0542808,-0.09379909155801795,0.09413189948354606,9.896385159368238,0.00018305365165492606,-0.002451056752566228,-0.0009639003132508
1687554859.0645466,0.09672467986903839,0.18914159462834837,9.819871576636036,-0.0028396690040757237,-0.0010514706837378878,-5.306252791004401e-05
1687554859.0742548,0.0031995465879857046,-0.03965434236570684,9.785690160715902,-0.0012932799247816393,-0.0013934386253916142,0.0004185546836776
1687554859.0846188,0.08906314204071679,-0.005462533155019287,9.760239610523975,-0.00013660020484305058,-5.046892730682759e-05,0.0009937356640545
1687554859.094306,-0.0038841870968123484,-0.05571677420944763,9.798676257816274,0.0010789844362647817,-0.00020656677385144003,-2.402074681984406e-05
1687554859.1042502,-0.051316187617028684,0.12282212681806971,9.877268104508074,-0.0005307210074957353,-0.0018967257659187268,0.0008123176936021
1687554859.1142273,0.18422288187246916,0.02458603503339052,9.73225859857112,0.0007686515217928953,0.0006461536802796077,0.0032702828007711
1687554859.1250322,-0.02604558473834478,0.03864455727348601,9.849301235790763,-0.0010712691298177155,0.0005716499768347839,2.8882217123935407e-05
1687554859.134236,-0.11775235290826779,-0.001192242714828521,9.873178829056522,-0.0010947009477428515,-0.001660189081873607,-0.0008420886755959
1687554859.144339,-0.07612086349019201,-0.07638679328218682,9.81805069361063,0.0006043903678930533,-0.003452790423102745,-0.0016959107765035
1687554859.155022,0.1651201081198733,0.04943949063734057,9.742064084689357,-5.275091108913877e-05,-4.822840835195209e-05,-0.0021943471678571
1687554859.1644697,0.029593077988585625,0.14253853923571164,9.848956554992467,-0.0009889208230755065,-0.0007091022809557991,-2.40684533881169e-06
1687554859.1743646,-0.022243756154524504,0.024266167607581872,9.84187746130081,-0.00047782015803909814,-0.0018456904290209927,0.0003265360551847
1687554859.1849427,0.0342023217169558,0.0285037723314743,9.799292427682229,-9.188499531920182e-05,-0.001837113903055654,0.0015074527014473
1687554859.194296,0.18405062601586222,-0.14638219368678188,9.667409576236043,0.0033648154031036817,0.001614362353853994,0.0012098199200079
1687554859.20428,-0.05171084792458292,0.13431217227691003,9.884399196389012,0.00023743830806320098,0.0005917681545740543,-0.0004881785302461
1687554859.2142937,-0.13470251974754868,-0.08786416087109841,9.854610410165654,0.0026357775976252897,-0.002375074258078031,-0.0006394263641016
1687554859.224267,0.1347690087021891,0.1257477714421846,9.789238524165965,0.0017714952561154748,-0.000849132576384459,0.0017022804946134
1687554859.2342536,0.13905151885579797,0.11335202659460143,9.766645118883606,-0.0015898276794456807,0.0028649305564455835,-0.0015148949627803
1687554859.2442534,-0.18516082543366333,0.05742284959294176,9.924633418153428,-0.0004509980871510527,-0.0024964951823936102,0.001038067520825
1687554859.254259,0.16451679888758344,-0.023876652413856187,9.717680642258308,-0.00021148549638018356,0.0009259303925312054,-0.0001245915941001
1687554859.2642558,-0.019073767901746603,0.013249464584318351,9.817811030206663,6.046671223514095e-05,0.00021591755881541062,-0.0001551216286646
1687554859.2744646,0.10948498306938548,0.006341019308121613,9.75958161062777,0.001152735541820923,0.0015845578868039472,0.0010171807494441
1687554859.2919128,-0.05786256544929571,0.10787491509502523,9.88808655885112,-0.0031767865142402116,-0.0005530044533091169,-0.0016236473624633
1687554859.294258,0.4630263190976988,-0.8378783376538084,9.287681651217927,0.0016262197903171571,0.0012895301214363776,-0.0007943807453887
1687554859.3042817,-0.0060976468654833655,0.23866050941037573,9.886932080018958,-0.001544005202889695,0.0001525493728570898,0.0015670716653073
1687554859.31425,-0.0035592153003253767,-0.07366376683570418,9.789348433650094,-0.0015957977528308664,0.0010570066462215924,-0.0026839017686473
1687554859.3243177,-0.14912911565847878,-0.13832968427304798,9.841886853314628,0.002624944689010751,-0.0029025584619347847,-0.001539116101809
1687554859.3342872,0.27661324114224084,0.21053516550068818,9.724982690024996,-0.0009103346499903583,0.002423864973121298,-0.0008636902370529
1687554859.345477,-0.020292868023557523,0.11296036895274214,9.86647040685154,-0.0009028814776641427,-5.620824211037435e-07,0.0031614887244029
1687554859.3552997,0.008871826628858236,-0.2544631400882372,9.733241951161435,0.0028015420225100296,0.0009780896580811602,-0.0004490739251525
1687554859.3643427,0.05065939319699068,0.07543598965670044,9.813459875891615,0.0020389510894268186,0.0016903603455783514,-0.0007068883446084
1687554859.3747168,-0.0517228150633488,0.2235674840017757,9.91568429929642,-0.0018084957067403815,-0.0002914996461429751,0.0005414901366418
1687554859.3846917,0.012843572687374754,-0.16239902226313127,9.752242657043848,0.002067666256555317,-0.0005649289279362145,0.0004364407919308
1687554859.394253,-0.03793049687877006,0.13029266429891526,9.867830070722693,2.5840960260683242e-05,-0.0015413455643957183,0.0004956694734243
1687554859.4043095,0.086828941314126,-0.04803513070433391,9.755790047231613,0.0013877835779774986,3.782170388855403e-05,-0.0005824615531639
1687554859.4142947,-0.04336009529350655,0.19127209548909818,9.903003804157125,-0.0015007838625669117,-0.001601687036450579,0.0002531467885671
1687554859.424327,0.17253964966481278,-0.0032893451282681925,9.71596026834035,0.00042146744744608655,0.0007992635872466308,0.0025326597220225
1687554859.4343443,-0.039717665363463744,-0.08866517327463468,9.810237867779787,0.0013866898573733578,0.00034441122990556467,-0.000267636222303
1687554859.4442787,0.05720264374520913,0.04855622488223595,9.790700109303701,0.000386800713321538,0.0016318735603757704,-0.0013487251293884
1687554859.454279,0.06233734244104437,0.11180755871172446,9.811831019363838,-0.00041076424280492383,0.0018427158899398857,0.0006233908184765
1687554859.464394,-0.11031376111197169,-0.18404299357974574,9.806306713436095,0.0032738778016406117,-0.00031382788968168583,-0.0012209872533606
1687554859.4742763,0.03250833581120744,0.19736436325074236,9.86223291780514,0.0005224230349659907,-0.0007754154227012967,0.0003988165240695
1687554859.4843168,0.10293582138976878,-0.13156495594720927,9.70934711833959,0.002462522081088689,0.001992480184461876,-0.002164589548953
1687554859.494344,-0.010660753502744817,0.1983262393337429,9.888491447259534,0.0005790449084091469,9.369518701470193e-05,0.0012574819316466
1687554859.5043375,0.0345648104706492,0.0004453024494514231,9.782299701974113,3.215746348845172e-05,0.0012071837045058674,-0.0011002557170616
1687554859.5143104,-0.12143976432782767,0.0330137343898671,9.884920422728214,-9.000815137872609e-05,-0.001660168953532757,-0.0008759799697475
1687554859.5243216,0.06344115031643136,-0.09079248271187858,9.763171719365868,0.0015799919718347362,-0.00046806487443677795,-0.00223685179884
1687554859.534316,-0.015419413483170104,0.2876851269469487,9.919175319833867,-0.001841646335869485,-0.0025624362198483418,0.0014895739855671
1687554859.54429,0.18635031867804702,-0.03590161493006256,9.705637684196242,-0.0005582899086463965,0.0008696692068443586,0.0015674527072075
1687554859.55432,-0.06476049543976041,-0.06867664303995442,9.82627147018557,0.0009847392061582269,-0.0006293846788488094,8.142324583215494e-05
1687554859.564303,0.06452808868166712,0.039370974402838134,9.786250901156345,0.0014995528452929827,-0.00016817980093856728,0.0015912648064511
1687554859.5742886,-0.02804652648212599,0.004451244970000361,9.818896281599136,0.002072885500332264,-0.0010458706437082759,0.0018908023899382
1687554859.584299,-0.1706851588872281,0.05188629684782341,9.920304044081293,-0.0014371029851190794,-0.0030854895511243765,-0.0036822469723449
1687554859.5943308,0.19122046607533918,-0.07322265017156022,9.69748775267032,0.002473359984735573,-0.000854013521766796,-0.0003935497538225
1687554859.6043608,0.2576367664119619,0.15700819534011665,9.736275152839655,0.0004319125632228091,0.0034814710000512267,0.0009993302351756
1687554859.6143413,-0.1595928286549968,-0.009880565087497888,9.89085535651109,0.00143733002568627,-0.0005213162987593496,0.0014023773779296
1687554859.6243825,0.13661423318055196,0.13241403000622937,9.780286807002787,-0.00032284915259327086,0.0018043479614626367,0.0021366418637296
1687554859.6342878,-0.03914359482604362,-0.10515043414171038,9.789644736003263,0.0016493130452603993,0.0011338114184255548,0.0004107499676717
1687554859.655726,0.000907616876916632,0.05586177109685137,9.828555632308886,0.000743325060087311,1.6584442074839106e-05,0.0005623412267266
1687554859.6579182,0.015501987152105417,0.3777774851059124,9.925557392678314,-0.0005221580617370208,-0.00021401345415125663,0.0012049582124415
1687554859.6645503,-0.0032799282862004116,-0.0973354800733057,9.789779483780219,0.0005533131489484053,-0.00020766689657480657,7.095680990798253e-05
1687554859.6743011,0.013371012326507295,-0.0722115064621598,9.78431209081694,0.0016492822618993416,0.0002751292105776452,-0.0018062145267652
1687554859.6856575,0.11284812937043173,0.22939363481416722,9.828332669592598,-0.0009162849656842463,0.0009464083056982994,0.0023251533689869
1687554859.6942935,-0.0212397571783595,-0.10135588559459488,9.790048154045431,0.0008014180221770598,0.0005981103280634898,0.0010123523657636
1687554859.7043252,-0.06516426697454404,0.08518505682117761,9.87961871870888,-0.0006003861505292363,-0.0014131809999406368,0.0012101718144219
1687554859.7142727,0.06866887483174558,-0.020422972002689662,9.769748843704189,-0.0007147574572301314,0.00020099361856731443,-0.0008659119070546
1687554859.7243657,-0.025790127533270164,-0.044066171078741306,9.806618448183352,0.0017148888565474683,-0.0012321351772856715,0.0006931031071542
1687554859.7343,-0.04225154180599042,-0.07088932049842658,9.819373235682713,0.002312052051859837,-0.001617692873063869,-0.002427939633377
1687554859.7443156,0.17848182286084918,0.20859126256673158,9.776312499162936,-0.0004647922070284019,0.001302174727279328,-0.0005187594383062
1687554859.7543008,-0.07373220439605069,0.07344709803035095,9.872788648187779,-0.0009427458137041052,-0.0008707789424728348,6.129655008746166e-05
1687554859.7643068,0.17148676291831885,0.0603617773745565,9.742987975431697,-0.0017418403955197805,0.0023072537297232285,-0.0003179508079813
1687554859.774299,-0.06799592704139913,-0.21198835973800356,9.776911609396379,0.003136809620963953,0.0005068494740592783,-0.0003160944492595
1687554859.7843802,-0.05847716770515847,0.11830464335056716,9.88916310877507,0.0009921803091807986,-0.0012693842936917275,-0.0006792876687871
1687554859.7944026,0.13503490546763114,0.10849975301649312,9.7683497918277,-0.0002788951255818299,0.0009393421900507486,0.0003585874051748
1687554859.8043168,-0.1083493422360731,-0.11056971029004191,9.834632630117463,0.002391764999091185,-0.0014862052808246428,-2.291363710926991e-05
1687554859.814299,0.13738848534806442,0.06557717365389418,9.771318890079572,0.0018732010988220143,0.0007944254934868138,0.0006133448746947
1687554859.824327,-0.09854486046645042,-0.01848978565599978,9.870284981877534,0.0013520632367181084,-0.0007783950832298357,-0.0019861150817053
1687554859.8343184,0.04170346516707236,0.26323753164878083,9.87898758694348,-0.002047667465479888,-0.0012012141926338157,0.000828701811373
1687554859.8443053,-0.019335704080740035,-0.10490936367932832,9.774773812346968,0.0001618201589112667,-0.0015160003656400152,-0.0004382609208153
1687554859.8543186,0.05130644136725587,0.02289972450975878,9.792605529470329,0.0008874939852311199,-0.001327495607682793,0.0006577118015809
1687554859.8643205,0.01721204876219333,-0.0967134309062113,9.76743984834112,0.0029218655775145675,-0.0009288617956164963,-0.0009132410218046
1687554859.8743043,0.10664783292612001,0.22190099751278453,9.825442642358952,-0.0009733109597436418,0.0007515782657322177,-0.0005306566185356
1687554859.8843205,0.029952859555891675,0.0862054958752571,9.827740639188233,-0.0013644563271568223,0.0004498356985357006,0.0008953709453305
1687554859.894353,0.16233421390674097,0.12804535743844453,9.773538556777225,-0.0002420426814393979,0.001308527171154718,0.0066714416439606
1687554859.9043283,-0.035753333771834914,-0.16721251551717414,9.77104649376022,8.87966248774805e-05,0.0025807074682458035,-0.0002948263012843
1687554859.9143455,-0.16353747497187546,0.003600576482686599,9.901789179132198,0.0003845763334353843,-0.0012075494631130185,-0.0005317760682703
1687554859.924379,-0.005832712910611878,0.05478412289175633,9.828812420697359,-1.7285484729258685e-06,-0.0017924293887638693,-0.0001394967134149
1687554859.9343066,0.0959227197901502,0.04049494455720013,9.770724312960814,-0.0006253414413864237,0.0001361712435102132,-0.0005108987265305
1687554859.944334,0.023757104911227084,0.04773069313129144,9.825605058238969,0.0003279409220461322,-0.0009232914535903672,0.0016587078403642
1687554859.954359,0.20523894444187907,0.12111724268072833,9.745118449739614,-0.0003649752575395995,0.002045028145652082,0.0038252937789036
1687554859.9643216,-0.14880138739878346,-0.10301554740477967,9.861518370801265,0.0016589932602229743,-0.0012533508538595303,0.0024261362100912
1687554859.9774635,0.023638374161388462,0.05993270042555001,9.818382190083028,-0.0005992834896853932,-2.179519866724557e-05,-0.0007366764643268
1687554859.9843066,-0.14100791704664142,0.32382248805571456,9.989753071138264,-0.004786854693064989,-0.0022927166357949278,-0.0001868163985239
1687554859.9943357,0.12146857899555741,-0.11911933287916852,9.697052166093082,-0.0010552439428389577,-0.0005660523572266492,0.001172182017002
1687554860.0043533,-0.06843092517888401,-0.09638149435864357,9.821846766750095,-0.00029527854736286115,-0.0013848716511244152,-0.002703238819264
1687554860.0143468,0.10216875944470111,0.1339675489926486,9.813059441572065,-0.00030944399850679386,-0.0011524089756836935,0.0016557184695227
1687554860.0243423,0.03014486429019761,0.12365062356142552,9.839575740594933,-0.003434961254788237,-0.00019613210669211682,-0.0004948797454165
1687554860.0343246,-0.0863443329565781,-0.16905316740248363,9.794166584141141,0.0008066605024187182,-0.002453652367255163,-0.0001491816532837
1687554860.0443442,0.046280802049229665,0.003807264946204311,9.783078773219229,-0.000939003004967948,-0.0006122581049113455,-0.0043136906628535
1687554860.0543082,0.19262374653669398,0.14438131327597453,9.757677526796531,-0.0007665457307531834,0.0014351777332450258,0.0002498118388427
1687554860.0643508,-0.055919687669156254,-0.10916906498994881,9.787747446418871,0.0020878049938043578,0.00011788913036753713,0.0002520146495623
1687554860.074338,-0.03845209711847806,0.18738286573711518,9.90872203109369,-0.0017004681241499526,-0.001316699831698994,-0.000265407218136
1687554860.0843146,0.10946812024666368,-0.08023487813112344,9.736528014212803,0.0003253323066487095,0.0006927204952683273,-0.000605919589758
1687554860.0943174,0.0197814780581899,-0.0388505919642731,9.779338093973653,0.002406291617470678,0.0004133283135725312,0.0002874214383734
1687554860.104324,-0.00787877723025376,-0.027894805341208397,9.799536850593768,0.0018702072388416195,0.0010164739749200192,-0.0028578374353276
1687554860.11431,0.048927147102349,0.19027031662797972,9.860441159173844,0.00013012396555489973,0.0005120515468619297,0.0001451136027423
1687554860.124441,-0.06888678060847454,0.09698662706059111,9.880044046585624,-0.00037499474743086955,-0.002045369470556936,0.002040164644826
1687554860.134372,0.19681035475790093,0.08211873518235611,9.741937493402222,-0.0018755375992539208,0.0018788636170725848,0.0013912292429847
1687554860.1455524,-0.005935135377126486,-0.06745865969592006,9.790118519424833,-6.245338285309358e-07,0.0017868385551279345,0.0002248197975529
1687554860.154825,-0.007407405652099522,0.02559930424726151,9.825887494638879,0.0009932989316134414,0.0007094762952339046,0.0017149753235241
1687554860.164359,-0.012656558291918394,-0.025734129493614852,9.811642797299125,0.0011650350495268753,0.0004453755548696844,6.431298749131936e-05
1687554860.1743677,0.08748704251101205,0.14314978752013402,9.805113284073068,-0.0011960790841896924,0.0019522438600696236,3.4479815043339914e-05
1687554860.184547,-0.11965347919314134,-0.12022792863607601,9.833940387847282,0.002550085259253608,-0.0013405266850939034,0.000937835296612
1687554860.194352,0.03050305202610778,0.029504120970865532,9.812563965187444,0.0017580866610920076,-0.0007195282490823137,-0.0003503580396102
1687554860.2043133,0.0030005945450205826,0.11302058379739235,9.85986125589833,0.00017969133455094562,-0.0013505995244407639,0.0002155170491857
1687554860.2143295,0.026017916708048934,-0.0077591261458575134,9.793349397986203,0.00042369102375405685,-0.0009281543331628916,-0.0007590256449805
1687554860.2244017,0.052454589700796424,-0.03489082427637663,9.779526132058907,0.002579148959468243,-0.0008703995125007102,0.0009315139737406
1687554860.2343988,0.07568392176574258,0.12745597772423845,9.812528085043683,-0.0003329241450956058,0.000708743317575282,-0.0002229497353585
1687554860.244353,-0.013341806167790241,0.017317274746156644,9.827365133446632,-0.0008641132270498706,0.0004222645229275471,-0.0013382847704963
1687554860.254355,-0.018855875422156332,0.029452843227837033,9.846141667531596,6.495022107748014e-05,-0.0011900431930966463,0.0004934241711123
1687554860.2643476,0.04214819531222127,-0.028989396757276072,9.778930729319542,0.0013073398394446664,-0.0008197517449865318,0.0002416093316821
1687554860.274356,0.05308881307288119,0.0025974929056256624,9.782685972589167,0.0012365427664519498,0.00024307781308411993,-0.000988882342823
1687554860.284333,0.008307360344562963,0.07643805646829481,9.831417341357541,0.00017075233239847426,2.8867998783488983e-05,-0.0010406366367863
1687554860.2943454,-0.009150413320413596,0.1559620336325888,9.877118159350779,-0.002045788995002339,-0.0007817442881497489,-0.0005917427646966
1687554860.3043275,0.09261729241483746,-0.09331841770712025,9.751697421128966,0.0005160730916499198,0.0004353220682430213,-0.0005496410471426
1687554860.314335,-0.06553712066757031,0.09944180046339679,9.880983780041399,-0.001330159853302654,-0.001396783684697828,-0.0005097795096264
1687554860.3264043,-0.0773850290512513,0.0295555035825046,9.866132379451326,-0.001217278028475089,-0.004204164307770054,0.0002967403684703
1687554860.3343356,0.3954275775004145,-0.05050996041893826,9.583624319200895,0.00012416379451161858,0.002112435777609715,0.0003604371282233
1687554860.3445904,-0.22242155151052065,-0.0315737714911004,9.91508509426544,0.0012194240202639595,-0.0030511843942976086,-1.842582645284157e-05
1687554860.3543713,0.21080132683261021,0.29387742148620477,9.799913995783191,-0.0032468321751204544,4.563181665436205e-05,0.001895636361554
1687554860.3643622,0.035756167611685735,-0.1363744940315986,9.748840127965714,-0.0008917000551022275,0.0009289104495740055,0.0001559365023819
1687554860.374399,-0.11543487556292276,-0.11612793997781518,9.828122991724985,0.0017309120037585905,-0.0015737358150261145,-0.0009523523789869
1687554860.3843403,0.0453190339402811,0.021271875616999548,9.79018736755981,0.0008524892340133947,-0.0002516338414319556,-0.0028049364504443
1687554860.394331,0.02873533767186889,0.1743293534068978,9.86094806645442,-0.0006462057080314507,-0.0013692233944968921,8.811701042188186e-05
1687554860.40434,0.10837160980721462,0.00044097356685318786,9.746991001177355,0.0009917902262339157,-0.00018195680619481915,0.002244704968292
1687554860.4143353,0.02218892311539247,0.11548479140602519,9.842719719858739,-0.0012228923258089438,-4.972884729661028e-05,0.001763752412047
1687554860.4243696,0.030432021266356933,0.11760050329575249,9.833388964169146,-0.0029905370400292036,0.00028926112717195235,0.0018699313346257
1687554860.434369,0.013006964577050603,-0.12900867461152882,9.770072841787663,-0.00022450799746529697,0.00037458506549408827,0.0009155025596225
1687554860.444388,0.004589287807857611,0.01725817133139201,9.816274342931832,0.00031082298329648757,-0.00017861795912733287,0.0015342636011734
1687554860.454775,0.10225442179056414,0.007175972446347993,9.75574098356169,0.0005470013029394029,0.001781630655481147,0.0012064354937717
1687554860.4643884,-0.19043889252623178,0.08233637347945882,9.929755928273995,-0.001914300490387705,-0.0015562511754372219,-0.0012220610682891
1687554860.4743698,0.11148574822057113,-0.03138266309384325,9.752402031484237,-0.000627571167142001,0.00021068146734509803,-0.0010830991254227
1687554860.4848502,0.040632428501641886,0.0932799045834266,9.823447115566017,-0.0015376624845714702,0.0003045405353738975,-0.0004874449973033
1687554860.4944751,0.044130296181098275,0.00029820296996099793,9.795860794228547,-0.0001995668267223068,5.713408156373082e-07,0.00121464011096
1687554860.5044434,0.10180928619069132,0.1294137697014177,9.80407266437872,-0.0017824220973033252,0.0014370288351106748,0.0021202735784424
1687554860.5143971,-0.2247984440984795,-0.2765639215279813,9.84144472721668,0.00145001906556628,-0.0017506926226065714,-0.0037764954199122
1687554860.5244737,0.1648263047454869,0.15655098924847022,9.764721504125918,-0.0002848129393442301,0.0007038935829353694,-0.0020717997853683
1687554860.534411,-0.046818078595237636,0.04105529683875739,9.852981098510199,-0.0004908745409746543,-0.000933371118724758,-0.0022089004800693
1687554860.545028,0.0009668883096143095,0.14382988506113584,9.868528172152681,-0.001619991217620028,-0.002506182263864184,0.0004323368607981
1687554860.5544322,0.12945045040339814,-0.02524122837317486,9.718698614423655,-0.000757968952626797,1.0992289978013934e-05,-0.0004133135830091
1687554860.5644567,-0.029897801123048275,0.09578237731296749,9.861618075210341,-0.0008365661332857855,-0.0017376583115758706,0.001901966852132
1687554860.5744803,0.10817822848299481,0.025571320817856794,9.768314655362458,-0.0018017834204831118,0.0004937929635710441,0.0004248866876548
1687554860.5843744,0.08156920201685874,-0.05368933238049532,9.743079312842005,1.1324748827447717e-05,0.0018501689875717521,0.0005496955541854
1687554860.5943627,-0.021588712260414384,0.12276612491236488,9.857940319328941,-0.0010690261421430684,0.0004129507534264943,0.0022875395785046
1687554860.604401,-0.1149180681866117,-0.057867032164347826,9.856256208610327,-0.0011226680269053923,-0.0015715102503460505,-0.00067593909847
1687554860.6143832,0.023840556202277284,0.08990551127268485,9.843764234201942,-0.002144896151455282,-0.0019008234739273278,-3.890840383635979e-05
1687554860.6260438,0.15913493071572077,-0.019589621818188182,9.73410724134149,-0.00046589444338817953,0.000979207655129708,0.0007054303255824
1687554860.634764,-0.03270551460105256,-0.004084724375655565,9.83319906238034,6.420404304947221e-05,0.0001533031222266331,0.0003157353908715
1687554860.6443975,-0.11383359430307784,0.03224905999539634,9.885322839539578,-0.00023156771446413522,-0.0024547683656298666,-0.000131300958343
1687554860.6544087,0.10438690596163637,0.07975101896920608,9.773511337599864,-0.0010816946218021966,-0.0008700355336948711,0.0005005108956208
1687554860.6666176,0.09066598357914503,0.016552613186049937,9.770817082625973,-0.0003753787993052057,0.000322801733012186,0.0015145408956993
1687554860.6747177,-0.1663789696176375,0.1449822594181975,9.956468262479634,-0.002376237079975919,-0.002934226747046693,0.001456060437307
1687554860.68444,0.13775134746570003,-0.15146698175835022,9.680222609778868,0.0014727399203997807,-0.0007266099682256373,0.0015022344428541
1687554860.6943667,0.09184961204644511,-0.07790002756505165,9.743781986374659,0.0027095512453754345,0.0012745976088551169,-9.516471112536412e-05
1687554860.7043858,-0.00887185679382559,0.210317296000296,9.888201579471245,-0.0006722979603071666,0.0004729327052761596,0.0006782176620287
1687554860.7143486,-0.07749813607063896,-0.09010889000173314,9.823650425442855,0.0012667512374944258,-0.0011077231956068453,-0.0003432585676239
1687554860.7248232,0.2319348078818968,0.026285998667652025,9.703348512805434,0.0036858859056361753,0.002026039448792452,0.0039006121638192
1687554860.734416,-0.20579387256062612,0.002821573434881971,9.912503677442487,0.002313911061291725,-0.0013882229601943127,0.0003872587527109
1687554860.744871,0.04072738299340621,0.2401629208543584,9.865404730291981,-0.003286708686143259,-0.00027807203454270233,-0.0012209278815464
1687554860.754408,-0.013184097378116204,-0.17952066338199618,9.76233210528069,7.276958308126707e-05,-0.0005235639414865204,-0.0030217474144922
1687554860.7644124,0.26762127875476255,0.04076380964094263,9.672239940549403,0.0013810799816040141,0.0036990388540863663,0.000363785232879
1687554860.7744288,-0.16938864854728403,0.06604818681604582,9.92739130321717,5.339477930947121e-05,5.9792951946830736e-05,-0.0002508974452541
1687554860.7843845,0.002820784293176743,-0.04303581449752333,9.799853533183017,0.0017230788367968972,-0.0005913856898764676,0.0003630489059684
1687554860.7943826,0.006877549501344581,0.2238678421194022,9.88246146996032,-0.0020420737201804593,-0.0009996821426549007,0.0007072605490645
1687554860.8044467,0.14647131046002718,-0.006521226186926919,9.720692593329984,-0.0019131820325813016,0.0020640002004655524,-0.0002207139791028
1687554860.8144295,-0.2119713853204098,-0.13682020136624565,9.867637216682473,0.0006569276342693314,-0.0020349631024001997,-0.0021712585170792
1687554860.8244226,-0.03880324270664858,0.13030013060249546,9.874842949315596,8.470501927641756e-05,-0.004191882179601984,0.0006796833891382
1687554860.834417,0.15627733001313213,0.11811314965301661,9.77926063858936,-0.003375352858042701,-0.00038166979900083686,-0.0022569553279356
1687554860.844411,0.1431309217300887,-0.04474876725274929,9.728402279104937,-0.0005236254308904428,0.0011725279495151293,0.0002754900320394
1687554860.854503,-0.0600262955066902,-0.06685484037653978,9.829748913432999,0.0014686156062891486,-0.0006569234182780297,0.0003254142771436
1687554860.8644023,0.06157486511643359,0.23343589871258005,9.853004356585119,-0.0024883766498861857,0.00011790120144553494,0.0007359644346831
1687554860.8744905,0.08356313606550611,-0.09659110511132481,9.730034464569915,-0.0006671076700421329,0.001876630252586903,-0.0004818584588395
1687554860.8850548,-0.05096481383248593,0.08453266196823078,9.864522832131152,-0.0009762717079138043,-0.00019128922420861316,0.0010365876492539
1687554860.894378,-0.029092581941104294,-0.05861679992434207,9.811920861572895,0.0006207567338125791,-0.0011281934009409393,0.0005902809621727
1687554860.9044187,0.08590010547766941,0.010594021816513225,9.775890492739345,0.0009541906133844126,0.00026618690220390974,0.0002047585272191
1687554860.9144146,0.0010086181359098229,0.13359168788358033,9.84781239379996,-0.0005165784608736582,-0.0005828125222813831,0.0011189217307798
1687554860.9244225,-0.039481391591438604,-0.05355218769414291,9.818564668463539,0.000818957078467244,-0.001610627863953426,0.000207720016591
1687554860.9344325,-0.05545070834959274,0.11367601518772552,9.863218782249605,-0.0012042573279786636,-0.0029550772301074582,-9.70304994882844e-05
1687554860.94445,0.14863125540306732,-0.013907029216060154,9.725260950298955,-0.0012109600117840244,0.0001346602484559467,-0.0018024768964426
1687554860.954408,0.08421882559372497,0.06442664588401602,9.794539191736611,-0.0013175222068148623,0.0006297559357944367,-0.0008230959815012
1687554860.9644015,0.5469305499632284,0.1619577354583497,9.955303091663104,-0.0030202823736952622,0.007855698639133978,0.0080565562653316
1687554860.9744046,1.3906132209241278,0.24386273506138995,9.351131480613027,-0.0019508034594504457,0.035541696690877186,0.0255191744486762
1687554860.984405,-0.741083260642647,0.23985803139892634,9.761926067650212,-0.005827179046269308,0.04316402896130833,0.0321323228250218
1687554860.9944105,-2.9146347137513886,-0.3165078977383789,10.058922629288231,-0.00186693593518554,0.01998737125826973,0.0262598813693
1687554861.0043986,-3.2065966664198537,0.006630081136378444,10.145196201003351,-0.002166748210824639,-0.009632597568015051,0.0172114622960759
1687554861.014392,-2.344860788848803,-0.4557679867851142,10.045662367451293,0.0014155163209567554,-0.030954685225876924,-0.0002383840787263
1687554861.0244565,-0.5168266267234521,-0.12528377699363258,9.7201746836074,0.0007484361638031614,-0.030344110053468768,-0.0157145662982987
1687554861.0344076,0.758967127283752,-0.17266148677640722,9.39517906703472,0.00390981588936328,-0.010254007828204764,-0.0232820520927237
1687554861.0444343,0.0373684241824051,0.17325843855861323,9.820432980938973,0.0015700466150315188,-0.0020489769385858415,-0.0248579076309727
1687554861.0544252,-0.4625855893412714,0.30641634632133996,9.93306146886079,-6.974495270305471e-05,-0.005413377571472254,-0.0170933092762755
1687554861.0644605,-0.7948568608307873,0.5681127572323068,10.213968887422048,-0.004187559041796981,-0.019948361572263568,-0.0021931944233404
1687554861.0745845,-0.2503329324178809,0.31967623851841437,10.109179421735956,-0.008564472178798126,-0.03225144242073331,0.0060167097668124
1687554861.0844057,1.050941586591619,-0.14225107625622585,9.508622955808383,-0.0012291469909692955,-0.02887938517251229,0.0146040533850861
1687554861.0944152,1.5454666767370948,0.0954375629577693,9.65784163760317,-0.005030253570429036,-0.01903225159409914,0.012543684727974
1687554861.1044097,1.7436299516285643,-0.16753119833132632,9.52342694524644,-0.004284295515367729,-0.0050331118199841715,0.0051425806428266
1687554861.114421,1.5290390308702553,-0.175566002711185,9.581621724006474,-0.0030335140702951826,0.009014255504944963,-0.0006390119255559
1687554861.1244595,0.4941416472368454,-0.14161222236898077,10.02448147622269,-0.004690400354606357,0.007777472424283676,-0.0087702479963229
1687554861.1345105,0.5789417482366428,-0.3277216559596239,9.859277216594707,0.0007008200324593245,0.008808622870601997,-0.0116066998620556
1687554861.1445134,0.3855493582419443,0.035346667495404736,10.005798259397798,-0.001165785837141793,0.007711883140298953,-0.0135751488436983
1687554861.1544378,0.9069806892382564,0.09140666810182346,9.604175185081365,-0.0017880010319602602,0.01949795959212326,-0.009911730960481
1687554861.1645284,0.4092022824965604,0.21557376249006704,9.578298472296401,-0.0011863373750029456,0.027089393149182028,-0.0007667255871968
1687554861.174447,-0.484633599378361,0.20223659620844245,9.731972086222678,-0.002899245825677779,0.026762701133745993,0.0043135128631217
1687554861.184412,-1.2963828896236713,0.07607113805621002,9.934022788003787,-0.003776658429730746,0.016842572978224737,0.0043916771369947
1687554861.194414,-1.3133113224178918,0.036293008824546884,9.88937206431503,-0.0017965481766842183,0.006749701381030859,0.0088011579769624
1687554861.2044077,-1.385378925768813,0.04392423616779809,10.003834339454263,-0.002506238800577226,-0.0052472395820750755,0.0087315416145099
1687554861.2144165,-0.8926580155351203,-0.0043440686083459235,9.897249211492731,-0.003105607634595267,-0.010552076676493674,0.0049928346830381
1687554861.2255244,-0.4778662389387222,-0.012355746675031885,9.790558778167291,-0.00332902497461,-0.01001082239130564,0.0006968601206278
1687554861.234421,-0.3477918600558447,-0.05458444890769917,9.724696366977541,-0.002950644791170829,-0.007467480018794093,-0.0038111951020585
1687554861.244444,-0.32461698611758133,-0.03096663998605045,9.730936061739826,-0.0009401180082438014,-0.006587243534183044,-0.004724953398578
1687554861.2544365,-0.8283907347551033,-0.09345411978349,9.96866113404478,-0.0012080579386870892,-0.014734523045821091,-0.0101358593259977
1687554861.2644355,0.021620868742565965,0.16590172556723382,9.920636124162801,-0.0024294839015181068,-0.014704157720471353,-0.009853703976147
1687554861.274434,1.548021616953971,0.32952577934526367,9.72525395341917,-0.0078066726945482355,0.013023151595031372,-0.0034785765041636
1687554861.2850084,0.9227811145784124,-0.04687935981332946,9.536787523260104,-0.0057415702799260525,0.03922866231949223,0.0107341212402058
1687554861.2944698,-0.4522731415493459,0.10917950314489488,9.676469552487434,-0.003724271645620731,0.04768165310832935,0.029935558251567
1687554861.304422,-2.366505709937012,-0.19751915509327372,10.00458865475526,-0.004452701887375585,0.03417519024044934,0.0320646305750085
1687554861.314412,-3.1676822259819923,-0.11410682006397121,10.099720592626086,-0.0019047716692765946,0.005333667028658119,0.0365010173241568
1687554861.3244846,-2.5934208888313344,-0.521998636816049,9.948148512649833,0.0015980724077365757,-0.01660209862103042,0.0312118576089812
1687554861.3344254,-1.8101843819262076,-0.5478165997868212,9.720920198850875,0.009515625212806477,-0.030058351435116985,0.0205711786816789
1687554861.3472288,-0.2334367275877522,-0.16034528731272243,9.561951487746724,0.012587629703115343,-0.02118055181891717,0.0098794288183523
1687554861.3548472,0.1244413562381287,0.11515452851686256,9.485026882512779,0.009551219388342691,-0.009686456522793522,-0.0053846604009197
1687554861.3645053,0.17039976447743765,0.30982018108499,9.750767093374966,0.0051575956579633705,0.0017404025295192239,-0.015867956988983
1687554861.374495,-0.3860125555114228,0.008257910617152716,9.805932768013529,0.0024290219623264806,0.007951417669765282,-0.0305278143663929
1687554861.384497,-0.9820024034219756,-0.39188457603442883,9.990427166913427,0.005902756718689136,0.0018820125700031076,-0.0426942883809136
1687554861.3945453,-1.1579406065454525,-0.24543155860669966,9.912152737583584,0.0070774646178106025,-0.007945859845048402,-0.0479789926488922
1687554861.4044988,-1.0343610824695724,0.11713784535776225,9.960965773059648,0.007122500307274447,-0.023284295494677257,-0.0385660557826088
1687554861.4145026,-0.3333801299626975,0.8547134681958727,10.344402479302309,-0.0008413610016287826,-0.039758118434125446,-0.0174640687932299
1687554861.4245644,1.352645667566644,0.7278490177992214,10.006573120229294,-0.0085783757868758,-0.03580129952272189,0.0045056502982003
1687554861.4345496,2.124013830320362,0.05350941719850476,9.795775616468369,-0.007190537304300784,-0.022894027360455906,0.0259410039703322
1687554861.449682,1.8066947910584388,-0.20998937200579326,9.640659723619708,0.0014583481567074954,-0.010540140842704326,0.0405280226091815
1687554861.4545364,2.022131565097824,0.7020365001706228,9.485180624203924,0.0025857161742432215,-0.006922184342027023,0.0577976674954368
1687554861.4645402,1.1161692710056186,0.6602506047201365,9.680464377219899,-0.0018678999211567116,-0.012166630971290601,0.0702174687008334
1687554861.4745953,0.8931235727668045,0.27853602514922204,9.798066916543288,-0.0021200076909593337,-0.02441745460910534,0.0676001169900371
1687554861.484514,1.689352044742845,-0.11969086494652109,9.78475780901781,-0.0029599978940773983,-0.023763660940131767,0.0472790607432795
1687554861.494542,2.6736113300535806,-0.0652320624479643,9.517788817125584,-0.0013416225303437349,-0.00763100993961542,0.0227464595059825
1687554861.5045033,2.557747371568718,-0.07380770835870895,9.753901531071874,-0.0056830439783991165,0.010576501114909142,-0.0074840077017472
1687554861.514511,1.769887137106888,-0.21029592341925846,9.850866785830684,-0.006721071130937205,0.020989034921936645,-0.034218507893853
1687554861.5246086,1.3244338481683422,-0.3298397257810567,9.952916303351024,-0.0055532174240121,0.02542194721161173,-0.048224791028075
1687554861.534525,0.7353791829911699,-0.12238273988659368,9.979607498614103,-0.005123423085034774,0.022032491111396966,-0.0437878585238979
1687554861.5445664,0.43713105122340135,-0.10183975768564699,9.797197314286075,-0.0016487018887732493,0.014758645644046057,-0.0379802762349175
1687554861.5545695,0.4414822423213045,0.14621686537279957,9.677247670734976,-0.0012016376862938188,0.007615579634334413,-0.0222427035500334
1687554861.5645192,0.9008731220132051,0.22556453366447368,9.569122954867941,-0.003801475171595049,0.010094766467583326,-0.0127222790201233
1687554861.5745342,0.7101494995167699,-0.335398079750918,9.531759361611881,0.0012638062712486333,0.013065529421087723,-0.0094970428203271
1687554861.5845337,0.7460987166500793,-0.07534437536772283,9.751106536931246,0.0006721583505704184,0.022582882741834547,-0.0081474222992585
1687554861.594525,0.2620474221223351,-0.09960173778760265,9.765736671623335,0.0017662069590704112,0.029778257779463205,-0.0015239930530117
1687554861.6045249,-1.1109542698139223,-0.05935359609550759,10.04923506221919,0.006243089602831701,0.01779774164731301,0.0065148979606999
1687554861.6145127,-1.4199770481159417,0.3229299146319788,10.268595344508817,0.0012287532551524584,0.0001286873986944495,0.0113019914547873
1687554861.6245255,-1.0280741137849163,0.048762842706201834,9.904536658373594,0.001671763001990089,-0.012100274158261363,0.0104775809864474
1687554861.6345289,0.022101669818687084,0.17453347306610328,9.704160233587727,0.001336446923813614,-0.012662735209800166,0.0109716261918617
1687554861.644627,0.632549177772947,0.13172086120574691,9.558786563441112,-0.0013197404700765717,-0.0011695500874448592,0.0019328886242544
1687554861.6545243,0.8428985143232143,-0.058433280691001996,9.54583957168934,0.0011837044446388267,0.014971775155421245,-0.0045769979064391
1687554861.664544,0.9001823619902101,0.06228115016846248,9.933344123619818,-0.0013364248733455238,0.037812262758106424,0.001438397635469
1687554861.674532,1.868484216254688,0.5036049967840627,9.623036099260094,-0.0033747334650505115,0.08514262565965129,0.0502378204087687
1687554861.684533,-0.9331271539959284,0.8235452202436427,9.668850601801429,-0.004061944562207592,0.10516421889697083,0.1002808892349673
1687554861.6951897,-4.802218763250314,1.026768530802917,10.12055341038776,-0.015599262367220248,0.07775859846261107,0.1346777760605289
1687554861.7051337,-7.005600085860209,0.0922161778708288,10.530114256625911,-0.022497749943244202,0.016561420344784986,0.1378291779379321
1687554861.714549,-5.392501894366945,-0.9920816856649441,9.868466040306151,-0.017846242751805907,-0.02619200484614803,0.13083756800694
1687554861.7249084,-3.547803717946538,-1.5610040195585821,9.128397874376796,-0.006336195042018444,-0.041326472780238294,0.1219286703686191
1687554861.7346027,-1.1037016114299312,-2.6461580956458857,9.357180882803753,0.023128560426626654,-0.03458106360347937,0.1145487436274959
1687554861.744526,0.3788285777971456,-1.1079156638231482,9.15382416378943,0.044328793585385586,-0.0005446411940601078,0.1015588724235965
1687554861.7545323,0.1970446274397394,2.0486630017905503,10.004584102891215,0.022188956902480926,0.03406873998568861,0.0820403554658366
1687554861.764536,-1.3630829978206604,2.143933877100374,10.461979956897965,-0.007927603427103698,0.047728651392687504,0.04993116196198
1687554861.7789426,-2.2315902923678146,0.7110365644885691,10.3495032802012,-0.023005304196586134,0.04612329066078428,0.010158845148511
1687554861.7845397,-4.384076823160606,-3.0791700145661247,10.043090319131018,-0.0065319285402599256,0.031760105099565415,-0.0271764389057682
1687554861.7946737,-4.306327087031859,-2.0261462646920254,9.75789465516629,0.021337708757975613,0.004143659107448263,-0.0556165716429279
1687554861.8045568,-4.242376462966231,0.35717073414899264,9.896806091110932,0.01854902204374097,-0.029001986009796938,-0.0705380133171604
1687554861.8145394,-3.1624611526348985,2.1075501645150334,9.88003174145108,-0.005112088282470932,-0.049793469509818,-0.0689794636149929
1687554861.8261998,-2.1774581383088027,1.31933380271347,9.93011965384979,-0.02747972530191857,-0.06650941679837966,-0.0540426588435696
1687554861.8345394,-1.4547558690050133,-0.300159316647816,9.617859847817652,-0.021456233131319665,-0.07544857761240058,-0.0376776969810055
1687554861.8445413,0.11188092583792948,-0.9987797449993396,9.389497859783448,0.00016106445719341162,-0.06940933293681296,-0.01855421539443
1687554861.8545494,1.4312196178631116,0.8330866513881021,10.339462166705179,-0.0032876307465492622,-0.05378130597658705,-0.0085450160135553
1687554861.864524,2.2839998520383697,1.5652979534079592,10.475828047775906,-0.026409835556003895,-0.02627710016231169,-0.0122929430385159
1687554861.8745248,2.6684865538271416,0.36488450877383904,10.161752098148884,-0.03649332497805201,0.004019876301117066,-0.0149807288129852
1687554861.884519,1.9352871033074655,-1.570532068398309,9.492806447013793,-0.022190394877056294,0.027094157938675638,-0.0210243212808893
1687554861.8945386,1.360832510107984,-1.4235474053673374,8.683931642926893,-0.003935698155944833,0.04618542322652026,-0.0137961172317193
1687554861.9045212,-0.6927663302858672,-0.5296383039365377,8.720127310865902,0.0015810499143785856,0.038065605141345236,-0.0110832202066706
1687554861.9145155,-2.1469222756747843,-0.31169271667177895,9.069766842452804,-0.0007925310033921885,0.007502183814572733,-0.00929809089797
1687554861.9245503,-2.707163710525995,-1.5859053915530514,9.687601136783531,0.015200164104557844,-0.03432548129894173,-0.0078964234148191
1687554861.9345143,-1.6368962165534302,-1.2800033301808997,9.838913951730117,0.030160057066571575,-0.06477391559159316,-0.0078173811365889
1687554861.9445567,0.44498291098311327,1.9774291038679335,10.81945595330334,0.012787971486118533,-0.06938640379600687,-0.0095424932246135
1687554861.9545271,2.331524769773554,2.738557896103283,11.597781999082379,-0.024687837393861788,-0.05275669931561968,0.0003614406282974
1687554861.9645534,4.802870170432259,-0.14384731840793855,11.094694666384923,-0.017890658736791135,-0.007485204082170775,0.0125795341278387
1687554861.9746914,4.117133447326006,-1.3309222560734066,9.675140114652994,0.007173718252242489,0.04310124389005349,0.0143326753000689
1687554861.9845426,2.9351330288784623,1.1168894959887397,9.223204668216283,0.007630011365681043,0.07258251079487503,0.0241016418854667
1687554861.994511,0.6336553674470636,2.0044364763291016,8.5383703120984,-0.013983573491381003,0.08277021343678323,0.0263585568587256
1687554862.0045395,-1.6806429957573334,1.3949865946179982,8.69193256165712,-0.033911159118208765,0.06035703343275699,0.023063299171157
1687554862.0145693,-2.777931674107723,-0.48733147313530445,8.963422642957878,-0.03451819345800076,0.021806545033647432,0.0193255552272273
1687554862.024625,-3.786389099740642,-2.478612552098212,9.47294147645926,-0.005166613329278397,-0.028271042676675733,0.0047703715222848
1687554862.0345504,-3.4047617049286996,-1.9477582048661009,10.542986557111707,0.013695437150729513,-0.08301723859008546,-0.0188793885340021
1687554862.0445256,-0.4393790540750615,-0.2909819162637653,10.206867307193882,0.013471526809971735,-0.09533699026814581,-0.0329154833038376
1687554862.054532,1.8168862606611755,0.49259894864932424,10.715850311115345,-0.00025128934128006223,-0.0822785207304665,-0.0486685513337181
1687554862.064532,4.39346410954937,0.31999737844716936,10.704265860767705,-0.011795150227402434,-0.034658847205856276,-0.0583944535632656
1687554862.0745244,4.929299433739232,-0.8824423621211777,10.471334402678293,-0.0008646283948989807,0.018354843675772343,-0.0489172107358502
1687554862.0845304,3.814197989164128,-0.2502835338590615,9.695576879291032,0.007510150579413916,0.06540146953411949,-0.0349391168733166
1687554862.0945034,1.2623636522479107,0.9141241271370952,9.250723447630715,0.007268030576396109,0.08167709829289663,-0.0159592191507147
1687554862.1045237,-1.3091830780899267,1.6064527125797707,9.100435152333773,-0.009274562803401516,0.06672212981215192,0.0001649754536299
1687554862.114511,-2.8854043226461425,0.9851284264701475,9.344974201851242,-0.02012216794394627,0.025774663740536472,0.0111826340849472
1687554862.12455,-2.483993656780583,-0.4604739648736659,9.236445233479857,-0.013080588070826987,-0.00995967022983356,0.0131184094767047
1687554862.1345215,-1.1738876422020674,-0.7883025990216028,9.388519764010697,-0.0008746031166850286,-0.030617882219093902,0.010850001982875
1687554862.1445446,0.034858256428347514,-0.5353329277294775,10.069606441291485,0.001386730206008693,-0.0354802052097539,-0.0026334231537805
1687554862.1551793,0.996915276272476,-0.6007276556633142,10.142421066981658,0.006681916632322346,-0.026050348924810243,-0.009452857152097
1687554862.1646273,0.868558215419298,-0.9137904142907415,10.344558413025627,0.009628550619052862,-0.016978398686806728,-0.0270423619826363
1687554862.174742,-0.09930749531886571,-1.137283733537591,10.124770111169822,0.018341621034947086,-0.02298729489436426,-0.0494355811555908
1687554862.1845827,-0.19089444591194848,-0.723153601512933,9.802668441832035,0.021898573180693964,-0.035020144483100514,-0.07456844959455
1687554862.1949906,0.27870291887292076,-0.09559672673972025,9.969070745978714,0.025638084371444308,-0.04960872527137836,-0.1047025537868069
1687554862.2045398,2.116679525609127,1.7981462546912894,10.08941285246129,-0.0007945502468475711,-0.03956384814613372,-0.1235587886353062
1687554862.2145507,3.4963594091183143,1.5914660791133761,10.063326652865253,-0.017406249614637135,-0.017429638471479884,-0.124644300975375
1687554862.2245924,3.3189552437605396,0.45242248591340767,9.747568356055417,-0.024456073962823163,0.008280268040685301,-0.1246717191119717
1687554862.239614,2.374056189587897,0.10897153847822177,9.852175077527589,-0.020310061097353484,0.019716009425343083,-0.1212972766538189
1687554862.2445238,2.539228302811428,0.29813115345804525,9.160224220672248,-0.022455582671907958,0.03033237141486091,-0.1175290412087963
1687554862.2546096,0.8069706562296157,-0.2604108467981811,9.696755036370789,-0.02103965648139995,0.021498376357891896,-0.1188275581975506
1687554862.2646558,0.7327998510338689,-0.5944192235396019,9.593578757664172,-0.019282089567958176,0.014793700400105914,-0.1121154642482327
1687554862.2745802,1.7895747407594809,-1.2335748976406995,9.629242167320129,-0.006667961606226273,0.02154428771921009,-0.0826961166043804
1687554862.2845123,2.333200695327135,-1.0398367667756996,9.388882398613843,0.009375234823770225,0.04190126294632097,-0.0474068588395641
1687554862.294561,1.7915762933859554,-0.5883975442585967,9.366394211761728,0.018576612465181285,0.06400798700859979,-0.0168031464149283
1687554862.3045597,-0.1011321215277494,-0.01061176775691042,9.684813900505745,0.024199846728181915,0.06477509135687703,0.001562590868674
1687554862.3145883,-1.5710338932930221,0.15320115926424957,9.830144544867869,0.027760192812413327,0.04985950411076836,0.0002703367914034
1687554862.3245506,-2.310361504383156,0.9951134062892197,10.032596028555417,0.018632650727714688,0.02798956342108014,-0.0114569953461216
1687554862.334563,-2.433840532538684,0.8865611080879764,10.263370424429386,0.007606286403211469,0.003612037714132282,-0.0310398629684971
1687554862.3445363,-1.7335256172312308,0.6057867476493933,10.13119751333819,0.001268759284698346,-0.010100996674830675,-0.0502811624486969
1687554862.3545396,-0.9025995944303242,0.5434009383547407,10.17429317528727,-0.006310177138456992,-0.012902082119416373,-0.0670911586661862
1687554862.3645246,-0.34806167898450174,0.291869152579802,9.946213883399173,-0.010309344428872717,-0.008977962735103363,-0.0767732254047917
1687554862.3745418,-0.20363273081867514,0.0787737543191615,9.851338619575143,-0.012136758474454354,-0.0034009211601404863,-0.0803763559837864
1687554862.3845406,-0.20535374905659215,-0.4375173285950093,9.609583020873284,-0.0068726262847648946,0.003302860268570066,-0.0861050776024388
1687554862.3944895,-0.8658970014856562,-0.26710469485714294,9.666202040193266,-0.004311842422126544,-0.0016933414684252037,-0.0895878142495678
1687554862.4046104,-0.9236882486902535,-0.19851254108092878,9.735344051904251,-0.0021180128094113113,-0.009716410882471483,-0.0867267391462849
1687554862.414513,-0.5678440155175638,0.010999029850831626,9.66433596374031,-0.0018450153466925575,-0.013592338623338847,-0.0795004582782314
1687554862.4245086,-0.3035417440037012,0.014182699472793313,9.768898390168173,-0.002695748193963892,-0.01611433074793493,-0.0721921837707089
1687554862.434537,0.3556010556311545,0.021741913830442494,9.869137634442959,-0.0049767704316974635,-0.010023957480725714,-0.0655392101784275
1687554862.444533,0.47614311096614925,-0.3061671040470372,9.947641923573773,-0.0012960021881074305,-0.003288050381488755,-0.0561008184035347
1687554862.454535,0.527379361157801,-0.4021944526299874,9.878076950945806,0.005437529173328167,0.004083674200023893,-0.0477334028859661
1687554862.4645703,0.21956003346643335,-0.16345036325511192,9.860096295148416,0.011668058494374757,0.0065693483097731585,-0.0420135325570629
1687554862.4745216,0.15790965220811176,0.5164014225233612,9.759302843524607,0.008067042805075276,0.00837839653377125,-0.0347611783822106
1687554862.4845796,-0.05792546860292658,0.33710900963516044,9.570223606327604,0.00653100457209828,0.010306611098149659,-0.0364261074741409
1687554862.49458,-0.38753038730715866,0.5012595365273752,9.694631585323364,0.0008413795647125231,0.005510044459708025,-0.0362855932493733
1687554862.5045395,-0.3544882689612566,0.22604789446717605,9.605634747171107,-0.0006889465158838553,0.0027763054968462323,-0.0396208605547474
1687554862.5146203,-0.7772188839845863,-0.12498474799216124,9.61130593906866,0.001936848400472647,-0.0034241165875074087,-0.0460686116297768
1687554862.5246117,-1.9665330574789646,-0.1877745382613637,9.841101827245433,0.00951451872840622,-0.030030773113973546,-0.0600497267027424
1687554862.5346324,-0.015976395068482002,-0.9441632998646392,10.373667466190707,0.022148198692065555,-0.04672556100675983,-0.0897243833919094
1687554862.544577,0.8737207344771283,0.8785916349980942,9.291682369625194,0.01043321633414882,-0.03144969463526796,-0.1241248613973187
1687554862.5565033,1.1370463413763185,1.1815607019434742,10.313802436295054,-0.012632831885981471,-0.031208135376984133,-0.140855512656741
1687554862.5650518,1.5546530086365615,-0.11552215772544397,9.811843005506887,-0.022779614293638346,-0.018696128497087214,-0.1613294101138638
1687554862.5745757,1.0325740637372922,-1.3466931939611473,9.887902003297615,-0.013469890020054017,-0.015650583978991876,-0.1770068622012661
1687554862.5845652,0.4641034523674057,-1.605687864147119,10.03224869201772,0.0018751657094814075,-0.02736528670983386,-0.1873994833608196
1687554862.594556,1.649813717503108,-0.7389988272073076,9.811851121633877,0.004463312784596946,-0.02105181244364517,-0.2020728803058193
1687554862.6045508,1.8437468699099406,-0.30464106907598704,9.647169407168112,0.0035288963049901812,-0.011731817530575587,-0.2069315231223629
1687554862.6145434,1.992731494686124,-0.6590202982131679,9.522353371439843,0.005182896612158939,0.001146318212735686,-0.2136551803727673
1687554862.6246817,1.9718301679886208,-0.38309395000953944,9.707330173608181,0.009331447006635504,0.015161307881606613,-0.2108703768630551
1687554862.6345675,1.4533743302057578,0.40456771120808716,9.835275449739136,0.0027596169649718137,0.024558776667469077,-0.2017091280599163
1687554862.6445403,1.3610568259570588,0.1920887002279495,9.972781601287462,0.002685415200151902,0.03299542837100843,-0.1911985791106747
1687554862.6545477,0.10361085219083867,0.046562586451618156,10.043585777738004,0.001552063085694851,0.029947843601470705,-0.1880002236743496
1687554862.664561,0.3624118344178245,0.2732256526957787,9.755184829075672,0.003919465907516269,0.029711279048472233,-0.1785338139911221
1687554862.6745944,-0.3517202906347596,0.11663128643933002,9.722747111400162,0.004182578461641922,0.02569137859022547,-0.1851085043330715
1687554862.6853652,-0.21437615747117517,0.28374570251236547,9.555331781686354,0.004495390731545381,0.024421841464773848,-0.1898461646218823
1687554862.6946323,-0.46405697501514254,0.4932116706043629,9.539828266062768,9.346725785972124e-05,0.023970753008083857,-0.1915514982123898
1687554862.7046068,-0.7422782298507402,-0.02923054820018653,9.755691036488852,0.001287092855678419,0.0186705994033212,-0.1959781861682461
1687554862.7145708,-0.7118947316688351,0.5355314752005491,9.833655643966368,-0.002091557866530681,0.012954789057173304,-0.1901433533807324
1687554862.7246606,-0.6545718360966557,0.15531366953619424,9.932310328525997,0.0003201376359734819,0.0074875007414597254,-0.1852447158475445
1687554862.746034,-0.5969863539694671,0.18760348826099466,9.99391513991372,-0.0027653961260764516,0.0029774568153539483,-0.1836502170939968
1687554862.74709,1.4568648141860354,3.1968332607110805,9.925920242541936,-0.00499586941996032,0.004236708913541115,-0.1747516608615444
1687554862.7547324,-0.7810253967039806,-0.17693796241397997,10.017301890056537,-0.0019451690336983365,-0.0005793349129755339,-0.1743336683888958
1687554862.7645288,-0.7224753797243118,0.06666269652032235,9.86203463331648,-0.0018068026322140736,-0.005222562101613311,-0.176897770800166
1687554862.7785044,-0.425070169365063,0.3161715059313899,9.752143933833814,-0.006664371509877579,-0.007879596853141161,-0.1753097242494152
1687554862.787454,-0.7466942654991856,-0.3782959633902449,9.689816287320305,-0.0032706792820716337,-0.013155602410388979,-0.1861070758481549
1687554862.7962933,-0.11199248164326188,-0.3061475312325862,9.505443699571154,-0.001851020008694621,-0.010426885898175114,-0.1911685979743527
1687554862.8047378,-0.22873035250074747,-0.4890617232054642,9.541986266357808,0.003451420122968228,-0.010883530019654607,-0.1929415381331967
1687554862.81456,-0.3134416932491028,-0.5730125294925846,9.83674466912232,0.008123019838069656,-0.015445776343559349,-0.1970689660687969
1687554862.8248527,-0.0012052509937176045,-0.19452443510862338,9.86797330834954,0.006970655866954305,-0.015659075554112667,-0.1980888760467098
1687554862.8346012,0.2827839502558528,-0.16583287200389496,9.85512989717348,0.00854411134477412,-0.013888352424297541,-0.1925690240045117
1687554862.844632,0.30708171329753386,0.05549731677341866,9.993100733656467,0.005276539728280877,-0.011323649598849201,-0.192430756129794
1687554862.8616097,0.6843501358410138,0.05184197855960783,10.055512793814035,0.0017342010633657249,-0.005469772515505216,-0.1894750661035107
1687554862.864728,2.0706192074733596,0.3457063155989073,9.262952080488063,-0.0010954378928867518,0.005917050568361721,-0.189411751069598
1687554862.8752024,0.5346903795256946,-0.26842324514018745,9.89818524353194,-0.0003517396428165014,0.00991701035665859,-0.1896555340667294
1687554862.884941,0.27121839182631785,-0.6221841049064601,9.647812394643925,0.007326503037564804,0.011368884394299308,-0.1975012189527081
1687554862.894791,0.2520800955746285,0.14095185546835232,9.669609639765135,0.006889559935267586,0.012802108583428399,-0.198324880637698
1687554862.9045618,0.2548260923050866,0.2361438072161772,9.558603810598546,0.005260884329918751,0.016352205333200136,-0.1999480343242214
1687554862.915071,-0.008777792239720278,0.22640046937712555,9.776221008145711,0.0046250978199047985,0.01339247726775142,-0.198209113516383
1687554862.9247818,-0.18869239481817324,0.1697381136067058,9.794547428675019,0.00450528676706824,0.010984284456792054,-0.1960043824096249
1687554862.934623,0.03843603202748856,0.322722766863321,9.849340569051742,0.005365068131904089,0.00915542438413337,-0.1856685644765423
1687554862.944609,-0.1726180502939472,0.11821613586030558,9.961115752871478,0.003830387192630296,0.007264058762216334,-0.190149015821986
1687554862.954584,0.054533681000869194,0.615762725014664,9.992152281090611,-0.002835363885108371,0.006727260269649819,-0.184478736557536
1687554862.964604,0.05690958485140926,-0.12137049139548124,9.807151072532971,-0.0011052463843033726,0.009146483281662779,-0.1855963981528805
1687554862.974911,-0.2423414248151533,-0.23607312832103589,9.815525527618506,0.0028956991177138767,0.008204098829822508,-0.1913806116958187
1687554862.984664,0.015017607267311247,0.4525008018297148,9.879443854086817,0.0006007693728247852,0.01076623564860258,-0.1937274253745602
1687554862.994615,-0.249897124872754,1.0501648516450925,9.951337538723406,-0.011071498923414587,0.01599584728993118,-0.2000761098046826
1687554863.0046751,-0.9789591965073874,-0.17281089745814357,10.056234755467193,-0.012648793993014293,0.013428527630275541,-0.2084621554990338
1687554863.0145602,-1.3930825508347457,-0.47636375604041087,9.660072525303008,-0.001962732080072976,0.007270025274550982,-0.2146137869735287
1687554863.025319,-1.8636910998979845,-0.38528252058656826,9.851254136623703,0.005840468065273549,-0.008670747808935982,-0.2205370283504055
1687554863.034634,-1.5837479121460016,0.35985957325057927,9.505731213298946,0.006306019270406187,-0.017901238278825355,-0.2230960941691921
1687554863.044616,-1.0883936797044074,0.6282714299790725,9.675750417307096,-0.0032008438135699086,-0.02421574232076433,-0.2224396384139584
1687554863.0546546,-0.642233849064266,0.2122758858600534,9.609683615295436,-0.006142982904289204,-0.026042975217074226,-0.218010253347926
1687554863.0645893,0.1617817691724747,0.5851689844644866,10.112399593946508,-0.013553483027563906,-0.021859767685151188,-0.2128446615119503
1687554863.0745723,0.5020060557156071,0.27053470945647223,10.229916240437953,-0.02324543977985032,-0.013674762511108588,-0.2042811429877804
1687554863.084608,0.9102223887946411,-0.7118761374104313,10.077642107325264,-0.013545169122048428,-0.003956262187766161,-0.1926547503848599
1687554863.0946088,0.48359064464644136,-1.1224787376920262,9.877585603364032,-0.002026838296658729,0.0016855872386558179,-0.1909343666215466
1687554863.1045997,0.4114015971235391,-0.7452307342963322,9.60633436051811,0.0077689545002919145,0.0062305097719883035,-0.1971217161794232
1687554863.1145942,0.3528097567344602,0.18759278754001157,9.519660344757774,0.0058033015948797595,0.009296558169982911,-0.2060064143319653
1687554863.1246412,0.14727553909800323,0.5472834021378105,9.462636842120117,-0.0048023257172681464,0.011530382659350188,-0.2158198720593975
1687554863.1346278,-0.04730359002303629,0.07489089836254596,9.629255166925265,-0.010655582344529898,0.010020267619334527,-0.2235774165769146
1687554863.1446133,-0.5330575338886128,-0.6632302838783829,9.66822259236823,-0.0028747615810510293,0.0022801226938003382,-0.2274023062367962
1687554863.1546102,0.1874762811823922,-0.3120359097256734,10.100505023388006,0.0033992909449336584,-0.0028889547319735152,-0.2237064457316921
1687554863.1646152,2.025977816393276,0.7381330286650744,9.680782005580257,-0.0052342092741947625,0.029671226514116158,-0.2157100356002377
1687554863.174614,1.0977541982445902,-0.09744810316007173,9.74694715349226,-0.013994928500767464,0.06113256506253561,-0.2003216511388348
1687554863.1873024,-1.0239102340773916,-1.8920075054677967,9.56650695522925,0.02137143164679664,0.06953718949518972,-0.1792698121448086
1687554863.1946146,-3.5018990680936115,-1.5292058704764628,9.767806031713011,0.04555714495440201,0.04991056546192629,-0.1709856456895397
1687554863.204738,-3.8047328461738266,1.2319025948485767,9.91262329737703,0.0476332432941261,0.019861436925094556,-0.1604490048070477
1687554863.2145844,-2.801062962615533,3.088438591363037,9.758471301824448,0.019766866577746522,0.010091781720830327,-0.1447062707324551
1687554863.225006,-2.454675644365569,3.017669987466388,9.992090143477332,-0.016711174456272265,0.0031832327847439354,-0.1227944782753513
1687554863.2346623,-2.3271018729346276,1.1443938901794237,9.932357023529393,-0.02757707563891088,-0.0022373798803569235,-0.1054840600867794
1687554863.2451396,-1.8786859955903694,-0.3479962076748567,9.784361417167707,-0.018416871380084705,-0.005897632738126784,-0.0848704716940449
1687554863.254843,-1.6688097086352702,-0.6540349354204806,9.683145847649259,-0.0002837657897321995,-0.009515682251576306,-0.0657339981575535
1687554863.264905,-1.735662109017603,0.12260095049253816,9.903232943464602,0.0041146301414321405,-0.01731848203132153,-0.0552138789375351
1687554863.2748165,-2.07497916464964,0.6451294134923165,10.161611372880179,-0.004232422215779121,-0.027505994092924233,-0.0583654223759697
1687554863.284907,-2.664940055210195,-0.17940385968545244,10.754332844116497,-0.0057786333653862525,-0.05511654976191707,-0.0659020460029171
1687554863.2945993,-1.77083720289788,-1.2280811940325547,10.3563306249068,0.002659299292385541,-0.07571926771856312,-0.0808998114247845
1687554863.3046534,-0.36924127423757147,-1.3629343372775153,9.9173330858843,0.013948646386632972,-0.08419185920218415,-0.0970474845548199
1687554863.3145952,1.279187807504107,-0.6691213790175577,9.40042739412148,0.014423468379371794,-0.0779560721598422,-0.1118648192663716
1687554863.3246589,2.7249739193749702,-0.8368672985276739,9.028207726574395,0.009359152250967456,-0.04986572036732378,-0.1317586070676373
1687554863.3346963,4.190637939023751,0.4909881937276004,9.548496230742954,-0.007750280443970103,-0.006707512113750197,-0.1258986211200283
1687554863.345212,3.74328180398618,-1.0683814287076416,9.420257290777778,-0.002230949610170998,0.0361607535134139,-0.0916223815460728
1687554863.3546453,1.7196346652766101,-1.6476363769510485,9.742817513499242,0.027172148154611726,0.04429438078041435,-0.0531941643734501
1687554863.3647292,0.05872986851719007,-0.8649391403707517,9.908517428011805,0.049098280220076826,0.0326994282058875,-0.0159899192680643
1687554863.374969,-0.5250490128473265,1.9829109930544755,9.904359771350029,0.045111223085260825,0.015151186217811688,0.0119533361117316
1687554863.3855677,-0.9848550011430752,3.840153065571541,10.389185511890906,0.005888229510529127,-0.0058494449422834644,0.0201247939090205
1687554863.394624,-0.5090730267159318,3.1421930194719967,10.120797516287418,-0.027622715976938585,-0.014191387140648146,0.0086543317134453
1687554863.4047103,0.8534631399019046,-0.5887136433914814,9.512349672759015,-0.015590975684207834,-0.0007731326685828661,-0.0109686582167671
1687554863.414647,0.5483529991480247,-1.7542719012861399,9.321455689469522,0.013407305781953418,0.01549972406797735,-0.0462642117221878
1687554863.4246297,0.506644741065975,0.20444408250110302,9.655340167672138,0.01274121463714928,0.03266930216405334,-0.0706922850390003
1687554863.439881,-0.8926312511563216,1.1395759723445236,9.719821773216417,-0.002818088044794537,0.03426333122121556,-0.0886167800803707
1687554863.4446318,-2.3470001354795778,2.1515409997207837,11.1244811203652,-0.02666872987804988,0.02063370850384804,-0.0898584789414929
1687554863.454743,-1.7719069850492875,-0.8903780386086514,9.58459142033438,-0.021651377786794077,0.00561719862794677,-0.0783043122668789
1687554863.4667072,-2.323584876728789,-2.377920650026753,9.633305929633586,0.006226107171520233,-0.026337497373193186,-0.0702959365029858
1687554863.4823382,-1.5824799565449723,-1.2582637146205715,9.730877687994772,0.029198314374974402,-0.06008784194959935,-0.06720741007524
1687554863.4851522,-0.15486986288156698,2.651576409937511,10.997885799877103,0.01544283214356998,-0.06549936924902215,-0.0644400334735439
1687554863.4948602,1.9198282295486535,0.8338883567608304,9.889431901948797,0.00030479815205964786,-0.048923279475963886,-0.0718905246635006
1687554863.5090656,2.376744318201816,-0.29417016625169656,9.885314192032189,-0.004939666270092667,-0.021005772318108556,-0.0861711568017529
1687554863.5145996,3.0331000548989486,-2.6674103977537866,8.379253028043697,0.013296393402703334,0.0050621043668946444,-0.1023569471021221
1687554863.5246625,0.3577498307275372,-0.710725862427071,9.613705610660805,0.0245183496488661,0.008653002465691943,-0.1135347476978825
1687554863.5346413,-1.0637707930180014,0.8783974021784867,10.273338117627688,0.022404783379185382,-0.015036731373167245,-0.1076101428647564
1687554863.5523996,-0.3508643987517694,1.4385697405488116,9.995766753407363,-0.0015226576705106819,-0.030772334474539597,-0.1009398913760708
1687554863.556646,-0.7960575160028335,2.3659361972930175,10.912292295235604,-0.013343772838071092,-0.044181755025902665,-0.0896427473803089
1687554863.5647056,1.2672989090842421,-0.02453071945208815,9.529527932705488,-0.012720901896606619,-0.03561142129290271,-0.0823248914261387
1687554863.57686,1.6345676963106681,-0.8146389729569783,9.413041244748753,0.0005349440531824523,-0.013486016248074701,-0.0777919358392285
1687554863.5846708,2.7047476536457036,-0.2729114605209325,9.533771910691605,0.0047996199758201935,0.013835390532963392,-0.0744850030918644
1687554863.594644,1.8225116631709244,0.5080469554587618,9.853599773613919,0.001044516510401723,0.03827822838668142,-0.0693024313827084
1687554863.6046157,0.512255150911794,0.45311632608242747,9.993861585928169,-0.003821711807240802,0.04674347201570483,-0.0715285456557797
1687554863.6147084,-0.7133132198197034,0.11469998779681079,9.914886766639915,-0.001701975319303347,0.03973362496300756,-0.0783284074445294
1687554863.624679,-1.858650200928628,0.661585368667251,10.154471226592406,-0.007063268430369293,0.0166203581411865,-0.0891308403392361
1687554863.6346328,-1.381899239275863,0.8100933441014753,9.894203842196113,-0.013953506611727463,-0.0004322111757144481,-0.0987776062269734
1687554863.644673,-0.5695791797659265,0.5650590828366926,9.521739024654316,-0.023600234285437782,-0.005356993248982881,-0.1133865854521321
1687554863.6546204,-0.26448142532352154,-0.7519492848358865,9.50912293284741,-0.018914189711723334,-0.007479609549528703,-0.1261641151090191
1687554863.6646292,-0.23799887294092212,-1.4612857319152808,9.534817794989085,-0.007335922387204772,-0.0077869669635837885,-0.1354710078616665
1687554863.6746483,-0.014344486372209319,-1.3380795783810715,9.475841681086663,0.012350115819111024,-0.005179600808817352,-0.1312275743861721
1687554863.6846497,-0.3277298973225171,-0.33536683355032226,9.863047470220623,0.017262395327687537,-0.007622162367821085,-0.1274144566436337
1687554863.6946714,0.3890006926250738,1.2377318141663516,10.081851243941541,0.0017529955233677153,0.00035706538325998576,-0.1186502045770214
1687554863.7046852,0.4007048464030995,1.3846068035896588,10.37325291507315,-0.016306014452103744,0.0045022068833214315,-0.1035724795241879
1687554863.7146358,0.2400718547469227,0.08700263459701209,9.917637443837704,-0.019197883434711543,0.010705950754908657,-0.0887664547939823
1687554863.7252257,-1.8947719676635295,-1.4550993992504062,9.832406957180032,0.004082853944640571,-0.017167038820461184,-0.0927059939880894
1687554863.7346766,-1.017480103230245,-0.8332284933229218,9.788998446099031,0.024635396763601956,-0.04482822307954972,-0.1055693468828724
1687554863.7446673,0.8158775514558764,2.2445305046837425,9.154471892563206,0.00047841446107927646,-0.03904086243907552,-0.1334822094817684
1687554863.7549546,1.2584910862790453,2.0381820637452948,10.035590752316546,-0.03503589610300826,-0.037513084742922476,-0.1591607100148724
1687554863.764716,2.338845957762885,-0.34446395653699585,9.504970061894525,-0.0440785465253364,-0.017873589695071492,-0.1826703763385342
1687554863.7746675,1.9495466219238908,-3.5823454816507447,9.687146924978991,-0.008273549286218871,-0.007535402460450071,-0.2025116598983334
1687554863.7846506,1.8587404570566095,-2.77827777971274,9.553823665852569,0.027860379368099018,0.0019542422824627105,-0.2005094057698773
1687554863.7947254,1.6762356564042913,-0.1652918278253885,10.04612541068327,0.031184329012397406,0.011165744293271893,-0.1904666936774777
1687554863.8046486,0.6678776791373852,1.4601287827329383,10.355136157651657,0.0155836776632026,0.00689630507797557,-0.1808236456294583
1687554863.8146482,0.927581575677179,1.7907503409021115,10.239225536222817,-0.008699147649187037,0.005542522300916602,-0.1684581405301617
1687554863.8247173,0.7124008199505881,0.38662486520828876,9.729141600255376,-0.014096654015254836,0.008466264816003892,-0.1657294100900219
1687554863.8346522,0.42204842169572937,-0.7166206252267512,9.557551950946019,-0.005499538579236857,0.007445169725925871,-0.1664950764556454
1687554863.8488307,0.5068681799330972,-0.687852543221677,9.260831268881148,0.01063998415501427,0.01619158322680916,-0.1740006721396969
1687554863.854936,0.10435059598379531,-0.10007298153161089,9.668207218427046,0.016158336827575424,0.016871023765469884,-0.1778416997571514
1687554863.8648868,0.7911079054771244,1.8351999442288172,9.797712468262127,-0.0062956031067278794,0.030180031297158613,-0.1762714451928662
1687554863.8746562,0.4571945456761542,1.3521909450117056,10.164297359586604,-0.02071033247314148,0.038709339482672016,-0.162825248279147
1687554863.8846576,-0.7289700685273802,0.24771765171880228,10.218582454899932,-0.024316407607437918,0.03438969562506324,-0.1543730116267727
1687554863.8952076,-1.7611766900946044,-0.6398968018355984,10.11404555634309,-0.009542789405621645,0.014119579085349845,-0.1477306849141644
1687554863.9046412,-1.9596674302447585,-0.6975521729770837,9.939933292563456,0.007938797621661121,-0.010848575820318354,-0.1535868561645077
1687554863.914647,-1.070847170029601,1.4164482733519457,9.835822719008181,-0.00537757281182786,-0.023877081955875793,-0.1642798847337292
1687554863.9253914,-0.3888105182754307,1.126489322190291,9.805198000510307,-0.020998540587968087,-0.031095583028613764,-0.1818433469911144
1687554863.9346435,0.7328435287457372,0.2156882397681569,9.464968675736408,-0.0346148265032477,-0.019276863742547178,-0.2000597036262081
1687554863.9448323,0.6625746306283377,-1.7243174352090151,9.419246040911318,-0.01817542896173264,-0.011801836076756934,-0.2143048113961743
1687554863.9550078,0.5173021010090062,-2.060156308789728,9.406255673464825,0.005685756674147208,-0.0070593524804519765,-0.2185810423274563
1687554863.9646935,0.4075048552490321,-1.0820726536097915,9.678137841233223,0.0190417072801163,-0.0053974731861605165,-0.2179061091323422
1687554863.9752204,0.459721036693967,0.03204507636189036,9.7581401073628,0.02036968555822385,-0.00112219007696386,-0.2098026490588711
1687554863.9848402,0.34332430082561083,0.7939491021599864,10.014100572436245,0.011130386687637318,-0.00020204227917890096,-0.2017342216153668
1687554863.994702,0.5812153402224807,1.123487552232912,10.168217297837696,-0.003809847806809632,0.0038821608162276137,-0.1947746044774578
1687554864.0046864,0.5277001320737946,0.287729104720262,10.005294070070319,-0.01036022426465455,0.0078009565100996,-0.1901051617045925
1687554864.0146894,0.5602609613227084,-0.5009069159157774,9.774249717092907,-0.004807329712050325,0.011793076148081463,-0.187935835756831
1687554864.0246997,-0.19927594113311028,-1.0779027809019306,9.707444566080692,0.008574985571082968,0.0054330604370887185,-0.1917187488456295
1687554864.0346875,0.28636323834953703,-0.3970190370098386,9.40434417175681,0.015997786978160195,0.005320050169890172,-0.1971591329951809
1687554864.049114,0.3343793371686986,0.3307877942865365,9.531326160035226,0.012623265136790424,0.006456154173490357,-0.2009713566680477
1687554864.0546768,0.6709234392097394,0.5345061792849655,9.537283076577811,0.006391888495568714,0.011622653345960693,-0.2054054803033398
1687554864.0646842,0.4497795437034507,-0.23481384740358957,9.767716068931119,0.004798482252997247,0.015808028600534686,-0.2066472387691067
1687554864.07467,-0.19276961607316492,-0.3956088667997761,9.975665160140242,0.011255901552576412,0.01188525637826022,-0.2051193184037731
1687554864.084681,-0.649690909535454,0.17674053316138472,10.340663533532027,0.011132946294783098,0.003182246826528662,-0.1973717576642559
1687554864.0946524,-0.8896564031124312,0.9331122952941109,10.380760139452553,0.00710060664300686,-0.009546390713507998,-0.1877307808776425
1687554864.1046646,-0.4157014920272958,1.3385965653838607,10.345022625697705,-0.008533270764345595,-0.01690143022919991,-0.1832138216872738
1687554864.1146617,0.24131999141458368,0.8262388208973895,9.720088479090704,-0.01802226735101896,-0.01181140128449268,-0.1831768072028683
1687554864.1247313,-0.01684790427047957,-0.5644592204221484,9.566525451829193,-0.01330961983106174,-0.011721529189124707,-0.1935036248345898
1687554864.1346674,0.056733238092951624,-1.0997579411112142,9.187375910656847,-0.0006624349569986568,-0.009016483646203685,-0.2026827401299999
1687554864.1446912,0.13128934367842648,-1.2289611826754911,9.099802890447833,0.015810752822878416,-0.00226257821085165,-0.2104593581338452
1687554864.1546886,-0.4961010242366498,-0.22070766486958118,9.640214409990707,0.019084432778561464,-0.009663348395543888,-0.2102038330216931
1687554864.1648498,0.6078817491262228,1.1929210723258856,9.985107736249867,0.009800970909091105,-0.0025454823935818927,-0.2038799292226361
1687554864.1753511,0.595935239076135,1.5646012800570197,10.5048867128147,-0.016640513326663154,0.004653717277427865,-0.1950972742219494
1687554864.184784,0.564260374769232,0.46389655067151364,10.453315256622368,-0.023253758972906102,0.006914903907971078,-0.1800178206344174
1687554864.1947262,-0.008137768204820183,-1.5280325332936173,10.049164722652286,-0.005509001269983451,0.003053456632911109,-0.1798244035621212
1687554864.204771,0.13391058755466315,-1.0428509415940055,9.693124605549626,0.011627758554018026,0.00015769472511257374,-0.1909577316422985
1687554864.2146962,0.22657924440445137,0.5221558900101092,9.689034340238004,0.005963986810826113,-0.00015739185348192524,-0.203674755134158
1687554864.2247884,0.5387342518392293,1.1009628309282453,9.511260464792661,-0.010312928548930617,0.0066118560795232414,-0.2192206001658962
1687554864.2347677,0.2357692604986678,0.24256606160948077,9.562006245414656,-0.016635825403528967,0.008648025236295553,-0.2308397508044766
1687554864.248202,-0.20594241525226975,-0.5693622833304676,9.498057434502138,-0.006999122976475482,0.00603636246992146,-0.2375052786250637
1687554864.2546766,-0.8125310954301518,-1.2377648674324693,9.911614907993801,0.005440059034155336,-0.0041350541484238305,-0.2388654417176769
1687554864.2646863,-0.2140412605686664,-0.037815550951196965,9.795156388231558,0.012026476542757333,-0.009732728304531863,-0.2299674517293499
1687554864.2747178,0.21022527914611214,0.825114151541814,10.018522171026682,0.0026274442550311833,-0.0076015081466924055,-0.2201263970513867
1687554864.284871,0.2442173278408656,0.4367733951056282,9.878503520704982,-0.000878194797757147,-0.005718723136080986,-0.2093379861493634
1687554864.294679,0.18793431968552463,-0.11569431479796498,9.838992505291388,0.00015644299593510253,-0.0028550161636555146,-0.2044604933639096
1687554864.3047214,-0.2446415239041372,-0.47558212533450633,9.750197020292985,0.009935215969027291,-0.007296003308856797,-0.2000149405379818
1687554864.314762,-0.027804707970715253,-0.3025064335072904,9.487599617950023,0.015934685963546788,-0.00443735072076249,-0.2018132871766613
1687554864.3247254,-0.10633378434326915,0.5357357385213376,9.814986897840397,0.013206393796676727,-0.0056981473046223766,-0.2031904226918743
1687554864.3346877,0.26616232398448897,1.1917571485495013,9.9476157984716,-0.0007676465346085846,-0.0017089115768574258,-0.2025058037419842
1687554864.3447127,0.547179989194012,0.7061430992508887,9.961325899043969,-0.012615604821223848,0.008654724663042781,-0.2000798797984646
1687554864.354751,-0.01674109204731869,-0.6632021851870247,9.934737689512554,-0.0026912101172894085,0.008155838701124216,-0.1964805788178967
1687554864.3647344,-0.09050449789772937,-0.6920830315490856,9.76740338645432,0.009871713140627618,0.006968278361815167,-0.1958655780931042
1687554864.374724,-0.1691907864162177,-0.09531592988697664,9.751611534830303,0.014031996754142751,0.003628645345675943,-0.1957594222207592
1687554864.3847358,0.141740375644973,0.4063532485681742,9.532837030044632,0.011472089892965193,0.007511176614335893,-0.1996551370997952
1687554864.3946853,-0.2238591614133886,0.8625404240632777,9.802460298575586,-0.0007271345764895636,0.0049892754474330754,-0.2019857383151577
1687554864.404789,-0.6632959130714029,0.2751598365082099,9.833555587052285,-0.0013872802353968605,0.0003622657045854023,-0.2017622357984112
1687554864.4147637,-1.1465411885036365,0.24191526918655654,10.20723805722022,-0.0012311128056546959,-0.014477361661082648,-0.1982854372640179
1687554864.424709,-0.7156378134412299,0.5756727745953921,10.150805682359168,-0.006824853794002184,-0.023483425057300247,-0.1957072234530972
1687554864.4347582,-0.17886063028305152,0.7104188202703953,10.191392151423685,-0.014419036010974795,-0.029777874511382432,-0.1898193574328945
1687554864.444816,0.33881262409006335,-0.2727672546310893,9.702947348686068,-0.011722550586864009,-0.025979591170013458,-0.1960837608953045
1687554864.4547246,0.827417030179054,-0.5112008772550634,9.437156429944428,-0.006662031824918287,-0.014799823230911262,-0.2005165136237667
1687554864.4647102,0.43791198270464854,-0.6737680040810721,9.51247459112074,-0.0034595064992383835,-0.007389009991612151,-0.2068844950576351
1687554864.4747033,0.7139066284789409,-0.189038628792117,9.590379927192043,0.003942391140889603,0.0011840113663039616,-0.2130036270995663
1687554864.48482,0.7509313469114265,1.1621830754773377,10.025249886477715,-0.012478062015949806,0.009545264055778602,-0.2053045249362515
1687554864.4947114,0.5148213970310476,0.3398896992037262,10.077709403497545,-0.017398852139383712,0.013112015293133812,-0.1999886697907971
1687554864.5047066,0.1971031245967547,-0.4800362286489901,10.015633886004734,-0.011517354807689074,0.011472029588311127,-0.1928797132154034
1687554864.5146885,0.2791946936681224,-0.4455243229893818,9.702134886139087,-0.0034141324955978642,0.012189535483167372,-0.1908304310222195
1687554864.5247307,0.3213020182134057,-0.23606165807635715,9.637686130133568,0.001232056216648713,0.012051774469815332,-0.1954243994136379
1687554864.5347314,0.7316786233540249,0.48577442222610434,9.53950946734329,-0.006147315091168596,0.020688371989750258,-0.1989917672057675
1687554864.5447636,0.4842832924120252,0.3422175733469451,9.486429901530677,-0.011640805475004776,0.03152793517659111,-0.2038062131782101
1687554864.5548515,-0.6733383166648058,-0.4738108967083408,9.823561491615155,-0.0057122714195275105,0.02785318672233173,-0.2072691238303707
1687554864.5647447,-1.3995239782619053,-0.11909338540140416,10.004687248370656,0.0020046383989085104,0.013262060939293488,-0.2041372722764538
1687554864.5747242,-1.2761619731369858,0.5145071362858027,10.178725779940894,0.00037547041396237613,-0.0016351732905395989,-0.2002531355996655
1687554864.5847287,-1.0833936909629116,0.744886104763069,10.014084934041577,-0.008900055552320792,-0.009296937908558307,-0.2050613230844067
1687554864.594793,-0.5308994539198131,0.28014172750785277,9.86613214869555,-0.012084477960842343,-0.01385062992651724,-0.2056771433730648
1687554864.6047213,-0.2880027666183023,-0.1614962557251012,9.57892397912438,-0.011175200899689085,-0.01273110141052607,-0.2064831918855236
1687554864.6148045,-0.3430646528513808,-0.8239775904843506,9.675945756251473,-6.714633319695398e-05,-0.016423722170508248,-0.2092573708673046
1687554864.6247804,0.015813421856436607,-0.5414342439828345,9.395635728946583,0.005381788845710842,-0.00952646078049699,-0.2149396902699993
1687554864.6349187,-0.1408540043609938,-0.4027409548460931,9.750414069815815,0.010497095138134585,-0.010161264147448456,-0.2131713247676419
1687554864.6447637,-0.17345217512763023,-0.11690730437452435,9.660980491832632,0.013686649253357728,-0.010039624024112485,-0.2106120056291149
1687554864.6547463,0.16066372641807328,0.254829098192554,10.058550041282086,0.010531796510323235,-0.00781493326737049,-0.211986220516734
1687554864.6647582,0.5910753289924653,1.2172826928336753,10.170173580596522,-0.008084630916946731,-0.001061607728855422,-0.2054279810567425
1687554864.674835,0.9205650763296022,0.05774323584640525,9.920527614495315,-0.010227039760623438,0.011039579894011744,-0.193409166373782
1687554864.6847138,0.3681342654969226,-1.103424967511694,9.666834577463785,0.003937320385907528,0.018094201581280594,-0.1899169004340695
1687554864.6947842,-0.08483854157349086,-0.8262528192422948,9.620126000175077,0.015373616721262615,0.019256995613511917,-0.1910337573667095
1687554864.704719,-0.24050006550459915,0.15830551549640343,9.577427889879406,0.019620703267083338,0.01628978708376998,-0.1865070528169201
1687554864.7147295,-0.5851322469154556,0.6098540990726479,9.613901320507678,0.013471577225974462,0.013766812323934197,-0.190267167129092
1687554864.7248163,-1.003387130564812,1.427876003818725,9.865128492195993,-0.001314596195145204,0.007034954657345923,-0.1901385999103115
1687554864.7347367,-2.063252610374075,0.8000627417038984,10.470059433701987,-0.008337586367881669,-0.01919001151338285,-0.1897506481786297
1687554864.74481,-1.3310417583361036,0.9218302082638266,10.29439279354198,-0.01976491345447757,-0.035675157350085016,-0.1919141179700421
1687554864.7547855,-0.4547116547874898,-0.184582119518086,9.944583017621968,-0.014360863023302035,-0.04268289462383192,-0.1926135635753201
1687554864.7647183,0.5888704478181861,0.2717810331769966,9.808426811616538,-0.017434499130886048,-0.034736839946902645,-0.2011124110599087
1687554864.7747457,1.6002267371645464,0.7176777971981989,9.886277758716973,-0.03198729598801108,-0.015559433353471833,-0.2052638596673535
1687554864.784807,1.7899722154981237,0.015658261461606395,9.674542333400517,-0.033991934249794735,0.005478816050067308,-0.2007806665082501
1687554864.794741,1.8445590562911462,-1.3850423143197368,9.72754444714235,-0.021832227801321942,0.027455936731150207,-0.2015274829049633
1687554864.8062315,1.1735690516125583,-0.9313648115935833,9.506107358196713,-0.008695273035524241,0.049997854061568855,-0.1912395275016354
1687554864.8147497,0.4905071330505965,-1.3233103095986427,9.474281536803971,0.011887025449824784,0.05536144008925902,-0.172040558495097
1687554864.8247876,-0.8874285457375466,-0.21208190196099677,9.5852385423693,0.022800826136539793,0.047550287802747226,-0.1609424418588207
1687554864.834739,-1.2023306939954042,0.7610133809518542,9.685634497468467,0.02125748104495662,0.03567836839667945,-0.1501658177753018
1687554864.8448622,-1.3032488021175066,2.0540624257770848,9.771488002691195,0.0030870833105266973,0.023221180389795423,-0.1381755239148663
1687554864.8547802,-2.0523103108109715,1.7621021836577568,10.134483075331627,-0.017582870272069125,0.003974741970015202,-0.1424702620883511
1687554864.864853,-1.8126746494357775,0.6592305285638508,10.089795255194657,-0.024334107058394016,-0.015222741796968317,-0.1465449697156475
1687554864.8748555,-1.1863986598121825,-0.4524210807720045,10.102295406987903,-0.019908443804996897,-0.026360363637552394,-0.1537672496219204
1687554864.8847747,-0.7383798156865163,-1.582809287663682,9.86606612568642,-8.432219407231667e-05,-0.03197500710303729,-0.1681871629138516
1687554864.8948505,0.2522238014350896,-0.23861386842318769,9.874141810019252,0.0016478553785302704,-0.02741464368418681,-0.1746286517758892
1687554864.9047418,0.5654386084603721,-0.29005361862952905,9.731069766122687,0.0022016991230281342,-0.016338975108858504,-0.185896999277644
1687554864.9147415,0.6065415640624516,-0.26541064765262473,9.694711995946133,0.0003438417439208437,-0.006583506454878837,-0.1919010198493527
1687554864.9248466,1.0323951594352927,-0.597597115673749,9.487257790330645,0.0057721924753867905,0.00935366306241737,-0.1874976969142483
1687554864.9347715,0.3986273854957933,-0.5159087920468813,9.550136452746504,0.009291874191296396,0.02147412511174762,-0.1846300280471371
1687554864.9448004,-0.21168150669311755,-0.5649820155427555,9.825299138538247,0.017314769381326464,0.01897696883015332,-0.1726475870986508
1687554864.9497964,-0.2505201009175894,0.18174062972989088,9.64144612750618,0.02088632961420917,0.01841578381324042,-0.1598186558862255
1687554864.9637473,-0.6754448194465998,0.45627855165243364,9.810532144552315,0.020170672790864652,0.009523280209754672,-0.1437501824279354
1687554864.9737542,-0.7321173956457914,0.8628260594676553,9.876831181263258,0.011170175354926785,0.0019893293436674155,-0.1372637218614147
1687554864.9841845,-0.7501393338990672,0.757089549873699,9.95366177805763,0.002594816547748751,-0.006027796366754516,-0.1362180179734753
1687554864.9938388,-0.7419803853135934,0.45930127888954614,9.877509212839403,-0.000944433357818731,-0.010845106001792101,-0.1407777732987927
1687554865.003784,-0.9385367328090933,0.41513708609391203,10.201260396258307,-0.005386930899663842,-0.019079256390915428,-0.1451538867135571
