time,ax,ay,az,wx,wy,wz
1687554038.9055245,-0.18100061511494112,-0.1330792497127941,9.875890252661263,-0.0005670324974244188,-0.0009982888403759626,-0.0034523761138219
1687554038.9155452,0.16236204578316188,0.2406375556139658,9.822619378023413,-0.0016335738637537022,-0.0007975181976408394,0.0009021169675148
1687554038.9256074,0.07447209215692542,-0.11380286101358177,9.74778633208233,0.0007457841471762498,0.0003569541827127577,-0.0024573517735947
1687554038.9355226,0.016458607403080475,0.016008517604020216,9.81795759942048,0.0023390852199655743,-0.0009591974783959117,-0.0018266717675972
1687554038.945549,0.10846187764599996,0.3136511257767581,9.873634654140737,-0.0016268559257508106,-0.0007930450374882721,0.0001954268658634
1687554038.965735,0.1255279011407717,0.05263509750349006,9.762697327392905,-0.0008952429881424276,0.0019804415847236166,-0.0006442457675833
1687554038.9667356,-0.6779456489501186,0.18040212935851005,10.25523829650918,-0.0013463625896644542,0.0005420899709122826,-0.0010998662333835
1687554038.9755318,-0.05724775649341108,-0.03642446665256114,9.841073540607159,-7.636261957733633e-05,-0.0012683999559786338,-0.0024972119141269
1687554038.9855316,0.2685334504193603,0.2106460330369053,9.752500810795123,-0.000987233315022738,0.001822111380659667,0.0014132278478397
1687554038.9955254,0.025389901049210427,-0.16781635953109225,9.756590654328262,0.0036243205727333637,0.001163470406981076,0.0004234173678893
1687554039.005555,0.0782821299352435,0.293336687456771,9.885564204579014,-0.0017211197182836085,0.0017871000863236744,-0.0009564160141993
1687554039.015622,0.005939602782076826,0.06013811017878884,9.839903814147466,-0.001192488502302919,0.0003308699117670465,-0.0009925760101426
1687554039.0255332,0.08191840332130464,-0.0010927103562089753,9.76377415465523,0.000669756796405917,0.00044339375440796,-0.0006513529229808
1687554039.0355282,0.16477817892536895,0.22621068525278723,9.808517509162005,-0.001807571094438435,0.0022002126649375395,0.0002110569033872
1687554039.0455248,0.016324822832429867,0.09489161446060763,9.850320569544719,-0.001178710546327159,0.0004903123731028513,0.001764524378265
1687554039.0555773,-0.05082821758769102,-0.09057128585035502,9.821688001378096,0.0016052025726786367,-0.001576093296577586,0.0004289916245367
1687554039.0655415,0.1696537224388455,0.14827709480163284,9.78510974690946,-0.001045705851316165,0.0011645828194861263,-0.0017812290467221
1687554039.0755196,0.09871246684836293,0.06546341715069327,9.79870559806009,-0.0011850494998623597,0.0018753708654726453,-0.0022819043375451
1687554039.0855455,0.055829408479370624,0.0639198238330283,9.811371319582042,-0.0003155697782827357,0.0009623119711395454,-0.0010261045541513
1687554039.0955272,0.12980622800324182,-0.011917863597222158,9.744221781421693,0.0013410689260149387,0.002405118040149482,-0.0012861342407662
1687554039.105571,-0.04948109169317812,0.08680094408920774,9.877789079219681,0.0024605427998159552,-0.0010761841935701293,0.001178541875012
1687554039.1155355,0.103606886041755,0.28604912966374263,9.865075097334582,-0.0017661763431936312,-0.0005617068587126952,0.0015495776891808
1687554039.1264472,0.18372663059983022,-0.03432035695311035,9.71119844078011,0.00040715974508150326,0.0023954251505486778,0.0005180272850308
1687554039.1355777,-0.11658254783534579,-0.06931918538153521,9.859667733667063,0.002742914586700982,-0.0009524665534589021,-0.0004147627629239
1687554039.1456115,0.13104049666597384,0.30445155586790174,9.859604953390019,-0.002274670364361892,0.0002995769298995926,-0.0008335110038418
1687554039.1555564,0.07679602240097115,0.0713443266086985,9.79605708338809,-0.001551629223360664,0.00023997816189947471,0.0003094279667463
1687554039.16555,-0.013058868308603798,0.04373670219249692,9.841989328341334,-0.0010337896223121445,-0.00137456407329333,-0.0001283029565487
1687554039.1755383,0.20768729968873018,-0.022577389696408788,9.702107440874855,0.0018499621000052377,0.0008661768225336963,0.0014508175803681
1687554039.1855106,0.13973676396426166,0.07863803589409758,9.779132646844026,0.0007748344733452053,0.0027083602901654858,-0.000279528671493
1687554039.195575,-0.10080155482249088,0.21174905039276398,9.93739741617539,-0.0033810857152292155,-0.00016126467226011215,-0.0024171409901131
1687554039.2055304,0.21526710066174035,-0.15763224565283257,9.651422328108465,0.002027676127605085,0.002538834966435515,-0.0015401948481697
1687554039.2155197,0.07810506467827129,0.2801836557430581,9.871117037238951,0.000370257387133971,0.0011161966857090534,0.0033116004191439
1687554039.2255828,0.13350397683450319,0.048318554585597445,9.76344443422519,-0.0003177728476820575,0.003428822480962187,0.0008350599668089
1687554039.2356188,-0.22011488986212824,0.03229438237313254,9.953178604075095,-0.000454136344352994,-0.0021639631035987868,-0.0010026338282872
1687554039.2455838,0.14654746245345415,0.11714361880520778,9.784088927667439,-0.0014439230707006237,-0.00044249927517058077,-0.0013833489507336
1687554039.2556973,0.15973146824281467,-0.07560677509332996,9.701517272474867,0.0028922684869984016,0.0009675596385699433,0.0005493061611529
1687554039.2663217,0.08802274780672541,0.19126437918584316,9.834944829811533,0.000989389279245882,0.0011400166706463067,0.0014720963948972
1687554039.2764783,-0.04831415793196684,0.22971249538698757,9.936411571155196,-0.00233577217527394,-0.0013868554564780867,0.0015350315074071
1687554039.285567,0.032704537632484404,-0.15870749512816787,9.740782011169824,0.0004913406397239761,-0.0009115123793042026,-0.0017324174992639
1687554039.295588,0.08282629892039496,0.12779471018670552,9.819325274888865,-0.00037290031645048594,-0.0005919024601649576,-0.0014999600831318
1687554039.305611,0.10809608371744277,0.13981760811745714,9.809137434044269,-0.00043849106986293586,-0.0005576107549417907,0.000903602135983
1687554039.3155527,0.065557099190318,0.27172940323814204,9.874422451012274,-0.005320865344164709,2.0158569984768618e-05,-0.000659158104648
1687554039.3256886,0.05151540494790183,-0.23061080800086278,9.712909925280025,0.00020673937151793905,0.00037296917228599934,-0.0027177530579168
1687554039.3355894,0.14463063163115145,0.21739472473406696,9.817575037690782,-6.26068741531411e-05,0.00031299361205253974,0.0019381203450363
1687554039.3455632,0.030798984514668958,-0.050258222847370186,9.793422636353862,0.002506355980148467,-0.0003840116303667046,0.0014843861130399
1687554039.3555746,0.12159321519502297,0.23263376123107216,9.827707018739776,-0.0019144279585356417,0.0012338818568459534,-0.0004214663064006
1687554039.3669178,0.09489456796235708,-0.0714628594891106,9.747238672861863,0.0018134317496819657,0.0015382742763044978,-1.3539156803240446e-07
1687554039.3755631,-0.03826245844172355,0.1220817690148657,9.882203062179261,0.0002946358833686302,9.38223654940307e-06,-0.0014522805582631
1687554039.3855286,0.15365439479410498,-0.04525750097774876,9.715513347467091,0.002999948323753491,0.0017241305280092229,-0.0012719809315998
1687554039.395579,0.019320153141646427,0.24406889853204164,9.890370576631055,0.0005516989981257696,-4.94824887925362e-05,0.0005433686887014
1687554039.4055903,0.20322124485276324,0.23637589330589495,9.782171684680517,-0.0024378351657893755,0.0026673749687587773,0.0011897219368589
1687554039.4155805,0.013671837330227898,-0.17817390415529388,9.76388089728176,0.0017847487799674726,0.0021890439982790535,-0.0007426399975914
1687554039.4258175,-0.004598206437510403,0.1404332164859811,9.87768741168862,-0.0004645296165674526,0.0010837332221884663,-0.0022506125975299
1687554039.4356203,0.060130279308989856,0.07695496836591809,9.810267634961992,0.0008430053031326138,3.359854429827335e-05,-0.0001961101084847
1687554039.4458158,0.11969980134223963,0.022403687426583857,9.763271448710853,0.0017538361802857374,0.0011891974205582743,-0.0008323680382121
1687554039.4555416,0.06363927176564357,0.16290340649928414,9.84577801155787,-0.00031556646862132933,0.0012066826328250883,-0.0011188719659943
1687554039.4655662,-0.10449847858793727,0.11551033122604623,9.910633588939016,-0.0003498118022791224,-0.002755901996447031,0.0002855844790216
1687554039.475676,0.10295330520442092,0.03951874461962316,9.772547590805672,0.0003188638279814113,-0.0018972252611437804,-9.515543988832584e-05
1687554039.4855862,0.16893485489676371,0.04727283844594942,9.748365856736267,-8.609076613948628e-05,0.0007559196231843831,-0.0017767605610091
1687554039.4955914,0.16733360569537775,0.2939075125507903,9.825155425908775,-0.00244604843207677,0.00128194111477576,0.0024004138534989
1687554039.5056756,-0.06903323783247454,-0.16969381053908486,9.791486370392839,0.0009294120802019548,-0.00042982396349950346,-0.0010581576503712
1687554039.5156207,0.0847758740485612,0.1617971393120644,9.840081629450275,0.000312535033683833,-0.0008474362308326082,0.0011084986612301
1687554039.525642,0.15878494936925258,0.07061121766756792,9.762839211477045,0.00019627540107234462,0.0011109519466145125,0.0008618608693692
1687554039.5356617,0.00590422475909767,0.14324207113128512,9.863754579950943,-0.00019075576878819107,-0.0007125782158495699,0.0023169756163012
1687554039.5455773,0.11224326428134092,0.033665201531058085,9.760236514957807,0.0004004410523363048,0.0004269924492153927,0.0016847809596553
1687554039.5556114,0.039450236489651305,0.06530106083117462,9.821351928017108,0.0004667634032778943,-0.00021600435467175768,0.0011684624763771
1687554039.5655684,0.006673522807344183,-0.019330042372871916,9.814314314984815,0.0006995878179312197,-0.0006324831595635336,-0.0020647087372738
1687554039.575598,0.18340127157443406,0.1648897779883044,9.782615361612985,2.9046809051404985e-05,0.0008770046690981038,-0.0001435914315182
1687554039.5856082,-0.002658596965509792,0.004238122196954376,9.828899204985278,0.0016864183068875788,-0.0009550875375545562,0.0002941498527403
1687554039.595565,0.18057840188159036,0.19153756942444436,9.786384817394307,0.00034679161245826736,0.0008297029402056044,0.0020610099885713
1687554039.6056025,-0.16052192042186478,-0.07829799877109733,9.892216006983244,0.0024594132307632997,-0.0033169210489754314,-0.0001946348935265
1687554039.6155922,0.08389546381521854,-0.01745825966393626,9.769211962014019,0.0022571658368749584,-0.0017426189695880089,-0.0036568754590947
1687554039.6256857,0.202076287171535,0.2985232241255711,9.816299721955845,-0.0005286340831886474,-0.0002905076797437304,-8.99281591076528e-05
1687554039.6356647,-0.03626532041712952,0.09454599106987095,9.871624488138995,-0.0014271643569584342,-0.0021810975098952505,-0.0009851217042554
1687554039.6457615,0.1886742007547633,0.029829155231151375,9.738952008038936,-0.0006098613849496146,0.0003986691801156572,-0.0017853196483004
1687554039.6558845,0.10766300052027557,0.10643027662606991,9.795029562359614,-0.0005107908971684866,0.0009246795018301444,-0.0002542483858663
1687554039.667187,0.03395057696708858,-0.03101132830148264,9.79001819829936,0.00034157678584331974,0.0012692685551362413,-0.0038733478873867
1687554039.675598,0.13961756392717214,0.30863052505752336,9.860032627188902,-0.0009093543606655467,0.0005882858944071212,0.0016397132998432
1687554039.6856077,0.07380504815025643,0.07950215566924637,9.818296381862673,-0.0013783926195643798,0.000937720605059215,0.00061785709058
1687554039.6956024,0.20998492381274475,0.07694184811554891,9.728394858505224,0.000256254945650182,0.003156880140714323,0.0032456910697843
1687554039.7057123,-0.05595363493247272,0.023608824628486468,9.859778367797242,0.0013466890779788444,0.0005301745583970589,0.0032341255568068
1687554039.715606,-0.0024124427560566677,0.17547794026557995,9.87620907207583,-0.0014469279166232892,-0.00035234749075179183,0.0017496261274542
1687554039.7257094,0.11849868380359557,0.01701444046142061,9.76998326867672,-0.0001918697712152246,0.0007004143796880994,0.0019340477878328
1687554039.7357783,-0.08119605800416851,-0.05306538323352127,9.845975391728237,0.0005036270755949978,-0.001336204462914637,-0.0015342416014421
1687554039.7456582,0.24097523930520037,0.07116929755762345,9.71444831945504,0.00139619262022645,0.0017502247248079486,0.0001022882055591
1687554039.7559433,-0.022209461857337378,0.14445251108344243,9.879237748091077,0.0005770261714269593,-0.0007848486729068043,0.0014311048793357
1687554039.7656257,0.15795129920592732,0.14354148180465418,9.793693543071058,0.0003240693091347161,4.438467663682534e-05,0.0035273426905374
1687554039.7755473,0.008502518078451333,0.03911778825509224,9.831396167737319,-0.0010360365517640957,8.31347967875434e-05,-0.0005317640030656
1687554039.7857058,0.20175216411044206,-0.046924082495060714,9.691461979451292,0.0034339462639140675,0.0018154245750387485,0.0026473597385089
1687554039.7955573,-0.12406881486964744,0.04537582712467177,9.911910144680153,0.002390869517292094,-0.0014736680802735402,-0.0001037372281674
1687554039.8055909,0.09344949936008158,0.2769538005168986,9.85356821635933,-0.0012818906241545433,-0.0010728188950275537,0.0008961430279638
1687554039.815572,0.058240678514616076,0.042724104224960015,9.81180072693846,-0.0012726021649014372,-0.0010169359070276963,-0.0006386722676355
1687554039.8256907,0.3038674592126892,0.018288345187451524,9.657786718824973,0.0008437457136164974,0.003364379903637559,0.0010574696638256
1687554039.8356967,-0.09271262907729151,0.10046887995867029,9.89941320917835,0.0007040543649788119,-0.0002528680336394134,0.0014769420298731
1687554039.8473628,0.08405449007630983,0.07429380805607397,9.796250769989824,0.0011741784275373535,-3.12099178879613e-05,0.0020770723926003
1687554039.855648,0.03819444541423372,0.20633647003975064,9.870912289759358,-0.0016682144444889206,-0.0003117471867303206,0.0007337111741404
1687554039.8655832,-0.03385820207153632,-0.014463955831917777,9.83280034628491,-0.0003170244547578662,-0.0022150026219973557,-0.0003421294974062
1687554039.8756442,0.18979370993303266,0.14564302245487432,9.778267419234474,-0.0012748310554790208,1.646566945144552e-05,-5.0441595343140265e-05
1687554039.8856175,0.033525138168642596,0.0182683694027512,9.809141981736742,-0.00044332498906358856,-0.0005773633046693989,-0.0006271257303554
1687554039.895632,0.08870827134201527,-0.02313688418622376,9.77699511005497,0.0008888515071279464,0.00012600775143793076,-0.0018698418285597
1687554039.9056127,0.09259097953003469,0.2947102445223817,9.862600501402257,-0.0030234783714673122,0.0002470625523310229,-0.0008796731714058
1687554039.915607,0.016040934958932693,0.017041327815128116,9.825612104457575,-0.001209996164937113,-0.0015395920489202938,0.0003809424810211
1687554039.9257646,0.05736031197607959,-0.01510415468481864,9.790968299834297,0.0013351247388322836,-0.0022373380007072977,0.0006204734085228
1687554039.936087,0.13297810480107963,0.08229858466869448,9.779202105335832,0.0004969262489151591,-0.000561317846957954,-0.0008532454963673
1687554039.9456682,0.020331361336309858,0.14502814685105025,9.851017460018893,-0.0008717405702447238,-0.0015503963558393384,-0.0007306813500721
1687554039.9556916,0.2869263096511548,0.16262342288309,9.718327987385116,-0.0006013257056851855,0.0018276938208898798,0.0029748936643924
1687554039.965832,-0.05683443955065637,-0.04496345249401134,9.833529328015286,-0.0002414081745179234,0.0005093198944378253,-0.0010998487710852
1687554039.97569,0.005018346959473078,0.17297479037020433,9.863137259906452,-0.001282638512851046,-0.0011700483917256859,0.000509837176102
1687554039.9856336,0.08979901608016914,0.10821208918887616,9.8117502556369,-0.0011008445596444017,-0.0012747247832082757,0.0017119800317201
1687554039.9957068,0.04357850325057184,0.04194039348905705,9.823043462664003,-0.000757386309301457,-0.001621546826992189,0.0004945539980295
1687554040.0055966,0.07927266020736207,-0.12423726176611445,9.733715480569469,0.0025834604294746565,-0.0009182037354799056,-0.0010384075581926
1687554040.0156157,0.15751542121185874,0.2943789629967204,9.832143924482292,-0.0012830072194976614,0.0006955762902801865,0.0001961683150481
1687554040.025664,0.10199440812109718,-0.02930390483473313,9.761528284894709,0.0009443364648279242,0.0015229670805521666,0.0002449644956838
1687554040.035606,0.06876769845506282,0.04615404964932467,9.793674269857828,0.0014260131439627738,0.0017349404035060325,-0.000331697054756
1687554040.0456357,-0.055013393312907874,0.05025690908207157,9.870568914452491,0.0009030000401040648,-0.00017989675218324356,-0.0022450183756549
1687554040.055682,0.017631023243515388,0.13268002297960121,9.85682043333343,-0.0010118337607877906,-0.0008004874668106586,-0.0039366657152671
1687554040.0655875,0.0916831221707365,0.15720004862785997,9.821112371248608,-0.0012401705815317998,-0.0011413585378761155,-0.0012671268783409
1687554040.078575,0.1854828695185078,-0.0613121579953759,9.703691968694248,0.0027391575078267692,0.0019018513289241013,-0.0012336011282999
1687554040.0856187,0.05714317092680008,0.2974851864324215,9.889283045921083,0.0007797024216887272,0.0008062124083511266,0.0009535013226892
1687554040.0956185,0.07140400700367865,-0.014317012849041803,9.78158636252694,0.0020462817251642204,0.0011847129470693714,-0.0001171290647138
1687554040.105662,-0.179655947043129,0.14387658654318697,9.960893062015375,-0.00021237337128213697,-0.003617205279724946,-0.0018084080662477
1687554040.115776,0.2192031327160379,-0.023172905764002067,9.696659935562879,0.002422555317215331,-0.000901101936772409,-0.0007966085109759
1687554040.1256485,0.14318763486501174,0.11138615124837739,9.785415154004339,0.002021694750587684,0.000504864631821533,-0.0006341658305276
1687554040.1356242,0.030981052513598187,0.13903552229624325,9.851874801737438,0.00043100109778128104,-0.0003974072278238852,-0.0012354530632395
1687554040.1457188,0.050405835935837764,0.21003993546205,9.86330452094881,-0.0021211965936008105,-0.0010013009035753557,-0.0004553935728866
1687554040.1556664,0.1227306243875952,-0.061743356594095626,9.737105064116221,0.0003825430530746641,0.00041132988432278936,-0.0013293594825912
1687554040.166316,0.12260430361026406,0.21415823369257875,9.824411073679656,-0.002043335386032135,0.0011843346881474448,-0.0006312237825144
1687554040.1756914,0.17277534578345566,0.023951132334918787,9.73035225085584,-0.0006687303478027891,0.0029668883466218206,-4.2262604077545306e-05
1687554040.185727,-0.11111492522780636,0.11510986443827174,9.93027992096453,-0.002051534671926361,-0.0005121727800837694,-0.0011389822471786
1687554040.195714,0.23406574260187296,-0.021615503242201402,9.684236116992528,-0.0003516708158140046,0.0030264849851788685,-0.0018445529281992
1687554040.2056627,-0.04151539814033699,0.015178842574412002,9.849962834566476,0.0005658343014622439,0.0008572804485508454,-0.0024938542634148
1687554040.2156138,0.06501736276676967,0.3207412169491773,9.892191413601715,-0.0031311298330102006,-1.5575588817710948e-05,0.0001168323209609
1687554040.225914,0.08255541379153905,0.06614597466008693,9.790709798241604,-0.003149020358809718,0.00048658953782163,-0.0002258971804652
1687554040.2356677,-0.04082744106132591,0.0054784501584335295,9.83037345057556,-0.001202924161078874,-0.0017858426246553636,0.0003328972956266
1687554040.2455945,0.1219918660900935,0.13034596331837575,9.801495296678441,-0.0018123762127112252,-0.0009957077248628256,0.0010269045009378
1687554040.2565143,0.1627181453609048,0.023374414034610172,9.741146628510286,-0.000669838316401349,0.0012066917044506289,0.0011904603301415
1687554040.2661295,0.16235743018108037,0.11919408543259453,9.774008065658908,-0.0009187109425491317,0.002888277538719989,0.0019236063229951
1687554040.2758346,-0.23944255990969096,-0.07292900944368726,9.932129978822534,0.0004500039294580881,-0.002550641180750246,-0.0012689816072482
1687554040.285633,0.06901799923418957,-0.009634013182929935,9.784695676189322,0.0022537836901959504,-0.002601665537182563,-0.0013203966669637
1687554040.2956946,0.09397203208832129,0.18402354205611665,9.834056272036348,0.0004201932200571695,-0.002329361118877961,-0.0006997663300383
1687554040.3056204,0.12488104303969984,0.02698369085500858,9.760411327683707,0.000867607223810592,-0.0008828404989720346,-0.0015346066798914
1687554040.315662,0.214140304834053,0.20268044824030332,9.775070352857583,-0.0002254052434145954,0.0011616159398595365,0.0011222644819978
1687554040.325834,0.0836070676371674,-0.09041835512367603,9.74489652910759,0.002256737958686549,0.002093698773861685,-0.0005973178200323
1687554040.3357668,-0.028306263098963114,0.2495065493651432,9.927352184067319,-0.0012461419480146677,-0.0002547274719064512,-0.0003760164841909
1687554040.3456402,0.0649776124154633,0.03790143819412399,9.807481310526544,-0.00022949352962084107,-0.0005006032470637504,-0.0001554861670259
1687554040.355651,0.18679713135017928,0.1571002629409124,9.781790259911604,-0.0011310308917802097,0.0013407965075975903,0.001094680540879
1687554040.365644,0.09043514059276722,-0.09351817747726773,9.734925745678042,0.003141146637454944,0.0013609150985903482,0.0026235776016589
1687554040.375676,-0.18168798232830352,0.1118554418639452,9.963576345174504,-0.0005752158916814079,-0.0021248312875769004,-0.0025471394188601
1687554040.3856575,0.19126308833291447,0.13277648331149128,9.763634540657069,-0.0002481319862049598,-0.00040746743018564064,0.0002826080884884
1687554040.3957016,0.13480281935740332,0.15897102615246406,9.80255702736297,-0.0013586597947146757,0.00041319931773549086,0.0015272171289294
1687554040.405799,0.08847849680788962,-0.2172940690172247,9.694868383381102,0.004275852123926232,0.0012771244564576505,0.0001887200627576
1687554040.415628,0.09123507533109582,0.15855893189089826,9.832675980497728,0.0022698162763996697,0.0018351357221747652,-0.0003611214930091
1687554040.425836,0.001218685458446137,0.15548594646343733,9.881984746185555,0.0012494288328417627,-3.382394067120869e-05,0.0004327053897183
1687554040.435629,0.015691259852656663,0.24062516367253994,9.893000746902901,-0.001665970284083127,-0.0013510965965839988,0.0007758281421016
1687554040.4457004,0.08880450174860015,-0.06696835799114152,9.742504968440631,0.0011283705089084935,-0.0006004426625381484,-0.0001111627794701
1687554040.4556732,-0.034399525348922974,0.03440040017904736,9.85099680555056,0.002920615163694974,-0.0032483759970419485,0.0012105708296045
1687554040.465666,0.06284078637134019,0.10421641699663037,9.813591576877636,0.001436453103420295,-0.002589363305017423,-0.0008491507038373
1687554040.4756908,0.19230446023587255,0.10496240154318032,9.750168386769223,0.0010944927068189216,1.8315276870612503e-05,-0.0005477551609177
1687554040.480744,0.24039953186243143,0.24271024658629833,9.764924935300693,3.3878080671310476e-05,0.001389977621679623,0.0006268376595441
1687554040.4947667,-0.052736649191760965,0.07925061985856019,9.881272308902403,0.0006716550289372257,-0.0028773372885730008,0.001802888203562
1687554040.5047357,0.19542906660171858,0.048396818380058444,9.73765026353019,0.00021680427171868026,0.0002924924511681324,-0.0001704016473043
1687554040.5146644,0.012143437635485184,-0.15197751524611586,9.758837948347203,0.004448706048058068,-0.00029793923175558623,-0.001623283490156
1687554040.5246434,0.01575029187523556,0.2851615819260089,9.910113701693147,-0.0005454182451832311,-0.0010866012133282142,-0.0025884896755118
1687554040.5346866,0.08981531452080725,0.19788471827099058,9.837419906784898,-0.0016458442307524773,-0.0016025515428489945,0.0001238926773991
1687554040.544681,0.15608640729121834,-0.1593059827379539,9.684368871502025,0.0029455637850290058,0.000479533712377484,-0.0009761800762165
1687554040.554684,0.14524274427368725,0.28233603444255084,9.834877734954652,-7.04380962072779e-05,0.001220472445335084,0.0015775269270276
1687554040.5646906,-0.16761461260637325,0.23505562481410433,9.991979504174335,-0.004901378246182474,-0.0029075138900188243,-0.0014623460598189
1687554040.5746667,0.219773804803428,-0.2279861193764848,9.618401742299426,0.001735213049870716,0.0002008813474143457,-0.0010778805013645
1687554040.584643,0.12470189673114504,0.22124330241450638,9.819767183783672,0.0002662984712048836,0.0005585137000743716,0.0015451018110949
1687554040.5946496,-0.04829408419456805,0.02769008251564295,9.85484980187694,-0.00018666859742398005,-0.0009115188350753942,-0.0014064592547614
1687554040.60464,0.07390657706286126,0.151625923424351,9.830477735953421,-0.0012267677713350565,-0.001161119653944825,-0.0008636832941223
1687554040.614679,0.1250033512291982,0.1078584073910521,9.776744173960102,-0.0008911067535752792,-0.0007498358876615261,0.001081288820748
1687554040.634854,0.04905315942410901,-0.017298973768060718,9.789178482060176,0.0010620282184486802,-0.00034003689764745647,-0.002361633466174
1687554040.653055,0.153994991049243,0.10888147425618444,9.775718270409177,0.0010948080072277983,0.0021938771286053784,-0.0007255311362344
1687554040.6546342,-0.5903532916507683,0.7245575913184793,10.384654626255674,0.0002059875084944639,-0.0008354896239941915,0.0016255637159671
1687554040.6646872,0.0655577855472041,0.053414840512559174,9.807508184269068,2.1588424428531566e-05,-0.0005691518804080812,0.0004886098316971
1687554040.674641,0.23620534288999975,0.08948995856832857,9.732490702852681,0.0002938939522517983,0.002340670533180733,0.0016650618339523
1687554040.6846895,-0.19937122374831254,-0.12092764204922367,9.898741576325529,0.0019449635005883428,-0.002021279705099123,-0.0029654806718129
1687554040.6946206,0.12712255832248417,0.16334007618885862,9.80170149662556,0.001367912079790374,-0.001584288109714345,-0.0006993830907989
1687554040.7047317,0.13432318599631687,0.12001232442199411,9.784325491048346,0.0005230048929314555,-0.00015973905057621666,-0.000681136618917
1687554040.7146842,0.1579460506551632,0.0916445234085955,9.763494386487448,0.0007975245491710954,0.0012927684305760552,0.0005470972968365
1687554040.7247293,-0.1272423581248739,0.20396818740124414,9.965897678922913,-0.003412395411064809,-0.0019933423842825523,-0.0023105753358353
1687554040.734705,0.11001769986830738,0.07139674062546542,9.778771552295181,-0.00275226383469611,-0.0013380474589395315,-0.0013315657857705
1687554040.7447443,0.2078549989057458,0.005115287942721837,9.702626204156275,-0.0015601750800281495,0.0019882242800065317,-0.0018863001610983
1687554040.75467,0.0894308813356046,0.13797610392379836,9.80703836372543,-0.0016823576491305555,0.0018139194853636,0.0001261546271022
1687554040.7660146,0.0031360743222734874,-0.04846944860555641,9.795578393335314,0.001660718852412398,0.00030106701154865637,0.0006189619301918
1687554040.7765927,0.02627243870287841,0.22270675881904578,9.887006405749746,0.00011173848637618932,-0.0014963889693319617,0.0037564359366994
1687554040.786174,0.05441256877288977,-0.031838384224545206,9.784462591551495,0.0001694927251943738,-0.0007125855253856433,3.374705501905332e-05
1687554040.794687,0.07728558163367619,0.09105893506409068,9.81154355365983,0.0005900756952635496,-0.0008969919834563158,0.001286190490097
1687554040.8047233,0.15863367645952453,-0.10465676173619884,9.696696155127214,0.003198127879154853,0.001837389192195867,-0.0010234998777408
1687554040.8147256,-0.1296673130035121,0.1430932549050413,9.942388539504664,0.0020701245610055116,-0.002781230633964286,-0.0003745497675512
1687554040.8247955,0.18058410082764131,0.23498039080870897,9.801865153701028,-0.000757752677147912,-0.0006969312892820237,0.0002103178989242
1687554040.8347187,0.11119302714815942,-0.008329322192988277,9.754993869643497,-0.0006106009193635962,0.0013661205494091423,-0.0030761380918223
1687554040.844701,-0.0006474908585500034,0.08686757971135706,9.853529216154007,8.378668559429587e-05,-0.0008321643117663362,-0.001405337011059
1687554040.854726,0.0869702157337013,0.1316234204017871,9.817367091420811,-0.0008009446497589569,-0.0007092314975541446,-0.0005168534122306
1687554040.8647034,0.09239843514420679,0.042974594224038085,9.7833397846509,-0.0006333433874118335,4.1790032500458086e-05,-0.0015118852030385
1687554040.8746753,0.08766903144676823,-0.023035794129158012,9.766595570948926,0.0012144334287168988,0.0004150827606573125,-0.0017979630507428
1687554040.884716,-0.020874824589681422,0.2993388202331979,9.934160831657223,-0.001987457604634115,-0.002456393598718363,0.0013506348735942
1687554040.894694,0.1493201601594,-0.14254430996097242,9.703815332385808,0.0013407252093479009,5.8187712335246253e-05,-0.0012741828109968
1687554040.9047134,0.026508903047098163,0.2716894136428573,9.898763538819363,-0.0014923704369680015,-0.00166178557964471,0.0012530318630494
1687554040.914713,0.269974570639713,0.12972959414644955,9.715329636875753,-0.002476966410272661,0.0024844603172976625,0.001511565219877
1687554040.924691,-0.06301060660924532,-0.00928697700154241,9.850036109853436,-0.0010173995233642927,-8.598495140502306e-05,0.0005619956640627
1687554040.9348304,0.10564022768223595,-0.01845723866841269,9.756153563582947,0.00022051603715523717,0.0013970594281363243,-0.0009504590421814
1687554040.944764,0.05552488194034528,-0.00021510029348206062,9.800555898904127,0.0006172294851142353,0.0017230322295321283,-0.0033264673553306
1687554040.9547572,0.007096146577337625,0.3611521638225454,9.948363039479524,-0.0031493810906546966,-0.0011514195596370714,0.0006212204456429
1687554040.9646745,0.18814495140873722,-0.03265742645804487,9.712416953272434,-0.000575233380999825,0.0009343774256263611,0.0010880149196933
1687554040.9747286,0.08619445681430687,0.10962347739229399,9.807185806932365,-0.0009298462433936631,0.0010569278252395204,0.0016874089773379
1687554040.9847364,0.04317824130315699,0.014792086167434257,9.804436859895542,-2.255091305090032e-06,0.0006259169931201165,0.001080190529498
1687554040.9946775,0.16294349245551365,0.07487370725933076,9.758457970586006,-0.00011142572285930134,0.002669616316274238,0.0006599597976643
1687554041.0046906,-0.09318334195741873,0.11906182639974187,9.912926879401825,-0.0018034420348526465,-0.0005132788822123837,-0.0004728903300959
1687554041.0146906,0.16265998181735708,0.12290930456376202,9.770275702563183,-0.0020858132756250997,0.0011094562404291872,0.0007233176142077
1687554041.0246625,0.03431367303742279,-0.03422691672772663,9.79328117488138,0.0008124640627421791,-8.672561941867004e-05,0.0013215883876879
1687554041.0347722,0.069945658561954,0.03568518534140828,9.792693051490929,0.0009030048882277993,0.0005376085948156475,-0.0002430413156647
1687554041.0448148,0.0881943316896791,0.1344766924309844,9.823848791964362,-0.0004846714660566975,0.0008937580318485913,-0.0002478956017542
1687554041.0547595,0.0602154699451146,0.10268609838625158,9.828146043784516,-0.0012010360808915063,0.0007812481729451648,-0.0003641350200299
1687554041.0648372,-0.003366950135948399,0.03898446310925842,9.83982617527447,0.0004205608980654332,-0.0012031974423903297,0.0006845494493942
1687554041.0747354,-0.0924305470683022,0.06622263413463268,9.89250388428429,-2.8317929564897526e-05,-0.004240419548389498,-0.0006278726510603
1687554041.0847282,0.36041465506771253,0.11018549888627027,9.67811181672888,-0.0007361231342106457,0.001656342915148296,-0.0008286481030184
1687554041.0947535,0.026434916510570436,0.08639331203451092,9.827161260355085,-9.354148511642059e-05,0.0002377463912259069,0.0008931632613863
1687554041.104703,0.07273462146265747,0.08400536266320976,9.809598151362469,-0.00042544113102639387,0.0005119159334278594,0.0004982831882413
1687554041.1147082,0.10106349986678452,0.1811098251870566,9.830736973564411,-0.002813733412157032,0.0014104538068236024,-5.977868623026957e-05
1687554041.1246903,0.02147894445734542,-0.07146764011287168,9.787187124043568,0.0009912833132129473,0.00019118197702175537,0.0007158570218931
1687554041.13472,0.012080556193669602,0.08651270496774102,9.836554992465794,0.0008359341822824026,-0.000911134744912794,0.0004949403804827
1687554041.1447473,-0.012234347556288222,0.28932705605733733,9.94109384278924,-0.004062813914916011,-0.0027652290913063727,-0.0001547624129701
1687554041.1547372,0.2697786805552411,0.027220250903036293,9.679897507761105,-0.002455344872557854,0.0011422417725915287,0.0010000903270307
1687554041.168238,0.018686686997484873,-0.08057582372893096,9.77846093213534,0.0016942338090692054,-1.8555822206182093e-05,0.0004189271125111
1687554041.174801,-0.09325669063613369,0.21753789487614753,9.950238711417015,-0.0014282984030996055,-0.0016241708624417828,-0.0016772841341693
1687554041.184853,0.011394900320068001,0.037322233609124324,9.837548406092186,-0.00016914163435488892,-0.0031693933733307734,-0.0011158742714572
1687554041.1947343,0.1478730941642946,0.1270837009150625,9.782422291697165,0.00038517350721986723,-0.0023274877400318076,0.0014978019456945
1687554041.2047615,0.04641248727903084,0.03555390067195096,9.800052670695505,-6.0758667187362246e-05,-0.0017917973807417876,-0.0011214761767435
1687554041.214725,0.1591346823226215,0.13613247164663173,9.768619495562618,-0.0009246494828267511,-4.3501261890009254e-05,-0.0007247064500946
1687554041.2248018,0.05219117070799925,0.06064713121892576,9.810289713920632,-3.690416171122619e-05,-0.000810921862595262,0.0002244802884857
1687554041.2347462,0.12067349151643657,0.1528072230671926,9.804485797284931,-0.0017590907672981684,0.0004195317143246714,-9.813590495773902e-05
1687554041.244768,0.08170936595105982,-0.006944812984052475,9.76660276949438,0.001647684512852716,-0.00013219010551775945,0.0025915278814833
1687554041.254728,0.04077138829141947,0.17866085867111148,9.853953973093187,-0.0008970638507335817,-0.0005929997849195662,0.0018248599075347
1687554041.264709,0.011922380753920228,0.00855171200814153,9.816900541941262,-0.0005472569212450187,-0.0011477086683724213,-0.0002683741046015
1687554041.2757728,0.2188888681842962,0.13037984150513413,9.758335306582719,-0.0001847875940871872,0.0011198946589443693,0.0024328107241641
1687554041.284851,-0.10742202032177721,0.09109290954953017,9.910152615050116,-0.0017900290041414609,-0.0012944652372905525,-0.0001074359757725
1687554041.2947092,0.24594249633820758,-0.010602113297281801,9.697394298113954,-0.0006259054388486414,0.0024550545280090596,-0.0011978148255396
1687554041.3046978,-0.023832229173749095,0.10221097523628464,9.863273163146268,-0.0010833047835619146,0.0006214051262126711,-0.001127471332987
1687554041.3147163,0.05437946856849629,0.009970882563247912,9.7896938562497,0.0019278117790698576,-0.0006101296719693877,0.0015033922822082
1687554041.3247864,0.061244987828994187,0.14838048517306604,9.843422857684903,0.00011434476642318772,-0.0006529770688291939,0.0009203607909481
1687554041.3350842,0.06971004258221274,0.09311697982709193,9.818707704047423,-0.00031444134805342077,-0.0006671341933705007,0.0011021739332105
1687554041.3448374,0.1402483676531754,0.08141319127830644,9.775595908672257,-0.00038484026166679214,0.000914993848444831,0.0009449601633574
1687554041.3549614,-0.08285162731875675,-0.11445254050389919,9.824987132688934,0.003229064846773999,-0.001783200983646859,-9.470154148725173e-06
1687554041.364691,0.12606814050654847,0.18455128835832524,9.812535408009811,0.0008262266690845866,-0.0004327921295258677,-0.0008331380091507
1687554041.374866,0.11919816781135036,0.06306101079845886,9.78017855102819,0.0005132965544245872,0.0008051031947248323,-0.0020263429038126
1687554041.3852637,-0.011845687595716189,-0.08807693170528269,9.79646249620232,0.004607800887460408,-0.001450180994203801,-0.0011966930474985
1687554041.3947067,0.22475709433997199,0.41407450027930504,9.835126305472444,-0.0011120458549066683,0.0010457661391916515,0.000689016247085
1687554041.404805,-0.12367871954088833,-0.039564661414448705,9.888640122868539,0.0002778919198545399,-0.002598680390913187,-0.0013818623270738
1687554041.4147189,0.22312909750883353,0.04355167379496655,9.710449023086339,0.00024992780118115196,0.0013475196644714066,-0.0028850116073984
1687554041.4247172,-0.05114108042282134,0.07096493858848685,9.867617834663111,0.001943465021296153,-0.0022038217531343152,-0.000164823956405
1687554041.4348297,0.09318164351765222,0.0823309801817429,9.794087552811137,0.0017806630797619163,-0.001763830814629536,-8.733244667687764e-05
1687554041.4447238,0.15283147010205736,-0.032551004334770615,9.730292629643207,0.0038333045294671607,5.3488099345819965e-08,-0.0002896371303025
1687554041.4555156,0.0649225474044347,0.2151477151521722,9.856532926007048,0.0008068607164530098,-0.00015787891181909402,-0.0002937103859979
1687554041.466496,0.09872083065426628,0.11047596342000074,9.801890158058878,0.0002629752198135772,0.0002738831188314235,0.0001060192002083
1687554041.4747565,0.16130473639586176,0.06360236308721937,9.76886435511093,-0.0003487367937272759,0.002300078996132802,-0.0016873291466284
1687554041.4848063,-0.13771169591044857,0.14239997247136338,9.946855351218257,-0.0008769505296645915,-0.002506314620506099,-0.0004274431854386
1687554041.4947534,0.2779103570998048,0.054402433391258796,9.687856590025847,-0.0007380245214557991,0.0019323815661149663,-0.0010003858484227
1687554041.5047078,-0.037714163078992655,0.048789209930882975,9.858399480976813,0.00032891646690253926,-0.0006473793671857999,-0.0001730034133318
1687554041.5148575,0.08434617685371866,0.08025511659155553,9.81341960443003,-0.00010061296697407275,-0.00035158756783828013,-0.0006818760890413
1687554041.5247562,0.1914934277189754,0.20275569926251763,9.787866647837852,-0.0017565153535300361,0.001532280822756781,0.0012191545532883
1687554041.5347564,0.030509539998021935,0.13335292392329942,9.85126355282589,-0.00265019749131342,0.0004951543725665301,0.0015476947877656
1687554041.544772,-0.09678858816480122,-0.16838601906328365,9.814729466634253,0.001135066268387236,-0.0020980175811413223,-0.0012250387813795
1687554041.5549216,0.4119359518947883,0.11654690941868577,9.637608605392721,0.001130558118694417,0.004777031700659703,0.0005173092935334
1687554041.5647595,-0.28276632555960646,0.08716228689329462,9.999344219099912,0.00013072373612911203,-0.0019374487965848495,-0.0011062006238747
1687554041.5747538,0.1620018057955706,0.08239522043195782,9.76644793190757,0.00030135382620610123,-0.00024022406998450838,-0.0004699275601554
1687554041.5847251,0.14247155412419146,0.02866250061619365,9.757767749842682,0.002592790262856074,0.00045677544348918605,0.0020085495774734
1687554041.5947645,-0.12338422263771372,0.21304387205086434,9.959046546866826,-0.00030213176351999286,-0.0036734300438132973,0.0020144905423845
1687554041.6047623,0.12019340632026648,-0.06121012215083951,9.739689531124716,-1.8281729488791957e-05,-0.001182715913099775,-0.0025899802572924
1687554041.6147938,0.208159998981625,0.22259766482624088,9.788520361974037,-0.002514614683062793,0.0013087544082443507,-0.0020445912383396
1687554041.6248612,-0.03024702836292472,0.09068486523078662,9.862101656086757,-0.001981876626171821,-0.0013920838354332882,-0.0002065426675502
1687554041.6348064,0.1371753530590681,0.05543242587710038,9.772132435569059,-0.00140893245484019,-0.00011243997527417756,3.485986908039699e-05
1687554041.6454082,0.12492259288887102,-0.04045437035162704,9.73209715822931,0.0016718906245633397,0.001143736554273524,0.0007382173202101
1687554041.6547704,-0.005204067679145523,0.17635737157955178,9.878376580130432,-9.463202351578964e-05,-0.00047938805943875955,0.0012001328281227
1687554041.6647685,0.09802448652675119,0.0662834830292293,9.796080001587464,-0.0002805204173676062,0.00027276036423714396,0.0006201223581198
1687554041.6747692,0.04563303518040482,0.019784895365147222,9.803185301961891,0.0008817655432811504,-5.0968935082987e-05,0.0004219422693464
1687554041.6857812,0.10615547982097621,0.11777387569567264,9.809276715940204,-0.0009097445106326547,0.0011087129061897554,-0.0011624543700266
1687554041.6948702,-0.08773316011176724,-0.007357017693281981,9.866760088966524,-0.00012929709033170488,-0.0013280011323456148,-0.0026734272256393
1687554041.7047837,0.33717939656381307,0.03882613666708419,9.661915931155251,0.002532825846181855,0.003107325850991254,0.0006543704070251
1687554041.7148511,-0.09482276649950494,0.07669620799834301,9.897025257365692,0.001039341735633264,0.00033572849040410354,-0.0016519321367044
1687554041.724758,0.1366717894798203,0.3349542209201744,9.846184632137556,-0.002379007017016526,0.0007831151428234186,0.0015231277788158
1687554041.734786,0.09640863451075513,-0.0635291386260545,9.750295596140804,0.0016424433553260758,0.0007101457473414242,0.0031447134673695
1687554041.7450266,-0.04754903188639726,0.06284246246410323,9.875869243550268,0.00012216495408306618,-0.0005169990627397449,-0.0001860371563483
1687554041.7547655,0.1807836155551936,0.18883876740379776,9.783031926164178,-0.0014830618861609273,0.0013393082513000313,0.0010839161981463
1687554041.7647665,-0.029040798115616225,0.13788225532974932,9.88733198414982,-0.0037331359425015497,-0.0003180874059221541,-0.0005805616971004
1687554041.774815,0.1842807507571402,-0.16292031911183738,9.66460494007071,0.0014114654337467891,0.0022560921795140116,-0.0007858619797874
1687554041.7847402,-0.06420327262511552,0.2500454129464002,9.958543622187923,-0.0018507404381790183,-0.0007900656321778185,-0.0004203647846255
1687554041.7947724,0.29060041382481616,-0.0009504867431484523,9.67694565647295,0.0008873305264383366,0.00307082481546754,0.0012969668163319
1687554041.8047955,-0.04350364458344056,0.1315921803736349,9.893109276757084,-0.00016283111907292491,0.0006072966347828425,0.0014661087765458
1687554041.8147397,-0.0009880265298013039,-0.10457316003443008,9.782903174478628,0.002495558627154436,-0.0002718783255585555,-0.0003801174467329
1687554041.8247414,0.13686523817199778,0.33876489692547324,9.871216998070707,-0.002642750439239338,0.0005964864793980082,0.0006472999806616
1687554041.8347952,-0.06610611856613317,0.06020702107309857,9.871509612121654,-0.002522779579306276,-0.0020287368152525852,0.0001846154913406
1687554041.8448305,0.15020153368824568,-0.08320352351688134,9.710204803832353,0.0008843547736884748,-0.00019661334338269107,0.0002386446571078
1687554041.8556309,0.055954013942666546,0.22230995079535168,9.866652181014569,-0.00222626402174136,-0.0007014226475192551,0.0006033304374765
1687554041.8647587,0.20906208268366056,0.009795571552095783,9.716936086247655,-0.0009395887740531742,0.001844459523589313,0.0007072728470999
1687554041.874776,-0.05575484357841564,0.1164653762170646,9.884198520845665,-0.002759335877756736,-0.00026815417390916576,-0.001129666693126
1687554041.8848093,0.04843308790733277,-0.06704172321914577,9.771846003091895,0.001075090166073921,-0.0011856807875385831,0.0003440600115906
1687554041.8947625,0.12469413311551021,0.10307078384600357,9.797692354132497,0.0007040446186932181,-0.0002651538082390193,0.0009296858037456
1687554041.904832,0.0669562895362811,0.1056417527064233,9.81740093879145,-0.000986841654980427,0.00034874533164408456,-0.0011967193573612
1687554041.9148505,0.11487715180451166,0.1961964965416456,9.825625769087415,-0.0024218436165906656,0.0006773198114742826,0.000667055078699
1687554041.9248066,0.09957957686911453,-0.15761518761468496,9.717360665585682,0.0013552468102590498,0.0019182254297287569,-0.0012920646700907
1687554041.9348726,0.022167566178749692,0.14138044787256043,9.859848735666498,0.0008821294621708416,0.0003860087820469963,0.0002833425527538
1687554041.944864,0.08031059561688673,0.12284218261816111,9.819783477650143,0.00031884811364589293,0.0003834075003623499,0.0009620747872728
1687554041.954757,-0.0261978555234196,0.09776442427296164,9.863122390439178,0.0002600093914498245,-0.001951614044496604,0.0015044870227908
1687554041.9647925,0.16948950820725622,0.10279542939624926,9.771443193273605,-0.0014294072574750488,0.0009444278548697161,-0.0009460054576296
1687554041.974996,0.07945118044483032,0.08519794832522977,9.807289330330182,-0.0010691935347859668,0.0007276166825273108,6.68988790463532e-05
1687554041.984779,0.0798278369963698,0.06172612714256388,9.801383028804322,-0.0014271912098566077,0.0012398282474274376,-0.0012734717462111
1687554041.9948213,0.030358583565542555,0.0923170275778789,9.837035636538674,-0.001601511791373476,0.000349502262798787,-0.0016187882289189
1687554042.0047832,0.08668821815835677,0.1743043290221333,9.839138990574298,-0.0017803297428982336,-0.00041791057433360597,0.001783135084585
1687554042.0147762,0.023415353152903086,0.07734227315053367,9.832349145867518,-0.002738487787521839,-0.0006950829805863895,3.943452062817911e-06
1687554042.024833,0.013183059460739652,0.022339511118128697,9.836447654575244,-0.0010512868081471475,-0.0022220676189709677,0.0006573594286206
1687554042.034937,0.13910862116548345,0.029477373358024073,9.749216437881966,-0.0005718578132783553,-0.0003556869869031089,-0.0002810313604671
1687554042.0448232,0.19679846943664733,0.17623767721726438,9.772287001354753,-0.0022374216638251423,0.0021026154377285122,0.0004397761071201
1687554042.054815,-0.08458143012353961,-0.1307652617983792,9.826061249276957,0.0015198826575478798,-0.0008526464543846949,-0.0007780148886043
1687554042.0649722,0.12801890062927118,0.2987372499647566,9.87119923487315,-0.002579419828627681,-9.679732767525646e-05,0.0003243156237628
1687554042.0748017,0.07364272813240408,-0.15803348425339878,9.730484129025928,0.001408516186147493,0.000494411935595516,-0.0012145979568261
1687554042.084865,0.10549107220718018,0.17755558512575811,9.821344691979162,-0.0007722635011722065,0.0012566058988735798,-0.0013401507172633
1687554042.0947745,0.0724714814500187,0.15046083957650835,9.832314638122387,-0.0009496127898403142,0.00044673150832436607,0.0012366299337342
1687554042.104835,0.09584173260690838,-0.030525547505181726,9.763250819329828,0.0015001547614100197,0.0006098973421726106,0.0015432518988715
1687554042.1149592,-0.04449502535362056,0.10886357722565003,9.879494491308938,-0.0007525070170387575,-0.0009767059318824788,-0.0016497165202994
1687554042.12482,0.06957968374484146,0.12028231933759401,9.819050090098813,-0.0007800963486851945,-0.0014569043646775381,6.65228575568522e-05
1687554042.1348526,0.2915577088792823,0.0873387828882947,9.683505302163848,-0.0008027988739151261,0.0034657066901312037,3.4129246520611146e-05
1687554042.1447718,-0.14263321274295843,0.04257601085115731,9.908758830366633,0.000883996127587819,-0.0014799881339754091,0.0012533900729946
1687554042.1548152,0.027720281604582387,0.16677127455212423,9.852558958445407,-0.0008799344523217691,-0.0023878433829095883,0.0011379274796096
1687554042.1648326,0.23823937019261537,0.042569884890718106,9.722102858446062,-0.0011749938428598026,0.0016917303785864877,-0.0008774473104525
1687554042.1747568,0.10134518606662465,0.0018716704371455667,9.766702761440522,0.0014401517561112155,0.0017457512334703473,0.000667766783769
1687554042.1848154,-0.07004748647064447,0.18900458863656922,9.927192520884278,-0.0016179201803704997,-0.0008355272930177188,-0.0008402079116452
1687554042.1948164,0.15011938980573483,0.03363555427248221,9.745509259319089,-0.0012818769349100625,0.0010509829575926497,-0.0018255360197175
1687554042.2047994,-0.039087288122312824,0.011603713070894299,9.850159387566968,0.0010542401213901548,-0.0020402823589081576,0.0002233664266865
1687554042.214784,0.28532594629433167,0.11536193440625961,9.70996023710421,0.00037284003210185225,0.0023116190662786427,0.0006655473256584
1687554042.2248251,0.12147544734400338,0.03848556843629694,9.772623223249441,0.0008664673679454275,0.003385240192619083,0.0003049260698359
1687554042.2350256,-0.23170102681134516,0.039647152058852685,9.957184043217143,0.0009685319771924095,-0.002682874164415677,-0.0011095610685546
1687554042.2448964,0.15285984031289626,0.07823473009972585,9.778279764084653,0.0010132786398147112,-0.0011432315014405687,-0.0008994211681086
1687554042.2548797,0.2189796146034017,0.21536835170571006,9.77596586926521,-0.002130925110360956,0.0021934927801741,-0.0011200002632934
1687554042.2648077,0.0011028533848676232,0.10283333154880606,9.853175018988395,-0.001804898401810114,0.0001271002624606704,0.0007158393849719
1687554042.274783,0.14924966419624378,0.009758220133656861,9.742103857074264,0.0005718098184691487,0.0009757211800039332,0.0023117644590426
1687554042.2848413,-0.10443698919686413,-0.04138578825915414,9.855596087430989,0.0017098834915073046,-0.001762358785185824,-0.000285895891105
1687554042.2947967,0.0976963659804956,0.13498441894886432,9.822111898744273,0.0009678129170056153,-0.0015124002654632466,0.0009486745979271
1687554042.3048296,0.1573968554135119,0.23095697055509443,9.817195255208793,-0.001734882203859554,3.7891484238524665e-06,0.0020662793534908
1687554042.3147976,0.12536695642616344,-0.02231992754425664,9.753116489899188,-0.0007670819396968096,0.0017490934810332523,0.0001872249407794
1687554042.3248703,-0.023940201873114332,0.057703817847402965,9.850488140319612,0.0001236624738632368,-0.00041157567162557066,0.0009077013231914
1687554042.3348825,-0.08730855745479593,-0.002582831224549712,9.860751946615974,-0.00043478122158902835,-0.002196364455825245,-0.0035138517856497
1687554042.34488,0.17383471464633748,-0.006766807940081843,9.727431272614602,0.0022969909192357666,-0.0005516386078348835,-0.0021421964052964
1687554042.3573382,0.10410928702799054,0.1856660925208868,9.829832604396254,0.0019300530140888782,-0.0012270515928727416,0.0021307336859505
1687554042.3648078,0.17011537509202845,0.2545305844608453,9.814122525283494,-0.0013035014446475352,0.000574881486839195,0.0015644737717563
1687554042.3748555,0.005737832025378773,-0.11169702971488096,9.776282413214178,0.0016782297934239377,0.00013269348258081792,-0.0007727694470334
1687554042.3848584,-0.0044091476629808946,0.1221011366008608,9.871329641939584,0.0005073859480733183,-0.0014006388783800582,-0.0013881920609522
1687554042.3948972,0.13366432014273874,0.1315536487119519,9.797358619963735,-0.0010837229657606326,-0.00012844761603675298,-0.0021097789291191
1687554042.4048564,0.02427136707499007,0.003801776877313928,9.81178465556793,0.0015828586832786348,-0.0018152564400584447,-8.95516719568645e-05
1687554042.4148386,0.1755632796937221,0.0889051765314329,9.757089918564496,0.0005051095396673603,0.0009332617740012048,-0.0016057559993017
1687554042.4248676,0.04136128135696553,0.17992309283943766,9.858939275206357,-0.0006072520292096083,-0.00035569651046583905,0.0003973316046509
1687554042.434943,0.18505073764674465,-0.027182257787754967,9.719409314402228,0.0011328283166452914,0.002633855434164832,-0.0007779720477659
1687554042.4448946,-0.05527791901177495,0.20215848422058078,9.906719832802956,-0.0010054756697084344,-0.00017912229950000526,6.42844237487639e-05
1687554042.4580576,0.05274015464017018,-0.005690006974680344,9.791245651107783,0.00023727953133920342,-2.0784850826590744e-05,-0.0019052637513626
1687554042.4658318,0.29273296910303814,-0.009659093340609135,9.652825846831739,0.0024676077624180533,0.0032421737361533875,-0.0004732977837223
1687554042.4748218,-0.15734372759537713,0.3136125235848318,10.00634057229527,-0.0018287702838883095,-0.0010176823245140426,-7.167912608870616e-05
1687554042.4848037,-0.023796656001799924,-0.03418579452702683,9.823616385552429,-3.3672300703581193e-06,-0.0028311412891525154,-0.0008230727404255
1687554042.4948015,0.19993908485962508,0.10717751113190911,9.752782280379142,-0.00086912341779186,-0.00012101229846435666,-0.0011292925342816
1687554042.5048196,0.09185159665651431,-0.046235082211511,9.768182420995512,0.003039430991024019,-0.0007997336374166603,0.0011557620013233
1687554042.5148144,0.126355294449915,0.21315682691397683,9.835096417261402,-0.001975181026261465,0.0013601434253796775,-0.0026909449376065
1687554042.5248158,-0.02715046211106144,0.105226324963172,9.877632729981123,-0.0016648445170828064,-0.0012091698435211752,-0.0011378632631052
1687554042.5348372,0.05727138500588614,-0.041242092502147464,9.780478953435978,0.000696974320777612,-0.0016077501385932168,-0.0011181229498136
1687554042.5448558,0.26328168635285404,0.22362877571565185,9.755351284336452,-0.0018034382580913548,0.0022531253023200777,-0.0002009342430058
1687554042.5549374,0.010751891439153716,-0.010811539438446628,9.809096425399382,0.0008359219401189852,0.0005435965881292423,0.001172921547001
1687554042.5648413,-0.0027620621188753046,-0.07539036401123667,9.808185871389192,0.0009525283788676989,0.0008207792176886738,-0.0041873647138375
1687554042.5748425,0.07654048885646496,0.19462242913162997,9.85881935490374,-0.0017825599203716955,0.0010223101650337885,-0.0051004403509099
1687554042.5848672,0.028439528139148833,0.13139449241769172,9.854700351084984,-0.0013213806113253246,-0.0008921686137891446,-0.0024190124828267
1687554042.5948973,0.18236119429765033,0.08810610805111144,9.754110566087565,-0.00042991776533624044,0.0007968973697530116,-0.0004151802282679
1687554042.60487,0.16152057090227712,0.1058021490068909,9.775623923786922,0.0008039072593249744,0.0014216285672438037,0.0030639037717234
1687554042.6148915,-0.03919823679473659,0.13208662563067425,9.88428134779536,-0.0012997862141226441,-0.00030019245404278825,0.0013655341712334
1687554042.6248407,-0.019999838260580216,-0.008635016893899724,9.824572622979868,0.0004920929848374588,-0.0020782723238117955,0.0011282372864995
1687554042.634982,-0.020744916715299207,0.060982265232538226,9.86224399084231,-5.4406529220949724e-05,-0.003478617425769158,-0.0005637781001526
1687554042.6448514,0.45215284838452174,-0.008929052318694435,9.5765706220922,0.002440041368788689,0.004010713158772393,0.0010272979847255
1687554042.654869,-0.10108680252591698,0.17710265535934544,9.9344712269759,-0.0002593052508614462,0.000584566287193291,0.0003053190879624
1687554042.6651711,-0.10795417349384266,0.11544156931082432,9.925105731961652,-0.002163666467563433,-0.002692985405067336,-0.0018963223561544
1687554042.67704,0.24822912590750248,0.10214588976390096,9.719362391249767,-0.00047984414519689053,0.00019750780713136929,0.0021351914614539
1687554042.685551,0.0717684808818041,-0.15899682805915802,9.74036422443045,0.0019196253594040195,0.001355701340199534,-0.0014865422859687
1687554042.694817,-0.013911729798043043,0.29856123376509974,9.925618069505022,-0.0008814288159425865,-0.001302663819999796,0.0014027924911685
1687554042.7048154,0.1779941782005237,-0.05494704019147398,9.701680908781276,0.001963574952529707,0.0009112764196914609,0.0015670975111758
1687554042.714817,-0.06472170530008257,0.22532650325628817,9.944832690677565,-0.0012345789038344284,-0.0021129090232947173,0.0014854868490116
1687554042.724826,0.2328464178887069,0.12991386124071067,9.726969916315124,-0.0020087123182411103,0.001233132357642636,0.0021418941318157
1687554042.7348802,-0.08257744403529772,0.05891311875940659,9.87710157622496,-0.00248777644496017,-0.001266899125710043,0.000327685963745
1687554042.7476344,0.1889531298620104,-0.05317827889679346,9.698513629161384,0.0012859663967989595,0.0021033661201245108,0.0003060760203849
1687554042.754837,-0.08810254421080913,0.230769804278874,9.933030786266402,-0.000657168580376845,-0.000293856823969272,0.0007367017091352
1687554042.764853,7.686550045888924e-05,0.03992666828008531,9.84706979862834,-0.0008311244895809364,-0.001220324293537559,-0.0013811091199416
1687554042.77482,0.20697738675198593,0.25760147083728685,9.809503058318217,-0.0034123942969364277,0.0007455039652598475,0.0002326992102067
1687554042.7848806,-0.07901185526607898,-0.11645169697574703,9.806834415582397,5.6977448999504847e-05,-0.0018592338449082688,-0.0010436087619412
1687554042.7948737,0.16381746505136321,0.11504720626091879,9.767221868617412,-0.000554725035478113,1.981778044897766e-05,-0.0007399787433344
1687554042.8048298,0.004973981215223788,-0.053195318975194486,9.801442784490519,0.0023021997284714143,-0.001487432390104735,-0.0008763555675644
1687554042.8148837,0.17941766280687083,0.1806722851585824,9.776987987726738,0.0016774817644158806,2.390475933213793e-05,0.0015614961297584
1687554042.824849,-0.05494603480347742,0.06928956314583581,9.877571648844137,0.00031773620172279927,-0.0017552676348963382,-0.0014090576447446
1687554042.834901,0.2075732850620855,0.07409703127889072,9.728406720307394,0.0009253247377116207,0.0007987645424825918,-0.0006122501805324
1687554042.8448713,-0.014107519277002102,0.19347440536945607,9.885588990097954,-0.0017266924763055045,-0.0006421663887124923,-0.0011061829287458
1687554042.8548827,0.04532547256542287,-0.027164875345127338,9.792820441733296,0.0002037344092096417,-0.0011875321243159324,-0.0015621773205597
1687554042.86489,0.18117617014333068,0.1807885032959746,9.802252059605669,-0.00034201754096336586,4.3284181308151944e-05,0.0011766625242641
1687554042.874843,0.21115857249763903,0.12034842279317436,9.74150647060929,-0.0010047955943578361,0.002856620724652824,0.0017958118982247
1687554042.8848944,-0.08150373552030206,0.042292274400877995,9.882097733860464,-0.001699891882338733,0.00026380239691388,-0.000894594356035
1687554042.8949742,0.059523625338773464,0.11680334019449816,9.837909684264798,-0.0009205343113083425,-0.0011316824122955373,0.0021858579124424
1687554042.9049315,-0.01450341167485206,0.10276857823952151,9.874559454796628,-0.002245251175148952,-0.0025920005685639274,0.0006201211357589
1687554042.914932,0.3530888297171938,-0.07375590774336649,9.608203198007757,0.000881704970351072,0.003384889124442828,0.0005139257986198
1687554042.9248943,-0.261144805758526,0.06049029290130435,9.97944055357945,4.878944317402246e-05,-0.002936944866746972,-0.0017763721994955
1687554042.9348805,0.25978306141049523,0.12077102576056056,9.713843359155852,-0.0008527239440255097,0.0011772588646521904,-0.0015334725618261
1687554042.944903,0.06443912652036592,0.24667447778266774,9.875481201961508,-0.0029545556394404596,0.00012597846049915482,0.0011975319061063
1687554042.9548988,0.03714005591011605,-0.10401289931803115,9.763358536004242,-2.9078109496388748e-05,1.0488487255833683e-05,-0.0006811422068525
1687554042.9648447,0.06275318837118639,0.12534919784458395,9.82378063838399,0.00027341236886350165,-0.0009293927212146009,0.001777929835404
1687554042.9748352,0.023104256484202213,-0.11685035893440852,9.767199815790091,0.003364665924987489,-0.0012739677591002288,-0.000297780614895
1687554042.9848623,0.08882209469970603,0.19520763456894516,9.844850371145524,0.00043992909622287427,-0.0005694973387166455,-0.001261152909686
1687554042.9949083,0.10705392784183512,0.1708958194562723,9.822517620734107,-0.0015233057038702257,1.2734131867731902e-05,-0.0010681942809272
1687554043.0048878,0.1294775300929211,0.04139250931853857,9.760810895138043,8.974607865621197e-05,0.0008438520748190495,0.0002386393020029
1687554043.014854,-0.020966969971631447,0.20673810851566066,9.90795400719776,-0.001667086171787292,-0.0017392490312431739,0.0019373619574222
1687554043.024903,0.1817820326455442,0.026701367472993343,9.734633243381548,-0.0006627647479183826,0.0008561370166909439,0.0014993065700733
1687554043.034942,0.07967633162582907,0.0822393851138954,9.813077401347146,-0.0022757907195658047,0.0017595086488425696,-0.0007854691944915
1687554043.044896,-0.04785017087842789,-0.0898674559139972,9.830151473866549,0.0011104799948782275,-0.0010240012320295252,-0.001029459876557
1687554043.058725,0.07467140238764693,0.08900946817344213,9.807633268345542,0.0010415673722978037,-0.0007203916525534882,-0.0007489434216071
1687554043.0648575,0.28339797931790917,0.44237795273922403,9.8155167788226,-0.0020429838187244046,0.001011475631295652,0.0023244383622992
1687554043.074979,-0.060603162247910757,-0.013885032338358628,9.847596597848844,-0.0001069358782736438,-0.0017381489574045748,0.0020156024251233
1687554043.0858002,-0.001977986043570485,0.08546930977455838,9.857237365831276,-0.002248241078659895,-0.002237717086300258,-0.0016478459589082
1687554043.0948536,0.06565757220746404,0.03240662048972186,9.79427930944542,-0.0023953835914845884,-0.0016427901012945334,-0.0034240667015213
1687554043.104854,0.3427339252249585,0.06626629730540885,9.658221541942572,-4.327341921696078e-05,0.002852532441729239,0.0004621502006526
1687554043.1148806,-0.06263185325160063,-0.07024265671899205,9.831820021007058,0.003063287129596931,0.00031151761153965803,-0.0002597939461369
1687554043.1265447,0.046846079295172045,0.15754700749988018,9.850335723337366,0.0004053076190437129,0.0002738960693780254,-0.0013229841139067
1687554043.1349013,0.09366751312140756,-0.0018460386665510517,9.771756625656035,0.0017598170111463344,0.0007089912188104552,-0.0011516340315241
1687554043.144946,0.11337311479980695,0.13263789303828663,9.800712824260017,0.002565579271874413,0.0005722749701882847,0.0021646296367149
1687554043.1550236,0.055712993350410064,0.10826672031110199,9.830038981236427,0.0015351611105442397,0.0003357321344117362,0.0015506652120135
1687554043.1648903,0.02122225642515908,0.019296233533403945,9.811160141681029,0.002529826362476303,-0.0003422923912792907,0.0007892281277205
1687554043.1748877,0.025863385186617877,0.16802612389229885,9.867567530437963,-0.0003889514972637883,-0.0007852278397813879,-0.0008998153503883
1687554043.1848977,0.12063815519543952,0.15336502995817558,9.812330832563937,-0.00184218109658717,0.00018893835266780982,-0.0007396206498045
1687554043.1949594,0.12807601584616396,0.03313550770356852,9.773415015900522,0.0010937183332781404,-7.740815487936601e-05,0.0030046552414175
1687554043.2048936,0.0477619980175248,0.006573759614118973,9.789083384029018,0.000592695685908744,0.0008337900033609583,-0.0005496148956839
1687554043.2149,0.19869746458144438,0.19203834782043916,9.793635964316325,-0.00010394726226329272,0.002209526220450985,0.0028672305628757
1687554043.224889,-0.1442296985693181,-0.14539161092838526,9.849960770070236,0.002197895207538598,-0.0008288225879120285,-0.001655682805543
1687554043.2348895,0.11179789731715134,0.2410243788290398,9.843185843643141,-0.0004768533718871902,-0.0008355246143404823,-0.0002039390388775
1687554043.2570653,0.06330252987337162,0.02552673625711814,9.809517320118529,0.0020921121411935813,-0.0015473906800377237,-0.0003011404774982
1687554043.2585497,0.23860497592062463,1.4818604176166723,10.204350744244511,-0.0027295466355795927,-0.0007788922096889349,-0.0011002289835263
1687554043.265337,0.22575008376877,-0.047044122824006024,9.682979687214702,-0.0006493401760389701,0.001242447793621011,-0.0009430333744634
1687554043.274904,0.11745381106836793,-0.040097150885822046,9.737574807087016,0.0010400688867502846,0.002345868827528042,-0.0014340543426472
1687554043.284878,-0.03619117156185518,0.2567326236660892,9.931253378204685,-0.0016737949096581309,-0.0004946538329195301,-1.6176840839174887e-05
1687554043.2948952,0.01660124463164962,0.026852006859842206,9.827876497862004,-0.0007242180336355114,-0.0015477779002025316,-0.0005738469777528
1687554043.3048897,0.15463846069330103,0.08973911645407774,9.774997595123873,-0.0008132443590996338,-6.438494367976103e-05,0.0003976927249792
1687554043.3149247,0.1398505345132671,0.0544321141704046,9.759996246246008,-0.000342758480096538,0.001540101164656318,0.0004185763531464
1687554043.3249743,0.10012906580661911,0.07822459368544704,9.793589788161407,-0.0008471722351855501,0.002534369096602526,-0.0004285943001408
1687554043.334895,0.026724928887098248,0.08731928268243813,9.829442647058933,-0.00024887027282386993,0.0011645914532188845,0.001200111829709
1687554043.344868,0.06674936375401128,0.11954779606397437,9.826373057366514,-0.00022726905881692282,0.0006374640974586897,0.0023151123308677
1687554043.3551354,0.015101124218200737,-0.04530293017191526,9.793574650082414,0.0005825940543526957,0.0008054642661096722,-0.0012794438522208
1687554043.3649192,0.06801379948385827,0.17676815055180445,9.84949942583029,-0.000494745745565236,3.3978233695200085e-05,0.000284474458928
1687554043.3749652,0.11013639441837128,-0.02724346873054556,9.756819568219678,0.0014323289112177819,0.0009440529079961033,-6.57584756512319e-05
1687554043.3854823,0.006082444869738797,0.06762013143049521,9.852217220086962,0.001657747710133804,-0.0005799551879449384,0.0002192860696565
1687554043.394951,0.15398337453919697,0.03948281801502415,9.750783944944471,0.003602337142016472,0.0002962292864191152,0.0023814234877105
1687554043.4048898,0.040203075507850246,0.11015903247578489,9.82982679899407,0.0016364972971574863,0.0004579209937838368,0.0002621178276937
1687554043.414891,0.06622588428534008,0.10734792175735719,9.820519271392028,0.0005915481372048526,0.0005428518129242105,-0.0005242928169567
1687554043.4249122,-0.04478203091393385,0.010883420792163718,9.852304576952458,0.0022209936219320463,-0.0020514521651277167,-0.000329485047226
1687554043.4351463,0.1563629245553939,0.11523898743494737,9.774389858229139,0.0005230088606838911,0.000275340164530144,-0.0022256575763125
1687554043.4449508,0.19449303593642925,0.16220444283875438,9.77570339776531,-0.0005402324263798149,0.0023421570388869935,-0.0007094644248385
1687554043.455586,-0.06380492529959755,-0.07541822953248778,9.83221999305728,0.0024661369156683327,-0.0004220374049826375,-0.0014548796467382
1687554043.4648976,0.17439170033132645,0.2502627603799078,9.812897598616223,-0.00047573961444036413,0.0013534735467123802,-0.0003939035819742
1687554043.4749117,0.011994080591799516,0.09143542445443525,9.849898019269366,-0.0013101953653083358,0.0004694378256699041,-0.0017033686168391
1687554043.4850245,0.1098132400533322,0.17124755384481713,9.824359186230941,-0.0018090346637106795,0.0002902640084370025,0.0011636294942915
1687554043.4949913,-0.029603273665587265,0.0432036369362493,9.854925288242171,-0.0023763703920349124,-0.000990853771229206,-0.0013170469324935
1687554043.5048816,0.11075451449005096,0.052527250293706494,9.779734701795562,-0.001096006284275502,-0.0005933642271272786,-0.0002948151674021
1687554043.5149634,0.021862693632494115,0.03247672844470792,9.813540089829614,-0.0010050983160999718,-0.0011637083753130298,-0.0018035661201823
1687554043.5251098,0.134657104273945,0.05192710023722901,9.772042701880174,0.0009711742784772975,-0.0006295067468432634,0.0006391216878879
1687554043.534977,0.2369913593639162,0.23320988038596896,9.764304633304297,-0.0003513296028344016,0.0017762887377870058,0.0037765448208998
1687554043.5449214,-0.08077938395420227,-0.02527745067387428,9.856879573676554,0.00028160292961181926,-0.000551273987955181,0.0011107486492588
1687554043.5548968,0.12118732055907883,0.1642426855289761,9.82002497487739,-0.001268865491180017,0.00028952317773240277,0.0013569690048795
1687554043.5649192,0.054175536998975385,0.049003287093313114,9.805417673273451,-0.0007882805832021939,0.0001461019406695045,0.0011610362702382
1687554043.5749085,0.01166285213739447,-0.04238733182030772,9.810438723532286,0.0012289593832055527,-0.0008571264222983421,0.0003451792284946
1687554043.5848749,0.12288906200882503,0.08360833718081094,9.78777182238574,0.0007960648367025214,0.000276483156246499,9.631796219459424e-05
1687554043.5949173,0.03092574527436645,0.16960655069069258,9.87543307362355,-0.0015285128079075812,-0.00047826461480886994,-0.0003522067569095
1687554043.6049426,0.03970799617374692,0.13857639861969198,9.845658818105262,-0.0017252016088492017,-0.0017698206347730118,0.0012444649613795
1687554043.615018,0.10260811040279061,0.05449939469961726,9.785092364979171,-0.0024292989636185334,-0.00037806752272176593,-0.0010618605889279
1687554043.624916,0.006091959134683956,0.00821537350855768,9.819646212305939,-0.0018887052839752295,-0.0011611174523344524,-0.0028060443006355
1687554043.634912,0.3536750898835996,-0.02350392458522361,9.626754798919585,0.0018588987104525589,0.003634463815770241,-3.498863046256205e-06
1687554043.645013,-0.14419932329111515,0.2080078796684657,9.961205477082535,-0.0007491823581553726,-0.0008057125372230957,-5.5662706111756464e-05
1687554043.657059,0.20823136228606032,0.14596426096892767,9.76110626433971,-0.0030551658480954644,0.003157966588909607,-0.0015238308120418
1687554043.6649468,-0.09013501048645502,-0.050395401631042586,9.857854635629593,-0.000991697234272009,0.00048511888336084903,-0.0017193561658162
1687554043.674989,0.1103986839488842,0.05836235526758941,9.785333773178245,0.000868329141502831,0.0002917691454234744,0.0011438916257217
1687554043.6849346,0.08636825971394811,0.10657261773586561,9.812092176939373,-6.819353745711106e-05,0.0009742316938845552,0.0004193169874239
1687554043.6950066,0.005188640391514607,0.11370793285173496,9.858780432095408,-0.001728548784391276,-3.608843760051989e-05,-0.0010849734540928
1687554043.704916,0.18072381688850583,0.06892256784414785,9.741950255790627,-0.00011142613980775946,0.001291261699805079,0.0016203683038808
1687554043.714994,-0.03321134978583491,0.01600564446766643,9.833356174011154,0.00016018247382777574,-0.00012251016060705372,-0.0004572655312616
1687554043.72501,0.1863597499922276,0.17592398053948577,9.796876795072498,-0.0013113199322118561,0.0017852254900988975,0.0002311852289464
1687554043.734992,-0.06619079845921444,-0.06202695667673846,9.839359215006558,0.0017519804850950824,-0.001342138797371192,0.0007505016977999
1687554043.744918,0.07281004341275248,0.22893055652445005,9.862882797157205,-0.0012476130292476916,-0.0013436435088547312,0.0008346933167528
1687554043.7550366,0.0932910782602097,0.07727605335661132,9.796118695773735,0.0001732064647967325,-0.001668105422245166,0.0031115781743179
1687554043.7649424,0.12601425092394677,0.019732035466893685,9.769491864720283,-0.00014045736788579168,0.00042921268389467336,-0.0002516126265648
1687554043.7749336,0.11431173618856029,0.14401843908619918,9.810168851670392,-0.00241178112166219,0.0018981030569217145,-0.0021015893440593
1687554043.784997,0.1028020780789582,-0.001425603023425915,9.76971297830056,0.0006131602906308216,0.001640311681995164,0.0006752224284324
1687554043.7949288,-0.005790440080946544,0.051979874185121885,9.835283487186604,-0.000276432920459142,0.0010040402157791587,-0.0017528916947443
1687554043.80498,0.10117053324459711,0.011109297419190011,9.776728038556726,0.001631289634282504,0.0012249363663403361,-0.0008193493127722
1687554043.8150442,0.08536171514031982,0.34185517306294483,9.890448824791656,-0.004516193879108826,0.0018955135181902914,-0.0016798531874913
1687554043.8249044,0.012797457052362191,-0.15145811938762477,9.779967263995047,0.0017326008906185736,-0.00022566998662805525,0.0008875653724286
1687554043.8350894,-0.013473970105894056,0.0315642383497721,9.838221565891345,0.0015720673093686014,-0.0014118178612293041,-0.0011855264898289
1687554043.8449836,0.061422147710895277,0.11661495765071338,9.821131680554924,0.0006470525439612232,-0.0013972766078907933,-0.0012973017297584
1687554043.854926,0.13065134912677573,0.25967115674216323,9.844864824694794,-0.002314164556825195,-0.0009055551685349364,0.0007016824669305
1687554043.8649528,0.0579394372918421,-0.193938049474696,9.739095915561782,0.0027127301117065147,-0.0008355113774661051,-0.0004971225285802
1687554043.8749616,0.22783690799395256,0.3332171642217631,9.802947382373686,-0.0014983401996985213,0.0020396613898871203,0.0015737869683986
1687554043.8849945,-0.0827424389730231,-0.02124647459931455,9.857177015904512,0.0005945415315079511,-0.0011708005757130823,0.0014314660724236
1687554043.894932,0.05438904927876547,0.058608002552814085,9.806426760769854,9.90758342406269e-05,-0.0009982962696081922,-0.0002393071778018
1687554043.905013,0.1026052383890871,0.20048111159966656,9.824147751526942,-0.002754134936883586,6.3934484622048146e-06,-0.0004226065944779
1687554043.9149773,0.03456111175982357,-0.14828743641808317,9.746270454367407,0.0018525424843352282,-0.0005084126827484618,-0.0010350634116578
1687554043.9250317,0.22125864818446025,0.1482899574339963,9.756093075413782,0.002210200327568488,0.0014447330569402172,0.0025073352730002
1687554043.9350677,0.07232208903770844,-0.002744441105413618,9.783014983995033,0.0013649531331418625,0.0030290935183132674,-0.0020136659737575
1687554043.945051,-0.09454707261251954,0.1813621254276892,9.936791278466051,-1.0456931698400947e-05,-0.0010292211263534308,-0.000561916735572
1687554043.9549367,0.011037347803572056,0.10256929584539864,9.852756230576349,-0.0007111825338329665,-0.0022317546413041706,-0.0007802323676545
1687554043.9649432,0.05788264729177027,0.023709594181273747,9.808387077399892,0.001236407430566457,-0.003148926682178248,0.000781412352259
1687554043.974964,0.21903353403867662,0.09691720331060691,9.73889246669007,-0.0012498514863054048,0.0009738232000984815,-0.002794892644127
1687554043.9849288,0.024306542793588983,0.15745787835657662,9.868383941812034,-0.002287705874352607,-0.000635829528799697,-0.0015420544665206
1687554043.9949536,0.10892751469673577,0.03287440107262333,9.771336760193316,-0.0002492462773694167,-0.0005527581785653238,0.0003928645741294
1687554044.0050008,-0.011466063859083253,0.17934628083551163,9.880977168332128,-0.002000866176650159,-0.0024012659007956187,0.0005936571973476
1687554044.0150757,0.1307091018989452,0.022607694511522856,9.769682167976494,-0.001089292942890121,-0.0011544023579041999,0.0004450168920781
1687554044.0249865,0.22195138693641006,0.10360512163680954,9.73792358898323,-0.000887027538520907,0.0014901892122931239,0.0021820972318861
1687554044.0350351,-0.02379159153931372,0.03094033869650634,9.841838441784297,-0.0008110231726838906,-3.569461455193798e-05,0.0008264773636225
1687554044.045203,0.13591842491457187,0.10459369625480135,9.777253434395154,-0.000565527139853803,0.0010889530172131878,0.0019467060332286
1687554044.0549705,-0.0561319399411193,-0.023524686541088045,9.832039982471857,0.0003907584177006484,-0.0006172135484754242,-2.66109133038794e-05
1687554044.0649586,0.12788708705373508,0.24096695592828532,9.8385950384922,-0.0018112771250017915,-0.00021004760687283138,0.0023199524724956
1687554044.0750756,0.0027487046149393835,-0.14777971384106983,9.769414657019816,0.0010993173877047694,-0.000494677324277342,-0.0012332402408022
1687554044.0850136,0.03326982607903613,0.17946673891449738,9.862388481930465,-0.0010170215292935557,-0.0011912830057417441,-0.0013434960279513
1687554044.0949636,0.09821608493305656,0.14684839238226455,9.816574810958402,-0.00176135042800784,-0.0011011341198153952,7.472291999569784e-05
1687554044.105025,0.15591767849950713,0.05101671272434222,9.762854795620592,-0.00011551299929061049,-0.0002066812653467436,0.0021578982117686
1687554044.1149778,0.20384300354763635,0.09410670464972569,9.754137970295888,-0.0002052823734101043,0.002252371446594519,0.0027822831174459
1687554044.125018,0.004728010295254388,-0.03319671365856893,9.812168220788491,0.0010251800998390336,0.0014555409376594741,0.0004405537614699
1687554044.1351564,0.011556624692622586,0.2761444917092237,9.90866103947786,-0.002509018460438395,-0.00036651246583536837,0.0018341688259139
1687554044.145285,-0.030856881617670927,-0.1394764560076314,9.78728378853254,0.00037402442359318606,-0.0013667543409578192,-0.0015427846234191
1687554044.1549425,0.2548948610256268,0.1888768785476958,9.751706479776654,-0.0017706586595383344,0.0019413120720633886,-0.0014492914784599
1687554044.165177,-0.022639186969431548,-0.0005962950588174023,9.834687197148117,0.0013593312688736996,-0.0007680914053806235,0.0009162456548407
1687554044.1758163,0.07021708532971836,0.11806962498907603,9.822503271055044,0.0007644163868740328,-0.0009469017960933118,0.0011573079676933
1687554044.185508,0.14749398171578662,-0.04575738416255043,9.721628810473048,0.0018652417619856954,0.0015989521749992313,-0.0016858581226218
1687554044.194946,0.05580316183045722,0.31145390213283686,9.89604325290341,-0.001274440047173294,0.00028579903679460484,0.0010272717039666
1687554044.2075243,0.1060837543144629,-0.037980578819144975,9.748850840365023,0.0016301654850070387,0.001504338956508989,0.0003246732516314
1687554044.2150333,-0.056078213580730424,0.14216313729898913,9.901526126439096,0.001053867875990681,-0.0008310414729268866,0.0010798207944359
1687554044.224997,0.04002314322543137,-0.001231221695719602,9.812594359326022,0.0016882662960524548,-0.0010474819498028762,-0.0006364568840611
1687554044.2350888,0.15475047428458866,0.21403248452944185,9.810774137669583,0.0003155167686810632,-0.00014149219796012118,0.0018661767820928
1687554044.245012,-0.06092386305562649,0.09023815700936116,9.887473387149267,4.953217073256338e-05,-0.00289224691092212,0.0017402973893664
1687554044.2550902,0.0621990985826674,0.0694158969122671,9.801814847048593,0.00014415352669642286,-0.0029913395563983046,0.0016255656659237
1687554044.265148,0.15020859084398033,0.20929052153313601,9.803593015546298,-0.0023123113770141994,-0.0012430698407035457,0.0018617495074037
1687554044.2752798,0.023608799180665715,-0.11131572509557938,9.763921170736054,0.0005550580147180113,-0.0014416292851852932,-0.0001107885042104
1687554044.2851667,0.14167670055039847,0.020205406061331026,9.75649330996597,0.0022824554994207375,-0.00036275350617256014,0.0009103129263136
1687554044.2951906,-0.006923736309201526,0.13189793368931577,9.853428587330825,-0.00023175209401049776,-0.0007673215819883929,-0.0019298436824131
1687554044.305244,0.1373652245625411,0.16761325769377033,9.817881906652524,-0.001750899505912457,0.0002045850469759622,-0.0014574917737294
1687554044.315127,0.03305893636165287,-0.08422533124926289,9.771963554629155,0.0012207633047546028,-0.0001649402654054351,-0.0021939539588887
1687554044.32514,0.0423510870497334,0.2595982461414628,9.896956951076337,-0.0009026541090414834,-0.0019989203711735684,0.001054475490852
1687554044.3352642,0.1744098765442754,-0.06998260371911105,9.708139115367802,0.0016044616988950904,0.0006199663801452708,-0.0003570206468824
1687554044.345039,0.053647901840215347,0.10079030605310892,9.82896319339234,0.0009685430073161712,0.00044301200651649834,-0.0008588383212585
1687554044.3550608,0.08469833757957568,0.11448165222996887,9.814547549407392,-0.0005029401660814002,0.0011981470298771271,-0.0023712845291841
1687554044.3651836,0.08513811078896442,0.1997188687486007,9.843705104309466,-0.0009261228531781896,0.00020458630427226972,0.0014445093614964
1687554044.3750567,0.1339850533492341,-0.016820241973379432,9.741771631581932,0.001468868117681753,0.0012338829184839891,0.0024816204089771
1687554044.3849947,0.0451632677307523,0.06536152651208992,9.822407346275982,0.0004969556656506461,0.0012949541455640411,0.0003853967058572
1687554044.3951588,-0.0364207920148626,0.004230954253877376,9.842585603175024,0.0020615548372472487,-0.001054185201216937,0.0004107435228403
1687554044.4051008,0.14780002264167927,0.14384159411605854,9.797114686795263,0.0012859505533041166,0.0002649386174139958,0.0017138451506949
1687554044.415028,0.10908649187484369,-0.05796841626049036,9.74501323811044,0.0013642146303143692,0.0025768279072962918,-0.0028894949942726
1687554044.425037,-0.03368044684403451,0.1580381025499344,9.891383866623006,0.0017091427345147902,-0.0007509544909975283,0.0007247874740611
1687554044.4350674,0.0026300336298534124,0.17210604542174385,9.875689766177912,-0.0005942018585580197,-0.001896104509020563,-8.918985313662638e-05
1687554044.4450972,0.04255309275936246,-0.007927970958679113,9.783862151900552,-1.555040989424659e-06,-0.0015407088740244654,-0.0026302213087577
1687554044.4553154,0.20689455920444172,0.3027454803284214,9.813777080055864,-0.0015490044128446503,-0.0006846291043297102,0.0037925516948204
1687554044.4650683,0.10395498399635597,-0.047760188902820966,9.755858767746787,0.000406783117125046,0.0004742978320691976,0.0021254960442062
1687554044.475195,0.04087905452554005,-0.015938244798795735,9.800859064233993,0.0008124656642709131,0.0008013514571131155,-0.001174763893326
1687554044.4851124,-0.10709523490021575,0.20653178067149328,9.950556663095563,-0.0016521772649037694,-0.0029582000078841424,-0.0009523307677257
1687554044.49511,0.3116898125104503,0.026761462326511307,9.662179660066139,0.0010780620523152989,0.0011698157358756773,0.0020595816889878
1687554044.5051048,0.07223097902233784,-0.10234684007434415,9.755921376948661,0.0030412940721681963,0.002019182476927518,-0.0013412748236108
1687554044.515028,0.05970995843263131,0.20810616327936277,9.858322044048705,-3.054055967248863e-05,0.0019562215761071704,-0.0019004027131844
1687554044.525102,-0.09310317460829667,0.2668054527928057,9.966909772020387,-0.0018663867346581393,-0.0029764427990309687,0.0020625388709928
1687554044.535083,0.19540430591111696,-0.04050745464489836,9.700466411278752,-0.0002190763369589326,-1.818138539729999e-05,0.0003388485632937
1687554044.545055,0.02922120206217337,0.08592605966669108,9.830499278423057,-0.0008147482460357172,-0.0005780947964188652,-0.0007038608897376
1687554044.5554943,0.21797265014712583,0.10763329572574762,9.732520734215758,-0.0014067334285424982,0.002742257436863087,-0.0009322097763318
1687554044.5656047,-0.09395628230518076,-0.08264372369302143,9.850119163185127,0.001770969691844136,-0.00081761537002698,-0.0012306236900288
1687554044.575941,0.19537245833298195,0.22754754910360053,9.795919850460383,-0.00022430036589604293,0.0010815245296806463,0.0010280292184658
1687554044.5851562,-0.12041970416742005,0.043523435194357106,9.889966829035052,-0.0005249166002927809,-0.001845068924918529,-0.0006356908712435
1687554044.595109,0.26590155133679616,-0.031958439758616244,9.669687691906624,0.0025659495006532407,0.0017900870380727076,0.0010425796785026
1687554044.6051302,-0.03416895487928134,0.1385261291208291,9.883834632768545,0.0002372612440814823,0.0002023577096970281,-0.0011527637258071
1687554044.615116,0.05884263913753444,0.06017325532223283,9.81906833354736,0.001064673805354569,-0.0004022668173252732,-0.0003302086848665
1687554044.6251702,0.11802042239502075,0.06441593220151551,9.790344521395154,0.00131909934168363,0.00044375706348631194,-0.0006978969328004
1687554044.6351044,0.0332109929469005,0.1839816830414695,9.878269797555475,0.0004161133446575563,-0.0012386070369712365,0.0012306755519572
1687554044.645225,0.15387275650394336,0.1394565642166637,9.772323657060708,-0.0008974165737315843,0.0006844098244873492,0.0017585487506918
1687554044.6550686,-0.049537953867184265,0.10730789025850979,9.882103947663506,-0.0019554244623048926,-0.0014297001750672286,0.0007788095967013
1687554044.6650977,0.07122637571264992,-0.05822684248488932,9.755788681227138,0.0013742399090964238,-0.0013052626272061993,0.0012604891739071
1687554044.675114,0.05719729864885562,-0.10587949924649925,9.752670333810935,0.0034350708076074667,-0.0004551906159779682,-0.0022688702452827
1687554044.6850815,0.2190042290727216,0.39733558149759607,9.838261946212915,-0.0020053359647832707,0.0017308316161396453,0.0004330953228387
1687554044.6950965,-0.08371569902296579,0.001045056666582796,9.868036233863798,-0.001888363248708955,-0.0008128074651323047,-0.0020639720611173
1687554044.70516,0.19660269423759935,0.08415643721585336,9.746289191299812,-0.00022578447744026276,0.0008367729531326612,0.0011986405001122
1687554044.7151184,-0.05347038211869992,0.04067584644350737,9.85878660040891,0.000198165341851872,-0.0015418183641422,0.0005795086030017
1687554044.7251136,0.12811814830452162,-0.0544750713971138,9.73697580021533,0.0015530501212239298,0.0007116330651107558,-0.0022718134574491
1687554044.7351615,0.11972972716004761,0.20868242308472135,9.822338301369781,-0.0007331519177257741,0.0015661766951403683,-0.0015070388331908
1687554044.7450922,-0.10721831675454052,0.07089390091756384,9.912583392112667,-0.00036099500819508173,-0.0024046126516004355,-0.0013274712260712
1687554044.7551112,0.36710622482979116,0.2159981868814222,9.705021117873088,-0.0007838192719016721,0.002213637136839074,0.003537370473529
1687554044.765095,-0.028235302831989766,-0.07068620855214978,9.814495381256679,0.0007841417240445305,0.0010994072021211462,0.000478175468194
1687554044.7751591,0.011743174199897146,0.18539485427156488,9.875849308588583,-0.0020783609506845368,0.00034242667115989996,-0.0004695339599523
1687554044.7850797,0.19331294962115175,-0.08179286713844049,9.689871021527894,0.0014382824012618973,0.002870420094909706,-0.0001603623391959
1687554044.7950792,-0.03340924761245721,0.16123019560500934,9.89686670715069,-0.0004053578246655655,0.0006966987674282668,-0.0002218169398505
1687554044.805043,0.1765891544277322,0.12636482607684393,9.76995337670515,-0.0005945725332280867,0.0024721704574299985,0.0011885782290816
1687554044.815111,0.016169018568939098,0.017248809002555137,9.828066672501011,-0.0009246538788619662,0.002084747772391344,-0.001576689421748
1687554044.8250377,0.013894444537830232,0.06766459367034657,9.834284016009239,0.00018324723929723276,0.00032379877046734393,0.000136931309859
1687554044.8351035,0.19715129743721518,0.3104682624329391,9.82626328347204,-0.0034861243933248776,0.002092578520425959,0.0026030708098884
1687554044.846902,-0.060196592719983115,-0.04843550080816088,9.832787005520226,-0.0007346616452131516,-0.0008045895564967762,0.0019850563252445
1687554044.855119,0.02284000460079684,0.07764838515052651,9.833054429075585,-0.0006884508637873462,-0.001664015360922044,0.0019135297619838
1687554044.865096,0.0364620329053754,0.12933675742750003,9.856981327189754,-0.0027291677416965247,-0.0019929605916661807,0.0002170489164169
1687554044.8751228,0.12053431668102568,-0.14723326875899695,9.71307211664035,0.0024329632307718597,-0.001133472363041494,0.0003585830558191
1687554044.885249,0.14985727131905366,-0.08613735887392276,9.706960148129236,0.005618070444619825,0.0009444558692104154,-0.0006100126780469
1687554044.8954945,0.056282585725819165,0.4600508237186266,9.944875664211546,-0.002726937922317442,0.0009462735527274938,-0.0009061613824118
1687554044.905039,0.06250779191519394,0.09288763387488366,9.82183861590459,-0.002884849743027733,0.0007361846888198585,-0.0010726772021401
1687554044.915075,0.03670437055029918,0.043543962176408414,9.826078494074979,0.00035277314000868473,-0.0019311099460560953,0.0036651472322743
1687554044.9250968,0.31283615820964444,0.023908717008472382,9.667524318293625,-9.80136362315957e-05,0.004031944303807111,0.0004021555645491
1687554044.9351826,-0.04055692575146617,0.20484568280054574,9.91026297875601,-0.0019178051850472478,0.001284545563112758,0.0017246479104839
1687554044.9451106,0.035154140563234536,-0.012133572274997615,9.796686023228062,-0.000763303906046831,0.001132183787816632,0.0004345928313311
1687554044.9550498,0.006557557079812828,-0.1561193890652621,9.766079214962446,0.0034238950743327697,0.00019488135901450892,-0.0007094707112658
1687554044.965087,0.03014068902990246,0.19502149055082424,9.875818943741649,0.00039599109343686854,-0.0003251350591211209,-0.0015751871984351
1687554044.9751077,0.08412183242364926,-0.02790366073264624,9.76569622872804,0.001790351387088882,0.0006084324433336094,-0.0031684992141921
1687554044.9851065,0.14496180980925216,0.3219493331213104,9.847218534309775,-0.0016745325003734756,0.0011880576974685315,1.0272720279904704e-05
1687554044.9951956,0.06534739275434129,-0.0732481447715268,9.765373849810164,0.001133556816478982,0.0010647729412673473,-0.0006099900934744
1687554045.0050366,0.008375696464662507,0.344773683615285,9.933338020214956,-0.0034626786934015726,-0.0005848088588764975,0.0011479759990803
1687554045.0151217,0.1537219226881139,-0.03225773430038168,9.716079883774837,0.000512944573926695,0.00038786718790195156,0.0036808146391164
1687554045.0251298,-0.01168743732141174,-0.08132473978005222,9.797571984654601,0.0018007544665678008,-0.00017125309340273014,5.534535684696088e-05
1687554045.035104,0.05648160855270456,0.3042658847373412,9.903126490478614,-0.002707573245984803,-0.0006902459583452606,0.0002259660972382
1687554045.0450788,0.04627743360534398,-0.08583132810140938,9.767611614673426,0.0006418606991424008,-0.0008880495195092267,-0.0001059491192821
1687554045.063131,0.12748717137206844,0.08174426172949882,9.78068883770983,0.0017720968917130096,0.0005611084024176002,0.001844951824202
1687554045.06521,-0.2501834497369968,0.6979143236857667,10.203749631669778,-0.002050792718519344,-0.00015380194687746764,-0.0002166071213681
1687554045.0750828,0.15147469103411854,0.07169544347346356,9.76121481529354,-0.002573479868886767,0.0019271570981999717,-0.0016962710074979
1687554045.0850534,0.02598309724835633,-0.022396020821764714,9.804870336379883,-0.0002000702347075188,0.0009831631930898289,-0.0012213251326132
1687554045.0950365,-0.05109300185232172,-0.04283181102943978,9.843709183506736,0.0032972371696685836,-0.0024761260731619183,0.0008041376708175
1687554045.1050603,0.025389627575337977,0.24476748987917465,9.883921718913374,-0.0015162223015106663,-0.002530151830146432,-0.0010901727951962
1687554045.1150696,0.27584577621110223,-0.010282477942698976,9.682066724829902,0.0006861674018715433,0.0011441185747917422,-0.0001871392602
1687554045.1250525,-0.02010950554421853,0.11742015085035716,9.876069307831953,-0.00034722607851986114,-0.0007684618272402837,-0.0006014193646509
1687554045.1350973,0.2852449428064915,0.18211629000969742,9.733669389799978,-0.0018086432878722438,0.003212378227139642,0.0004256219830464
1687554045.1450782,-0.03841253599034071,-0.021370153303223612,9.826635669419403,-0.00014196633808391456,0.0013046694042094678,-0.0005876254295829
1687554045.1550744,-0.07686516167274501,0.16667375178588698,9.922227975956057,-0.0012789181063602296,-0.00228539587707248,0.0009624608786877
1687554045.1653552,0.061412846510041856,-0.022160911294034726,9.776825216546477,-0.0008251618794259748,-0.0012940813003346973,-0.0023720375034857
1687554045.1750412,0.2736475746577462,0.1362097202624913,9.71567164856092,3.647360411561385e-05,0.0016805512031707007,0.0012746269925597
1687554045.1852806,-0.03937966412260034,0.020544999062902435,9.848742735699874,-0.00015128255347657393,6.228413362407794e-05,-0.0012131127301503
1687554045.195132,0.2054335130872021,0.21101460335409564,9.78650002538435,-0.002533610894301019,0.0028096663685111827,-0.0007463596999544
1687554045.205059,-0.01583953320044582,-0.19725380761987987,9.769974331515753,0.003005898373354332,0.0010863843605942683,-0.0016758000716466
1687554045.2151172,0.13471377332270215,0.3631364168945037,9.871543858611231,-0.0011954682145567568,0.0013221703507763024,0.0018982446048509
1687554045.225123,0.027492702135190755,0.04718233802218735,9.832847820430242,-0.0014696289185950147,0.0007991363042232152,0.0004040031921218
1687554045.2351432,0.13235181150736083,0.0013422974125238325,9.753591176367578,0.0009696520037465627,0.0014868406793984953,0.0019463186612453
1687554045.2452042,0.04687662807910385,0.14508106935362972,9.85434515186793,-0.0005886396602426757,0.0008054767577889416,0.001754450669429
1687554045.2550862,-0.009559797813912592,0.16207006995204531,9.866683756399917,-0.0025589272567348104,-0.0005728920509938675,0.001306315421422
1687554045.2650664,0.14636023470660806,-0.08694419864961571,9.710933943591504,0.001198396372472743,0.0008215107255118748,0.0017727160296968
1687554045.2752874,-0.02092437174261367,0.11287126715434682,9.866765872056181,-0.00041241810052572295,-0.0007375351058365589,-0.0002970596548069
1687554045.2850916,0.22368983226701725,-0.057809314092816956,9.67697021190648,0.0022608488161589614,0.0023570642360176415,-0.0005142486194048
1687554045.2950757,-0.02629632566819547,0.228861816240429,9.913105437880562,-0.0009372993025259021,0.0002690268118588847,-0.0006241468951005
1687554045.3051162,0.12563585061277552,0.011217859249592604,9.746867260205912,0.0017560912571858676,0.0007082377689609298,0.0016881163750409
1687554045.315155,0.11702202895102938,0.05612811515623936,9.781402044021819,0.0009581303336643811,0.0022937313097244503,-0.000516458531459
1687554045.3251102,-0.0016422940845592013,-0.042065282012312605,9.813684422861282,0.003116559496856951,0.0007436316369210894,-0.0012462738674033
1687554045.335085,0.12543710489711157,0.19696922237062645,9.821304266289754,0.0017661315013933272,0.0011012757126974031,0.0005500953988272
1687554045.3451345,0.059629207423152364,0.1150322667785476,9.828634611457792,-0.00010322643061116137,0.001687605600966839,-0.0016732116933811
1687554045.3552384,0.006054125637436425,0.07443684188987974,9.845714277101122,0.00010761890606580477,0.00021130318466997466,-0.0017093225620586
1687554045.3650796,0.15476509092377905,0.29128284666898424,9.831048757525586,-0.0018224283414291808,0.000523461790475397,0.0027513620438154
1687554045.3751194,-0.13171477007746635,-0.19847488246720493,9.66884197603528,0.0017892310795291075,-0.0013495836911849208,0.000722522788598
1687554045.38518,-0.5508366110075471,-0.06289433677579104,10.010490475150123,0.0032581580044184293,-0.014081140706680451,-0.003446800751229
1687554045.3951695,0.4747360317717317,0.1264968103252252,9.921621213816957,0.002203995287010082,-0.016064462913194563,-0.00621060526519
1687554045.4051118,1.1016561277554862,0.2796645031447425,9.870556158321444,-0.0016151323362787705,-0.009352988648876112,-0.0070849467307228
1687554045.415096,1.4258426214785636,-0.08327713083743866,9.609228803438713,0.0015195721884953078,0.004013022724516279,-0.0070785057037968
1687554045.425237,1.0462744006750893,0.34702643436192115,9.701672867006485,-0.003223028236954744,0.014166958469025045,-0.0048185024648804
1687554045.4351635,0.11457055185646096,0.10160577760666704,9.731733761085042,-0.0018742481216232705,0.012391519425525943,-0.0030835015937585
1687554045.4451215,-0.2858696582486495,0.13976091708997912,9.82660815053475,-0.0016749483099070682,0.005510510632701862,-0.0030023675650257
1687554045.4571588,-0.1662531380568367,0.269920887495575,9.908044917561499,-0.0020746260013383873,-0.0036704686013011053,0.002492433995391
1687554045.4651077,-0.14770244249085077,0.27312988212924927,10.09184859005937,-0.00362661069217504,-0.011326725895468698,0.0061017674155633
1687554045.4750884,0.7761890829906944,0.01483928269856324,9.78368609728483,-0.0020072048210960595,-0.0067207405425664885,0.0068145118415456
1687554045.4851477,0.7074161441696191,0.04894402691018795,9.82228731420503,-0.0022434079636334137,-0.0021781383465701433,0.0052938516013424
1687554045.4950895,0.7043042953030416,0.15829545927257005,9.67853414860103,-0.004748292775091275,0.004454737045928341,0.0050018214382331
1687554045.5050704,-0.6210431370151402,-0.2612757055743609,9.691171920903711,-0.00046671705356559343,-0.007144656795581365,0.0080770211055975
1687554045.515069,-1.3528243611920963,0.1374723562112353,10.015758390852984,0.0023959475628913406,-0.040171275067293136,0.0350395239651303
1687554045.525309,-0.7771336086449512,0.6377288101214654,10.482556819519464,-0.0005796357346389884,-0.08148015163984006,0.0657687805354695
1687554045.535117,2.5945400828434666,1.1874350189188514,10.401378613440096,-0.008885463381635253,-0.08789758971625111,0.0952260665357213
1687554045.5450947,5.257791206950391,-0.27811336025287126,9.374261699209388,-1.731747226721077e-05,-0.05303399361600559,0.1011845119059186
1687554045.55509,5.242538385717469,-0.49662913229638717,9.072034201557305,0.009255183651879774,-0.011188209633560417,0.0868781231105428
1687554045.565067,4.38019683153773,-0.10852159817332264,8.98285192161209,0.021612667817299647,0.019841565369346087,0.0807703681051831
1687554045.575096,2.3238594871264406,2.1262663843334506,9.299129992467693,0.001671146942984747,0.02756173328677381,0.0727199785173039
1687554045.5850656,0.5955835524472876,1.676802273762807,10.227129829849922,-0.018107650520535385,0.0061755323938281394,0.0644743762672048
1687554045.5952678,0.4612137861581179,0.04032462512844613,10.489289558475885,-0.02518752954495654,-0.019719744805122747,0.0532473273336987
1687554045.6051328,1.3884068364820308,-1.4725960867846228,10.293394216241015,-0.006384267416678115,-0.03515341429072272,0.037079068249474
1687554045.6152732,2.833110410825364,-0.8552642064465987,10.18034224338566,0.0017774440421662785,-0.03092382282522491,0.0264432433754306
1687554045.625096,4.832179185283329,-0.5431240080220392,9.507512072449405,0.0058685993458744345,0.008013143885456738,0.0160699276015262
1687554045.6351392,4.250017857675469,-0.058299505014578534,9.494827608948313,0.002629065120226888,0.04377259547018548,0.0105341052398186
1687554045.645182,2.8126764662366623,0.21948700940112228,9.618749643803588,-0.006613536975484259,0.06199926898513737,0.0066924680717389
1687554045.6551032,1.556422894883463,-0.026055004834578017,9.565619809572423,-0.010195980831455391,0.06526335883832471,0.0069660147413711
1687554045.6650908,0.14131884874046252,-0.32958165607144674,9.651178598519724,-0.004873059820936538,0.05125457153266045,0.0086245540291171
1687554045.6751475,-0.5017465349130188,0.04372200940649315,9.618173148137421,-0.006052873477217737,0.03344905540732849,0.0083121898345749
1687554045.6852076,-0.7971368109978816,-0.050501283300490835,9.906422804207054,-0.003565935885722278,0.01180995148608241,0.0048685093637656
1687554045.6951356,0.29872692395045936,-0.6423020988467988,9.727144462628239,0.0051005709621656636,0.0052747601114343165,0.0013520486385429
1687554045.705156,1.5133111497778597,-0.8223799842693581,9.50261227722002,0.017784932372152062,0.01971474260505593,-0.0126369126379389
1687554045.7152238,1.9239997563686577,-0.08723295910515086,9.454637912601985,0.020626749338851266,0.0457799115978616,-0.0186254378646511
1687554045.7251625,1.4249292900309483,0.9331044020085786,9.396212906073504,0.012165350911909057,0.07048114917513766,-0.0138425609335202
1687554045.7351823,-0.7681359534835505,0.5002576796094097,10.411973564338853,0.008907205841303351,0.06263035199564192,-0.0089507425442237
1687554045.7451868,-1.3816573480135272,0.6566155820803063,10.203593693801828,0.002648681361535075,0.04981669649229012,-0.0107036490231651
1687554045.7551546,-1.388080080927435,1.443785365265686,10.132984688962654,-0.008591392515549561,0.0378580675751265,-0.0069170721113581
1687554045.7651224,-2.3731191913081764,1.5970828087286282,10.14049685902522,-0.02438143527797799,0.013577011917754301,-0.0048123841412264
1687554045.7751863,-2.1617168707728713,1.137527637914546,9.916719712514306,-0.036485629506106704,-0.00832736254405708,-0.0007386499788511
1687554045.7851286,-1.9454797726474535,-0.5436285183351071,9.719144592585236,-0.025235003597997817,-0.029941202039990702,0.0055111477844517
1687554045.795096,-0.9387785068792868,-0.42547356497341215,9.505901647452939,-0.01567399861591832,-0.04220002298180992,0.0074914124555986
1687554045.8050904,0.7494119540806843,-0.251445490478125,9.328724156616703,-0.013530450326591448,-0.03147798175154381,0.0016793495737116
1687554045.8150876,1.200518599925544,-0.40949212436694665,9.21347972106106,-0.012868878851321344,-0.00900295065404887,-0.00744974950849
1687554045.8250997,0.8993631405835861,-1.3354499454735311,9.690177381138788,-0.00914180003800822,0.010860666598071965,-0.0233535558223623
1687554045.8351328,0.41364212172157083,-2.918144896603417,9.95021299941862,0.022973177983711714,0.02241497902867184,-0.0221158188074726
1687554045.845122,-0.26636941895622457,-1.3922126701899127,10.233187449191007,0.039188159664022046,0.026624659698503344,-0.0259397845953602
1687554045.855149,-0.6673126040510959,1.7009682398641077,10.892937839390331,0.014404355312398148,0.023567764137200915,-0.023975886055817
1687554045.865121,-0.8195968323380609,1.9628644365042505,10.419107235850484,-0.013186102138998682,0.02044722944460424,-0.0137722702935237
1687554045.875124,-1.3373744406412118,0.876571243999202,9.934674383678482,-0.017752405145246702,0.006239679110153067,0.0051573585946213
1687554045.8851657,-1.4827446502361574,0.14413740150353466,9.108595743780532,-0.0077299284191183,-0.007602767566587824,0.0173344373464684
1687554045.895172,-1.2979761129843066,0.665873346199505,8.855061493901053,-0.0013098612066449074,-0.017829633058912706,0.0303458444535832
1687554045.9051096,-1.2248268957239752,1.2198695827773327,9.438070932958482,-0.005817549644809443,-0.030792317879944672,0.0335134811461072
1687554045.9152358,-0.3148378856948998,1.0144687566406494,9.790732146417424,-0.017340684760973894,-0.03145291320805373,0.0297542460024457
1687554045.92512,0.5151382451472903,0.36014594755256146,10.086497055326209,-0.024165506262682514,-0.02503453553083031,0.0219620898127656
1687554045.9352083,1.1945768375337664,-1.1051327709728151,9.78676199163194,-0.014638551027412587,-0.004780735772958928,0.0057653727702896
1687554045.9452906,1.0553950212199736,-1.6378955040410934,10.054661860544142,-0.0014424230343645405,0.00981938177763703,-0.0088907523319024
1687554045.9551184,1.454811938620077,-1.566112193199246,9.829362664840676,0.012005256930483972,0.03313952797710543,-0.0146078929543394
1687554045.9651065,0.2574061206852582,-0.9593695888765311,10.226030423930247,0.015748680180854888,0.039067767451222535,-0.0213332768767971
1687554045.975891,-0.15925756354728732,-0.24272734907571772,9.955458675576294,0.014037309155473581,0.03859267291289098,-0.0174391228943962
1687554045.98609,-0.5646007609812276,0.020087922650417776,9.62479416371117,0.01209784951489422,0.03154948119116157,-0.0062328103236753
1687554045.9951131,-1.1458659668528368,0.20278189133026542,9.380332589854497,0.01273148049105258,0.017131726523659203,0.0061653860606353
1687554046.005277,-0.8088134372311757,0.7631297480666136,9.417528499791509,0.011027516151008946,0.0016114382824573778,0.0273109361291032
1687554046.01517,-0.23807476323776647,0.9937810770756479,9.254500869917608,0.010684032629595714,-0.002381585772287247,0.0388548955082993
1687554046.02516,-0.6238880052196336,1.266914782755707,10.058979220123328,0.0011592086911262603,-0.011479025415010665,0.0372075646877389
1687554046.035123,-0.5527058773578704,1.2710509881400658,10.366240931405319,-0.007834355428417117,-0.02036131854353949,0.0322807956248622
1687554046.0452564,-0.02360170201933821,0.6557883222831392,10.337303292202355,-0.012397397210196379,-0.021833366074906872,0.0183893389761548
1687554046.0551405,0.2731387425768302,0.2843752469038583,9.999670052877695,-0.018283440650684463,-0.01585993830509174,-0.0040087286621231
1687554046.0652215,0.5539955994828095,-0.2949243083655615,9.607461380295902,-0.015863940896999128,-0.009570145691189942,-0.0211982034385103
1687554046.0752206,0.5077614321420817,-0.7156084565148227,9.3256529213012,-0.013400924030393528,-0.002629029201415285,-0.0371778324484724
1687554046.085106,0.3953921927100568,-1.599580600676294,9.37869945781172,0.0022585306819529784,0.0011559323831063356,-0.0360844969987768
1687554046.0951931,0.2544238641757503,-1.0054154187336206,9.73062773157488,0.010863359198513577,-0.0014821277345250276,-0.0255992129683394
1687554046.1051297,1.05285071421565,-0.4809611617350752,10.071603110533594,0.01660103777669512,0.0039711839623264855,-0.0091833254560727
1687554046.115154,1.1013473578361328,0.8198850075767206,10.381831869139797,0.0049223633115579295,0.011770392801125283,0.0074080944754283
1687554046.1251812,1.0779582373277792,0.8066174827637196,10.445908327734623,-0.0040308748139793885,0.016327905957864625,0.028331119915853
1687554046.1351902,0.5540279677436503,0.12573063672425047,9.941126357946178,-0.004524643053877468,0.019086696317819174,0.0390903934598069
1687554046.1451993,0.04302592727121197,-0.07748183167718557,9.420435778108693,0.005070721976656214,0.015138389038111382,0.0413489401102166
1687554046.155156,-0.7808811248056303,0.7516576617576042,9.236981747206524,0.004202682923950739,0.0033233472936607124,0.0384439885377984
1687554046.165377,-1.173173123779762,1.0629141230156685,9.480799566998218,-0.004437448600502254,-0.013845036396062561,0.0293640963494878
1687554046.1751366,-0.9454604361045489,0.47787607224327777,9.723196504421205,-0.010727478133465227,-0.030240913438900553,0.0141157800093393
1687554046.1852052,0.5514164505336366,-0.24901210329958828,9.50158043207968,-0.006585904179115895,-0.023808374772614837,0.0011371204594949
1687554046.1951177,0.9770121250845089,-0.6471932705827006,9.882160617442697,0.00038932413411845774,-0.01542792830660947,-0.0125550167873401
1687554046.2051709,1.8622917674670634,-0.29620343818105493,9.698106529805813,0.0038580848019360353,0.008733882571615302,-0.0184111051499743
1687554046.2152364,1.0528919559592955,-0.8918620360590893,10.358599893573212,0.008682340676919401,0.018805714090070914,-0.0219539549440045
1687554046.225165,0.9150381833359524,-0.753920780179113,10.257318224977507,0.015907958782066293,0.027101269305186377,-0.017043003463735
1687554046.2352316,1.431198631879134,0.2437974073544946,10.30639001717607,0.010156734147457682,0.04199258233395271,-0.0081265798076886
1687554046.245185,0.9583730837380464,0.7279832286004768,9.939046320507254,0.0022753919997109454,0.05048361932270803,0.0096078444033961
1687554046.2551217,0.3315462642514533,0.4602107538780204,9.520502851483448,-0.002417149489320941,0.054276734705438076,0.0224427025526862
1687554046.2651637,-1.154801492215863,0.22042585139429552,9.187996334929158,0.001462212613292307,0.04082065744016478,0.0285273644834857
1687554046.2751713,-2.046992979949959,0.42925704132075043,9.299370200373257,0.0037177459178778516,0.017237584668413516,0.0309093020618062
1687554046.2851665,-2.869605929732101,0.48617488177054186,9.747020018578949,0.0022324929142503937,-0.016097542484101363,0.0186027813464503
1687554046.295185,-2.109134378956607,0.5053327992969734,10.017623507961815,-0.002295866346556555,-0.04247011573185774,0.0001239915140073
1687554046.3055704,-0.352764870501213,0.7378121428962482,10.165225370304587,-0.014177767556348107,-0.04776882509345636,-0.0155501157283682
1687554046.3151448,1.6903146293543119,-0.28800985028257653,9.787376246647188,-0.013538486414695947,-0.023516680639803667,-0.0302517578244108
1687554046.3251767,2.375178721525082,-1.0153971821075518,9.839400898705305,-0.004732577700920048,0.011410059897171488,-0.0317391880094904
1687554046.3351965,1.3024792101371252,-1.199822136708502,9.934431674068316,0.01321890258702928,0.03520990225919395,-0.0231490299343962
1687554046.3452797,1.0916565568307042,-0.143489818343259,10.396294669683094,0.014825552841881518,0.05255638924659704,-0.0137947496265072
1687554046.3553672,-0.18388853013993836,1.1579847119169027,10.132331928646057,-0.00023299735112394945,0.05818097884453455,-0.0018734728224475
1687554046.365271,-1.6971357865618049,1.1919915873311464,10.320067744318587,-0.017110350795441643,0.038315026330219666,0.0116356540232997
1687554046.3755326,-2.453114667562341,0.07863430203449898,9.577111910535718,-0.016296715695590602,0.008119161777729452,0.0205512385577063
1687554046.3854246,-2.268409133265005,-0.48701795635604767,9.384647366293928,-0.005055126189297989,-0.02384379449600611,0.0257061276346545
1687554046.3952563,-1.1797105824222596,0.28866328564479865,9.225983160862873,-0.00438242566866562,-0.04101802546212644,0.0285918008297782
1687554046.4053843,0.0472432502498711,0.28118554232513704,9.226864608483123,-0.0005190907618902891,-0.0413100332663372,0.0278702493518691
1687554046.415201,0.6250475010755353,0.6709275102252359,9.750854756703047,-0.009128875477425987,-0.03358624037399205,0.0138125385850768
1687554046.425223,1.2717435535446941,0.3963296046733391,9.925904139551049,-0.014268293857942926,-0.017980077903723354,0.0077698685921829
1687554046.4352894,1.1916695504877506,-0.17457821398967796,10.016971831513308,-0.013621166756141442,-0.0019881400397098775,0.0012663415758621
1687554046.4451723,0.7794574099346887,-0.6123303094647083,9.92244419387022,-0.0075977326461543985,0.008144988084514474,-0.0024102219618756
1687554046.473142,0.40913205854367124,-0.7804369852023604,10.232556597501693,0.004155233233752486,0.008839461812474421,0.0062097812764447
1687554046.475872,0.022037523555773323,-2.7523345079230177,9.654319730523868,0.017346806559716713,0.006381147947212701,0.0076876500383119
1687554046.4849956,1.6043471580956166,0.04838913695438876,9.733836788604263,0.015464420076971309,0.01940042811695048,0.0180383439868789
1687554046.4859724,6.780101811855968,7.817039504853871,9.205823138559433,0.0047263456889402936,0.02855351239166501,0.0277649689227443
1687554046.4952197,1.1001800480925805,0.35884611231708197,9.591735123269888,3.0617394085695624e-05,0.037060710692466886,0.0309034012019734
1687554046.5061562,0.7087187700161606,0.23880528041743065,9.366383659134662,-0.0002953647141629027,0.0430266244047108,0.0368337802350621
1687554046.516233,-0.4570457650881036,-0.49441271518798957,9.325543154520883,0.010604110807877758,0.03531319762058584,0.027262617251287
1687554046.5253258,-1.2179441117899996,0.995170388928204,9.528821815410222,0.006875028187131081,0.02196768727077667,0.0179971404135327
1687554046.5352368,-1.964259764194867,1.1277380690192498,9.988365310751758,-0.0030317508740957603,0.0001267023589564706,0.0001094203902508
1687554046.5452125,-2.041894421321674,1.3455686904961761,10.55353367070543,-0.020494778659295117,-0.028457255461238458,-0.0138489563256401
1687554046.5552845,-0.6131536469068252,-0.3889166975370154,10.094564948545438,-0.018806200812042193,-0.03711128474567279,-0.0359185576677221
1687554046.5651689,0.9430205485771268,-0.6298370795973117,9.567612575228772,-0.010273607412655698,-0.024265917262144606,-0.0380080282926459
1687554046.5754406,1.1166613940443424,-0.7345618985117789,9.42849125434465,-0.0010157444642043796,-0.006484549850101173,-0.0377444193005461
1687554046.585193,1.3041679605086625,-0.7966328919249107,9.69879690270789,0.006032930091357116,0.012647876702048845,-0.0277703289180893
1687554046.5952034,1.2109321292598876,-0.015227334407703123,10.206958348524921,0.005774501602851843,0.02966157296999985,-0.0126696858793396
1687554046.6052,0.4551671398038509,0.7399340142863853,10.612902149082611,-0.006665640337752246,0.03675043212083722,0.0025968913681905
1687554046.6152248,-0.24939595992363855,0.2320085983024901,10.410677309052943,-0.011968997154659749,0.03395037810086095,0.0174234773725371
1687554046.625167,-0.6706085043044606,-0.25945215592879367,9.788100845140683,-0.008063024110964849,0.026011357118050797,0.0326843358337979
1687554046.6353018,-1.3845030404338419,-0.36785060358688065,9.138380218199975,0.002412289037884174,0.010095922167962616,0.0350853860139947
1687554046.6461728,-1.2138717951102795,0.6129684749928908,8.959061098860357,-0.0005976057586821398,-0.004340615302760424,0.035792811191092
1687554046.6559267,-1.5468677038686514,0.40958341285467675,9.198084697746793,-0.004032682406963385,-0.020387392938128655,0.0246847666561704
1687554046.6656337,-1.0165331528936379,-0.1404931591898172,9.563163389994221,-0.001358828153847988,-0.03156839018827266,0.0100694292917948
1687554046.676719,0.17703145239475887,0.008614735548229053,9.84473328151918,0.0013752667812681396,-0.02880198608274901,0.00146492910371
1687554046.685168,0.8124453469571661,-0.10386426581881648,10.172118344859193,0.0020295627139649583,-0.018767208985061973,-0.0061557997256416
1687554046.6952937,0.835601954193316,-0.21838649152038933,10.223988727915772,0.0025220552943059408,-0.004599202707141205,-0.0095394809037346
1687554046.7051694,0.3749101732033567,-1.1513554094459022,10.522530177635657,0.01330228905329742,0.0002759102844699315,-0.0031025308422643
1687554046.7152462,0.7453889298706381,-0.7417756238853825,10.425033899466923,0.025628153377833342,0.004121752019823838,0.0099870882690053
1687554046.7252443,1.8475619318304028,0.850627832747169,10.075850091895454,0.014974433590161993,0.023255478289523915,0.0214510917425256
1687554046.7352743,1.3245254797781914,1.772075174317158,9.77738184972554,-0.007618672973662359,0.03868103521203215,0.0331344030559163
1687554046.745196,0.2589894595629594,-0.017689572375236128,9.444309467305647,-0.008907807480853437,0.03785174491785446,0.0366353675484757
1687554046.7552,-0.07589044432859106,-0.6393204090832313,8.721986375376556,0.002748941331176003,0.03619121652366798,0.0364112205565076
1687554046.765331,-0.7958279310499675,-0.8915254114470245,8.735108792010017,0.021824489010089345,0.024308004597434367,0.027678817859302
1687554046.775164,-1.1846170764824784,1.1613493605568217,9.205880341724214,0.012983534116889139,0.011333768259668716,0.0178126472741465
1687554046.79187,-1.4464607835993546,1.1736437511320221,9.940578933877354,-0.0023456673822129176,-0.014759560742608988,0.0011798905465153
1687554046.7951694,-4.289078685497909,1.1389537450930727,12.402960745848851,-0.016221257736747857,-0.03763513565864637,-0.0155778002232212
1687554046.8051598,0.08211473513736596,-0.9785610282892244,10.45318415433531,-0.0073734112630035676,-0.03862175904093275,-0.0283069811999697
1687554046.8151617,0.9535039898198386,-1.2636018382883345,9.994179456038172,0.009164932981143856,-0.026307935711405408,-0.0307567395508188
1687554046.8252203,1.5478038914449967,-0.6054196103793599,9.733440972172295,0.016230109564857997,-0.004755699537470558,-0.030686219805469
1687554046.8367949,1.5507453846312176,-0.25935566228619156,10.043862207114811,0.015719608091068503,0.018683150224175465,-0.0228187624603409
1687554046.8452015,1.5465194248804586,1.0810407958595798,9.852092304929062,0.0065941584003416254,0.03693192992263286,-0.0052712672628361
1687554046.8551953,0.42064411527947815,0.9549884278642496,9.988216892071307,-0.00698227513404327,0.04448002867034357,0.0084167438320916
1687554046.865252,-0.8819638588862593,0.3845260810342108,9.868117305429744,-0.010632399185532734,0.03249691120891975,0.0227102119237284
1687554046.875191,-1.1570198313269975,-0.1639110469276327,9.481721289629487,-0.003167651516639801,0.014280784861042046,0.035075242048512
1687554046.885234,-1.2243334446895882,0.31966314691313424,9.076087758918408,0.003945293845542697,-0.0003904012250752942,0.0346785209834676
1687554046.8953855,-1.1567397074089847,1.21665816947909,9.467730548352073,-0.008563102305076446,-0.014394676674492058,0.0249890576809745
1687554046.9052627,-0.46080971535788634,0.801497912373334,9.684975404617463,-0.0159987791217172,-0.019944256706753604,0.0184053670376639
1687554046.91533,-0.22868096294268764,-0.28251765009252283,9.990978580394506,-0.013256196792616156,-0.02182281088110284,0.005807343287776
1687554046.9253964,0.3861937415959549,-0.6934600862116074,9.923207743996194,-0.0012042713072206125,-0.015875645374009446,-0.0021939015719939
1687554046.9352589,0.5759931900508735,-0.15809964914986258,10.044903059695995,-0.00016833777460549613,-0.006551955332398469,-0.0087009422719378
1687554046.9452791,0.49877336611586853,-0.2556323114378938,10.056193370871174,-0.0012694452348291478,0.0005674463634359794,-0.0106000980600614
1687554046.9552212,0.8322042237715707,-0.5530970248647261,9.93590406751933,0.0023518124129319885,0.011159908688887906,-0.0001957636564869
1687554046.9652233,0.5340257930786575,-0.8100655255207634,10.116072251876368,0.011088369465918551,0.014334222864457307,0.010760664357255
1687554046.9752018,0.6540100015777692,0.0693094138583272,10.169031283240441,0.008564370786206093,0.018526916776379732,0.0197947252303462
1687554046.9852011,0.9352441656481537,0.5012338227380916,9.889688942388656,0.002858164561830565,0.027223690556431958,0.030635603120933
1687554046.9952,0.5899299271937624,0.0032980759644396017,9.426445400370227,0.001385218769585238,0.03450682289645229,0.0294600412011247
1687554047.005231,0.05333230302783525,-0.2967352868785108,9.059721058355096,0.009280306946676836,0.03305737064454398,0.0302890114247899
1687554047.0152545,-0.7374853047003148,-0.04885674871289454,9.00394155996148,0.015809370680457516,0.023650577343580146,0.020111382356296
1687554047.0252423,-0.8147749168081858,1.0761702864706169,9.243402464589483,0.0070917597124776615,0.015403430179401524,0.0107662969961862
1687554047.0352948,-1.403993382441312,1.4347904680591403,9.947303667498227,-0.00812821494935612,-0.002722412603165613,0.0019128785346735
1687554047.0452182,-1.155686461919596,0.29123750874954507,10.274971740505322,-0.011506078282286558,-0.015309385744572593,-0.0112139066919583
1687554047.0552304,-0.38659437828928145,-0.18294250316642205,10.389931574955806,-0.005861283407013568,-0.020870620096262005,-0.01387972163557
1687554047.065239,0.4625995177753563,-0.26376985727714847,10.148517342959138,-0.0018461397298339599,-0.012428297893991401,-0.0146222613990206
1687554047.0752146,0.3115523172326979,-0.8620323168339766,10.256123607624618,0.00590799452440227,-0.006640028354025509,-0.0175149288266796
1687554047.0852065,0.7097854229961923,-0.8460437266018087,10.236638826425184,0.015007231527761504,0.002717819781935177,-0.0147628743439812
1687554047.0952249,0.945878364409728,0.41464004664407383,9.989420515489567,0.006643221928178267,0.018133478182081244,-0.0104021463781494
1687554047.1051958,0.5749684912705237,0.8320243384718192,10.0212468269599,-0.008753803239178232,0.026517137948830333,-0.0005808285210181
1687554047.115198,-0.07398524069458862,0.06819017051019405,9.593221383779177,-0.011904811438870708,0.024162768470452647,0.0144870489597421
1687554047.125366,-0.47809831638911754,-0.9807239820348636,8.907933449846823,0.0033430977451183387,0.020014567799636424,0.0220519102871518
1687554047.135248,-1.4006852699700671,0.11208186266606682,9.11234615883993,0.01172595049730816,0.0008502129192413505,0.030994374653707
1687554047.1452672,-1.3546186479107583,0.8963834152135859,9.443491904505567,0.0027196993092014256,-0.015091382191153207,0.0294324479758839
1687554047.1552896,-1.15218602074237,0.6943091118735544,9.81937168951879,-0.0006666354323653301,-0.0298567161795208,0.0263114668190579
1687554047.165244,-0.6621942433511967,0.29761684874236316,10.326111393849613,-0.0038373254449941253,-0.040196210074649255,0.017883498570333
1687554047.17531,0.47702724986965495,-0.0659835384443873,10.153065177222953,-0.001397368211214674,-0.03440450222354515,0.0087258865818481
1687554047.185235,1.070853751067555,-0.17987573952586913,9.947665085451025,0.002053179005620672,-0.019398977178822045,-0.0027158694580096
1687554047.195295,1.0498989522496665,0.39403974022833654,9.830708476320558,-0.0050797576760927615,-0.004590599065024185,-0.0056916909530658
1687554047.205269,0.5116280609368942,-0.3651001527045809,9.796579955631866,-0.0026162441559521724,0.0037008026204216407,-0.0062940131179887
1687554047.2152953,0.791524886415155,0.12071212661228832,10.173090059137762,-0.00047717985251960894,0.011446009064761214,0.0064021496795218
1687554047.2252226,0.7707668843997714,0.24750593184300465,10.391957520149935,-0.004385395440247572,0.019266866627320654,0.0154535140603881
1687554047.2352538,0.6454534675658217,0.15559505836526136,10.150075578315432,-0.0046205927159337625,0.023444004212561268,0.0239792227506738
1687554047.245921,0.5311692475740389,-0.027173014236808835,9.581397867413596,-0.002056174765571738,0.02842510040085581,0.0305293857812981
1687554047.2552242,-0.3630479268722996,0.4760820310198876,9.328278484837368,-0.00709115356015951,0.02265684567928356,0.0283699393034081
1687554047.265244,-0.7144771212925318,0.13136106897271657,8.921538997257477,-0.004294100927551817,0.014972229278917022,0.0209506399691205
1687554047.275238,-1.2314361901665016,0.6791190534258786,9.213290053943405,-0.011910883608471718,-7.415136977964269e-05,0.0152150666102867
1687554047.285213,-1.5234634320579266,-0.30899889713101986,9.58051139635537,-0.008353774450821682,-0.01670124641799972,0.0005128712504271
1687554047.2952144,-1.042443156845578,-0.3736493981908095,10.008489947850064,-0.003765775421061155,-0.027825746424057492,-0.0075692158430714
1687554047.3052306,-0.3323759632641163,-0.19166713301392233,10.380681249032989,-0.001724801508155111,-0.03268075166666964,-0.0125969523802299
1687554047.3153124,0.5333990851541502,-0.3555409495847246,10.303586813106953,0.0025824973341768177,-0.02377819608111715,-0.0141501218318838
1687554047.3252516,0.8122766895837255,0.0006349630048188276,10.62581016874919,0.0020802302700881196,-0.013019817939607726,-0.007727509947111
1687554047.3352394,1.4813686597942615,0.7178654394620422,10.825426334022369,-0.008349083151587888,0.004973005709715374,-7.321208304652323e-05
1687554047.3453312,1.7200397538591012,0.3813625422684989,10.164305851959615,-0.013779044238622725,0.02807429595866459,0.011250112554441
1687554047.3558743,0.7875115075084974,-0.25188320151683635,9.599573595071412,-0.011865107831454067,0.037350760031053566,0.0205043930322032
1687554047.365253,-0.1557161600183998,-0.5389586773432592,8.79760170760723,-0.002260285843688847,0.03436129220784903,0.0238290134579043
1687554047.375249,-0.887008816312172,-0.1533364079557775,8.353731606292062,0.003734314657757536,0.022660383629096746,0.0242807700991731
1687554047.385317,-1.308354567227574,0.5327549933337474,8.720080849806877,-0.00010282060004269039,0.006335372773323811,0.021803167065988
1687554047.3952513,-1.5571015225237435,0.45988178646704486,9.51771827333952,-0.005913530139335115,-0.01665843263177257,0.0178704600542884
1687554047.4053285,-0.7511977305929158,-0.06727558504030007,10.089192840417576,-0.006172278677759111,-0.027844593465614437,0.0098973627895217
1687554047.4153016,-0.09192461953331643,-0.28949229099971857,10.579692520416277,-0.0022789150508195485,-0.030253024290381934,0.0031071905972536
1687554047.4252994,0.7089024606212628,-0.06320676867355528,10.573665201917745,0.000196879996654797,-0.02027331705095603,9.026657735070834e-05
1687554047.4353063,0.685958842819529,0.11256521396973944,10.368981000271582,0.0003934318107421719,-0.010149099741835395,-0.001428424963345
