time,ax,ay,az,wx,wy,wz
1687556898.8865902,0.001921896339393658,-0.1923552278322345,9.743671369893523,0.002415379751069557,0.0029862700961213687,-0.0019680921959183
1687556898.8965008,-0.0741127643743399,0.0033679579426451668,9.856406449476038,0.0037996754477119857,0.00020090331713489346,0.0001109899913468
1687556898.9064796,-0.08868863638553576,0.18382333358682765,9.919861135616934,-0.0009802463230240712,-0.0012746781693834257,-0.002061967881625
1687556898.916468,0.19153152885983096,0.16771857254149844,9.775832838721586,-0.0025809872444010396,0.0013493847697595425,0.0007900799119421
1687556898.9264755,0.019390877485259223,-0.07610612463492566,9.77798503756282,-0.00012751044785330065,0.001121025397048624,0.0008292316070333
1687556898.9366777,0.05681348039097138,-0.009758485725632881,9.77935210311384,0.0002885855616076967,0.0019324063697368043,0.0003807040357538
1687556898.9469328,-0.010226422419947484,0.004602019294576597,9.828736533096604,-8.171442241186778e-05,0.001521868617333501,-0.0011280615853569
1687556898.9564686,0.09942621376753297,-0.07886438780275022,9.741915549606091,0.0010108997483865947,0.003396847842470114,-0.0028274852356365
1687556898.966463,-0.2124371282720572,0.16294060643988384,9.97993867436227,-0.0005313426546506578,-0.002312199168198486,-0.000153143917439
1687556898.9768298,0.08724609641504003,-0.004246057955210498,9.763044804945395,0.00048529119368888947,-0.0011610808078141297,0.000582224312941
1687556898.9864488,0.12041303345087638,0.00842849456280535,9.743520331641218,-0.0005909679022198347,0.0018325746376666586,-0.001731909955149
1687556898.99646,0.05081712323525413,0.02106744951105709,9.811572357496349,0.000982979014770063,0.0010837787004763964,0.0015217665077694
1687556899.006511,-0.056208478276230114,0.06172375875557234,9.876176615239476,-0.0015751679137568143,0.0005372657718207928,-0.0015035685191354
1687556899.0164964,0.13329360320635056,0.02794978383598871,9.758804832098939,-0.0012414084237170413,0.0021823627695299608,-9.465418220079416e-05
1687556899.0265234,-0.08625683792513927,-0.0746599372573331,9.836674007797154,-0.0012741644395141858,0.0010520872543098524,-0.0037990968248299
1687556899.036505,-0.015426775251873965,0.09961178854410128,9.854941056340747,-0.0007455494092835274,-0.0011271828845061714,0.0004246503540822
1687556899.0465178,0.017212225165260792,-0.12255842787686581,9.769411386814488,0.002131122292491229,-0.0012702377489548086,-0.0002932217011652
1687556899.0565069,0.0862004072389042,0.2668044568423234,9.847490516896366,-0.0020248285723980814,-0.0006298615377410507,0.0012412366359536
1687556899.0665052,-0.025861369524831913,-0.05327265981492223,9.81121285986252,-9.88375244534193e-05,-0.0019296050025031399,0.0019680434798397
1687556899.0764802,0.14386491947594487,-0.04552703439515063,9.717820325873024,0.0009211503987943154,0.0008103378047182495,0.0012739983376855
1687556899.0865543,-0.015591000037083682,-0.06390310487438408,9.801636423143036,0.0009430957977844812,0.0010059176990981247,-0.0019129783885977
1687556899.0965495,-0.016064678909653914,0.15131039971534815,9.88325257467647,-0.0009947762514324434,-0.0006216752729414963,-6.07628880492496e-05
1687556899.106537,-0.04808647398861179,-0.021374372209865346,9.83407704648467,-0.0007928480845651475,-0.0016524508629552027,-0.0010393845422617
1687556899.116495,0.1491420147268905,0.17500488410292103,9.801259188016353,-0.0028216368348482584,0.00013159604582855782,0.0011156614364632
1687556899.1266866,0.014403590199515698,-0.12192849694679683,9.755863469100854,0.0006056130979755894,-3.306409955010974e-05,0.0012047246291809
1687556899.1365316,0.021485746856731807,0.20792411802731728,9.871419628709146,-0.0032534136447809727,0.00024371472935251671,0.0010877278128215
1687556899.146501,-0.06026649482375092,-0.2507695561731662,9.762619372486212,0.0006916582475921989,-0.0003053778190118089,-0.0018827981820753
1687556899.1610413,0.09827209503307474,0.0954745403678028,9.797075517715559,0.0009900582273277014,0.0005585200049266733,0.0027198008920573
1687556899.1665275,-0.16176437850824182,0.029832621951770243,9.919093846506156,0.0003332993336427622,-0.0013305843644404749,0.0016942271050107
1687556899.1764972,0.057380413603042545,0.07179891640781805,9.82046723474084,-0.002502395250102471,0.0002925142998670353,-0.001268501071488
1687556899.1865993,0.07360559829482122,-0.15109872857063847,9.723863532759296,0.0018543145485842457,0.0007660165441512568,0.0004022672965698
1687556899.1964724,-0.03638851223556253,0.1147953232814242,9.881745120098637,0.0007944988328421126,-0.0010906971463721465,0.0019717655687169
1687556899.206469,0.09451283575160505,0.09676135710995974,9.785679534736687,-0.00184711184107271,0.0013180940458260122,0.0001426365652629
1687556899.216506,-0.054142491611033364,0.02854179711578381,9.859509029204466,-0.0023470579764406207,2.8391862737247206e-05,-0.0006929388309321
1687556899.2265315,-0.06591002365245478,-0.08592913905377264,9.827057160447506,-0.0007563375212584932,-0.0015362246191417356,-0.0020046114495447
1687556899.236621,0.10756881137539744,-0.013712446277792632,9.765329280613138,0.0011234271556307786,-0.0005106451745790642,-4.809457272804256e-05
1687556899.2464693,0.11618634943851809,0.032277305098412146,9.777620143318389,0.00012544190341115934,0.0016846676127137861,-0.0011742288751951
1687556899.2569983,0.08064762284830668,0.08637101471199216,9.802325131079028,0.00026102399793644494,0.0020214286275397337,0.0019166507136584
1687556899.2683008,-0.10768581233675152,0.03903378453943669,9.88147629206615,-0.00088561151617185,-0.0006078839585781203,0.0001634993550875
1687556899.2764926,-0.026528372326441854,0.05713572389811427,9.84256904312611,-0.0027657899849010477,-0.00042943415474158643,-0.0026058635248295
1687556899.2865503,0.03784551281334599,-0.14872874925346707,9.738923480713018,0.0014229540493341918,-0.00035382642199810406,-0.0017550176980397
1687556899.2965117,0.1663358910537087,0.13832658104601606,9.778102764385006,-0.00018824890858128892,0.0020162050440166164,4.315839219325309e-05
1687556899.3064833,-0.04904378994186344,0.03662126166372569,9.854694289825492,-0.000724691969397483,0.0004940928453983262,-0.0001501385394907
1687556899.316485,0.06659892713192687,0.06843144508961371,9.804851149846662,-0.0018873471290328937,0.0015151562079119565,-0.0003502329618162
1687556899.3265429,0.08660776457352985,0.02287089804549612,9.777879370705557,-0.0023176057555201325,0.0028514262423014612,-0.0011116600634954
1687556899.3365133,-0.03505081532323488,0.011624776750350728,9.846198841009576,-0.0011627800702466134,0.00084535885119175,0.0007945804118686
1687556899.3465145,0.02233794571313978,0.035735246386145045,9.81126469475479,-0.0017633001465503161,0.0011437516135818554,-0.0001173793843439
1687556899.3565085,-0.06682680154992755,-0.16136236885849484,9.800971199171224,0.0013402535602880371,-0.00027522604295190093,-0.0014938776420853
1687556899.3665297,0.03152864581062918,0.22645467927432575,9.890655061145846,-0.001593424434658836,-0.0011815767010827764,0.0012293132477248
1687556899.3764875,0.03899325824817012,-0.09776094404971764,9.761347901548161,-0.0002880900814378026,-0.0002148739089839562,-0.0009760711381635
1687556899.386582,0.16500760862264585,0.06412052551189046,9.752506263261374,-0.0011560627706158112,0.002636849809400115,-0.0008259228470227
1687556899.3965528,-0.1275207587578826,-0.001429793857391122,9.885841450485433,0.0003802360427159511,-0.0012981594295470886,0.0014174361841038
1687556899.4065187,0.04752968043678385,-0.09381586588949835,9.757816711039828,0.003073612662629971,-0.0008593015601532352,0.0015239872537245
1687556899.416493,0.02083633529922559,0.171449381918592,9.866074133904638,-0.0002515763201595511,-0.0009528298386630102,0.0009912898549851
1687556899.4265745,0.11685924765560761,0.012343246724263384,9.761729421592431,-0.0007265614842572702,0.0014816423856841778,-0.0003878345286897
1687556899.437292,0.07459584556567042,0.08092622493350944,9.793452667342866,-0.0031070367450386385,0.0033587858687246313,-0.0019677494692108
1687556899.4465184,-0.07483137080960515,-0.13076148880097746,9.800943845758583,0.000755720359310313,0.0009515456586516822,-0.0004642179973847
1687556899.4567492,-0.05524179161206882,0.08052379578264662,9.888105014786282,0.0004968338421984136,-0.0014065697244429398,0.0010128789600026
1687556899.466593,0.09472469192894416,-0.05148225451795008,9.745271106647374,0.001092884798037792,0.0007552055938280042,-0.0005491375031373
1687556899.476516,0.026885563373290653,0.2933353809183879,9.888355090573079,-0.004058807290741187,0.0008464824904209804,0.0002946321347304
1687556899.4887216,0.03687235771851871,-0.08114199152134183,9.771106857597504,-0.0017297660342392041,0.0010305054386310348,-0.0002205586333251
1687556899.496569,0.11234147634417954,-0.04475193141713591,9.73047255601083,7.846542665091115e-05,0.0022050961306899187,0.0006955044537358
1687556899.5065093,-0.08558964360553091,-0.05392807510100229,9.842874685324611,0.00022751266104274704,0.0008453383260714515,-0.0020619995465925
1687556899.5165107,0.0837637046378878,-0.05542994846213728,9.744743380981019,0.002637394112286765,0.0018087171321180657,-0.000463823815105
1687556899.5266843,-0.018521939565662518,0.15936931945455765,9.879046546779048,0.0006503233140052303,0.0003253045220234538,0.0010706054181833
1687556899.536518,0.051754098837862306,-0.02509693073402684,9.777439928719366,0.0011983174036943954,0.0013173472901992697,0.0002532839735546
1687556899.5465252,-0.019266620361251853,0.19889344912723572,9.89794875375126,-0.002513183980719363,0.00044563813800540896,0.0002864390572109
1687556899.557078,0.12233312404807484,-0.02546449152409995,9.737076283315453,-0.0005991269425099575,0.002298589805903653,0.0015519194367267
1687556899.5664997,-0.19873767211134402,-0.17118500308255086,9.880156331228536,0.0015645184501058222,-0.0013603639201113988,-0.0010188772848299
1687556899.5765238,0.030308481032389645,0.06496762712113482,9.822119701471532,0.001047802461620085,-0.0015119940942604057,-0.0002142379798418
1687556899.5865393,0.08279578256069649,0.09604693580315588,9.806501787309829,-0.0012559280708951505,0.00016324095372746464,-0.0015154945703647
1687556899.5965104,-0.039840355577706696,0.17653290440368016,9.891722161477334,-0.0029494296741673434,-0.0020123268316688645,0.001648032617643
1687556899.6065652,0.1121051433905119,-0.07556074105308294,9.734307149338749,-0.00184152068276288,0.00043259651483613503,-2.0510544297759484e-05
1687556899.6165235,0.03817533341929841,0.090989110974793,9.818891355680272,-0.0023660434303016697,6.378975360439401e-05,0.0016957217904315
1687556899.626582,0.006771895917967221,-0.12093709009126737,9.780504626235151,-0.0007667793544696117,0.0004013022716386441,-0.0008981995324096
1687556899.6365724,0.08775558021231208,-0.029496375722667976,9.75199700624182,3.0465252153538376e-05,0.0019137643321378202,-0.0015206936786375
1687556899.6491065,-0.12493871105048339,0.04594993352561261,9.892167142478668,-0.0003454624286084536,-0.0019605145360700772,-0.0012718494089744
1687556899.6565232,0.2479859592600945,-0.01551690146866369,9.675722561894851,0.00012650858588836682,0.0017841356604813739,-0.0015095296821049
1687556899.6665428,-0.17261090497687556,0.20949816067474583,9.9826640286624,-0.0043844259958106405,-0.002164004553494291,-0.002581272417908
1687556899.6765535,0.2647681586341556,-0.12677399633142633,9.627949689413173,-0.001394846843456658,0.0031498016264298427,-0.0030734195879153
1687556899.6865888,-0.03402170548851117,0.1264938261848491,9.874510184811495,-0.0024439452745280065,0.0010178277775904476,-0.0007007633375427
1687556899.6965446,-0.041997216087955924,-0.03897576664615639,9.823816970522714,-0.0003804633782522531,-0.0009353355189428305,0.0006235770725221
1687556899.7065787,0.1459731967646261,-0.06318345585222114,9.720052131984477,0.001498203591611139,0.0014603996990969008,0.0010303681793198
1687556899.7165828,-0.09008972767899277,-0.02230770235150133,9.84829901236291,0.0009587557883649705,0.0001155670728903812,-0.0015810685271821
1687556899.7265992,-0.03020585395836886,-0.039471259750805135,9.806694692100182,0.0014475257334229349,-0.00031693701886030404,-0.0028372189535251
1687556899.7366934,0.055747196227759754,0.0546954557328878,9.794973714543366,0.0017041837862035265,-4.8705541002590066e-05,-0.0012800597159615
1687556899.747134,0.1416781064689363,0.28841285473879863,9.834942855848956,-0.002575786890384682,0.0014063793968194494,0.0017918615504209
1687556899.7566268,-0.0611416138348993,-0.08236223454334733,9.82151209042814,-0.0013948788878264493,0.00023552658362184953,-7.639304198837752e-05
1687556899.766566,0.15363158615397984,0.03321208151660818,9.752152009163419,-0.0014358524937823306,0.002726631822775278,0.0004660185386934
1687556899.7765512,-0.05607117294112348,-0.18148192643689456,9.780112749344518,0.002051771438492466,0.0015658245551792604,-0.0010353020897558
1687556899.786554,-0.06436686609500744,0.2697336055606227,9.945239546412909,-0.0015338179328765265,-0.001283645189722931,0.0019687889453531
1687556899.7965183,0.021679807106033296,0.031570523962123336,9.803951860112983,-0.0023694121036947745,-0.0009152280708906969,0.0003833076644265
1687556899.8066318,0.05995247546074101,-0.006781543540170605,9.774237946621747,-0.0018922128188997478,2.1690573970827275e-05,0.0002905522433617
1687556899.8166387,0.09648732387602986,-0.009144027894239693,9.764923035136505,3.639916852792009e-05,0.0006874183394000823,0.0025294269162737
1687556899.8266327,0.09846151258413591,-0.19490574632597613,9.699230949072872,0.0025416071321166032,0.003383437133974757,-0.0008940656243315
1687556899.8365438,-0.10803512990436175,0.07590889196819053,9.902296925617701,0.0015220407426751131,0.0005141706714334901,-0.0005908754228106
1687556899.846547,0.028051558507670823,0.1291544263023246,9.854051507025194,4.3543107279359464e-06,0.0002150391044954116,0.0005844715943136
1687556899.8565514,0.08708154512843906,-0.03329031007028763,9.759056180017518,0.001162528507725884,0.0015926584883115902,0.0005509188941256
1687556899.8665235,-0.06621895572168458,0.18069376199526052,9.909224941000868,-0.0032150325786606845,0.0004258866490697634,-0.0020064778199843
1687556899.8765256,0.1124653542550651,0.04627439925697368,9.771768579984576,-0.0023112882784019234,0.0012845675297123375,0.0007394368604333
1687556899.8865376,-0.07468316884011877,-0.07595014745231633,9.82309868791678,-0.000959000891974003,-0.00030351280194624734,-0.0006232663562945
1687556899.896541,0.1192872316301376,-0.1155972637258164,9.718150961267385,0.0024455256171743308,0.0012745134866361044,0.0003314796795644
1687556899.9065254,-0.006973064829486105,0.2059646693188587,9.877337062654265,-0.0006386431484817738,0.0003737382574185754,0.0015705413698493
1687556899.9218316,0.017189584227797105,-0.07242501929947855,9.780762961786177,0.0017932429757208223,0.0004508624107768448,0.0001199572307565
1687556899.926689,0.0930806689003771,0.06105257457937227,9.780598131887265,0.0005918023087729447,0.0017558111847342482,-0.0014782547058961
1687556899.936632,0.13804896882867762,0.05668953350616077,9.761462540655371,-0.0008878989042344485,0.004646261397784889,-0.0026513372121802
1687556899.946565,-0.12723496459734937,0.09801757786527764,9.915915588569767,-0.0011855120687838392,0.0008099585213172261,-0.0002373410661197
1687556899.9565735,0.08664097090649846,-0.08257047760931206,9.751922785770306,0.0021147143313063046,0.0013318918582821547,0.0015903088952223
1687556899.966764,-0.017318032679413314,0.14052520907655025,9.873044566920889,-0.0014515052222125071,0.00124767430327715,-0.0006843790451488
1687556899.9765625,-0.12601776635457163,-0.068003621698494,9.862184858257544,-7.426345786952382e-05,-0.0016937820997258175,-0.0012696084140292
1687556899.9865825,0.06954939354851977,0.2020793657408916,9.854727739654374,-0.003066402672155262,-0.0013805096565098936,0.0004052765162237
1687556899.996597,0.06133625769903785,-0.06805731974568681,9.763053492177148,-0.001425040234713708,-0.00040896001033626184,0.0001027753769927
1687556900.006558,0.0206534522267393,-0.02409670623952481,9.779333243596241,-0.0007537358401679986,-3.4541757509555456e-05,-0.0003561610628343
1687556900.0165722,-0.025194525567230015,-0.04384807725823116,9.813924365001665,6.80479909347618e-05,-0.000642500550700708,-0.001470391316568
1687556900.0266469,0.07434633501833081,0.14648446427637418,9.821974101939356,-0.0011761875484076804,-0.0005426962239606842,0.0009204969119788
1687556900.0366025,0.09228351614358613,-0.09429266453642118,9.738956580471061,0.0009964072606284046,0.0009191046067717728,0.0001299601008691
1687556900.0466776,-0.003624397364362539,0.0519719937337664,9.831254490018509,0.0012906873908999268,-9.302944373172917e-05,0.0014766837612592
1687556900.0565507,-0.09596843125564915,0.10390412482985667,9.889800243635934,-0.0018906920214765686,-0.0014721301679624338,-0.0011459278447977
1687556900.0671525,0.14001516086805899,-0.11828652184579386,9.710610367384366,0.001022481305628245,0.0014305909920630932,-0.0015203255733898
1687556900.0766454,-0.005050156515991229,-0.0005519591568770483,9.823911585153613,0.0023844134089202242,0.0003037243259366544,0.000145589789147
1687556900.086556,-0.1086530741602433,0.10970492866864077,9.914340269312586,0.00014965153554806856,-0.002138967091253043,-0.0007782398296943
1687556900.096542,0.14910597803441256,-0.0461562657236003,9.712715004256948,0.0008510996471311161,0.001221623171961338,-0.0019740631377748
1687556900.1065934,0.01802263727672596,0.04549771670651974,9.818242127944261,0.001048553121204524,0.0005886870953238329,-0.00074732457683
1687556900.1165676,0.15725519537919952,0.1369620791453048,9.770887960013242,-0.0007034519958097114,0.0031051186039778964,0.000844121475941
1687556900.126585,-0.25999176892197473,0.047973289062866964,9.963364320752465,-0.0022416282472593856,-0.0019228847351645075,-0.0011910089796832
1687556900.1367817,0.0996142357736929,0.03189437111338472,9.77718811307274,-0.00043560764967528294,-0.0015414273001113402,0.0026229457890191
1687556900.1466389,0.06616413329147673,-0.21540165432381989,9.713583576578793,0.002708148803455617,0.0003096835539993141,-0.000577462515091
1687556900.156565,0.029254202275399117,0.2580674018534123,9.883762015205122,-0.002206609043090947,0.00024112237678841427,-0.0001695161026395
1687556900.166789,-0.07394991324403764,-0.07459595982537381,9.831984459647945,-0.0003011060651057647,-0.0017306849035007745,-0.0006538153665564
1687556900.1766005,0.19601082633102435,0.04112462993821119,9.729601963349781,-0.00029516387078211875,0.0016008446709152016,0.0001646158944391
1687556900.1865604,-0.20805763134582458,0.08162605841855602,9.946167872810534,-0.0029531583633953884,-0.0023546695967396813,-0.0022795329841277
1687556900.1966555,0.198745168338892,-0.012371130796820578,9.704518128051173,-0.0009172459119842812,0.0006266814697586164,0.0001728507650592
1687556900.2065487,-0.13755434763288382,0.012803414901512981,9.897934769689785,-0.0013960008740260834,-0.0025211849805978474,-0.0014480505178175
1687556900.216582,0.11858051133782359,-0.0306102786346818,9.733341194196104,-4.631602912580199e-05,-0.0005788002527171801,-0.0009816378860226
1687556900.2267303,0.1550635970959327,0.019934598271504376,9.732900920827733,0.0014009837100306625,0.0016544763554561988,0.0012922520127654
1687556900.2367458,-0.1178360745020718,-0.07794880658071117,9.850072555348001,0.002204525791954292,-0.0004480627838772368,-0.0012226627713493
1687556900.24658,-0.00667947388698709,0.22198974961491896,9.89638566056458,-0.0016541442352108339,-0.0013410394850413808,-0.0008546255102804
1687556900.2565982,0.09682136216251344,-0.16820780362284163,9.703129220661243,0.00437487074925634,-0.000940523754739344,0.0025174979546614
1687556900.266606,0.05548053874715315,0.12231774658300422,9.840248869148114,0.0017865347104247106,-0.00027036964129257884,0.001231533811781
1687556900.2765677,0.04401781154926884,0.23791006337632337,9.878789610730049,-0.002988561160027893,0.00035249041641825004,0.0005412560149603
1687556900.2865777,-0.023977383020268164,-0.31090737554534004,9.721796191048906,0.0030926167113914625,3.847901670826723e-05,-0.0012312358284792
1687556900.2966254,0.14868863388151166,0.21525330126967077,9.804596930506017,-0.0002348174268261834,0.0023902380362483882,0.000457809977936
1687556900.3066092,0.04934276054448941,-0.020992606463452523,9.790492688833943,0.0010500566561612514,0.0025511660704293075,0.0011693543365732
1687556900.316637,-0.16597673099749066,0.12097375236160061,9.944699149511733,-0.0014265180918762654,-0.0012229244193578542,0.0005188976374962
1687556900.3266785,-0.0293577365452395,-0.019648663049698645,9.817249254895863,-0.0017625431483171098,-0.0016010436151019459,-0.001296435160791
1687556900.3366196,0.13961303482008294,0.04121197592470192,9.754755957673474,-0.0011091253012258616,0.0002221100103928031,0.0002309175634332
1687556900.3466794,-0.05714245872428574,-0.06583296774415935,9.8130700286993,0.00024053693051030337,-0.0009368211932144546,-0.0007979873607358
1687556900.3566022,0.024356647319654225,0.12692567479158554,9.839131019400646,-0.001409392793158008,-0.0011245815994780904,0.0007141001715832
1687556900.3665988,0.12868794094555933,-0.2168496011634364,9.671681196328251,0.003669672418571291,0.0011448763998019057,0.0005036389066413
1687556900.3765898,0.09442766629895283,0.3110635046961568,9.876060325558491,-0.0017893957987105775,0.002271022293177368,0.0016815862928093
1687556900.386592,-0.07694621407293697,-0.25348408682153906,9.778721697628981,0.002357985174506936,0.0010409741070363568,-0.0011920783708295
1687556900.3966126,0.03235783146844588,0.17060399401980836,9.86144247705201,-0.0001833978836178026,0.0006129010071391058,1.263359631829982e-05
1687556900.4066317,0.04196467562648624,0.08732820892606706,9.83538625267871,0.00019247033406117998,-0.00045777064162939776,0.0034686206800439
1687556900.4166214,-0.03227312475148005,-0.03687188802279776,9.812513271060613,-0.0018370722365545413,0.0004825231000512623,-0.0027001143007031
1687556900.4265978,-0.04953082184000539,-0.05109028615194657,9.825895654588779,0.0010831979073655565,-0.001975437633971644,-0.0001449515384114
1687556900.43664,0.0753238540795304,0.11454897445610385,9.81055744183465,-0.00234702999623393,1.3118405418391231e-05,-0.0026938069185665
1687556900.446673,0.07701327465796126,-0.05425395765856862,9.75605888694531,0.00017574992394950168,0.0004735735418699717,-0.0007830596568486
1687556900.4565637,0.15953584864543244,0.16120897815274796,9.768355229185355,-0.0008420399637131533,0.0023298992949482497,0.0024567596574821
1687556900.4665692,-0.09738578116610545,-0.19060773729709188,9.80393743277972,0.002004467570043475,0.0008259827076996931,-0.00038708947063
1687556900.4765997,0.05162340019189091,0.22701982621796443,9.86370384076059,-0.0009489493814489862,0.0005380201750188013,0.0019468037954107
1687556900.4866114,-0.02619836450548946,-0.006919530467346662,9.830660109147848,-0.0011732098659637017,1.238321428447914e-05,0.0004663695890963
1687556900.4966695,0.11264859888193665,0.13739186211839474,9.799580710211345,-0.003221368854361043,0.001706645394992496,0.0011059802218847
1687556900.5067167,-0.1345915656930699,-0.23023646874763695,9.802582636521867,0.0002189095929879793,-0.0003921767076328192,-0.0024795901535502
1687556900.516719,0.0261524165438072,0.0777594891310195,9.825242027431369,0.00028558090927813994,-0.0011487779844759588,-0.0004333023952744
1687556900.526715,0.20530895697964557,-0.05164169418032796,9.684980986064106,0.0019511818862308265,0.0026044484948174076,-7.19031358561563e-05
1687556900.5367277,-0.001798845326329234,0.171716681708794,9.870063233468858,-0.0017074364341035425,0.0026293959030385633,-0.0013411356175742
1687556900.5467153,-0.10447681082278996,-0.004356969172646571,9.880336955864513,-0.0010219717377011905,-0.00027297874352883334,-0.0009116138371131
1687556900.5567062,0.06906089676611343,0.11714913887269025,9.8081030822275,-0.0036144067194141694,0.001204454265038861,-0.0017613597719422
1687556900.5667307,0.03329898877682758,-0.1401904998799137,9.750740657764192,0.002018625254255239,-3.306849906800186e-05,0.00262367862347
1687556900.5771618,0.1006513552916663,0.2083696305326487,9.83258963787593,-0.002432353126417637,0.0018165388959087655,0.0019289295615204
1687556900.5866983,-0.01100414376028583,-0.153735336842097,9.774680200772787,2.446304147796559e-05,0.001808347448327944,0.0002987356584095
1687556900.5967855,-0.02746465308055771,0.09507522326216174,9.869632460351328,-0.0011951749781096248,0.0003305189893668405,0.0011522006844212
1687556900.606756,-0.03769529127463543,-0.26285196090359364,9.750972741963349,0.0023751213501052855,0.00048699251864988725,-0.0032354524864307
1687556900.6166782,0.04740334803630539,0.1852014062308381,9.856007686567269,0.001733999827487899,-0.0009192978883946927,0.0019106864947867
1687556900.6267016,0.2025999460695913,-0.02114118083122028,9.69345560120863,0.0028735445682260196,0.0028190467556945624,0.002220963973789
1687556900.636691,-0.1296348575199198,0.13993945594804982,9.92139478332888,-0.0010402313075528857,0.0006158761717256879,-0.0004843261830932
1687556900.6468997,0.07392127633653486,-0.06118501868980588,9.748267574634795,0.0017377582073191916,0.001351593918383901,0.001059413743908
1687556900.657332,0.012793371679620524,0.13607480503720898,9.864159627692205,-0.0012373004505391156,0.001259608839159888,0.0004958123045549
1687556900.667067,-0.0348560373948152,-0.019687332322222986,9.83692762604022,-0.0006293137723370654,0.00014425551034530481,6.590652815484529e-05
1687556900.6787336,-0.07167527112499944,0.0413707926620297,9.865039226035977,-0.00028770114457036893,-0.0024936262419102003,0.0018275899074547
1687556900.6866698,0.3021946620381612,-0.11370362014979522,9.616418651319837,0.001527245858240143,0.0025496809458645984,0.0011220450124279
1687556900.696679,-0.08456512899294209,-0.08703008048113815,9.822789610991817,0.0014624400153560389,0.0016701378717813783,-0.0030949913470498
1687556900.70669,0.05370944845011505,0.11722910533008798,9.84625088009932,0.0014080320953787156,0.0009012520124691702,0.0007588249591686
1687556900.7167587,0.03287760560577479,-0.01065641257156578,9.784080074405844,0.0007348863088764095,0.0017908181173553134,-0.0015750980509868
1687556900.726745,-0.016890318803083226,0.2347177095046322,9.911013531413566,-0.0019793643836685196,-0.00027483484881039345,0.0019784682390787
1687556900.7367835,0.08329017307201671,-0.2610092090273639,9.679875444304955,0.0028463583198047866,0.0019458293243651366,-0.0005729733074507
1687556900.7467782,-0.03586625521208796,0.10210421472895397,9.865412316628566,0.0015704604910422597,0.0005812302162437763,-0.0001844479974783
1687556900.756762,-0.08179677918994556,0.06639325843417856,9.887134297604495,-5.786910267506989e-05,-0.0012743237400470468,-0.0012740918009034
1687556900.7667289,0.10322908643572493,0.11192371931354231,9.803919538820999,-0.0019275926961897,0.0004091490764670362,-0.0012822511179796
1687556900.776697,0.052765855712468133,-0.019797066169931633,9.778351309865489,-0.00040283231207029777,0.0005641005189239744,-0.0003122127654454
1687556900.7866845,-0.11775265970940524,-0.0013038274198327463,9.876248778852501,-0.0002228863112173304,-0.0021505161304950123,-0.0006798982194117
1687556900.796691,0.12319228193245574,0.16712213885964153,9.822199575379102,-0.00199090722880119,-0.0010958917716072604,0.0015541546400096
1687556900.806669,0.14471512531438174,-0.08493084881533539,9.700640647206281,-0.0011181188746272651,0.0024960371964343545,-0.0011217129921964
1687556900.8166711,0.04683051559214119,0.011593637204805433,9.803318031435435,0.00020253733181373114,0.0022248358418949297,0.0013246887847823
1687556900.8267255,-0.08971310230050558,-0.05050587379737897,9.847843765203635,0.0001779416562483559,0.0007000749231235276,-0.0013754092196426
1687556900.8530638,0.053995487576852796,0.028160646101150627,9.8003647722309,0.0013394735849927375,0.0013013517338895156,0.0011730688293506
1687556900.8540044,-0.3094322616124416,1.391945125505623,10.448385637746759,-0.002301610881574876,0.0012316695973069928,-0.0004865448262966
1687556900.8596275,-0.17548712561594246,-0.22095875969280468,9.834865597660636,0.0012817578097727856,-0.0015619223751560576,0.0006526428351686
1687556900.8667886,0.2731789026741678,-0.06000060841630608,9.651986105733744,0.0020442937889526987,0.0023783329340065066,3.688126573796321e-06
1687556900.8768032,-0.07153430729224329,0.17411274296641593,9.919886618311029,-0.001405657364958012,0.0005223790302769026,-0.0009104908949188
1687556900.8866663,-0.016026143594249736,0.030229557403765036,9.835287493524342,-0.0014525998036097922,-0.00046295630369934263,-0.0004183718974194
1687556900.896688,0.006956862368470283,-0.16294021613376772,9.755909752023982,0.0022141990558436765,-0.000654435808086689,-0.0006534472613087
1687556900.9067757,0.07042771124740989,0.2379033502174892,9.846974641419777,-0.002722571841251854,0.0008416310516603135,-0.0012260129714808
1687556900.916688,0.07052720529532763,-0.08377030129435764,9.751977652923065,-3.962200949949953e-05,0.0013870211364666236,-0.0001054512376389
1687556900.926745,-0.017567035198762192,0.034708233741750666,9.831937143478159,-0.0006069450738055681,0.0007734827124859704,-0.0007953594012609
1687556900.9367003,0.07977575778641155,0.05533933012491043,9.796746307116797,0.00012354025591081427,0.0009839463232905264,0.0019352611580439
1687556900.9467044,-0.008590696644315112,0.08116524714516576,9.852832341219061,-0.0021887334460847976,0.0008680778384160234,-0.0002287703372961
1687556900.9566977,0.05692470239104153,-0.05135090168881116,9.762013750677006,-0.0008342454340022431,0.0018582701132642738,-0.0004619716473347
1687556900.9667263,-0.03890228475777484,-0.07868148070972228,9.817307219602746,0.0004219123985241539,0.001107262372999833,-0.0021744895765981
1687556900.976751,0.029029685808825846,0.027321727641188728,9.819598849268548,0.0016799836025173502,0.00021429942419109516,0.0006887669169851
1687556900.9867074,0.08991433665598683,0.1390922263663889,9.811514252988458,-0.0006196346252012644,0.0015594949502349734,0.0009495554568753
1687556900.9966989,-0.13787961052238576,0.01574972841386358,9.901850415730712,-0.001938033071870142,-0.0010541987643569906,-0.0014659428542903
1687556901.0067165,0.0552223753164152,-0.04570978310547411,9.77063172166643,0.0006331811747817285,-0.0008217129884416903,0.0002149118536659
1687556901.0167303,0.1888791516669838,0.0325572661630269,9.718982403326082,0.0007162394985176367,0.0027069004798819536,0.0008612908732653
1687556901.026781,-0.1456553604278261,-0.01395117385732824,9.881541806380538,0.000967713380183846,-0.00046036220140737225,-0.0003442616707137
1687556901.0366862,0.08167774853168555,0.01672396018538909,9.774783054219936,0.0014430529335823141,0.0009578662733886082,0.0002741333756172
1687556901.046689,-0.0010101192712028805,0.16946124590478842,9.872666223627627,-0.0014142457024951445,0.0003938460148106252,0.0005818488735281
1687556901.0566957,0.10083931627601385,-0.06651886170063484,9.74329735236253,0.0005445094096345641,0.002015099645915407,0.0006343730802223
1687556901.0667326,-0.04256475276581242,-0.04044156501893195,9.815785530955914,0.001268711118850478,0.0010800550997162783,-0.0005476543719372
1687556901.0767417,-0.042091447452440915,0.009934217122375077,9.841866903829755,0.0015120021300683009,-0.00023050743528939168,-0.0006281041114083
1687556901.0867174,-0.06218027764785563,0.20787322722732404,9.904879940673762,-0.002069116873366218,-0.0017876796099313105,-0.0006266370455226
1687556901.0967755,0.05655052546645745,-0.04817345465727236,9.765701312810435,-0.0004605324747459963,-0.0010098406060603299,-0.0008046942802569
1687556901.1067216,0.04471572846888795,-0.005694878317748976,9.779664424750408,0.0010250842302205868,-0.0010679432762573094,0.0009499336902559
1687556901.11675,0.10339849226237809,0.051175912799637985,9.778876375601365,0.0011390629307956018,9.10018229702541e-05,0.002509320476795
1687556901.1267457,-0.036854077213982525,0.1790774531329877,9.894953032978618,-0.002533309621987289,-0.0008291569540297756,0.0016379764875206
1687556901.1370845,0.04858067178756378,-0.239101998079644,9.702455893732871,0.0016259777860017732,0.0007596782881188318,-0.0010539120102725
1687556901.146695,-0.038164557388374584,0.013256301757573929,9.832936744791057,0.0014411998815434027,-0.000288250554118419,-0.0019185560794971
1687556901.1567242,-0.015763967171034725,0.12755792983560885,9.864087257200387,-0.00018936002211279295,-0.0014762434960888197,-0.0008981944101355
1687556901.1666937,0.12632066015231283,0.05089179784301722,9.764041774330904,0.0011245411257186327,-0.00046371175255177925,0.0026743787766941
1687556901.1766667,-0.06660949322614151,0.017844993105252463,9.866546610878986,-0.00047956193464547336,-0.0013469507321917974,-0.0003937940618447
1687556901.1867108,0.06379977452438618,0.027535689291787593,9.790463708139933,-0.001095736436312506,-0.0003251295109890683,-0.0010636024216613
1687556901.1967394,0.06924203803632652,-0.040861085849532096,9.765746362331345,0.0009166852826995469,0.00015469624639445455,7.411753363394265e-05
1687556901.2066684,0.04963142749016313,0.18063685179313052,9.854474307306209,-0.001469008606509596,3.2505749056391486e-05,0.0017839998200111
1687556901.216712,-0.1189302687886223,-0.2553931456176381,9.799443258798895,0.0026210158801531686,-0.0018789480397379277,-0.0013269634491256
1687556901.2267609,0.15348304634507007,0.14696264199579717,9.778178402642908,3.451582673144339e-05,0.000941116890155959,-0.0014696537090889
1687556901.236701,-0.05296464495020794,-0.05810639694519376,9.831386283079555,0.0019005175736283438,-0.0008555863676871769,-0.0015158631412736
1687556901.2467766,0.21070242758185798,0.2131065942060529,9.776477489982673,-0.00023184637079429402,0.0018560230334278716,0.0020992011141539
1687556901.2569957,-0.07162413551796225,0.03378596426704483,9.859739941455128,-0.0017126563041818229,0.000571524806382224,0.0001049955335953
1687556901.2667615,-0.0655340411509494,-0.15279529723337346,9.794497158048863,0.0013212483924251591,-0.0009267589939057143,-0.0005606903268448
1687556901.2767093,0.08359435222698898,0.36094084877222576,9.889301582062108,-0.003470995550329889,-0.0011014953925497434,0.0036321071402677
1687556901.2866895,0.022537159053473973,-0.2558495778804324,9.725989031290572,-0.0002061301867587756,0.00017406524211615316,-0.000792026430597
1687556901.2967343,-0.06296852176836355,-0.09759514486535409,9.823720811933283,0.0023468132041107783,-0.0016573058980666698,-0.000854623181974
1687556901.3067024,0.028938486115816432,0.13541564970480205,9.845178203539026,0.0001764561909623691,-0.00175451641376163,-0.0004850700769997
1687556901.3167994,0.10398196786351017,0.06047468146634654,9.77699181618508,0.0004327608877551009,-0.0005516235707927674,0.0011711982388556
1687556901.326727,-0.0042845306253421955,-0.042124040544478894,9.802269806470814,0.0006872026298502993,-0.0005043335948986912,-0.0008270753587088
1687556901.3367577,-0.010554068267319383,0.10730682777892503,9.84789458923782,-0.0016180239271709194,-0.0006756719828632574,-0.0020217426626435
1687556901.3467076,-0.11257092366254828,-0.12070414793327182,9.83269256714341,0.0011972158788233112,-0.0033317994055673946,-0.0023935222106478
1687556901.3570266,0.22278257380432565,0.20485831247798092,9.759045584260342,-0.0010480493933855883,0.00011556989672513369,0.0007558170200833
1687556901.3676198,0.0253401130982612,-0.018298755493238922,9.797863012275664,0.0004111447141958853,-0.00017797514857100942,0.0017478849932127
1687556901.3767135,0.0021788763371928346,-0.009371691230884584,9.81398229714717,0.0004230727293596251,-0.0003038876007009935,0.000614643709971
1687556901.3867526,-0.08719678855873453,-0.14716640675341233,9.818528372495214,0.002624362501800896,-0.0020220135265071703,-0.0018809287848374
1687556901.396788,0.11451940172599645,0.14217177472330847,9.799049892524994,0.0001347167787218778,-9.527350614872347e-05,-0.0018306494730017
1687556901.406779,0.04334561455875398,-0.06157051288696946,9.777835316418626,0.003145885945146747,-0.0006298378050680825,0.0007651692449622
1687556901.4167452,0.23804239202784538,0.09540895508311911,9.710642499347564,0.00037613652896984867,0.004780367752180885,-0.0015270730054429
1687556901.426865,-0.1205745994190058,0.031169097161949967,9.882549561799056,0.0011073812191150895,0.0012242348148654109,-6.263344944036479e-05
1687556901.4367406,-0.11468698232733378,0.11683249528103824,9.905967732783509,-0.0019387736258368266,-0.0009528510795989599,-0.0018496426327577
1687556901.4466927,0.007311759327538121,0.11262483225570954,9.858529212584473,-0.002759069563448512,-0.0020518103873664565,0.0001236529515632
1687556901.4567823,0.20002873419066433,-0.12301526901630644,9.66003739765589,0.0003403459182386105,0.0017096336815773739,-8.124744449323888e-05
1687556901.4666789,-0.022078032187944678,-0.018893650909426973,9.830713580275022,0.0010459171851466905,0.0007869100179416377,-0.000248494119612
1687556901.4767025,-0.000137751895083087,0.0080229158364905,9.804457486372192,0.0008969299310722088,0.0009083242839985085,-0.0015996737910858
1687556901.4866674,-0.07819871008841801,0.0986631959508111,9.882898693895772,-3.402204540454496e-05,-0.001478857015314259,-0.0004787331253714
1687556901.4967036,0.08030760054685837,-0.0222938769495862,9.763877279192771,-0.0006208027797674209,0.0007861090815186476,-0.0031531328840605
1687556901.5067153,0.0990470636276324,0.06179685709472479,9.79159430053706,-0.0008722057266133827,0.0018332910097593408,-0.0017229971981099
1687556901.516747,0.012447473431693865,0.009707116942340879,9.821634495830939,-0.000572342720818154,0.0013460464190046368,-0.0013120746279559
1687556901.5267384,-0.044982550705553445,0.09373166267000423,9.87308638065915,-0.0004601816814877531,-0.00089100070139435,0.0012591153518338
1687556901.536686,0.042292670670033755,-0.13421956364692655,9.739499874373944,0.002493219552774362,-0.00020776239992987365,0.0006936368609354
1687556901.5467093,-0.13784968118511517,0.08621186130298565,9.917809027621532,-0.0003692958202968187,-0.002606482207168496,-0.0019241449462673
1687556901.5567048,0.26030147710924534,0.1457134365064753,9.71700377564066,-0.0012127044436389123,0.0014585415018420012,0.0013507342610433
1687556901.566678,0.07281231687092933,0.08129148566294324,9.800147275502011,-0.0015934577533387958,0.002128712998424564,0.0030144856737502
1687556901.5767367,-0.01477704803180042,-0.10620025438116656,9.794073817124799,-0.000533234734901419,0.002309404964152381,-1.7910291669433068e-05
1687556901.5867174,-0.0856892705219008,-0.020043083611698296,9.86432154427602,0.001255679748794466,-0.0006477370200180154,0.0017013084453106
1687556901.5967665,0.07676655246081301,0.045273007394957196,9.784656926287939,0.0012348171327862406,0.00025191994962612716,0.0025618662785314
1687556901.606709,0.009100539169603118,-0.03787909093355028,9.81995854164598,0.00202083939944692,-5.095288341319773e-06,0.0020399209188804
1687556901.616684,0.05749380939080102,0.02777566893023723,9.786098938350069,0.0020797209047992197,0.000947795476369103,0.0020790505532682
1687556901.626832,-0.06362048111828471,0.04359609233356489,9.860844169416698,0.0007259187587188447,-0.0002856212330771967,0.0002752773889847
1687556901.6366994,0.11573180986038531,0.09654290729441092,9.783096590600387,-0.0002113278186432854,0.001197042982801072,0.0015690044111148
1687556901.6468663,-0.1679612800177337,-0.10762531134744756,9.862985175200293,0.0018297457959064408,-0.0021304044478994326,-0.0002727305090478
1687556901.6567004,0.11607976607757783,0.19734280136085777,9.820324395686963,-0.0018836079540849803,-0.00029531740492628143,-0.0003192932617343
1687556901.6667116,0.019924466891990476,-0.20486682070394988,9.735948887131782,0.0028821467489100346,-0.00034708943693072616,-0.0002138311082921
1687556901.6773024,0.0976091843361455,0.20606016553378045,9.836450382385905,-0.0009802540076831827,0.0010290133532881933,-6.189409573144193e-05
1687556901.6867146,0.15379941490503904,0.10799645965365197,9.770380354366873,-0.0019041203422181887,0.003173657965420868,0.0016972317553632
1687556901.696727,-0.16904523953860226,-0.16013765135707103,9.851391069158998,-0.000590219057518544,0.0004933281207391701,-0.0029813779091886
1687556901.7066982,0.026861874890715846,0.013112595906443378,9.798886314322393,0.001897920683095225,-0.0006309752347211683,0.0010713498068549
1687556901.7166984,0.10626287139217948,0.11531386813447202,9.792889354983416,0.00010718661742138702,0.0011456089776873473,0.0016636851815315
1687556901.7267213,-0.24781596202118011,-0.08746138002743682,9.932662001741289,-0.0005618900807900677,-0.002624011868007322,-0.0040833211077801
1687556901.736772,0.2506882500263047,0.13237678673576272,9.708459662437939,-0.001185147332930725,0.0012242259374673442,-0.0004451967815361
1687556901.7469797,-0.062627725805864,0.07301065084280868,9.872733664775046,-0.0020307779654599105,-0.0006563041297281924,-8.794563286519523e-05
1687556901.7567384,0.01999751543123169,-0.002799216323258876,9.799804249726096,-0.0009012550378840494,-0.0010321901413037039,0.0007923438989133
1687556901.7667189,0.08942812848870688,-0.050781404658303664,9.749975876560102,0.0008473854869459533,0.00036144920840535175,0.0008079962881789
1687556901.776804,-0.017122604613734008,-0.014651040129256282,9.831817546163194,0.0014441813109151492,-0.0007393877415498169,0.0005036167295225
1687556901.786739,0.1731784300319008,0.06332888207382614,9.742528357283485,0.001174826020347643,0.0019949954611149603,0.0014882443666034
1687556901.7967072,-0.15818188612569742,0.07831137074892838,9.928622447070305,-0.0016396061379606328,-0.0009595589514820911,-0.0010762777219018
1687556901.806703,0.13589251413321887,-0.0009773247141332468,9.74470828549691,-0.0002363090255400617,0.0006676649624286326,0.0007807929960586
1687556901.8168173,0.08751222698051372,0.12339700031020281,9.803217212198597,-0.003208359139730583,0.0027333233285812566,-0.0007946352979592
1687556901.8267798,-0.09194497213382781,-0.3137944872000314,9.75450419554491,0.0043774550174874305,0.00016962568316435247,2.305788989597087e-05
1687556901.8366992,0.019218077412982586,0.041226680701022596,9.820215026260696,0.0035378005190044694,0.0002232280541544341,-0.0007014913989654
1687556901.8467636,0.0067127049262808115,0.12432692170110383,9.849475055942007,0.0017947111080954454,-0.00030200885934668483,0.000129225753019
1687556901.8566935,0.06146073777798419,0.1802931431912252,9.844409052054163,-0.0024327521182723653,0.0010845065455142274,-0.0017874302847734
1687556901.867502,0.01799721654664812,0.06483156668407836,9.826118094555905,-0.002838395241430446,0.0006412180424964154,-0.0006664869415066
1687556901.88042,-0.024817700623018475,-0.06166067470424247,9.81358338148479,-0.00035774794392611566,-0.0009833780829230547,0.000245475415843
1687556901.8866923,0.2090027663173063,0.0476363728297662,9.716880153995245,-0.000484405671806629,0.00136801608622747,0.000481275930772
1687556901.8967102,-0.06866883764887836,-0.07484375962794296,9.842650779024755,0.0016341681461064443,-0.0008485221778335744,0.000559868147368
1687556901.906689,0.0615757696540584,-0.037712045593626016,9.773834993909162,0.0022596445116647036,0.00024522413147967615,-0.0006102124734274
1687556901.9167178,-0.00983933769400095,-0.01044976681028944,9.830205564916403,0.003766898901776703,-0.0010105588465980798,0.0005684575026431
1687556901.9267886,0.037671582376002405,0.10949720229115406,9.817757778024143,0.0011450311845007093,5.1125167299456226e-05,-0.0010636147616854
1687556901.9367435,0.05734521689447764,0.0884253558567515,9.822249876210286,0.0009606497262657966,0.00016809413678590043,0.000952903736154
1687556901.9467237,0.07965522066160145,0.1498738815147467,9.82287366867368,-0.0020989568901099006,0.001471578131797501,0.0003904065543361
1687556901.9567654,0.0053817566421079524,-0.21709216365792716,9.735309236540797,0.001991407009379491,0.0018508871010958312,-0.0014587814493528
1687556901.9667847,-0.20007883739737975,0.1498287894150085,9.971368767398634,-0.000223254909168624,-0.0031932263921394914,-0.0002362191716632
1687556901.9767878,0.11395725557478668,-0.1292882515816021,9.711328097703552,0.0015280299267162749,-0.00013069499129914267,-0.0029102206735364
1687556901.9867208,0.05887477256262225,0.06859460984438587,9.809824398413584,0.0015980255900590584,3.733767298226925e-05,-0.0015181025064042
1687556901.9967492,-0.03297208342840172,0.09377742040760435,9.869626081923201,5.091410292508843e-06,-0.0011290351558593606,-0.0014465624971739
1687556902.0067546,0.12980331599156844,0.10945220326529366,9.767160248127478,0.0003418577616846683,1.462450430735003e-05,0.0022105544067495
1687556902.0168505,-0.0004837410346505566,0.0338683706550119,9.82140502287557,0.00018688380560575438,-0.0006808966860503381,0.0020958278637886
1687556902.0267997,0.18596569272157273,-0.05659305679435344,9.68834753974455,0.0009565136229132896,0.0033644064732486325,0.0005602315377951
1687556902.041793,-0.07681622207048394,0.1491159997267668,9.911445948988735,-0.00374555132260177,0.0007465945517637684,-0.0008974744977853
1687556902.047489,0.09113316487880234,-0.2432925389546221,9.680943039629431,0.0005240356075286694,0.0009455687468940688,0.0011004373100628
1687556902.0567436,0.05180690858835703,-0.025855631278157935,9.77555620958451,0.0014631728974767919,0.0016083027113843293,0.0011827459693928
1687556902.0667317,0.0343265627152615,0.16784496655051306,9.851264345739764,-0.0023675426722377306,0.0024938052260550098,-0.0002633863168261
1687556902.0768254,-0.030965863183205253,-0.16849452351030614,9.765306614616511,0.0025304779724564,0.000959726449012999,0.0013746278146323
1687556902.086722,-0.018215210615724814,0.19420152244259672,9.892732209155914,-0.0010066904249010453,3.510746131817871e-05,0.0016137696966803
1687556902.0967245,0.10863058758795194,-0.1544273696550922,9.698763292362568,0.00030724973411322415,0.003510835201792019,-0.0026445739476434
1687556902.1067488,-0.07341950630866205,0.1675232239227837,9.902110471056991,-0.001772216192229472,0.0010230717420258027,-0.0007488035170785
1687556902.116799,-0.06757085187806712,0.0063865401928775625,9.863938375221764,-0.00045459731363654794,-0.0016084904921165547,0.0006395981491119
1687556902.1268237,0.1604451569280109,-0.04429958949823925,9.716811658586884,0.0010381059283678087,0.0013214684331176486,0.0005919137930073
1687556902.1367471,0.06558329873757193,0.027317027812842728,9.77738400527913,0.0010500319463271094,0.0022114237860944414,0.0007904507529497
1687556902.146763,-0.11987145301898641,0.054290742512681504,9.895511362752096,-0.0009679780704556583,5.298104123568323e-05,-0.0016287359448573
1687556902.157417,0.02796580822810274,-0.048921501559689655,9.781716534918145,0.0008324846841847469,0.000314116328824167,-0.0013493401037952
1687556902.1667695,0.01829589217367871,0.04498188936196772,9.80620721152655,0.002086786293952734,-0.0005978061457155942,0.0014193081533927
1687556902.1768048,-0.0015784507765657365,0.021058018996214886,9.84364647806879,0.0015082487198464383,-0.001039999639345953,0.0004063913093455
1687556902.1867597,-0.058540430339159094,0.03928435632153905,9.866503595109291,-0.0004926047096661235,-0.001913572747201067,-0.0028513638807884
1687556902.196725,0.14087765595807228,-0.042111074543061885,9.728783852406252,0.0023989571224576354,-0.00037838059648789737,0.0002126891359263
1687556902.2067878,0.018801509203839255,-0.05240724403723526,9.780203871560778,0.003078097851404813,0.00021649104377120365,-0.0013366932088933
1687556902.2167752,0.0906912308164172,0.16385155925489583,9.813634814247179,0.00015596596770027496,0.0016093972719088663,-0.0012212045530281
1687556902.2267804,0.07731622458617543,0.17465060489150164,9.8348109931244,-0.0020400819779417376,0.0018381354446957573,0.0009808025516145
1687556902.2367764,-0.06441073677500501,0.027764031069236483,9.866463428994766,-0.002225247443337298,0.00013754389020968093,0.0008932992660016
1687556902.2467265,0.06293169387840036,-0.07400059907822172,9.752825507421887,-0.0003454408473927608,0.0012253348097532072,0.0003654276679777
1687556902.2567773,0.0896130220605857,0.002374495732562433,9.764313275939022,-0.00020015087340604322,0.002897981691743988,-0.0002865306141278
1687556902.2668073,-0.17297329168090797,0.10270242623867795,9.936046135260291,-0.0016787174416353404,-0.0012977871254457383,-0.0001769787904298
1687556902.2768238,-0.020377782318193788,0.08082507637803416,9.84781285383625,-0.004051360502791031,-0.0014971619360541505,-0.0024855603969148
1687556902.2868078,0.0366468664639344,-0.21177589994172175,9.719255951378209,0.0008731105868733137,-0.0009952906234103624,-0.0024445482103577
1687556902.296768,0.1235023413814369,0.2141917864885829,9.819220465862683,-0.0013970955887800348,5.74635222386748e-05,0.0007442915539764
1687556902.3067677,-0.04465328612101794,-0.19504501393466078,9.780149125179898,0.0032259848293078475,-0.0015149694196115173,0.0008318264463492
1687556902.3169851,0.024547148788420056,0.05768015304306599,9.831669884942288,0.0014076824005138933,-0.0007721581694207684,-0.0011813125146976
1687556902.3268015,0.09540171185035407,0.21626353451762795,9.840613510666062,-0.0005950615979091555,-0.00035753820800024145,0.002329024051553
1687556902.3368545,0.03902707709236429,-0.047689524890115874,9.772661459718682,-0.0003625819630163056,0.000723541420692051,0.0002577586292796
1687556902.346803,0.06497372867165362,0.05389717060539779,9.804694315970634,-0.0003558996854723991,0.0011698386667620458,0.0016073970055482
1687556902.356766,-0.08147082630479852,-0.037130505013434706,9.851556805114507,0.00020068103148057018,-0.0006049042198088928,0.0004048930441536
1687556902.3667693,0.13561721480758218,0.028962868964296715,9.748806915999525,-0.00045089244941527224,0.0021406565170533354,-0.0006429973563603
1687556902.376756,-0.1100083854962124,-0.06060682282936462,9.856870760388487,0.001163698514993707,-0.0006134283881874578,-0.0011287749784491
1687556902.3868167,0.03268380215326187,0.07242257250479676,9.82998288202522,0.0007751380024322197,-0.0008157641380470805,0.0003177355702542
1687556902.3967545,-0.008110351035083998,0.001223963057645508,9.822767563807837,0.00022451732176940691,-0.0010951392049050822,-0.0010252319315872
1687556902.4068372,0.16884405032150143,-0.03458467613263137,9.714863624426677,0.00160622263323643,0.001964816166511503,-0.0010844568295828
1687556902.4168165,-0.07542221688292566,0.08049847690900097,9.865809459038381,0.000744213417222628,-0.00019436670620985632,-0.000606128391107
1687556902.4268377,-0.08282220672207341,-0.0433792425883797,9.83990836169459,0.0010176397242795715,-0.0018655552192045827,-0.0026420072226277
1687556902.4368446,0.2640535110577777,0.15573797043133897,9.727757051278422,0.00028598819112481816,0.0016798223673820593,0.001005802712873
1687556902.446763,-0.123204060434527,0.013713213155245681,9.891805842487164,-0.0012346768024003854,-0.0002003440633824663,-0.0021983300375244
1687556902.456988,-0.02135971099846066,0.14304292561354778,9.876898837186138,-0.002445389947194537,-0.0019810227965466796,0.0003926086665638
1687556902.4669862,0.13457485865412785,-0.19036077827788675,9.695490274672503,0.00173102531704391,0.00025864215571882397,-0.0003043698652139
1687556902.4767904,-0.11071327875535997,0.08861013205011162,9.892604371119425,0.0002550767706705759,-0.002352795746146068,-0.0003330667077056
1687556902.486744,0.10396209467442968,0.03162549856356697,9.76762450194107,0.0004402081129808006,-0.0007348977055828319,0.00030246711872
1687556902.4967687,0.11716251463244738,0.1726140580237284,9.80282797481003,-0.0027843993946604613,0.0013084067351958923,0.0004041600932874
1687556902.5067923,-0.07093793201352923,-0.1888461919031608,9.794755585679107,0.0007345027416977542,-0.00019140093523909533,-0.0011187553445301
1687556902.51676,-0.028496479676808822,0.2055127072882242,9.906612099389273,-0.001875797705252614,-0.0021829330233420303,0.0014356959709881
1687556902.5268276,0.15074091801731748,-0.20791100453058525,9.676777352008822,0.0023531479958893717,0.000999206139373922,3.682772699230437e-05
1687556902.5371487,0.019047983877807876,0.18439412169629696,9.866417920781448,-0.001313276572498178,0.000987652899705369,-0.000395665787389
1687556902.5467927,0.09906647491481724,-0.02367847169913059,9.759933358716735,-6.159680532129663e-05,0.0023108884155634826,0.000442904043714
1687556902.5578706,0.004301441901165865,-0.025849405130835362,9.793283233784997,0.00037686137710136433,0.0023500069898307776,-0.0010274745563468
1687556902.5667968,-0.00931362863913405,0.10931168835491605,9.858988612190442,-0.0005693535241164707,0.001258122590973429,0.0003978115001269
1687556902.5767984,-0.05753172282163166,-0.0043770994771433645,9.840542405964058,0.00022601141621230602,-0.0006201728369572962,0.0006455641433172
1687556902.5868056,0.06823529116458281,0.20060283846796395,9.856279522707888,-0.00285480365429071,-0.0001399807317397319,0.0015124387446599
1687556902.5968196,0.060183707217929615,-0.18715187214910145,9.723540657286309,0.0008350854817600656,0.000986171744086583,0.0001664838946931
1687556902.606861,0.03704305581949808,0.18340354259136213,9.85400267208219,-0.0017588416805794187,0.0007958085802125701,0.0019546263811685
1687556902.6167965,0.10444334022595388,-0.07207473971846239,9.729880819963999,-0.001170241452510931,0.0034024001877414048,-0.0007555132305673
1687556902.6267998,-0.1372817542289598,0.06326339053644106,9.90082842135142,-0.00013608334632169076,-0.0010884390630363113,0.0025081952062942
1687556902.6368015,0.04420163996654627,0.011429505646356352,9.803640551991563,-0.0011225532890748798,1.5360786977310706e-05,-9.68884250572967e-05
1687556902.6536112,-0.012057337257175662,-0.03604281137124739,9.795076779019377,0.0004595752509147983,-0.000710684780649507,-0.0007421257013878
1687556902.656765,0.4328819145494386,0.24735681599704032,9.667526151800715,0.0007851709393452919,0.0008394030901158461,0.0026773294394411
1687556902.6668074,-0.10636939499457657,-0.02779685022806978,9.869341822272945,0.0005512366604774339,-0.0011718883984696501,8.602728671812539e-05
1687556902.6768243,0.19046415987223686,-0.04360728267683482,9.706535012955781,0.002438045768276873,0.0019506860194203344,0.0010400655174204
1687556902.686848,0.021791130622799998,0.04358257920344494,9.818314623768085,0.00014701740732864148,0.0030373191803587853,-0.0021573532412252
1687556902.696818,0.002549195952895393,0.017470017076807946,9.821646295716413,0.0009974702395334448,0.0019316766969435478,-0.0007477234157226
1687556902.706855,0.0029728891947291246,0.149561882254702,9.851952972068728,-0.0012816186659538051,0.0015691626502319137,-0.0002533989299512
1687556902.716851,-0.02749549388898089,-0.042888215431650986,9.814124242453413,-3.625454112735195e-05,0.0005827337639294714,-0.0003736686466685
1687556902.7268643,0.022338301063039547,-0.027396193370396265,9.79251292303548,0.0007155101329454246,0.0008293390335233058,-0.0008043243123642
1687556902.7368186,0.14014524845079188,0.07785105142925536,9.76968758050513,0.0006171253452412602,0.0025355312752084447,0.001090024017733
1687556902.7467754,0.05764958633714853,0.1127054046653655,9.818360012949721,-0.0005224443652383062,0.0028328008291407386,0.002371132986857
1687556902.7567947,-0.031853618762605125,-0.043325758286999305,9.821429277316291,0.0014508722389654134,0.0013385867716903775,0.0031418960734778
1687556902.767524,0.02209081492177815,0.051009542734624144,9.819701818894478,-0.0006669383019800418,0.0022609679192358897,0.0004082660616882
1687556902.776811,-0.029614278788476733,0.0011140263607227333,9.823980028091816,0.0003798585960719583,0.0008621297778635289,0.0014531910356277
1687556902.786781,0.02945131585983275,0.038782878870788365,9.801270849439613,-0.0005849990573756809,0.0015699284161163995,-1.306892768061633e-05
1687556902.796799,-0.06766839205429714,0.09043611100557791,9.883501307953548,-0.0017923631225085527,-0.0006522112656800842,0.0002260971542023
1687556902.8068037,-0.05197360842015772,0.00016702535094909615,9.844960650580207,-0.001267083139462855,-0.002131892020591192,0.0006090529805556
1687556902.8172383,0.18067621549173607,-0.18722042490780172,9.656451875454414,0.0036014741390174676,0.0010905051412641556,0.0012475264539285
1687556902.8268478,-0.0637060114784292,0.1427759999704159,9.890031626369046,-0.0002042463188562059,0.0004240387454008459,-0.0014104101846418
1687556902.8368466,0.11693888647445928,0.04821951065051746,9.767224838412895,-0.0004970915092111125,0.0022240926525975754,-0.0008490196468732
1687556902.8468378,-0.03800261921626314,0.15325669977440973,9.890474803122105,-0.0030183620776574487,0.0007443985601496189,-0.0001739916896871
1687556902.85737,-0.18698125656742273,-0.026734651142809655,9.9018557109855,-0.0033323467593709744,-0.00303381433653033,-0.0025179625062695
1687556902.8703845,0.29610779404349874,0.15038453295957677,9.700480897167598,-0.00412213433036372,0.0027385572649724563,0.0021300968092442
1687556902.8768525,-0.1914964516805798,-0.5433316365182042,9.72694040603868,0.001453116257186652,0.0010766888579445593,-0.0017684410831383
1687556902.8868945,0.017732145233618976,0.07810571368830035,9.835798928187387,0.0002490886962389323,0.0007693939168087309,-0.0016435993874869
1687556902.8968902,0.09034557040186604,0.1272113441413403,9.821100361672942,-0.0015408749510792566,0.0019551127474036404,-0.0009049225172451
1687556902.9068644,-0.050724807227156284,-0.0107736431371427,9.831279930263873,-0.0007321301908481786,0.00044301583603915793,-0.0003766804274595
1687556902.9168148,0.041392125843656764,0.009028793826710433,9.796653256896592,-0.00039834990215772926,0.0008006539036344843,2.157557360314851e-05
1687556902.926922,-0.014397265631619253,-0.08165925009931922,9.79656819683513,0.0013722593232658943,0.0001893426550769007,-0.0006262612568638
1687556902.9490623,-0.0008331780562287044,0.08962247594143859,9.847195739783219,-0.000879277693930305,-0.0013588995555602985,0.0009525295482058
1687556902.950497,0.37197810709254436,-0.6719553216736344,9.38630935722737,0.0010317868701156714,-0.00015710884917154568,0.0005926670583472
1687556902.9568129,-0.034010877296598116,-0.19782730276630697,9.775565380341487,0.0024361924145024755,-5.913999932314315e-05,-0.0021327914709649
1687556902.967738,0.09148491177924208,0.34360913430518714,9.8859245474532,-0.004081167938387996,0.0008684495366525713,-0.0003632665884173
1687556902.9772277,-0.0734457368576325,-0.23445246574829773,9.789041184365132,0.001122687002626148,-0.0012184624404469185,-0.0005465419071219
1687556902.9868257,0.139256659013277,-0.0385760782368501,9.711917360483596,0.0016162816436260533,0.0018664880870982441,-0.0018954441456548
1687556902.9968796,0.03979191504922265,0.1365513029508651,9.829001471874141,-0.00023335372403872847,0.001990521376025348,-0.0011656763071618
1687556903.0068352,-0.1033093589577164,0.026693353682472283,9.878676419736953,0.0014404532752152188,-0.001722849198040357,0.0019270693610929
1687556903.0167966,0.11998059911577356,0.14666284982648345,9.798480522362151,-0.002027777616849817,0.0008002831043686303,0.0004235396354966
1687556903.0269172,0.175629943687521,-0.07386470955957007,9.694670960269441,0.0005240297078658952,0.003739166270011349,0.0013087033021771
1687556903.0368931,-0.08120903253282521,-0.010263484998796774,9.853211980865357,0.0004275657489324968,0.0021641016343081267,-0.0003535609266213
1687556903.0470593,0.15530014857958183,-0.030362812142824457,9.713912710813036,0.002247702688264274,0.004697325287587151,0.0010899418867234
1687556903.057038,-0.28005072908918754,0.07501979600393989,9.996723893904242,-4.0747775549699224e-05,-0.0007952596277180812,-0.0009071558287791
1687556903.0670052,0.05132529216163831,-0.040505440520415686,9.772307151382318,0.0008391990980743122,-0.00014109387156603553,-0.0017646913456223
1687556903.076786,0.14392835106074825,0.2601799371487855,9.82569814959158,-0.0018016659659396024,0.0010945776798348356,0.0021718151711434
1687556903.0868895,-0.021894311604724343,-0.14462878355978442,9.7637605589583,0.0012322203322895028,0.0007935680717384909,0.0010169764882926
1687556903.0968077,-0.06813898639846817,-0.05626942369436738,9.831267196184543,0.001932560480838456,-0.0005255488452779834,-0.0006139654705724
1687556903.1068563,0.2277636842984897,0.27343617748624555,9.788206380327,-0.002815305681108828,0.0034571617807549514,0.000437696902784
1687556903.1169174,-0.04169462805231984,-0.19163588227443978,9.773260937319804,0.0016036200983985237,0.0022106699524823085,0.0002606986982324
1687556903.126939,-0.15400897880321904,0.1531460396065266,9.946383552796828,-0.0014622906421474765,-0.0013987581581638476,-0.0003516964188269
1687556903.1368425,0.07500772288502881,0.11026974315815166,9.808401886052323,-0.002179778511829084,-0.0008779626739181019,0.0019523973187939
1687556903.1468816,0.01592254810909289,-0.03475800946639367,9.799484489447513,-0.002165997976916982,-0.00021522883663858174,-0.0003904273307374
1687556903.1612115,0.04065970856416131,-0.04922870069698626,9.784991811991192,4.867838913778539e-05,0.0003495301181301072,-0.0004094303857958
1687556903.16683,0.17312287362248144,0.14411128532474726,9.765975262475767,-0.0006956320103598448,0.0017379473297369163,0.0007517739159562
1687556903.176845,-0.06344097010850057,-0.025043791461101538,9.840021991879402,2.893235069543761e-05,0.0001818850173815309,0.00053602524172
1687556903.186828,-0.10557418256870725,0.26074561265968016,9.958634670816902,-0.0045919097009035756,-0.00280207807963518,0.0009871799575672
1687556903.1968205,0.15070364320377136,-0.20972778182717833,9.66919653258341,-0.0006792589215790042,0.0004542109393460579,-0.0010710495097986
1687556903.2068355,-0.07695040393919998,0.11137881285269578,9.911003111950068,-0.0011210454381560724,-0.002593454795457864,0.0015850715008606
1687556903.216833,0.11383934064799107,-0.05250311758094539,9.736031918984203,-0.0005741878798755584,-0.00015453008760904158,-9.914443757898087e-05
1687556903.2269442,0.02130892626770623,-0.09176263234636162,9.769028516640939,0.0020517615230001953,-0.0004007565426578752,0.0003746995662846
1687556903.2368352,0.05719111843067814,0.2227016518682243,9.858717173758137,-0.0015088551250972443,-3.381011192822679e-05,0.0013403137073079
1687556903.2468424,-0.02331990522081565,-0.21934205699566078,9.745656907244754,0.0018580384703971537,0.00022882643336392635,-0.0019971718119881
1687556903.2568448,0.08767576234085361,0.037439340906351995,9.780397175159841,0.0009740470804667641,0.002081027248144218,-0.0030678204765967
1687556903.2668931,0.06320382784529217,0.01605508869161087,9.797164246305833,0.0023084006419430646,0.001825889847380311,-0.00050816862308
1687556903.2768269,0.016165896404585763,0.2809011298654869,9.911550308819566,-0.0018143227830401377,0.0007756818536591121,0.0017136110418983
1687556903.2868557,-0.14019907802253878,-0.1716146238894763,9.846944930210578,0.0020495408893000046,-0.0027216034696244972,0.0013067770069506
1687556903.296957,0.15108170060261036,0.03665964995279425,9.74606531565737,0.0007017230524654024,0.0006590997495557504,-0.0003379156386903
1687556903.306841,0.06961079650230634,0.09513832768711938,9.80533403667777,-0.0001569718476613767,0.001055102348917622,0.0012490412064404
1687556903.3168736,-0.038888396893417436,-0.05717299013617237,9.81795706739102,0.0009196517600878115,-1.4063354375523965e-05,0.0005613755511627
1687556903.3268814,0.10129941439528355,0.0004896776740730572,9.760098177434068,0.0018383186050617596,0.0014727147815348724,0.0013712952878018
1687556903.33688,0.021682697172319756,0.19803456156905871,9.86195677151658,-0.0020486667419104257,0.0016872625618108844,0.000975976583552
1687556903.3468237,0.054135938954336126,-0.09601842849304897,9.764587301514307,0.00030909194496055685,0.002305672130156348,0.0006168996642851
1687556903.356981,-0.12023540745785934,-0.11262640996267201,9.849815577813015,0.00253829678141954,-0.0004905387059069954,-0.0007752714718184
1687556903.3668523,0.009839913156239666,0.09420154729666957,9.852248806248385,0.0006029952064109553,-0.0005806907443525193,-0.0019181991501203
1687556903.3768337,0.12601529544132825,0.14006750979915883,9.791829918819953,-0.0005965189140814773,0.0006844215264951078,0.0008385290002957
1687556903.3869293,0.026197498451652458,-0.09110621190094143,9.772902404448718,0.0013536543789674452,0.0009463176362361755,1.8971130023236324e-05
1687556903.396853,0.10782401078011399,-0.05410381610494666,9.734629402008533,0.0028016498695106785,0.00294010732374505,-0.0002410646101883
1687556903.4068897,-0.14871949623901076,0.17314306432651125,9.961488939710074,-0.0014418013430653475,-0.00017537259515154545,-0.0014245751353404
1687556903.4168828,0.1451371787611129,-0.04697088622250732,9.719469839019242,0.0007620436316057347,0.0019827120836456835,-8.42289573005485e-05
1687556903.4269223,-0.21585630701880093,-0.03919890178586391,9.91951444541515,0.0012877181557314483,-0.0026579016592056027,-0.0015326197298667
1687556903.4369364,0.2580163549810526,0.1444559640270422,9.724914630892865,-0.000245641049090411,0.0019167526792681678,0.0003505061341025
1687556903.4541948,0.00782436481834377,0.044476625066511274,9.8342349484077,-0.0002717011124694252,0.0004795377084395895,0.0022846891970881
1687556903.456864,-0.2723432085516147,-0.1654943524822744,9.902372184672172,-0.0018493496012703219,0.0004281175309693811,-0.002568993395423
1687556903.4668477,0.09437460275864035,-0.0006569669149893098,9.754640428996312,-0.0005849866346336912,0.0016045626728848864,-0.0012539731378159
1687556903.4768825,-0.030461711312874222,-0.015505025222715381,9.821976482474692,0.00029194602862356095,0.0006956044116249509,-0.0011600820852867
1687556903.48686,0.06122973106135754,0.08811297158535983,9.802592446136316,0.00044914091146917943,0.0005305693462590064,0.0017721126223956
1687556903.4968512,0.15429704651525009,0.12247295969640035,9.776612396858082,-0.0014894870906376775,0.0031677032578228117,0.0020890892210923
1687556903.5069313,-0.21532185782051586,-0.07104816137193273,9.913570079262673,-0.00035214117267098855,-0.00139130503913922,0.0006775872625918
1687556903.5168457,0.04236422206891779,0.15516466527818926,9.846438048397715,-0.003207592217118865,-0.0008559759440046823,0.0008903261933051
1687556903.5269284,0.020887382664494695,-0.16255946536259527,9.753470551586648,0.0003653175443865338,-0.0005117800237876948,-6.114542879677291e-05
1687556903.536881,0.14706551683648433,0.08397107660573824,9.762717264028254,-0.0008316023267169611,0.002050481595501973,9.828430670731788e-05
1687556903.546886,0.0083370467593323,0.07609684621405866,9.839152387584441,-0.001745041133120134,0.0015613550746782574,0.0007651326323435
1687556903.5569866,0.04490684654893793,-0.014507311828514837,9.794695103039412,-0.000966826095285749,0.0019770981400677023,0.000901844965531
1687556903.5669432,-0.16800094847020705,0.07996327229541969,9.933166714325584,-0.003447111622757519,-0.0009863626713601914,-0.001553486012151
1687556903.5768788,0.10167646721450826,-0.2291943133119556,9.680734302134027,0.0017466660128807505,0.0007607789659977827,-0.0016160839276812
1687556903.5868585,0.010310291570245702,0.23651211867183577,9.890105820234126,-0.0013285513571194931,-0.00022417639151021048,0.0008020242985845
1687556903.596841,0.11906446558819012,-0.055562212182775204,9.735347524641266,-0.0005563307814120289,0.0022009938329051663,-0.0010140541980466
1687556903.606947,-0.03419480512121411,-0.013130375958285775,9.817910148822335,0.0005106458599115477,0.001079648428463343,-0.0007831108795902
1687556903.6168482,-0.05427097784932986,0.04753911462793146,9.863131694106423,0.00016416554784503938,-0.0004901369701744036,-0.0006415135266683
1687556903.6269283,-0.03759877944963018,0.12452955577214554,9.869135966455657,-0.001625089411808689,-0.0017921464517162864,0.0003795779503458
1687556903.6368706,0.060006772016142323,-0.04129496095275634,9.759908134085364,-0.0010118954706517791,-0.0004692959275847451,-0.0012357078066519
1687556903.646877,0.1397474724831426,0.1000001767272982,9.786439005960014,-0.0014444253580785343,0.0011020303725549927,0.0011060223351274
1687556903.6568737,-0.06163467392674125,-0.027576066176779775,9.834137249439326,-0.0014612142823239875,0.00012639193282533952,-0.0010427312499336
1687556903.6669035,0.15544548754172896,0.16339673813083874,9.790005667892222,-0.003056716364017264,0.0021838527251796446,0.0014409145608648
1687556903.676881,-0.013678308618713986,-0.16601302751004568,9.767490174784687,-9.587593810591977e-05,0.0019383583634306138,-0.0003416524541056
1687556903.686912,-0.006377632688312344,-0.07866593094434572,9.797791393776452,0.0011420310910501843,0.0018325685261254988,-0.0017982408443889
1687556903.6968727,-0.004734773947625135,0.1719977352799391,9.877099964696418,-0.0010659284022070787,0.0008017694864138943,-0.000400875838702
1687556903.7069342,0.12373899598907974,-0.09864105476522496,9.716712621530073,0.0011617574995896865,0.002948683712684625,-0.0008013277819804
1687556903.7168727,-0.007715064939995863,0.10304075459123543,9.858517618998654,-2.0278330743395187e-05,0.0018724400178654211,0.0001079985832371
1687556903.7269893,-0.026616630203489325,0.047467299576673644,9.84159598691818,-0.0007645759565502761,0.0011013057449882231,-0.0008292616384527
1687556903.7369108,-0.05684379554888304,0.04665216578194943,9.856572167388322,-0.0012696885709091651,-0.000506554520505516,-0.0007521697825244
1687556903.7469368,0.12696531551818374,0.08717471769594098,9.767475357769749,-0.0014958185969075226,0.0011649855467468402,0.0012393553643529
1687556903.7568982,-0.12298067782389635,-0.06354381602883162,9.863261347793308,-0.0005063858492635416,-0.0016464980202275184,-0.0001661787081933
1687556903.766872,0.1989965733583232,0.04824035353797079,9.718478182927102,-0.001450388415401097,0.0023917188731442255,-0.0008319054304114
1687556903.7769008,-0.003110026997105858,-0.18538494651249407,9.764336847834626,0.0029808668051683916,0.0018102095566569032,-0.0005569382610223
1687556903.7869933,-0.005789254477583091,0.2665863158763733,9.916828197610034,-0.001508498519617913,0.0006311521118200472,0.0011119624269236
1687556903.796888,0.10245466861461708,-0.14568765048009397,9.701528093594792,0.0014899347435813144,0.002726676839517428,0.0003516510787927
1687556903.8068762,-0.14182151321024897,-0.03109626066742524,9.875697928732476,0.0029134346117645317,-0.0009040497066040336,0.0005546404591337
1687556903.8168936,0.05553252497949473,0.21511236777259593,9.86696145126663,-0.00025194032880919323,-0.0008295311126526057,0.0019661751885474
1687556903.82697,-0.015701283423156145,-0.17637410905222148,9.761716559486832,0.0010269386698541745,9.397011614505697e-05,-0.0033185232004574
1687556903.8369703,0.0033350908233763933,0.13355861427877982,9.863164985420745,0.0013149162997907436,-0.0018804435134587485,0.0016163535201963
1687556903.847029,0.1426448835510483,0.0061156916170445426,9.73966897074051,0.001707550535341091,0.0006464338704574482,0.0017236607982818
1687556903.8569846,-0.023656343427943073,0.16974765488908475,9.88919888334018,-0.0022207784903133724,0.00020272856604987855,0.0002636968584307
1687556903.86692,0.07798090840092126,-0.04460983590695454,9.752162602264512,-0.0010402351275094707,0.0013534850477974483,-1.7178621371750783e-05
1687556903.8769045,0.004177256727988216,-0.05101779916066888,9.80249629104159,0.0015976571566330264,0.00033649454828650887,0.0017798979261466
1687556903.8869054,0.10748060149145268,-0.033175238130378586,9.741614183809814,0.0011759340850316532,0.0031267256182158937,-0.0011720304882577
1687556903.8968906,-0.18128419327863624,-0.042803245202386445,9.8925049440904,0.0023758742393587945,-0.0011480507791149102,-0.0014670553191057
1687556903.906917,0.2953324790743894,0.1766766069169463,9.723414933114285,0.0010966015108999903,0.0030224359057940183,0.0027614828159608
1687556903.916892,-0.2977614663284891,0.0003334886791892076,9.983114223098154,-0.0006307871341317058,-0.0023528115501110845,-0.0012312372254631
1687556903.926952,0.0603815387203689,-0.02772862516051519,9.764029482919955,0.00033477938042773424,-0.0012650007412237068,-0.0011910080483607
1687556903.936917,0.14089814111863755,0.07371984845747177,9.760500948358578,0.00017496587919032115,0.0007321133431164488,0.0006448211225257
1687556903.946979,-0.01195539638925807,-0.031127584425506758,9.813617469348479,0.0006454778985168508,0.00044823582938644153,-0.0003937997661954
1687556903.956984,-0.043916333691554774,0.21971563868689623,9.928980806355904,-0.0016049748274601405,-0.0023937872862502493,0.0030882337323897
1687556903.9669092,0.055402999299636276,-0.14833900674942702,9.727426654049276,0.0003593466721027732,-0.0006257401623219418,-1.9046983174132808e-06
1687556903.9768786,-0.05627314326670879,-0.06538220130473886,9.820012018912818,0.0016624816382888538,-0.0016840833544376223,-0.0015572022220543
1687556903.9869173,0.06890832284427328,0.14958579098362826,9.831423229679416,0.00021185282310870473,-0.0013927972093172147,0.0006761031418614
1687556903.9969077,0.2699396867293227,0.10210816885959507,9.702937559660553,-2.4333561734611153e-05,0.002801141374336971,0.0038094353822567
1687556904.0069096,-0.11351652051518007,-0.1815488554583333,9.810206504722485,0.0022380299985714164,0.0013531265730433255,-0.000214233323229
1687556904.0170057,-0.05248858347117831,0.10986762847156167,9.883399749426578,0.0004998361374046637,-0.00033258633496989845,5.397616955869918e-05
1687556904.0269344,0.11947769083956775,0.06073717933546518,9.773949633645284,-0.000944090539427401,0.0019469266086099353,-0.0010691754559478
1687556904.0437644,-0.078183607869526,-0.0713257258855762,9.8402990370333,0.0018513539404854105,-0.0017157626637385205,-0.0012852560302666
1687556904.0469005,0.4370622342175536,0.20720669432950503,9.639813157828625,0.0008257755041814489,0.0009027491982522279,-0.0009492164517245
1687556904.0569344,0.006242329413999263,0.23168971108334932,9.891225131573432,-0.002075855805512242,-0.00040634553580640864,0.0017996521219652
1687556904.0669231,0.09505404923825474,-0.14050367984025655,9.720406722845647,0.0001816584369688714,0.0018888318310360244,-0.0004067947429097
1687556904.0768943,-0.03409294031622514,-0.09818667247432929,9.808020452574087,0.0028165884548799537,0.0005942778597669683,-0.0007003535556099
1687556904.0869217,0.18491350979733984,0.21923213928941174,9.781604232663238,-0.0018582870956639368,0.00435422167474306,-0.0012196520382962
1687556904.0969408,-0.10208496085528346,-0.03334590920330651,9.853623254983308,-0.0006274473635304916,0.0018407613319573611,-0.0006511960218153
1687556904.107007,0.026457257582557424,-0.016324690039464813,9.786163936392315,0.0009878115118060542,0.0015736648649282861,0.0006467053627171
1687556904.1169748,-0.10167546425379723,0.14768279516099855,9.913735012063265,-0.0033241868264697405,-0.0001071833573491113,-0.0023391336707822
1687556904.1269832,0.048104452930625395,-0.1120608426932196,9.747397968968349,0.0005839923640444898,-0.00013439275153309655,-0.0005364896769127
1687556904.136902,-0.025662760243219267,-0.05079579269075447,9.80674850885249,0.002623606725914698,-0.0011417255101302901,-6.264439248061652e-05
1687556904.146925,0.07336436199116318,0.12251224433852685,9.82751713732748,0.00040780600533111986,-0.00012134795092607382,6.032720744096761e-05
1687556904.156916,0.06354750968098194,-0.05681375381613766,9.750814401051148,0.0017973129584801955,0.0011139403459797443,-0.0006713691672734
1687556904.1669476,0.018262419711761926,0.1116326595965147,9.85070992695717,0.0006715209854484658,0.0004739741619969018,0.0007692347008311
1687556904.176935,-0.047792142959366686,0.08140578285552276,9.869102680063069,-0.0010126379063044642,-0.0008652878854400591,4.616528354072099e-05
1687556904.1869085,0.12423899903357122,-0.15736530436814167,9.695098648902379,0.0018814976446625959,0.0016865451622629839,-0.0017863103693774
1687556904.196911,-0.03499396577346117,0.1101977177689601,9.871331972035769,0.000145542952790732,0.0004694705201105469,-0.0014897772616199
1687556904.206902,0.03146113334473164,0.001623934029229588,9.79299979072876,0.00030647530099390104,0.000717569227440757,-0.0021130222866735
1687556904.2169085,-0.08966547102764778,-0.023394836096897867,9.846912066951985,0.0022630029244993465,-0.0018845572105749724,-0.0007566459516487
1687556904.2269666,0.09003826183515289,0.07549985795254588,9.796974892362744,0.0016960153445309658,-0.0008217242543696856,0.0003982160433703
1687556904.23694,0.1443246273329654,0.13967677584225457,9.782565660530476,-0.0016451839269839956,0.00220321913279528,-0.0011407357214442
1687556904.2469928,-0.027908119332396224,-0.19956146021043564,9.764333710216103,0.0017995899554728314,0.0020240315659071644,-0.0039074822834185
1687556904.2569413,-0.055000226409998146,0.15011820397598852,9.891447305337449,0.0019131956662620673,-0.0012937017771492622,0.0010002413201187
1687556904.266901,-0.01485491341185989,0.09008831316129311,9.859563820101497,0.0003418649406766321,-0.001988830128039185,0.0004850019195624
1687556904.2769065,0.10329751567651191,0.03923073772036246,9.781223911048091,-0.0013214981376815144,0.0003897468117818021,-0.0015683832152239
1687556904.286965,0.1417000660590318,0.023126720529090587,9.761049051623464,0.0013547733107520683,0.0011415060870391487,0.0032328070101835
1687556904.296934,-0.035969004463005494,-0.0023660103783957167,9.832843899037394,0.0008213061384739914,0.0005324392654094609,0.0015884388431482
1687556904.3070245,0.048006755493509405,0.16674135869048234,9.848631427318344,-0.0017826958403671345,0.0006717558843129785,0.0026631663513877
1687556904.316917,-0.1519063943800004,0.0017233384542268428,9.894835356375387,-0.00312229683195392,-0.0017675936893928284,-0.0010215122292242
1687556904.3269615,0.1521066756856896,-0.06767860446300047,9.716315535115589,-9.509795137089687e-05,0.00027761882816072433,0.0010393442371901
1687556904.336964,0.06556528155294712,-0.09279681747482407,9.748451232706895,0.00106233518007032,0.0018616358235217455,-0.0011056781785986
1687556904.353755,-0.033504987590464747,0.11456630681642356,9.876682802946085,-0.0016023795106577358,-0.0005117957226275166,2.193180448793893e-05
1687556904.356921,0.006292229251927356,-0.4421798926525627,9.649538722564094,0.0014900153134452016,-0.0005237106575264162,-8.050040737307544e-05
1687556904.366971,0.1147149642051341,0.22115756919155305,9.834935808249753,-0.0011892286816892548,0.0002873142524174199,0.0025540212828242
1687556904.3769436,0.04718827827896472,-0.13865897321316165,9.733937353043357,2.780300314191453e-05,0.0021570229875959596,-0.001595965730255
1687556904.3869846,-0.018660749778110594,0.10169928440450045,9.855806915024791,-0.0005067333940842558,0.000717584298986064,0.0006124166848645
1687556904.3969204,0.011333792054172703,0.03610887077453613,9.823367591866408,-0.0016951042668792533,0.0009180001337806509,-0.0005741113836369
1687556904.406958,-0.07741023077829917,-0.062360329628581755,9.813321142496912,0.00024314472984013788,-0.001016915044126907,0.0005557760323905
1687556904.4169354,-0.29208826885232647,0.11523420530157229,9.839346968927003,-0.0008248466490825653,-0.007615545887830662,0.0076360486873933
1687556904.4269702,0.3214811456886568,0.1404975024475507,9.867086628506865,-0.0015979355700908241,-0.009150358229037536,0.0124629198999651
1687556904.4370162,0.7397942428598121,-0.05912353162708678,9.696394474944757,-0.0006968763458716137,-0.0005319032517320314,0.0128231545405038
1687556904.4470077,1.1412409601657683,0.4369508104995095,9.773053222693687,-0.005983855540566337,0.013154562719457226,0.0285568361596711
1687556904.456941,0.516668765939104,-0.011733319709717435,9.564996841429908,-0.0025412529679900136,0.02184430600819237,0.0501236294822343
1687556904.4669282,-0.8814497449006781,-0.17690173686900215,9.940371526842975,0.0016967892956007496,0.01171705317920121,0.0679241841153749
1687556904.477152,-1.1708464819728626,0.10468183879947704,9.983340804697015,0.0021206516022027173,-0.004229560717773945,0.0843859141187318
1687556904.486945,-0.947504924259785,0.3469149507844942,10.038639674834958,-0.0016206650880811707,-0.01891940124323555,0.0930078153924592
1687556904.4970438,0.1626794288140061,-0.19908993705691871,9.704228813038071,0.004009034489315064,-0.017543710171578766,0.0963300143794664
1687556904.506992,0.6804373734942875,-0.02462352901031746,9.721961034183623,0.003283834936863955,-0.008562389691932074,0.0937123571948655
1687556904.51695,0.9149210071514534,-0.2559265114570111,9.596812820242384,0.010827415470618412,0.004450845129914052,0.0907913198189386
1687556904.5269418,0.2315808494358743,-0.3514704720875207,9.690492350955935,0.020726727099169014,0.009039968507334408,0.093202975900615
1687556904.5370576,-0.2893396553268691,0.9858206376077857,9.814093132793708,0.024420576921221196,0.0037594943295462028,0.1115801309661515
1687556904.546944,-0.38848830688240693,2.4473823408976463,10.104996681800333,-0.0005044637623433832,-0.0025064078515658153,0.1197098915891298
1687556904.557588,-0.744533468395289,2.139467926532441,10.365254140363602,-0.02802837588256642,-0.01721070580426636,0.1343642448501237
1687556904.5669503,0.5273047321306276,-0.1551285832165103,10.002706608664425,-0.027874630834919735,-0.017381939296182074,0.1530597185210832
1687556904.5770109,0.7720145316987278,-1.1922864459419815,9.615989755013995,-0.009849308511361654,-0.01158038978045951,0.1673642521218904
1687556904.586937,1.2363979691069928,-1.5099728278252695,9.353070710422285,0.014439797175998307,0.0011793741591042569,0.1863774930553087
1687556904.5969868,0.5345132525927002,0.7812804373700911,9.606375523370051,0.011602144291994089,0.004893847532150304,0.2014746343211778
1687556904.6070223,0.4620222437417446,1.4981795939183846,10.03179130589866,-0.006406503687376967,0.006307920407548213,0.2172858690337785
1687556904.617061,-0.39302081934733923,0.9038254191005348,10.079102916156389,-0.02041890146703538,-0.0013956339900296382,0.2171904419974931
1687556904.6270237,-0.11644886918866656,-0.568400600549299,10.120157959043397,-0.015625374929372913,-0.00838967860030407,0.2150432591752656
1687556904.6370862,0.4706371643748804,-0.7479393485566823,9.636647804457418,-0.0067294662043346515,-0.004971444333160638,0.2109170233325609
1687556904.6470077,0.6137766563078928,-0.8520116214594269,9.608127529294558,0.005836605149064346,0.0003367688953429371,0.2058778082446702
1687556904.6570213,0.5721204537490876,0.22919117095385308,9.561564546757426,0.00289511393112397,0.007758184770938393,0.2020347838716157
1687556904.6669877,0.2109339518689225,0.4678698350683464,9.6859890578587,-0.0034640426173374135,0.009724099513075903,0.1971025740222581
1687556904.6770356,-0.13032414260206684,0.4308721032590546,9.910144514897357,-0.01168160034624012,0.005749266533059094,0.1969449197368272
1687556904.686955,-0.20383438211694216,-0.5022281092699907,9.844739098885656,-0.010807492490669016,0.003937149815663496,0.191187379272426
1687556904.6969795,-0.047168326733580415,-0.7336224109868006,9.871204969404802,-0.004038277165942588,0.0010031372883777614,0.1933238332585939
1687556904.7070675,-0.0029427972399303187,-1.0574966710183322,9.647089329338481,0.009010726845899812,0.0014878193772278274,0.1896719311790117
1687556904.716964,0.17100429684451107,-0.09901658896607336,9.792643829453379,0.009925720697639607,0.0038858675388257166,0.1918494527654298
1687556904.7270186,-0.061393527923928215,0.36747252173179357,9.909268908415186,0.005057527913204667,0.001323781561249911,0.1968420421199449
1687556904.7370007,0.17066606622581276,0.16890822922993343,9.65180957230237,0.005055131994542876,0.004165938702726932,0.2004544412212022
1687556904.7469728,-0.1225228432008618,0.20552871323118158,9.946183976496615,0.0006415845661722729,0.001126926435098924,0.2025383686141618
1687556904.756967,0.27811513904094104,-0.10883923432696004,9.69198823586997,0.0013651555679439378,0.007506723615909411,0.2006187414245256
1687556904.7669697,0.12032109922643885,-0.2705892703455613,9.702206938417966,0.0045089450864891755,0.01214233046875731,0.2015514200048097
1687556904.7771294,-0.45660633810727647,0.022144833825648153,9.771774950498415,0.003324050162250936,0.01029525947667773,0.1983786647634157
1687556904.7869692,-0.505582849857566,-0.21938778454154867,9.855297781622927,0.004285140792200838,0.0072397304954349585,0.1929379229859956
1687556904.7969675,-0.7266261798954089,0.22975457297455745,9.94278234733182,0.001210362482344717,-1.79841494795945e-05,0.1942849581555971
1687556904.8070245,-0.4306541327220587,-0.5719178304957175,9.777307904482402,0.00900942443279016,-0.0036168461542976154,0.1901145403699525
1687556904.8170223,-0.16057718666507545,0.0792973131408893,9.725987650919274,0.010326483881101514,-0.0035516860514732767,0.1922383283691057
1687556904.8269718,-0.025672231439690673,0.226568976932952,9.835183261906444,0.010332661322683066,-0.004245685265944924,0.1964278494434007
1687556904.8369894,-0.06591009207496544,0.4254177362542864,9.78718871436211,0.0063879588584362995,-0.003712537308323544,0.1961856906728395
1687556904.8470051,0.11878968207898585,0.3996644719996737,9.71310228928713,0.004254016159051014,-0.0003691054054297391,0.1952312861995347
1687556904.8569834,0.1589074282485446,0.5759197252597372,9.762326221147182,-0.0005478525367213458,0.002176103793934962,0.1979894613341936
1687556904.866999,-0.05281001728002107,0.12034930000565144,9.807417124493627,0.0009057366664773948,0.0015540554174960453,0.1987814282493242
1687556904.877066,-0.11841325176491216,0.23685919362605082,9.912532692898361,-0.002031525855223293,-0.0012343403142748201,0.1980601971463808
1687556904.8870564,0.009115052124097665,0.0073750898240122695,9.824617514531871,-0.0010545397494868592,-0.0005431782098356283,0.198173833401645
1687556904.897082,-0.1075784702452554,0.009197497938811437,9.919184088149732,-0.0011865152388658934,-0.0023634245578565485,0.1993297760800966
1687556904.9070184,0.10800284634331477,-0.06526855807533768,9.736243019811821,0.0013166002275696606,-0.0008639323346022159,0.2003419374541887
1687556904.9170053,-0.07527743780077524,-0.1808346704264427,9.833314510505904,0.004903739171294328,-0.003096911995716589,0.2006087427453645
1687556904.9270456,0.1097805683058819,0.08771951249712834,9.725180335724154,0.0027047909116109554,-0.0014420231575519207,0.1996516262607225
1687556904.9371889,0.14350034930993374,-0.04637571429645222,9.74905831607819,0.0034195926163428413,-3.3323689151052996e-05,0.1998610173778184
1687556904.946987,0.04044554180795241,0.08543527641840294,9.746186859955674,0.003506982067865528,-0.0006331530537247085,0.2024135713891633
1687556904.957013,0.16084236545428648,0.3623836044104918,9.908693777857332,-0.001907079645593107,-0.00019464172972486794,0.2032145237044939
1687556904.9670622,0.011441072182983835,-0.03642763879574494,9.88211255239116,-0.001058561739778072,0.0001207431329010968,0.1988164608792909
1687556904.9770098,0.09165791591060478,0.18622114963754594,9.969183499178989,-0.0017268497532017932,-0.0008631093216875186,0.1968070094899782
1687556904.987028,0.18633902170182765,0.23722946218359817,9.884875620705962,-0.004746657421952548,0.0025853567695099146,0.1932460939006456
1687556904.9970286,0.012789244234862766,0.2350624018997289,9.989952547381064,-0.0066380761636802565,0.0005355980752159302,0.1929424678401597
1687556905.0070956,0.38073701206804184,-0.046485427998264744,9.916944847678476,-0.006729316649550816,0.003949005663634627,0.1925400321797975
1687556905.0171175,0.3342917041731063,-0.14088404589224038,9.833825996383368,-0.004021379708308719,0.00696712709955238,0.1935934846715578
1687556905.0270514,0.38772720752602546,-0.14820860897761431,9.718460970131913,-0.00014976141537299272,0.010305640093249222,0.1958924060182222
1687556905.037069,0.1293014850674308,0.4754013273437673,9.727028355378614,-0.00530220640731717,0.012739136917994748,0.1994870578364976
1687556905.0471115,-0.05665091680546544,0.3713025440640703,9.863117955172802,-0.011005579405277665,0.010326505508322979,0.2026827012614854
1687556905.057042,-0.24143771213859763,-0.008567483627991116,9.754115298012453,-0.012305613398591535,0.007473577890446098,0.2017668758945116
1687556905.0670197,-0.2684915446310916,-0.7836452994267183,9.764429300880119,-0.0020317136763384263,0.0027961255321221697,0.2005344753579744
1687556905.077002,0.004449829226599661,-0.435799877065801,9.692570015874255,0.0028033734555768406,0.0030501542663808274,0.1986141329126008
1687556905.0870175,0.10312906345285823,-0.1190017301286917,9.777858398828311,0.0026117418769847013,0.005626509580262697,0.1959449773149141
1687556905.0970318,-0.027470888627411223,-0.026286203672723447,9.733154453073391,0.003626239862682524,0.0058309115004209185,0.1955296223477968
1687556905.107015,-0.04997957981029389,0.2889951338378781,9.857373564197964,-0.0007567869320130819,0.005808155109748372,0.1937892859296449
1687556905.11703,-0.23967711592613766,0.05118857169721336,9.92623131254019,-0.002014859236286892,0.0019609280647835997,0.1934918885545381
1687556905.1270802,0.05816059445857981,-0.14168063474212328,9.737903401330263,-0.0008944948918570588,0.0038939743947625947,0.1924730067567476
1687556905.1370285,-0.0743169170894063,-0.27977254690346853,9.79774967261611,0.0024332199675320704,0.0027102116968450132,0.1927356546239503
1687556905.1470876,0.08326862298083482,-0.12396422554134676,9.736612223261398,0.005924669813631182,0.0023676181201633824,0.1964453583078035
1687556905.1570709,0.019331521394045013,0.06411214328886805,9.760120029296827,0.003939098595315951,0.0046003399802921245,0.195210707695926
1687556905.1672144,-0.0413910137731259,0.23945911263903927,9.801367946498617,0.002052106180646857,0.0032586609617828886,0.1983082716779359
1687556905.1770072,-0.1021211225028977,0.06428780160589341,9.823135979490072,0.001945032750889244,0.0016686993276842305,0.1984960263089784
1687556905.1870935,-0.039440949551123546,0.14695131729786612,9.832929141247787,0.0003237052421129499,0.0008462321853374059,0.2005956297235139
1687556905.1970935,0.0490852699851286,-0.19355202325079846,9.722824723115126,0.003112550854860439,0.0021009129345338764,0.1978761678056367
1687556905.2070763,-0.05481216041973451,0.06689156535661332,9.829566223085772,0.003144490319178409,0.001139728517636729,0.1977417146281846
1687556905.217039,0.008788566906685343,0.19758538518466756,9.800036605753334,0.001912574293095536,9.063763294964133e-05,0.1979577963666566
1687556905.227017,0.04715058866703732,0.03936262051059375,9.700211899404316,0.002791364064594333,0.0016411544487269693,0.1953776454047807
1687556905.2384431,0.028983238321153612,0.3830158413221258,9.880251903189972,-0.003744693269021602,0.00107018048711623,0.1942276780919679
1687556905.2470202,-0.04744103850879477,-0.0002236948395117559,9.803846894708508,-0.002537124808710809,0.0005836789393168581,0.1961260115222581
1687556905.257033,-0.25176932240868827,-0.30818881580891133,9.900090806327798,0.0008210172690291867,-0.0014255340842719737,0.193221447380031
1687556905.2670302,-0.17523849636106395,-0.23234761794892242,9.930875167284924,0.004737148877041985,-0.005389986592081967,0.1940238302068361
1687556905.2770064,0.09504610240415505,-0.11671694768352155,10.020590378432125,0.00332122763365204,-0.004913193470852749,0.1875016813592561
1687556905.2870977,0.531531575258175,0.3548151068463774,9.638421161988237,-0.000990563711347843,0.006389163802866941,0.1892871682958253
1687556905.2970276,0.2846282296168616,0.1817910630128769,9.768967776712524,-0.005938719103294793,0.014073926300668853,0.1903939967469819
1687556905.3070755,-0.4389198887102086,0.06706496122172113,9.77708285490079,-0.007861307891628661,0.013720284978808124,0.1908790146426805
1687556905.3170407,-0.7910191303561509,-0.6411503254963209,9.966693710896449,-0.0049937247297834044,0.006183386770483497,0.1876919840888627
1687556905.3270378,-0.6806670329046842,-0.8633937475500678,9.730980870866032,0.003980572094846745,0.002729322816823692,0.1843283598737367
1687556905.3371482,-0.8137155132352133,-0.4702991305915692,9.989308220296717,0.0088544126081767,-0.007590038286083,0.1846730982379564
1687556905.3470027,-0.33429556196980187,0.0030717641973891196,9.732847095005129,0.009448574690833924,-0.009933930226237514,0.1845292573289522
1687556905.357031,-0.1569401602968388,0.21873394447886246,9.778525036143938,0.010946295873204752,-0.01129364556931106,0.1877630924300798
1687556905.3673322,0.245997314690957,0.9374646325513128,9.818899759309977,0.0009016064957809018,-0.008014353190758022,0.1937500511722215
1687556905.3772054,0.2750658166123016,0.40394647308147846,9.761285184261741,-0.0013357364935265713,-0.0030322463372731015,0.1928657268600114
1687556905.3870344,0.2878443496233695,0.35732868671207335,9.83445048395956,-0.0022257813241971973,0.0001376169976150804,0.1971668725328096
1687556905.3970864,0.0920196089292924,0.40106745256935006,9.913192879540118,-0.0057710672195504,0.0009690104281136412,0.1978195582942613
1687556905.4070482,0.08167927739243594,0.021072493125776824,9.808920120203807,-0.0035687374672926076,0.0022622431158977464,0.1976425623016008
1687556905.417033,-0.2421505643214084,0.14726866159616134,9.9193228807085,-0.004139884183140418,-0.0027859110993099226,0.1972216492013582
1687556905.4270146,0.16085345516533814,0.17931119643128246,9.760116718205929,-0.005549388515955375,-0.0013809032098654871,0.2004331772641786
1687556905.4371076,0.1344146078862763,-0.06049766898125985,9.705117742647179,-0.0028475366307277026,-0.00032674278646518994,0.2031966274099
1687556905.4473238,0.297061182276481,0.05591900183040812,9.70306862208407,-0.004405131230424638,0.0036537588261894927,0.2041327630595811
1687556905.4571445,0.12558885747486775,-0.06255956149354192,9.713552767469455,-0.004279146374878749,0.0067392541332779825,0.2040284102277406
1687556905.4670377,-0.20412413900332155,-0.22176950325819283,9.883809470074471,0.0006410204868070183,0.001100816805222597,0.2054388498382219
1687556905.4770737,0.06654075123917583,0.027529508231184763,9.81267200349852,-0.001576431398258233,0.002873356199093548,0.2030483608560213
1687556905.4871757,-0.19026068315114386,-0.196249718276106,9.870140540882108,0.00036677323416982067,0.0003533526444083548,0.1999999111013063
1687556905.497059,0.032010689079523376,-0.0017993136097068986,9.824893174603174,-0.0016849104886968618,0.0007035666304845016,0.1985776399688371
1687556905.507059,0.13188320752495175,0.0035273365022756983,9.703143422422544,-0.0012656379129060461,0.0027366090675355875,0.2018186723308214
1687556905.517097,-0.07763519932846628,-0.21539389685962704,9.75987870924162,0.0022975539721500566,0.0005178384149811934,0.2023770635442384
1687556905.527079,0.09202226030776689,0.11324997877242278,9.691976051787215,0.0013782413549211143,0.0020643557839792603,0.203135130317653
1687556905.5436013,-0.012341928050362794,0.14078382386644864,9.78726492526282,-0.002247028866356996,0.002045885953586338,0.2030908589677461
1687556905.5470872,-0.14240213582572764,0.08538997782104595,9.822893920929793,-0.002165980052247435,0.000992460219586035,0.203131434829677
1687556905.557145,0.07009016546091681,0.19132133298182413,9.801743944462615,-0.005243923725164732,0.0023668527384636587,0.2017452692107805
1687556905.5670283,-0.0998800130462101,-0.05350754597179568,9.832312566217903,-0.004438608883591102,0.001848515655002678,0.198893186958278
1687556905.5770288,-0.13610293134126808,-0.07275678094900224,9.895992046388649,-0.0033124360166163005,0.0002135986274665472,0.1984558378772386
1687556905.5870805,-0.3043003408112777,-0.14866011000621174,9.932431096691241,-0.0028366151396032545,-0.0033930719265820282,0.1947707658128389
1687556905.5970592,-0.09666309388846273,-0.2134894700783235,9.806254332473213,0.002512414589504402,-0.00565257749854409,0.1946634923534044
1687556905.607069,0.06751577612769455,0.23940462947849006,9.814222489950351,-0.0010279477973457213,-0.004760466945389544,0.1968681042508729
1687556905.6170335,0.7487537932710299,0.24227394940877814,9.826373385358885,-0.003233983136622479,0.0040695113161652845,0.1953873162583955
1687556905.627078,0.9718607397995891,0.6538460211007028,9.49161533401251,-0.013113007303186035,0.027339647389469018,0.1909587805585512
1687556905.63739,-0.25592455786981383,-0.06791083265532666,9.733153298122943,-0.020005984718658824,0.038620730131465726,0.1876262997703203
1687556905.6470935,-1.7585862005209645,-0.5018312755577944,9.739268602710965,-0.020053468267168056,0.03197762098186947,0.1771429007367738
1687556905.6571493,-2.7673245532313087,-1.187803748242508,10.068158630848078,-0.01674595086050901,0.01029728958772727,0.1690981959418901
1687556905.6670375,-2.710249526436989,-2.4010551555823563,10.117846401684401,0.0019351178768527374,-0.01517247806163367,0.1587337230758317
1687556905.6770592,-1.2614113407583785,-2.5414781842370817,9.780436330575695,0.03562215619668934,-0.02507696886086529,0.1587679361419328
1687556905.687136,-0.1804571287496869,-0.6342300546282222,9.660207725241204,0.049163418689384134,-0.020826097300576885,0.1611622100190767
1687556905.6971264,0.22431734096867856,1.336303365488407,9.82212862676095,0.04140620074690872,-0.011931648296024926,0.1694641386584886
1687556905.707167,0.04899630962515874,2.3202605364090716,10.019115591310374,0.015958667380781666,-0.007406717922152401,0.1768978064374574
1687556905.7171826,0.09909223917359408,1.777521832631946,9.90119832441206,-0.0019041654084856112,-0.006385092351232873,0.1853468989448198
1687556905.7270975,0.16773802695404777,0.6513114424722618,9.820157962604087,-0.006168466263269492,-0.0069368531534162396,0.1935254310683855
1687556905.7370622,0.31722956479351405,-0.3164654119307892,9.51830320243191,0.0040701468329759445,-0.004691069186836623,0.1933406268672594
1687556905.7470658,0.6863130076565546,0.07662703773912653,9.589171328409002,0.00859359752223773,0.002611205636874967,0.1923367952422746
1687556905.7570791,0.33212050244683294,1.0351360616793701,9.859167996294824,0.0027005610108283527,0.00393527691487969,0.1978538607673295
1687556905.7671432,0.26210742656141134,1.1912378369203547,9.972991293767054,-0.01049005103653952,0.005282768354670536,0.1956582044677385
1687556905.777073,0.1904456860123366,0.8954057044903142,9.859556642784458,-0.020487946166041122,0.006389182845327562,0.1984130566434511
1687556905.7871263,0.09294265895281557,0.12218630236312633,9.828904414233175,-0.02367332210624284,0.005466892631920832,0.1994530384854921
1687556905.7971196,0.1958186010579424,-0.608045809396336,9.564709715398564,-0.01893877361068213,0.010121620498818382,0.2016019200400957
1687556905.807136,-1.0040536293551345,-1.0650931527249439,10.065371579842546,-0.0067607605137775485,-0.004090902437795899,0.2002772068099626
1687556905.8170676,-0.6639925135531791,-1.0386300246431324,9.959222115968169,0.0031520448784559613,-0.01365221925185875,0.1961223756389268
1687556905.827087,-0.3146113014237611,-0.8389677268138795,9.948721108289854,0.009909301559690746,-0.016850974921043753,0.1880017047242769
1687556905.837064,0.5051693695511967,-0.43275172118242383,9.91869387101241,0.01312218699818987,-0.012453717546075462,0.1884168063716539
1687556905.847085,0.8004228391392572,0.08170385306578581,9.475211920069816,0.012311684416870522,0.0007145728889897235,0.1878798579291948
1687556905.8570905,0.26288730871038535,0.6371097379380578,9.87524309024469,0.003191856101258892,0.0019745927419077243,0.1950349634008058
1687556905.8682642,-0.08633634963936963,0.2931257091553584,9.688965594299216,-0.0026270962753736408,0.0010229921737510393,0.197022003443683
1687556905.8770585,-0.24089225061224523,-0.14537248403255534,9.845690645058484,-0.003603972725078657,-0.003328674520198558,0.1980404978112825
1687556905.887082,-0.007165991529546134,-0.5567029440600285,9.693251836540483,0.004302417440754229,-0.004222898998652261,0.2018644337968477
1687556905.8971093,0.026346007732343853,-0.6591340982068156,9.775288932552739,0.012000684961057039,-0.004506782478593641,0.1948427980260499
1687556905.9070475,0.26857992151740917,0.13106032706569823,9.823394227557348,0.013115849094307066,-0.0011271421439195807,0.1966696058826097
1687556905.9170623,0.05704663494030893,0.5183119443944317,9.984079874155052,0.008338087410106661,-0.0016376544019730186,0.1953698818997987
1687556905.9270985,0.21520308138554883,0.524280716590604,9.920815276821802,-1.1293473899788154e-06,0.002595673049499114,0.1934829478578218
1687556905.937089,0.03153116056981153,0.06692383908273283,9.778801390996477,-9.367156309345116e-05,0.0032791764950394417,0.1949052785949357
1687556905.947075,0.1333657891136343,-0.06733016684588677,9.74962711593966,2.830123502097552e-05,0.004711218456309756,0.1950226103381761
1687556905.957084,0.0052368463918761815,-0.01495727460521384,9.60675693848597,0.003499716778697315,0.004471607682798867,0.200367254527057
1687556905.9670827,-0.0013861398349683596,0.34388653020389803,9.77819536198355,-0.0006057273393808647,0.003328564103708034,0.2027290736751207
1687556905.977264,0.0005938832286442825,0.2766500592409856,9.603005546504905,-0.0024577177106089314,0.005331436838212139,0.2020847027616151
1687556905.9873266,-0.08335282845324835,0.5008892956032761,9.863583133790808,-0.007159507456436527,0.002847548870857114,0.2044476096944459
1687556905.9973629,-0.10723123645456378,0.21576720539643687,9.810670934846263,-0.01133714414303522,0.0039832297855161404,0.2007729684428819
1687556906.0071027,-0.45141273305507396,-0.33069854882344546,9.936537913904623,-0.007096683413345263,-0.00041736406505694175,0.1967988287524827
1687556906.0170703,-0.5248266269838932,-0.2040137561671242,10.033717677584075,-0.004564765916282095,-0.00742319439388378,0.1963585143403657
1687556906.027096,-0.21049545941570194,-0.4123008748656915,9.79408927773891,-1.527999667145389e-05,-0.007444100757762852,0.1899003212766298
1687556906.0370936,-0.2644592833069443,-0.20214130819231507,9.857150433757182,0.0027882923294704396,-0.010730267351080713,0.1874334787444719
1687556906.0470922,-0.05791656713464187,0.2838078403903055,9.736488256273624,0.00113384124600473,-0.011932654819954154,0.1899673317985185
1687556906.0571444,0.2852673998861046,0.6857584755873489,9.751068065115602,-0.0077932329502822485,-0.008359645015722348,0.1973206823186525
1687556906.0671835,0.33980789415383766,-0.24897102059425824,9.692610766522828,-0.004018070429190342,-0.003934399556088132,0.2009261076764711
1687556906.0771213,0.5203488428425012,-0.8813373957991679,9.81052998002137,0.009837046825052674,0.001023974266177457,0.200906035812343
1687556906.0870936,0.48540174719126317,-0.025065116254038223,9.837400001295414,0.011302850422212322,0.008173862865932495,0.2021167253570207
1687556906.097074,0.23115653012851237,0.18024932322543447,9.908182448380638,0.011876122636141925,0.011208804376620076,0.2003901278094896
1687556906.1070857,-0.0776498840277823,0.664722387730784,10.08716885294315,0.0015501358807625291,0.009051508861291418,0.1998405878858217
1687556906.1174214,0.06273886511042982,0.2903717466682758,9.838486055661814,-0.002269004920889624,0.008511182621967569,0.2009797667579301
1687556906.127156,0.024350551847215025,-0.11093550812257423,9.855514369361684,-0.0019426006968574505,0.005618557038634499,0.203594816239322
1687556906.1372013,0.2436012303416887,-0.38676325023949887,9.474499852003323,0.003786767305420591,0.008979378275054087,0.2061701541261323
1687556906.154268,0.06951934682122173,-0.09461345363951332,9.704001350474323,0.005587619001991201,0.007475336211314573,0.2064995591954835
1687556906.1634638,0.015063454913233555,0.21589373439253104,9.594250283595924,0.0034195502088551497,0.009279479236475104,0.2054467474536546
1687556906.1670828,-0.6833827878997218,0.3726017087100986,10.160089957518421,-0.00010670828167589639,0.00523405933181182,0.2013004546479829
1687556906.1770864,-0.110273601052226,0.2783896567518545,9.810774954745847,-0.0039347335194857315,0.004199109977838677,0.1982825969771989
1687556906.187085,-0.02561830529657262,0.1157674122733858,9.883647274665567,-0.004600557233471838,0.0023632418454275017,0.1976124172525056
1687556906.1970978,0.038674296438740194,0.04897499356842197,9.832975307157332,-0.007757383961780002,0.0033772886870554867,0.1930448537187227
1687556906.207073,-0.012739972062142639,0.06277419587562909,9.79311772647509,-0.006795465647083815,0.0028768948798784466,0.1944369798020967
1687556906.217102,-0.33271812507961096,-0.023399384264998487,9.907305609268988,-0.008979620877907293,0.0017613234301320916,0.1941789661960252
1687556906.2271194,-0.9132379423394195,-0.40333097634553855,10.143392351040104,-0.005605938129427887,-0.011318494337602653,0.1915980403737672
1687556906.237174,-0.07467966997037084,-1.0316107453360561,10.038452112888722,0.005477241075107877,-0.014847382135717862,0.1912617956714281
1687556906.248147,0.40170600484350594,-0.6376402218385849,9.650743276736803,0.016089527003547363,-0.008617566841408204,0.1913219665603288
1687556906.2578638,0.8034717362909364,0.36477872792143856,9.597271189691003,0.013502226146531193,0.0019610851904234947,0.1962092047052034
1687556906.2695758,0.008123456606669436,0.8283868898356108,9.711704327113152,0.0007853799215437237,0.003509235061386399,0.1953899835662492
1687556906.277948,-0.04625044503634826,0.7974493598659798,9.906206990256816,-0.007702777274354071,0.0003996284404689513,0.2022008722142824
1687556906.2872834,-0.18563822557152643,-0.05181386477526667,9.777239617048886,-0.00926157914876032,-0.002665060178486683,0.2032517915086397
1687556906.2970653,-0.05525446434195619,-0.8712723046892906,9.764513563185455,0.0027957726968443164,-0.005284419810607013,0.2046137874440797
1687556906.3070858,-0.505652446147249,-0.6249560692660724,9.674938917032177,0.009360857666516273,-0.009780316716561073,0.2013446663932451
1687556906.3171003,-0.8105598906384038,-1.1765546900055353,9.898881089225004,0.027962971236199053,-0.027453085508341194,0.1935800438241609
1687556906.3271818,-0.01499729213250707,0.6415375048223286,9.924974931034422,0.02658069018857865,-0.03834241819259501,0.1918682431296953
1687556906.332296,2.090635718558857,1.1922155443328886,9.827987968874027,0.021422670196988604,-0.029991515672998115,0.195541707189525
1687556906.3461514,1.9320406008611033,1.260470240487896,9.757183893465672,0.01172279743307322,-0.011013303306640758,0.1946278785781511
1687556906.356145,2.5499703375543117,1.3451637401159713,9.686542865650782,0.0002575907547998226,0.013793476812432162,0.1939928804950365
1687556906.3661304,1.7251024017783014,1.8136454873755692,9.771362747491137,-0.020317407536439767,0.03079570860435666,0.1984575366096147
1687556906.376129,0.6827904887216317,0.6651030515961526,10.060249548062078,-0.028589906741452786,0.032334838768126026,0.1989207988099702
1687556906.3861232,0.15822339714496306,-0.10566008625523006,9.83314226794034,-0.03134338139058284,0.03124406273685006,0.1976582979278215
1687556906.396234,-0.23578637790000592,-1.014537247096631,9.813091188936408,-0.02064085971390821,0.02382234801220271,0.1947725241498598
1687556906.406111,-0.3289508610617742,-1.0736923815122907,9.745463640213412,-0.012019624416145992,0.017886189716675303,0.1913080935792573
1687556906.41611,-0.19467399621009482,-0.5766319265572162,9.67605213412319,-0.007962348834338114,0.014733219082519476,0.1917592113332399
1687556906.4263008,-0.23982544451834417,-0.4495307231170745,9.686408632480262,-0.006447067716782482,0.012553351790172407,0.1895937745885499
1687556906.4364586,-0.9341989986737088,-0.14057189492717193,9.711203684393007,-0.009875115591740945,0.00391184266752153,0.187900704653705
1687556906.446724,-1.0778880768889412,-0.7040876594749929,9.997712184041692,-0.004052493549682509,-0.014096936517225654,0.1895088975743898
1687556906.4561129,-0.836991058651541,-0.3753927420787551,9.954724064124312,0.004415736948774982,-0.030333175510728196,0.1924435322599061
1687556906.4661105,0.5756632701252782,-0.11954397237270559,10.123427128522536,0.006524631095911822,-0.03256117104720356,0.195862260969127
1687556906.4761837,1.4725848763029445,0.6209446617034349,9.566701226155201,0.006286063973427955,-0.016944105617220956,0.2005490337924608
1687556906.486184,1.6502849463353246,1.1101098450937463,9.838362502279166,-0.0002030549849207441,-0.0029312317941195556,0.2077779894189485
1687556906.4961782,1.0991954088909413,1.502184848342368,9.65308271752567,-0.015527470195335631,0.010068484559620222,0.2102338199929841
1687556906.5061235,0.465303316710254,0.7230669075866656,9.913673028734745,-0.024674349344794892,0.01417543544810873,0.2101107662038454
1687556906.5162053,-0.4268260833361729,-0.023479700231358563,9.929650893943421,-0.027101025489606797,0.0056363996116052155,0.2073014949874528
1687556906.5261912,-0.2106353012762399,-0.9376868252031489,9.837441286283347,-0.01952056177471596,0.001096302502351974,0.202112210305179
1687556906.536149,0.04680053419654946,-1.6094752369693068,9.73809847344785,-0.0008079152345751888,-0.0015281614233645007,0.1991800343112596
1687556906.5461428,0.5307813361179565,-0.9295889123677955,9.4966920782904,0.013075549201668795,0.005429002431854519,0.1986393158750184
1687556906.5561364,0.33877793165077613,0.24214263244551026,9.803613199579242,0.007907927123472295,0.010678053600478396,0.1970828001813539
1687556906.5661323,-0.030804893540512714,0.5788484197003425,9.778314587463925,6.138646562617118e-05,0.012214593023841805,0.198630822213138
1687556906.576126,-0.45034353629992346,0.14794620693886,10.060760107744496,-0.0058933009416511075,0.004990995327286444,0.1996848856525072
1687556906.5861454,-0.40097119711308804,-0.5765580746405679,9.82929646262466,-0.003931378877880126,0.001560190009260029,0.1964970653371461
1687556906.5961556,-0.0019974318681693828,-1.0728543024125485,9.725395384673467,0.010037536778572104,-0.0008882292848663813,0.2001500552014955
1687556906.6061838,0.19076228410989884,-0.35081292610515313,9.590459150289828,0.012955469469909598,0.004597282159642439,0.1988000547008165
1687556906.6161704,-0.07296536176156047,0.025519134003454843,9.85949796755762,0.013885666636717846,0.0015780653636054173,0.198541191728557
1687556906.6261847,0.31281738799276443,0.4780208404801959,9.58687584725862,0.01053352732572919,0.008308936125396954,0.2005708192901262
1687556906.6361663,-0.3289846674566887,0.5173995482248694,10.148848905579097,0.0015034427309187786,0.00216830149442682,0.1970837687568315
1687556906.6461928,0.04815901123323125,0.20420407279221994,9.947046101927706,0.00015169498146060594,0.0003148747143391631,0.1993972038344987
1687556906.6562164,0.4110669514712676,-0.03036291759736363,9.811274244262979,0.0015662910728249126,0.005627687723089718,0.2022649174050935
1687556906.6662295,0.15660898138936263,-0.2264989659336871,9.793319494238832,0.005509917493057582,0.007426176143025368,0.1996557091788896
1687556906.676154,0.08355737704585599,0.2614305292799962,9.818012847010214,0.002165388485451196,0.008190243866008619,0.1980147933082231
1687556906.686134,-0.12698986330666218,0.12805299866211334,9.8205057589064,0.001811539238017506,0.0049390111858663216,0.1987796252088197
1687556906.6961267,0.15419095606088054,0.2378979028748278,9.690374524103861,0.00038116231348830925,0.006396558418817246,0.2017836993054994
1687556906.7061265,-0.053186542971377405,-0.17015089965924762,9.801250176503755,0.0016941309362699475,0.004659666255991367,0.2007271175698884
1687556906.7161574,-0.015982081552494632,-0.1264176988643359,9.769248689915056,0.0027759961370265036,0.0036369558679517204,0.2004146253184923
1687556906.7261772,0.3205695296172897,-0.03735220309317565,9.699178739361194,0.0032983524650865553,0.008256922118192407,0.2008564000444063
1687556906.736193,-0.0348320636643937,0.21750523561026203,9.861255230232736,0.0021044427512190945,0.008623280761804165,0.200297606499637
1687556906.7463229,-0.33419998960185454,0.320394186270243,10.044936324099199,-0.0032351281844988163,0.004196138586984843,0.1956693058328279
1687556906.7567773,-0.19882417654314444,0.44114461374942227,9.984367108041193,-0.012517281580956467,0.0036059963077113523,0.19308900585934
1687556906.766827,-0.3613617145259876,-0.13110065033352367,9.999951998567326,-0.010683508725658937,-0.003276622595574748,0.1946534489707597
1687556906.776144,0.0651818039748301,-0.23886221984738834,9.714273714861294,-0.008456229025523608,-0.0018263471149416626,0.1963465636090883
1687556906.7861838,-0.002466174135070903,-0.24817286726408008,9.700292399395124,-0.004034395843265493,-0.0027832674930897317,0.1993390744046815
1687556906.7961984,0.15490609706207126,0.16787687203553034,9.58207929620458,-0.004914693284247358,8.762158881438376e-05,0.2025003706531175
1687556906.8061926,-0.05527890408113745,0.2074929908684693,9.700154780117863,-0.007114544634721786,-0.000122404474184458,0.2025916104631074
1687556906.816191,-0.29271407739618116,0.17842849705448496,9.862608367158671,-0.009511665596046753,-0.0046732704000914975,0.2006805514411577
1687556906.826176,0.09301522040637404,0.03691317540111041,9.744776489959913,-0.009602018191371983,-0.0024409419422689624,0.2010598157958635
1687556906.8361323,-0.4431792542881977,-0.5205124935178878,9.931693074351987,-0.00457775330518175,-0.006772976671715694,0.193971780450786
1687556906.8461523,-0.4967140494672844,-0.3320000958171729,10.075418789060198,-0.003218323993131493,-0.012953195676244006,0.1880041783170351
1687556906.856145,-0.014850234305367655,-0.26358546720269527,9.82478005512205,0.000639242611315946,-0.012550301813322617,0.1866693471984514
1687556906.8661468,0.2974226963194342,0.16667105129033644,9.700520768451842,-0.00031944361808312606,-0.007592683371459157,0.191801038892711
1687556906.8761432,0.0405257417035612,-0.0030901074241738717,9.751957633675582,-0.0006069546077379722,-0.007742037076058011,0.1926831876353868
1687556906.8861363,0.37997927937728904,0.20842343168386065,9.710683371036033,-0.003252482924342252,-0.0031267838080693998,0.2008955453948625
1687556906.8961916,0.07072666282248163,-0.39714173669936587,9.710927662755912,0.003385550779912128,-0.0031416488446086668,0.2031477963046678
1687556906.9061592,0.05541043556587501,-0.07692304201381397,9.760195120254744,0.005688919464598513,-0.002893455801863761,0.2042091017083772
1687556906.9161968,-0.13194841803760776,-0.06141431835759017,9.883731395312592,0.005353239489362597,-0.004603055333072336,0.2004916494207033
1687556906.926224,0.09004543599847988,0.2796843627970291,9.840068568621158,0.0022269720583173954,-0.004482424293539157,0.2022034799174913
1687556906.9367485,0.11438791741818244,-0.11638548445133585,9.773602027223948,0.0044242072627427905,-0.0031087913563143093,0.1983478044585832
1687556906.9514062,0.012634500566134077,0.05579774382311228,9.831334419625739,0.0023939357490035916,-0.00409558085832785,0.1972968851642259
1687556906.9562533,0.08351920821360388,-0.29187677428796904,9.734480299803419,0.004415003472192354,-0.00398801530487069,0.1946344350890764
1687556906.9661856,0.2336899448089102,0.22646796473142972,9.742833627098182,0.0006755063196033418,-0.00021741851923599045,0.1953728472308763
1687556906.9762712,0.050082094897204256,-0.08981180348715463,9.784452636524557,0.003864598114368746,-0.0010915380165301314,0.1982513045386918
1687556906.986168,0.19231336102720248,0.026850116316431295,9.749785862122819,0.0033258352694034384,0.001961824199274232,0.199115571887935
1687556906.996196,-0.11161606868171853,0.049219091450019424,9.998366012915868,0.0005141106180745577,-0.0011159135655306402,0.1995644991712221
1687556907.0061994,0.07996850978211228,-0.17863884972659794,9.821590612140449,0.003025696937545598,-0.00029141924910961484,0.2000145142392763
1687556907.016188,0.24129922780032884,-0.1644720036248926,9.689101999055872,0.005951084440551111,0.005003489716120147,0.1994098400191911
1687556907.0262809,0.015319019000720118,-0.04366689269095751,9.875451320636763,0.007992444284584004,0.0037953331978373404,0.2015396629886278
1687556907.036157,-0.03877613316468844,0.37812003514486175,9.93141808722313,0.002300812732649053,0.0025122289299329284,0.2037114774303087
1687556907.0461495,0.05867744653342694,-0.2129577795560016,9.701445642808183,0.005770534107844674,0.0037552976605582326,0.2020577614621767
1687556907.056157,-0.14911966220570028,-0.05032824761990356,9.798528239272528,0.006241586809774643,0.0011274779698413223,0.2001914804296144
1687556907.0664504,0.10654629941894626,0.26590794053439043,9.824672505254586,0.0024289671707601115,0.0016242364781676112,0.2036585783080705
1687556907.0761485,0.18655191443555433,-0.22371157656630072,9.548775459869173,0.0051275369249222736,0.00707825909149877,0.198878270895923
1687556907.0861742,-0.12188323965484607,-0.09276845540149874,9.85200137137883,0.008363472548215492,0.002895262136766685,0.2000830446796068
1687556907.0962129,0.1408553752547672,0.1890471230169021,9.748654380973202,0.005949835611633046,0.005852773944472057,0.2003955667333253
1687556907.106495,0.016710822647794887,0.15875797158067498,9.869140226711266,0.0019071759449413985,0.0064719884209047075,0.1980761413888582
1687556907.1162856,-0.05267554456308845,-0.07989724728812951,9.793774127447382,0.006540939985649324,0.0041018946606727275,0.2009509926156648
1687556907.1268642,0.136859611544596,0.2753798570411122,9.87010971388608,0.0013487234824242466,0.0068284720748555084,0.1980356847362169
1687556907.1361952,-0.029551391251351335,0.39007551685473685,9.939447713369507,-0.0029287837165846336,0.006436098248709483,0.1976904248313554
1687556907.1463122,-0.08108884082721429,0.2325079104484145,9.874565744113442,-0.00376418484625628,0.005956235800615582,0.1964531814174303
1687556907.1561997,-0.22968007384465855,0.31125400619950017,9.939323865491938,-0.008383964502724262,0.003634517388154864,0.1943751697854646
1687556907.1670153,-0.3040152762514648,0.32437844737269755,9.947324826748435,-0.013417080179577401,-0.00046925317589707326,0.1927047943191179
1687556907.176228,-0.22909802468862625,-0.16959269892705803,9.815687151852536,-0.008998945888337977,-0.004355348341689695,0.1957266753034242
1687556907.186159,0.08253943294056687,0.061673882619078205,9.63949128917959,-0.00930502081835783,-0.0015638831370890765,0.1970339541749605
1687556907.1962385,0.021777189856297095,0.05563405795927886,9.760682589244716,-0.008804039734145673,-0.0022107678960545628,0.2007423763589509
1687556907.206216,-0.1309823885527849,-0.07128017035659198,9.659378267794116,-0.006777961805951032,-0.0024249203276074057,0.1996706103400835
1687556907.2162137,-0.04490679680508516,0.02225245336827084,9.735007024381098,-0.007091529927968038,-0.0007728196101299571,0.1974340652541765
1687556907.2262492,-0.30661368282734336,0.18871088070726366,9.904316586005415,-0.01022557021074991,-0.0035350313806369886,0.1979913537816652
1687556907.2362282,-0.27360068120740383,-0.06401635509641342,9.994787612667512,-0.010213933888934103,-0.007186987795309322,0.1984692787246355
1687556907.246206,0.10935383561875192,-0.6875354443293142,9.956807456702611,-0.002896679598014807,-0.006254810873011139,0.1975491618232377
1687556907.256205,0.32186631894032314,-0.8377170342666737,9.72061809570968,0.010259616321966076,-0.0009212188187036876,0.1934729342774995
1687556907.26623,0.2491503356267352,0.039666122230010835,9.776798292968492,0.011788827425600482,0.0019147031078565735,0.1945051824168809
1687556907.2761874,0.10879509777408602,0.8312606768713404,9.763225006601157,0.0027924993142601487,0.003759224130291914,0.1999586050824769
1687556907.286309,-0.21944615851601534,0.4964563767971552,9.892271531789378,-0.005093380366958602,-0.0008620549175291905,0.2014315848664888
1687556907.296235,0.049751434084134995,-0.13359872373156917,9.636721666152255,-0.0031870521321891673,-0.0005043973102142848,0.2027302210645326
1687556907.3062496,0.27431633476238165,-0.5833097176766631,9.604644419630455,0.004378453300533335,0.0031885534462463153,0.2038414304570802
1687556907.316189,0.01163240348716651,-0.22038114560756494,9.81898254597135,0.00859066511600248,0.0007325561670725491,0.205098015578235
1687556907.326371,0.13318572459477157,-0.023195281808188063,9.766607020857286,0.010390121487414436,0.0022885890883937885,0.2021584188060411
1687556907.3364768,-0.115343077363323,0.4966860924081583,9.974394054090615,0.0036273494123241984,0.0006120820093771325,0.1993178700523027
1687556907.3462515,0.13527497435561314,0.32482717433605757,9.879881404486994,0.00037605455778855895,0.0018027231929569833,0.1994955813007005
1687556907.356978,0.04514001066872536,-0.020846012571540867,9.886130133172076,-0.001323037873375612,0.002591276493111626,0.1973792289809831
1687556907.366326,0.17030044562470864,-0.19387055452970592,9.8615061165674,-0.0014724941082113118,0.0042707240417294,0.1964837287978776
1687556907.3811088,0.30533659401223456,-0.13519142430479994,9.747030399901504,0.0025238419416835837,0.008552472488046728,0.2013167714194902
1687556907.3862207,0.13519468882868318,-0.29576615832893377,9.675323421912456,0.0072898820873510935,0.008503600944543041,0.204731804640735
