time,ax,ay,az,wx,wy,wz
1687558043.8884823,0.1555226603449821,0.21591655029351584,9.81873392105451,-0.0034907380624742603,0.00016584668478829008,-0.000456741805417
1687558043.8984954,0.048371700200631924,-0.11094820739041612,9.75551657201064,0.0002714504090171174,-9.26745204999277e-05,0.0021341960255564
1687558043.9086037,0.07589396494578772,0.0979302312245503,9.828210416405017,-0.0022390178470049695,0.0011187955628352332,0.0003382343293675
1687558043.9185193,0.10273801457956855,-0.06632998809768603,9.76336055885733,-0.002030043351841381,0.0031919208669611196,-0.0022608997805467
1687558043.9285686,-0.15858100401389813,-0.04011159811489687,9.884735592574048,-0.0004076665108775379,-0.0010612472600035289,-0.0011686546767554
1687558043.938535,0.07868260677227691,-0.08811025425204388,9.754511476531558,0.0015711960837493434,-0.00015111691817014088,-0.0014871472066692
1687558043.9486475,0.030898408644934976,0.07108917388020497,9.826643780139463,0.0010384703803884298,-0.0005482654769293282,-0.000433292499972
1687558043.9585354,0.19883311792608446,0.06906333188425251,9.748578722141728,0.0012076209871281184,0.0017923299770152361,0.0017214313866612
1687558043.9685066,0.012267028539289244,0.11727840074622158,9.861387036518176,-0.0010193599430650354,0.0012890399093344975,0.0016476549663389
1687558043.9786785,0.007239043977486985,-0.1255946916252339,9.775451185893097,-0.000512701176563218,0.002334715572250411,-0.0029273779636672
1687558043.9884975,-0.10385270611344853,0.10364837468310555,9.914251973424799,0.00046330498720006816,-0.002298404241748007,0.0024497300346889
1687558043.9985533,0.10829052172215299,0.04244672764506421,9.783869896877404,-0.0010271828929091856,-0.00019697748016343403,0.0008694474545814
1687558044.0085056,0.089548626424243,-0.17440880650892485,9.725816099064993,0.002469376271187338,0.0011184231879279069,0.0001377871686168
1687558044.0185356,-0.14744218746724433,0.0012352408918933225,9.896850393924344,0.0008961720175941212,-0.0016174450085357757,-0.0028450462541035
1687558044.0286674,0.0774038909690646,0.07613805453765744,9.800519795541668,0.001593564321457388,-0.0017172568981778276,0.0004153392238118
1687558044.0387175,0.2079605254725573,-0.002703457430161216,9.71555202965118,0.00283445898320492,0.0015300685018585145,0.0018924011692912
1687558044.048628,-0.03679673013842088,0.07007391215968287,9.874517964200177,0.0010425943694645212,0.00020647066507370435,0.0009596026230179
1687558044.058639,0.16002781985626446,0.06265159741582166,9.768320394411948,-0.000972055120796169,0.003281691529089007,-0.0007931686977348
1687558044.068714,0.101808918679286,0.049132135012204634,9.7709336955729,-0.0008319828559849139,0.004220840844657845,0.0013935902843992
1687558044.0785515,-0.24224825418374876,-0.09023197192696418,9.927078716060393,0.0012050181984905389,-0.0014635845773834607,0.001032981499568
1687558044.0886598,0.079839228159025,0.12441663470564994,9.822474135791113,-0.0011702373291704706,-0.0005095322769503265,0.0013015716122505
1687558044.098606,0.16539127181352692,-0.1299130474484051,9.690196527970526,0.0015160592795534413,0.002461027854640795,0.0008664867219091
1687558044.108633,-0.10065268548108842,0.07674800704143345,9.901578892290257,0.0012072566907627138,-0.0011346495871606623,0.0029101647397079
1687558044.118696,0.15206837243507912,0.02512165428175098,9.753523951566434,-0.0007716429653273031,0.0024017770954169594,-0.0002004789693704
1687558044.1285837,-0.19735360789558595,-0.2138019041464888,9.860273963401887,0.003266980767908142,-0.0020603332713819335,-0.0016782494767061
1687558044.1385443,0.20643310087349062,0.16408297863368132,9.772854831160295,-5.747503161658159e-05,0.0016630678941766982,-0.0017333863342604
1687558044.1485643,-0.004710030717839451,0.011343843601691318,9.846977058822716,0.00048341701061971055,0.000510837505825344,-0.0011496538335881
1687558044.1602852,0.06790175699264903,0.12556705232367796,9.830646220379984,-0.0004650295467446795,1.5729040745096129e-06,0.0027790427866899
1687558044.168548,0.1507863706014661,-0.05799363202746624,9.722856217030358,-0.0005354466434959658,0.0028205073366529823,0.0003773400986143
1687558044.1785123,-0.013518572346299594,-0.06631809925199285,9.80973306468902,0.0005080322904846942,0.002193548870658924,-0.0008005729450336
1687558044.188532,-0.04030912547327744,-0.022700117612773938,9.841327419255519,0.0016874346255949515,0.00031077677928229366,-7.308114249772305e-05
1687558044.1985974,-0.09112959332345745,-0.003588876877186454,9.876306913647177,0.0017425766974625957,-0.0021806772753375394,-0.0005338507743976
1687558044.2086132,0.11472127194718114,0.1753254373834879,9.83670549321831,-0.001780057439139255,-0.0006090095070956964,-0.000722378403177
1687558044.218526,0.04620247867073049,-0.0027643720792030367,9.79523496948953,-0.0010238323308336729,-0.0003553108072760742,-6.895596556878562e-05
1687558044.2285094,0.11549826175290054,-0.04702933120632739,9.748037298698739,-0.000426697145918649,0.0018083578926660754,-0.0012450187040916
1687558044.2386384,-0.03207063340203684,0.15930076993754164,9.887376367535854,-0.0022550435719226763,-0.00044174290480606136,0.0011898355751805
1687558044.2486486,0.03433957924812274,-0.21341825512334384,9.734926095724276,0.0019232610041493656,-0.00017912248356756008,0.0002696733882226
1687558044.2585588,-0.1558614375296178,0.02243558224419538,9.9185689237299,-0.00032308907552454607,-0.00297566888872025,-0.0033930285407654
1687558044.268727,0.28191763840536277,0.03249940423647913,9.680320627463546,0.0024365891585296715,0.00037933877705355725,0.0022198586685159
1687558044.2785811,-0.08454965512254115,0.06148459757865807,9.90091528406075,-0.00108679047835195,-0.0004871772869274361,-0.0022676134521565
1687558044.28856,0.06310022268370202,-0.14332189660296107,9.737916393925266,0.0027923637825668737,-0.00026775507807431,-0.0010874398557893
1687558044.2985852,0.053614848706318,0.14518843898041195,9.855227330822217,0.00019248614956681543,-5.653452469995609e-05,-0.0005629096685401
1687558044.3085227,0.006147131824721501,-0.08823335435529688,9.792525128075113,0.0034334862089651407,-0.001307854952001545,0.0017102252186783
1687558044.3185718,-0.011347004148590875,0.11412466057400485,9.87529292867856,0.0005553233103354953,-0.0018323636728858831,0.0007677470876411
1687558044.328623,0.06725731012588441,-0.011827315918096507,9.791732515371637,-4.0000351553288504e-05,-0.0004584734757325388,-0.001413025571262
1687558044.338597,0.24966156501140324,-0.04285399521650465,9.66482771705642,0.002518144583567607,0.0034605356797320487,0.0011790742592462
1687558044.3486378,-0.21677322305428917,0.11895443275613211,9.98898985205949,-0.0008990359902418026,-0.0012065375630894756,-0.0013009057419798
1687558044.3586109,0.22853040321045498,0.07626350909403272,9.716240281219157,-0.0010025935484464597,0.0024084880587028727,0.001095578250945
1687558044.3686032,0.04402728681901103,-0.07177245021304761,9.782575333340494,-0.0010481022771104138,0.003593115351695246,-0.0019599461501888
1687558044.3785925,-0.15120680979864798,-0.010160759339109461,9.90412066336653,0.0007434484090326542,-0.0011871509848479695,0.0005546588527546
1687558044.388636,0.15096058240921945,0.024058284888219084,9.75016505628755,0.0003262136126973969,0.0014279928499469406,0.0004559391837143
1687558044.398556,0.003166249456913244,-0.012903358631214557,9.816482437318141,0.0008045514684347949,0.0005991119055744742,0.0005487025792286
1687558044.4085505,0.08120695051177973,0.046549173498419194,9.794018720745955,7.684673559218791e-06,0.0017681170625492965,0.0001240212896414
1687558044.418558,-0.03603402881617199,0.039285005207163125,9.862416729737756,0.0002595221509803353,-0.0003139446886885743,0.0013328735167784
1687558044.4285676,-0.0014254868087828266,0.02220747001297192,9.833043372629886,0.0008585687421146665,-0.0014561400383954757,0.0025823309279554
1687558044.4386785,-0.015302186398452667,-0.07431497937223222,9.812442415086478,0.0017503976549108292,-0.0018960836294723243,0.0006515315345064
1687558044.448563,0.11204881477623421,0.08050289612311691,9.799106887686074,-0.00019346183886526222,-1.3693080600630534e-05,-0.0003013947552493
1687558044.458556,-0.06709597962534423,-0.006997050051257841,9.859261989539354,-0.0005767785352934821,-0.0018189654108322385,-0.0013966405803761
1687558044.4685566,0.17085547368156329,0.15525905340799703,9.80034018005081,-0.002950182344443803,0.00037374213525945813,0.0001288862859406
1687558044.478536,-0.0627107441581749,-0.15348080929924815,9.815249560412566,-0.0005466039945809355,-0.0010876845005357105,-0.0017475615295074
1687558044.488545,0.0986318163286869,0.16107820979722048,9.820455278978168,-0.003782407860551958,0.000450478345885793,-0.0017594789660028
1687558044.498629,-0.009434279723263082,-0.11179775192304968,9.799256309963832,6.172917673409205e-05,-0.0012478887627242802,0.0004589229084127
1687558044.50863,0.022148252445968988,-0.14757698115157306,9.758289953974685,0.0023356429302499064,-0.0007833172588050173,-0.001536329420512
1687558044.5186386,0.2605642833363332,0.12958425140054697,9.728091386210705,0.0002665867182173974,0.00358308430526031,-0.0002685961353085
1687558044.5286744,-0.19814343739669849,0.0017779112703462472,9.93663478631599,0.00035043473989453214,-0.0013752848339611931,-4.32462238199162e-05
1687558044.5385785,0.06502356018223823,0.0770720628810215,9.823992543912786,-0.0001986677936053421,-0.001381994898597295,0.00132692109951
1687558044.548643,0.047097138442699325,-0.08796449237327274,9.775385232203092,0.0006603567370911931,-0.0003962855791502977,-0.0010393992105922
1687558044.5586245,0.11785139458688218,0.07587838906041502,9.779141134620195,-2.2102327724582257e-05,0.0010834118862761031,0.000220897114607
1687558044.568585,-0.06477869438760318,0.022387711165785716,9.868550005557951,-0.0014690108024846859,-0.0004067171530105038,-0.002005728570973
1687558044.5785775,0.16285604855129446,-0.036659441120021174,9.727997661403059,0.00011201062610336331,0.001807223574295817,-0.0007458444724283
1687558044.5885503,0.13754149152592904,0.1511231523394049,9.801341802580549,-0.001578964856159806,0.003136040381154915,0.0016096854106332
1687558044.5985503,-0.1004035712185292,0.030002175736025663,9.88970538978493,-0.0015498506408724922,2.318136574835488e-05,0.0023275333533571
1687558044.6085958,-0.04275119843758108,-0.14262480175944975,9.792262890464684,-0.0002921846186218844,-4.004328165345025e-06,-0.0017233501693657
1687558044.6185908,0.03292018016269956,-0.07681099523289105,9.786068892689494,0.0015395277405741061,-1.9657328337902146e-05,-0.0018075633833608
1687558044.628597,-0.01319205316361301,0.2080765165202748,9.901814392171616,-0.0025072387329474516,-0.0010586721365527386,-0.0014055968767455
1687558044.6385837,0.15266597811191218,-0.12218619070772119,9.71450669229702,0.001034007486564417,0.0009418545887388286,0.0001188027400099
1687558044.6490047,0.09270708566385184,0.0035257568958975243,9.772209383172548,0.00246413983540224,0.00140976485692958,0.0027615192539566
1687558044.658601,-0.08011492206541736,-0.06394755555529856,9.846569697368063,0.00196611897725441,0.0003830514102155992,-0.0011846482793293
1687558044.668797,-0.04598886007332667,0.03990180105476286,9.853658313720986,0.001537291074969651,-0.0013879354479373806,-0.0007734286172739
1687558044.6785862,0.09086150830479817,0.03550695018640712,9.773151570385583,0.00036086528637245714,0.0003044432924024126,-0.001812384607499
1687558044.688586,0.04571110813023088,0.03756325633111087,9.814802197267973,0.0010318029398871927,-0.00024653025179221795,0.0005110896618612
1687558044.6986148,0.07658424350016797,0.12971038871995785,9.814108140570273,-0.000325335604243077,3.101098436476662e-05,0.002618839005711
1687558044.7086298,0.04006937471422039,0.0009350794059679516,9.819323153900505,-0.001299487232279061,0.0004992773898842018,0.0007271485247225
1687558044.718665,-0.016377992016860073,0.18822231286818353,9.89239714721068,-0.0044771674648556225,-0.000885034132543004,0.0018089711975813
1687558044.7286854,-0.001706145800298693,-0.18251924142970524,9.759278299432223,-0.0003931346936322922,-0.001515733743801547,0.0015813567607006
1687558044.7386098,0.1074095170107831,-0.04955592726595142,9.757754987766585,0.0004860141958275254,0.0003506623699068441,0.0009316728410818
1687558044.7486162,-0.025777323576643228,-0.07309446628690917,9.813362731988397,0.001135345258594373,-0.00023535177783153848,-0.0010058729948899
1687558044.7587483,0.12207214886726234,-0.04297110049696249,9.746804611924185,0.002252949515527457,0.0018061023551540984,-0.0013288430909118
1687558044.768684,-0.051666162361232074,0.13607545015033035,9.912199012313486,0.0007896512444864097,-0.0008947301257295674,0.0010322541366373
1687558044.778582,-0.002259467336517299,-0.10507687372455436,9.781499526609867,0.0021575749160548164,-0.0009327038513538082,-0.0008449190335772
1687558044.788669,0.016143773851430197,0.11125925250241435,9.848924097961348,0.0006190291955851835,-0.0015861347954157293,0.0001597846585833
1687558044.798627,0.11956976796138591,-0.03486917429447891,9.742080217680808,0.00035973461528604077,0.0010673876319732614,-0.0020373974966309
1687558044.808627,-0.0336760390232381,0.2157577931911511,9.91187211291108,-0.003324568313861917,-0.0005918799477734289,-0.0008132710626772
1687558044.8186817,-0.009335411124937383,-0.010971962702447893,9.841680842742322,-0.002610438249890477,-0.0018439405841905883,-0.0001482958013615
1687558044.8450534,0.05151133145887959,-0.006014791742512585,9.79041041244857,-0.0028116094568983647,0.00024036430460418857,-0.0019081187474033
1687558044.8479502,-0.051980365491178744,-0.6615579059734362,9.63070511632696,0.0016658362552467913,-0.0005408191687421198,-0.0012383155098608
1687558044.8493872,0.40587285269951756,0.6574808384699664,9.82913495418842,0.0002874730327392639,0.0002455802513045702,-0.0002176009856588
1687558044.8611493,-0.03877498212223603,0.09100487242621759,9.870761664729324,-0.0017562306675285727,-0.0015153675676294095,-0.0005562085697851
1687558044.86874,0.10882031227031598,-0.12382772320132138,9.719768690434323,0.001042587475150663,-0.0007050914564208997,0.0007830284030684
1687558044.8787415,-0.07225319114843501,0.09850427150528915,9.901620832350908,-0.0012723002370405186,-0.002691434289796899,-0.0002924584823153
1687558044.8885863,0.18517274218946927,0.007282929288882161,9.734793030970444,0.00017122437257992014,-0.0005709808731942628,0.0025462143549271
1687558044.8986108,0.02822883153922065,0.009465375147605141,9.810385791741197,-0.0021607776636079924,0.0009627098322368356,-0.0018216955049387
1687558044.908595,0.041921678360738804,-0.079531872613284,9.78049319853764,-0.000615137172467327,0.0013039551816858685,-0.002120447023069
1687558044.9186003,-0.09388632721801383,-0.0566334059560451,9.861772687385555,0.0009372002285797676,-0.0013388119282045528,-0.0018958215641281
1687558044.9286466,0.19011827608644244,-0.055460797176798436,9.70757574170469,0.0030899940996918585,0.0016205928028742102,-0.0008624698074958
1687558044.93859,-0.11384759603151193,0.15812952829012344,9.94709825901822,-9.212385817863655e-05,-0.001488885709183772,-0.0009615185244432
1687558044.9485836,0.1341013590196642,-0.060627185638820295,9.722806137901205,0.00217319974296169,0.0002851017377520606,0.000612394973407
1687558044.9586236,0.044576596095076915,0.20567969190765253,9.874984430709437,-0.002190960987627714,0.000580116152061928,5.622182111674075e-05
1687558044.968586,0.041302396241677655,-0.1629934105644866,9.756389545818651,0.0008913322592298874,0.0008923111087966272,-0.000761104425644
1687558044.978631,-0.04925931015277249,-0.035468915884665754,9.832947034919767,0.002388171033604885,-0.0010891876673086553,-2.2721050730990875e-06
1687558044.9887402,0.12412468254700622,0.1887700953626045,9.827476001891895,-0.0011914830323322568,0.0006892623594311132,0.0005751311855898
1687558044.9986415,0.006513573045721933,-0.1127523823339052,9.791183883443898,0.0006022456536298866,0.0003234601429166584,-0.000400873277565
1687558045.0086844,0.057359235722512794,0.014005096641544425,9.805247676443747,0.0014169931554049615,7.123686865128384e-05,0.001459146999016
1687558045.0187595,0.04083899849829992,-0.03595893653888952,9.779434948762107,0.0007356200979274827,0.0012994662987722589,-0.0013817543203434
1687558045.0287185,0.058205224267856404,0.08578488192625686,9.826714509033463,-0.0004035660596837019,0.0014127391092677972,-0.0008117518427274
1687558045.0387585,-0.02883200500962579,0.03291760664110421,9.869392113364956,-0.00040131617425142436,-0.0003582714596527653,-0.000241411760678
1687558045.0486808,0.04793290097143553,-0.1287964091545673,9.752315124218073,0.002375121388041122,3.398767229905067e-05,-0.0007193979381076
1687558045.0585806,0.03188022883975794,-0.010601892976655357,9.804925381901587,0.002223887718179462,0.0002679166424489938,-0.0018448151221922
1687558045.0686886,0.06563072672519761,0.16697245696409788,9.850425979001377,-0.001755087639586974,0.0015211442645372086,-0.003097592996662
1687558045.078643,0.032487330146783955,0.043003928393812084,9.824393182106506,-0.0008651495735015426,0.0004340861950455504,3.535076580428605e-05
1687558045.0885882,0.01004763308705497,-0.08220057720014996,9.783653821526332,0.0016963843431586317,-0.0003687168459025196,0.0008187546355225
1687558045.0986316,0.0878711398626551,0.0036617459459393677,9.770548778897899,0.0022745298730941833,0.0005838609753526115,0.0018283453846857
1687558045.1085775,0.15655611748432882,-0.034767835538372156,9.73455626276513,0.002265977700621672,0.0035934980719177505,2.568340464913373e-05
1687558045.1186285,-0.13285390818011575,0.08529818920923672,9.922405364955322,-0.0008051368747007566,0.0010633093061262506,-0.0023849519474855
1687558045.1286414,-0.0703483061526135,-0.15592211420308028,9.808192387961654,0.003668549980006301,-0.0017649099330242306,-0.0007137920747003
1687558045.138697,0.10773136647016983,0.318861113816693,9.873040788162491,-0.0025396441922406992,-0.00041044691414535237,0.0002134216211312
1687558045.148651,0.052222157385168506,-0.24882490758318054,9.717354341396812,0.0030836821848978895,-0.00018095480824966532,0.0001124805731275
1687558045.1586564,0.13250625902060953,0.2893840447045736,9.858988078718474,-0.0019178993595131177,0.0011493372761414817,0.0020861166722648
1687558045.1686094,-0.052700847464555806,-0.2915500616114302,9.747853185333978,0.0022071156945973735,0.0008200556100878671,-0.0021390641613355
1687558045.1787295,0.0011317479887479865,0.20830872426416228,9.8976082021486,-0.00160533063998751,-0.00016048141395366626,-0.0012219312174669
1687558045.188635,0.14079772681921499,-0.044165673307503754,9.725893328076085,0.0005154498803809803,0.001596376706424062,0.000367633621911
1687558045.1986115,-0.06934173010248841,-0.12362094443122029,9.817959843717624,0.002490979574698066,2.322491757492694e-05,-0.0015441474078646
1687558045.2086043,0.0005041613394147358,0.22227161358311873,9.91136713221646,-0.0010882811627547595,-0.001413663740202463,0.0002704184462823
1687558045.2186348,0.20605837331059207,-0.0579477591257871,9.707107453222592,0.001223613665675435,0.0015263552351824081,0.0018357874087565
1687558045.228615,-0.19008789483040558,-0.014680215534776877,9.927797235595431,-0.0006211279449175114,-0.0019493556948229382,-0.0022940690668723
1687558045.2386267,0.22480454595837387,0.07281608012643624,9.717650125523164,0.0006469715694825758,0.0007756925758762844,0.0021725545248524
1687558045.24862,0.07199045356806538,0.04968656435444226,9.80651098846648,-0.0012834565063203544,0.0021857037776881103,-5.1473178198103856e-05
1687558045.258628,0.013930171239806236,-0.02710390030507998,9.821034644899594,-0.0007559820728160241,0.0016541153321915116,-0.000322641715636
1687558045.2786107,-0.005952504891102149,-0.02302049458116728,9.82638001453956,0.0011394400559694266,-0.00041266114967305025,0.0007718461875379
1687558045.2886057,0.03323894649161914,0.05724798560758386,9.822142996981118,-0.0015815366139571583,0.0008539326597588898,-0.0024873927740804
1687558045.2986252,0.0929651580272424,-0.06081662091185159,9.754227684650228,0.0011405536039951463,0.0014604190063065442,-0.0003602563210255
1687558045.3086047,0.01949809029146076,0.17823846503617635,9.874701032625602,-0.002018493288668627,0.0007883587075906869,0.000627695904816
1687558045.3186424,-0.01330805356941006,0.17185640996144,9.880963718058343,-0.004953640746587524,-0.00043207176158054626,0.0011335489999079
1687558045.3286257,0.07829411082329185,-0.2975618752376645,9.683878569809615,0.0006808515497117511,0.0013102967364898364,-0.0003639715996063
1687558045.338614,-0.0251963191422529,0.07187693297670028,9.85099224616191,-0.0004493876101971215,0.0001896984758401922,-0.0002302663905969
1687558045.3486106,-0.10347132729563166,0.01930072057019529,9.89562083477049,-0.0004583153611297262,-0.0028024463336822313,-0.0002008225109852
1687558045.3586614,0.09126371163299113,0.05717932168952061,9.799635926368046,-0.0023813175092469983,-0.0010619768333960762,-0.0015449031761339
1687558045.3686116,0.13909525911020562,0.11902369902534397,9.788720061678744,-0.0035004093188415594,0.0007563319469571218,0.0004190873315134
1687558045.3786654,0.05706905243940798,-0.14394727823767714,9.756595711095494,6.953928367003199e-05,0.0009321546331276154,0.0007375554724172
1687558045.3886795,-0.0014835929560906914,-0.03962351557291017,9.796658690333969,1.8142809924893473e-05,0.0011228933181453287,-0.0014808305113068
1687558045.3986783,0.019803585400134167,-0.062048619795310365,9.803873377738894,0.0015492312890777221,0.0007328618150822166,-0.0012796690261415
1687558045.4086046,-0.11960309732259228,-0.07710102256176167,9.870144987523588,0.0018443368805924451,-0.001712011315028406,-0.0039353935553184
1687558045.4187891,0.17143810279789937,0.19224675258351567,9.80152097642596,0.000454365084011934,-0.0004916414502151816,0.0004801678315312
1687558045.4286425,0.06504621439436653,0.2174054846254895,9.869966258584329,-0.003897883838903469,6.0070642978166463e-05,0.0004980462563731
1687558045.43869,0.04850642304827709,-0.1762421462674208,9.726434912653826,-0.0004341302989847623,0.0007466233623521983,-0.0005726270882836
1687558045.4487116,0.04653690948631882,0.14328353831628216,9.852637510896615,-0.0019480800788628494,0.00018001689322171992,0.001644318575975
1687558045.458665,0.1008847529677089,0.009100244008014183,9.77573084405251,-0.0024987143376844112,0.0019685175254750675,0.0004782937194728
1687558045.4691248,-0.04363087756485037,-0.027450383766179465,9.838295844760754,-0.0012059980324046736,7.347858666505679e-05,0.0008653633722611
1687558045.478731,0.05926802626725139,-0.07177221663490287,9.765169295117904,0.0009047452889036974,0.0004076441244689995,0.0017136082479306
1687558045.488623,0.10727621455095847,-0.02896645981401807,9.745115295460206,0.0014337291290349432,0.002224471702217215,0.0011410168099724
1687558045.4986467,-0.13751936065223863,0.08621923307334882,9.9289094599251,-0.002075491598093352,-0.00023164758063163644,-0.0023175463119945
1687558045.5087638,0.09681014897677476,-0.06132309900137059,9.74560166683467,0.000300496431211011,0.0006781016235080503,-0.0005554760845801
1687558045.5186875,0.027832666848412617,0.1316264119388333,9.846967961063362,-0.0028946606323456514,0.0012566279342573151,-0.0019584213423035
1687558045.5287163,0.04371777419148689,-0.02281050275088525,9.819255152017536,-0.0010249656656987154,0.0005011524050332354,-1.0447720294361066e-05
1687558045.538857,-0.03366433964085394,-0.13351610732607053,9.803134609595643,0.0009192858011510605,-0.00029644571507582467,-0.0023562790865502
1687558045.5486872,0.18514181967040058,0.1505839358768318,9.767998567057017,-0.0006956391896544362,0.0021182934155955045,-3.652673144406552e-05
1687558045.5588784,-0.07852791929600798,-0.11282899676363643,9.811800083706505,0.0022227725012109838,-0.00018654991764203464,0.0005338202773169
1687558045.577541,0.06543925060302817,-0.01823415093819503,9.786795318865016,0.003542986831079959,0.0008338448245220287,0.0007670104114846
1687558045.579633,0.04475731967355476,0.8925766695100453,10.104746884442939,-0.0010576995560725188,0.0013117657082320718,-0.0004757470723665
1687558045.5960789,-0.0008924422203858372,-0.03476929270808673,9.818898717605927,-8.541804098649411e-05,0.0004620055896298849,-0.0019140985368243
1687558045.601315,0.09247587838288164,0.13234407177532667,9.826730474492509,0.000982628579416751,-0.0004860634052590423,0.0025473175065168
1687558045.6086538,0.0374356270527336,-0.0573042366363755,9.777311328064965,0.001479570034120771,0.00010215973814970077,0.0015608363556135
1687558045.6186688,-0.008331518809757304,0.1227451157264704,9.870884687642036,-0.0005700917554345237,-0.0009196834000425014,0.0017970515491948
1687558045.62866,0.0766456736861395,-0.18446732437482005,9.718785828711873,0.0035564305524736196,0.00010175197489307307,0.0017027951562818
1687558045.6386669,-0.12150968386771932,0.23727113101706795,9.967392192966583,-0.0027501255038481815,-0.0020029800442035194,-0.0013754113151184
1687558045.6486826,0.14307127264781289,0.0019764533702676104,9.752384011660698,-0.0015058821160846422,-0.00039368117952889934,0.0003389627400361
1687558045.6586463,0.09446661255819738,-0.03759364534033706,9.753337463353489,-0.0010394486146113058,0.0013274103461016389,-0.0006504623724571
1687558045.6686494,0.047342280748875115,0.10445469286833722,9.83333994461939,-0.0009031154576186171,0.0003227108574154757,0.0027752998012625
1687558045.6786618,-0.022220765956168193,-0.18539329917556233,9.785223934249215,0.002081196893951691,-0.00013363394161963475,0.0003106486711227
1687558045.6886709,0.045224211077512864,0.1853604047135554,9.852900276582439,-0.0007839288239847778,-0.0001768535149664487,0.0020067699679681
1687558045.698665,-0.06588745280807735,0.08896803099057776,9.890423559579428,-0.002890562645239219,-0.0019214314402702976,0.0009182545782574
1687558045.7088964,0.0983261649687454,-0.13762661408864157,9.725396433035113,-0.000846493932273499,0.0003249389640948852,-0.0007230971513739
1687558045.7188098,0.05885612765628505,0.01849779141958373,9.800956719220881,-0.0019361733442079029,0.0014052476745181233,-0.0023767774964175
1687558045.7293928,0.007117632102195816,-0.03215177628999612,9.806425941920887,-0.0006442111071395168,0.0007861544213780492,-0.0020541405810467
1687558045.7388296,0.11495912813482305,-0.002492674601419388,9.757120159738873,0.00015637485830311543,0.0020769058386300404,-0.0009913555385968
1687558045.7493024,0.1096239267673003,0.08093580675667052,9.794255565827,5.799303785086763e-05,0.0025332825101280526,0.0015865797923221
1687558045.7587366,-0.07193300508524494,0.029134779655100262,9.864774527321094,-0.0010454581811703248,0.0008572754348581594,9.382688044988636e-05
1687558045.7687695,0.0874578387040665,0.00903201096796611,9.775446288791475,0.0011331121387270296,0.0008330619395065391,0.0033829180484213
1687558045.7786777,0.025810021162875035,-0.1445284505207112,9.766005032628408,0.0021810495709087287,0.0019737523349859292,-0.0004139030624604
1687558045.7886944,-0.13811353350087374,0.08443551941354092,9.924634555440383,0.0015365671152646795,-0.0022317254476776436,0.0013455444805482
1687558045.7988255,0.19782387094806875,0.04760516553995365,9.741006817360342,0.0006067286325524137,0.001354613524511276,0.0010233304656618
1687558045.8087528,-0.02192242594680983,-0.01475587574716797,9.828248783677157,0.0009759212568265645,0.00036776647767948104,0.0005956351833925
1687558045.8187034,0.08072442068549418,0.1263771303763383,9.827750716031055,-0.0020013306709299366,0.001698073945528937,-1.4584189509515712e-05
1687558045.8287685,-0.037653581505674126,-0.1593148246529655,9.80073569337824,0.0005989083574247692,0.0005935343674745941,-0.0017378741449168
1687558045.838686,0.05719147553163894,-0.008308235995047956,9.78433973635148,0.0003832416748438094,0.00176475691595171,-0.0032097288912586
1687558045.8487182,0.006673255873550305,0.12223172204507231,9.879026214656832,-0.00010220507703498889,-0.00012842409622440141,-2.835088339215989e-05
1687558045.8602002,0.05612187616873411,0.011568808743991183,9.789264314091394,0.00031354878622150454,0.0002448410832052209,0.0009275492357597
1687558045.868684,-0.021403682420956957,-0.0034528102141500516,9.838764880464794,-7.647359835835657e-05,-0.0004670540802282045,-0.0004522707585669
1687558045.8871088,0.07785247822159112,0.018652241532361585,9.797072023500684,-0.0013643346700199339,0.0015274419733623229,-0.0013597792985341
1687558045.889591,-0.33305780887002884,0.20558507313409252,10.087710062286268,-0.001530463763345489,-0.0009424123147723395,0.0001813913423144
1687558045.8986704,-0.0025045985480544133,0.022128860544071483,9.849213014411045,-0.0021935709568065864,-0.001505306602639602,-0.0007205027195117
1687558045.916282,0.11013255401293703,-0.0413165619361666,9.746555179049356,0.00014702471439006522,0.0010733435738850604,0.001066907398174
1687558045.9186902,-0.7895492167556716,-0.33418211059906244,10.145969989147972,6.695300040588463e-05,-0.0019631447190003133,-0.0023447181137702
1687558045.929013,0.14758734079842617,0.13070027171348686,9.786619793327997,-5.116221176109282e-05,-0.0010880596729872538,0.0023722486530938
1687558045.938699,-0.04696817550172773,-0.13027142545802597,9.805503655357958,0.0009956579672876743,-0.0015209592601490355,-0.0010103317017159
1687558045.9487526,0.07235285638945484,0.19393207507314997,9.84518571092849,-0.00220214252460893,-0.0010575264986776502,8.193482249462133e-05
1687558045.9599793,0.06392677520748286,-0.03447131931788963,9.792543043655831,-0.0006922674519082161,-0.0008213495645442365,0.0009394843091764
1687558045.9687755,0.09036204434939477,0.022120551617811,9.777597375885541,-0.0013889178892161355,0.0007443996243970862,-0.0002149828050709
1687558045.9786675,0.029952718440817656,-0.15280821437795225,9.758170308138803,0.0012169283241757858,0.0012037378598443184,-0.0014175087253055
1687558045.9886672,-0.024545957041178405,0.03513329352000268,9.843638096460987,0.0020510221318327786,-0.0006059947779410386,0.0007979241509498
1687558045.998677,-0.04315289527169525,-0.02155176070434744,9.842358646925016,0.0017742457894362308,-0.001716902399729627,-0.0007290748453191
1687558046.0086966,0.24404875078570257,0.11288214668967898,9.732453641390643,0.00046703241751708653,0.00215963977258146,0.0010426598910749
1687558046.0187547,-0.07387655074127464,0.006187996159322504,9.860349142216709,6.0250747392309514e-05,0.0002705414216560208,0.0003699118697591
1687558046.028768,0.05243235134674878,-0.010858307843723537,9.811166583903933,0.0004249397229427984,0.000514183126999922,0.0004727207433939
1687558046.0387535,0.021339815433912623,0.206892726113306,9.885926052147008,-0.0037161012405409317,0.00038340373868972694,-4.512004484004254e-05
1687558046.0487466,-0.048993630443741644,-0.17442212789930303,9.78329828628739,0.0001906257047734055,-0.0012367012575041296,0.0002365284326993
1687558046.058763,0.06693181181500794,-0.02086905856663956,9.773274914679368,0.0010455586468825456,-0.0003616192173559195,0.0005788773724385
1687558046.0687869,0.02982687674418894,0.1088944002583053,9.848221431952794,-0.001165765923860558,-0.00034300480382396464,-0.0001114115857011
1687558046.0787382,-0.05832843644558764,-0.05072070545108206,9.835230900333064,-0.0005462583956089954,-0.001709447383004622,-0.0014856808392754
1687558046.088689,0.07292709730937139,-0.012232528328609306,9.77391887387,-0.0005410282208115942,-0.00047489506998343666,-0.0024717656469396
1687558046.0987198,0.0871997881995504,-0.07468635680236849,9.760921994513613,0.0007248017015338726,0.0008308117120004225,-0.0035696301183155
1687558046.108796,0.033740734909220166,0.1935589393841589,9.879760704737196,-0.00042405116316211354,-0.0007282042553222023,0.0015757671226789
1687558046.118769,0.09519571047851513,0.06869028133351023,9.802644272468749,-0.0010215998851819475,0.0004206717080176529,0.0019073196472641
1687558046.1286914,0.09301731944301302,-0.0071577575712130385,9.77091005205956,-0.001082679375559957,0.001838897013147834,0.0009547364916694
1687558046.1388698,0.005608816142975008,-0.1467164128001135,9.77020438983578,0.0027260610653531718,0.0011362945522871198,0.0015660683439387
1687558046.1487474,-0.112519186731099,0.11854010205696326,9.921239987916405,-0.00019121449697677952,-0.001571979212521472,2.046578634017234e-05
1687558046.1587744,0.15712309381863282,0.011634509869408975,9.750115138601736,-0.000574935339026078,0.00110128319798293,-0.0004020027390173
1687558046.1687849,-0.018175815384794448,0.10305794634357517,9.865563510008862,-0.002075118759123077,-8.52227161543747e-05,0.0001068863512524
1687558046.178737,0.05779269047223214,-0.11155512959864654,9.75185164531087,0.00022115610132064623,0.0006449467949762439,-0.0003155446883714
1687558046.188714,0.014556549859361927,0.17052009837052165,9.868967994017446,-0.003013503782439529,0.0002425968475627748,-0.0004008832892826
1687558046.198748,0.009822721399361705,-0.16541868833196455,9.760874259911663,0.0003094461300122164,5.678599309674563e-06,-0.001297555076187
1687558046.2086797,0.043921832767454407,0.12684369337716583,9.837313970721675,-0.0018176828965482685,8.055897319238923e-05,-0.0004723948931745
1687558046.218818,-0.003102839437161012,-0.20324787884222728,9.757441060378204,0.0034085226680340476,-0.0008172125744779149,0.0003389802023344
1687558046.2288153,0.1702757534922087,0.18359327765829572,9.797536823983846,-0.0002783892571166806,0.002266182028397088,0.0002555234551005
1687558046.238818,-0.1881485979512904,0.1209204243005598,9.965260608122087,-0.001464148854103821,-0.003179075211643248,0.0023241759936832
1687558046.2487104,0.11058709376099544,-0.13868036700461883,9.717200539687653,0.00010382532954488051,-0.0005985654297200727,-0.0007816042324951
1687558046.258716,0.09740280041740551,0.07261728804674034,9.812560824349488,-0.00045013615783740803,1.3129958254542225e-05,0.0002823447303422
1687558046.2688415,-0.03512960836058989,-0.08260452594657905,9.816669547784766,0.0015451306987677288,-0.0013816027246651126,0.0002957556590014
1687558046.278727,0.08910917208511417,0.1657841998078122,9.835080449210217,-0.0016001426060360388,-0.00042907226956969796,0.0006131340360776
1687558046.2887986,0.17586470694382936,-0.09210356884946318,9.701389999420032,0.0003448011848578462,0.002655101660943253,-0.0002358726032502
1687558046.2987428,-0.08434591757575158,-0.02454017676478114,9.868229423728815,0.000958042720039475,8.092117273048433e-05,-0.0006377812514505
1687558046.3087456,0.048081058381508994,0.04321660178791271,9.815092529435391,-8.916752369480445e-05,0.0005853362044548301,-0.0009950622024438
1687558046.3187718,0.04267820163146004,0.13079425552630258,9.85587876964773,-0.0023086704545332605,0.00045383711332474354,-0.0004604686091146
1687558046.328812,0.043503838173172237,-0.11737597895916266,9.776876054810407,0.0006063601841884726,0.00038714422431805894,-0.0002086534204385
1687558046.3387575,0.16303610080845138,0.044321169511767906,9.744817208348632,-0.00035736924433661074,0.0032060846683153086,-0.0001903532810933
1687558046.3487492,-0.13566391149418686,0.01851777154064196,9.91467803772808,-0.001153857548145206,6.054230251126759e-06,-0.0013124455271712
1687558046.3587432,0.07708795343124311,-0.046592689981411264,9.778786410572915,-0.00062484682016963,0.0011608779314268426,-0.0022735927759162
1687558046.3687496,-0.02041021322699424,0.05515110016260777,9.86720756290883,-0.0007284208294917807,-0.0007270832849533383,-0.0006243920924565
1687558046.3787138,0.019113965674184552,-0.14060693673606547,9.758846145210848,0.0021706073691915126,-0.0008414531801558023,-0.000660159303104
1687558046.3887217,0.11884230758677163,0.19318367923001908,9.823445761085452,-0.0019115631205158725,0.001023052978635316,-0.0006266272666356
1687558046.398845,-0.14230596442286353,-0.1771361472098372,9.843124187384268,0.0009465392221673127,-0.0020119698958486645,-0.0028960347680798
1687558046.408715,0.30352085871892237,0.04259594711958159,9.678428700445249,0.001651301318940485,0.002624560075717566,-0.0001244478898546
1687558046.4187384,-0.06534962180349563,0.014990190348619092,9.869163006627913,0.001039624356802897,0.0008300733101170046,-0.0010874496346763
1687558046.4287603,-0.026533228372251094,0.018658108229065832,9.85389930930448,0.0011372242819003944,-0.0006164710892905233,-0.0006549539084038
1687558046.4389038,0.07573556030583381,0.13628192108578033,9.836567704607562,-0.0006483168660950941,-0.000367611185038913,0.0013239326236112
1687558046.450236,0.00696009928724109,0.01942492391265548,9.822331821693165,-0.0014846539143024758,-0.0003109764189428686,0.0001292263350956
1687558046.4587443,0.1066269984369031,-0.21306665523148538,9.687121733377609,0.002416099017622549,0.001036093432463641,-2.0908801113729428e-05
1687558046.4687998,-0.16029577864115885,0.11195983929729193,9.949331966138713,-0.0009865509719886281,-0.002162088224674802,-0.0022359449921599
1687558046.478707,0.13505743777372087,0.0699158450881612,9.768722056498643,-0.0002366780870101349,-0.0013410120913572774,0.0016882721993648
1687558046.4887133,0.16256513762085942,-0.13492158158828976,9.696281167791321,0.00242538705031553,0.0015803853780721859,0.000912690798989
1687558046.498706,-0.0750267904032561,0.29656108609433557,9.966318216822659,-0.003703429447503534,-0.0007516831012346288,0.0007517311333254
1687558046.5086968,-0.06037561300725327,-0.15156167527194964,9.810048245874242,-0.002183147221629964,-0.001689712228251734,-0.0023674519306472
1687558046.5193875,0.10768159732831348,-0.0017717903168845963,9.757635189947987,0.000855951851600148,-0.0015913345555616056,0.0025189995958977
1687558046.5287807,-0.048135749776653934,-0.024606496568028255,9.838384636124088,-0.0007351236445160375,-0.001725468669727075,-0.0018082900477997
1687558046.5387354,0.08937403025940695,-0.012349058165051836,9.777925319054608,0.0004837938939091064,-0.0012616691213663033,-0.0003967818610793
1687558046.548764,0.0067825774830253234,0.10798157726013138,9.848347394779903,-0.0024256448591245573,-0.0011920064626611373,-0.00204894729354
1687558046.5588331,0.04732048014748237,-0.033728411344283754,9.79226641350105,-3.661980255354554e-05,-0.001936693715594853,0.0006060790929519
1687558046.5687594,0.2202856818884926,0.04656229530183499,9.720780926835568,4.421374505069584e-05,0.0014902030526355893,0.0021737032530405
1687558046.5787976,0.007441733476211725,-0.02611195973159059,9.80790434412053,-0.00016438914535663217,0.0016299008852818805,0.000240997151243
1687558046.5887814,-0.02740403147775335,-0.019987667134304582,9.834179219122499,0.00045621199999457633,0.00030297042593107346,0.0002383817646228
1687558046.598745,0.03899723819679346,-0.001249497044988184,9.805677617866445,0.001250091466587242,0.0001848726810273074,0.0011079006672413
1687558046.6087914,-0.06586659063485599,-0.003953515546986262,9.865596862272419,0.000220057928212504,-0.001275054847463417,-0.0013295825610361
1687558046.6188247,0.12467445335223436,0.11756379341353454,9.792537841909123,-0.002128771405841559,0.0006046906602027541,-0.0012185856739482
1687558046.6288562,0.03493415940185298,-0.045552548807874856,9.780570318787825,-0.0008882389879766107,0.0007328516217456677,-0.0012647715902379
1687558046.6417289,0.0025414571686899834,0.04594840668493775,9.841432406357988,-0.0004527251485319202,-0.0009625266045845222,0.0009536433517974
1687558046.6487565,0.03503848281358792,-0.07035968355804248,9.773831561652921,-0.0004236827475974761,-7.740616733408433e-05,-0.0011701555030844
1687558046.6587367,0.10928442098591482,-0.0033077407761675885,9.77075264350092,1.8130960837157302e-05,0.0013765937365125794,-0.0007174996698699
1687558046.6687393,-0.21030320083076473,-0.07252814709518954,9.920341241207064,6.322688058464403e-05,-0.002747312748781468,-0.0040598513132385
1687558046.6795027,0.12343314525128722,-0.04999513252834852,9.732312809341568,0.0014635377107145363,-0.0004852969312130773,-0.0039726795202544
1687558046.6890442,0.09659957467657385,0.27392504742590174,9.873927509543224,-0.0017364788308319873,-0.0005385953512179982,1.4112303736145544e-05
1687558046.6989646,0.07783154108219797,-0.07224957830861034,9.766006940039047,-0.0016563625885861544,0.0012148953959947183,-0.0028178460469893
1687558046.7088158,0.07879862535288805,0.19176587548885152,9.837056895290239,-0.003213202623063397,0.0008997410187546833,0.0008724417148665
1687558046.7188244,0.05423732231740884,-0.02458342766796304,9.790817037025311,-0.0024830491237312646,0.001171680766168014,0.0011842393451412
1687558046.7287476,-0.018999987286098585,-0.06505783412798272,9.815893967340779,-0.0010134155305090472,0.00015431766434623515,0.0010270522635006
1687558046.7393422,-0.0899619357087092,-0.1543966749366254,9.818066100621742,0.0013178909262285038,-0.0018737109164657863,-0.0013295900116167
1687558046.748806,0.10830048000730641,-0.022036414607256194,9.770382009556426,0.0018725994285398253,-0.0007222083598150121,-0.0014487706629983
1687558046.7587588,0.08566538337041273,0.19623224907018916,9.84660578147582,-0.0003909030854226529,-0.0006764204203209192,0.0014457574948688
1687558046.768763,0.05881858185551508,0.017019296264130644,9.7999549742749,-0.0005734361288635088,-0.00017611558175677875,0.0016845343653154
1687558046.778783,0.007329801846211375,-0.09413034154398285,9.787345278117504,-3.6624105661511394e-05,0.00043072888025496355,-0.00185187897109
1687558046.7888987,0.054991824955965926,-0.01294259328025673,9.780919002016715,0.0013845766447316552,0.0003215809473014848,-0.0001140324438414
1687558046.7987418,-0.12090712679032269,-0.0088538604224764,9.890897192468938,0.00017832932104584366,-0.0022399433140358207,-0.0023819814941338
1687558046.8087764,0.19811257541047675,0.18634641837482072,9.784107169816895,-0.001981978592929144,0.0004001870478442441,0.0004067871214398
1687558046.8189452,0.06891858004031969,-0.03801155306989532,9.784974064657858,-0.0005846403567738518,0.0009463166837486483,0.0012076917355921
1687558046.8288743,-0.08081246250044213,-0.08639158310957391,9.842036348693671,-1.8016420556505455e-05,-0.00035008330219432225,-0.0018403384874067
1687558046.838738,0.17355948819233194,0.04377570334068158,9.7500547365463,0.0012586469208727322,0.0012029966377789583,0.001744892566469
1687558046.8489096,-0.04262253837495404,0.0025929524771219677,9.842662617641718,-0.0005805274610992184,0.0010119111405768172,-0.0019345375748775
1687558046.858925,0.012328123888259794,0.06835734915405474,9.843383695659428,-0.0013360056386200897,0.00018820530850833614,-0.0013094860168597
1687558046.868785,0.033149174457946524,-0.025552473806495196,9.797775874587565,0.0005165918722124602,-0.0004495478330244633,0.0005934222445399
1687558046.8787675,0.08349629384741707,0.04554044425812404,9.80607919852684,-0.0005034123204077801,0.000704174892538784,-2.500941440976138e-05
1687558046.8888147,0.013408763790551467,0.06267096891024541,9.860426711400551,-0.0004944621068562699,-0.0006667458833883474,0.0017508715700865
1687558046.89881,-0.059402285854308325,-0.14189277052979274,9.813766020986648,-0.00024784587421936287,-0.0009215334321358268,-0.0038862518540076
1687558046.9087644,0.17110352832633974,0.11196639847953829,9.775277236189874,-0.00032644759281415893,0.0006412151621186572,-0.0003144144120118
1687558046.922656,-0.011930010668477715,0.10256407193082222,9.865239248644997,-0.00350300620884218,-0.0004231258184914116,-0.0012714840976945
1687558046.928777,0.17270684083126314,-0.24446774092843437,9.645388428702224,-0.0006010051880777445,0.001509202416487281,-0.0021364855619571
1687558046.938813,0.05539467767399697,0.06832517677223,9.818278472643073,7.660204513575644e-05,0.000596146272632304,0.0014744365271804
1687558046.9487689,0.021280240225861592,0.028040905207756504,9.826696923618972,-0.0005089970470879427,0.00043818123416627377,0.0012114171423059
1687558046.9587712,-0.05313408623929774,0.04651125764728958,9.854083929174523,-0.0003268335971925545,-0.001826418238560928,0.0028062332149171
1687558046.9688425,0.014348413053592407,-0.15311376789675177,9.760599320151075,0.0014013498434727993,-0.0008488978858047473,-0.0006117191205225
1687558046.97877,0.07017232786452911,0.14970419261251253,9.840097481949197,-0.00022363465191723234,-0.0007818470888897825,0.0015079588284175
1687558046.988778,-0.006949068950380551,0.03384061310542038,9.843164605144446,-0.002133956546179886,-0.0009081371709124078,-0.0012547144705853
1687558046.9989328,0.11279513125467609,0.036141299408226545,9.778338604399332,-0.0018448686309996119,0.0003297794250366918,0.000452582929986
1687558047.0087628,0.17686536665540337,-0.04236257024051642,9.720380258421688,-0.0006822393363947725,0.0032649447899431553,0.0001329919050955
1687558047.0187917,-0.11829183969548641,-0.019956434897658727,9.881434857588243,-0.0017111306144386197,0.0009630679547923572,-0.0025671395978382
1687558047.0288055,0.09163286286524755,-0.0676541869983428,9.751899943962604,0.0012988691492542082,0.0014525807171311316,-0.0003655132877132
1687558047.0387592,0.019383479889145204,-0.07324417231256786,9.791518020751298,0.002215697190793954,0.001588189537647242,-0.0016659599768421
1687558047.048827,-0.21768534825706806,0.23493992545755388,10.018178053920007,-0.0015446122964243806,-0.00432162306564814,0.0001176830574446
1687558047.0587668,0.25629525322917174,-0.17648179555901364,9.625515564634842,0.0020215878695844596,0.0004639052580454704,-0.0007260892579755
1687558047.068756,0.12455777597725697,0.16177589637139744,9.807373929695906,-0.0010111981495010385,0.002373840973448769,-0.0004869357489473
1687558047.078822,-0.13651770872739408,-0.08882215816450295,9.87684470908905,-6.755062012739436e-05,-0.0007214775305127763,-0.0023953874169341
1687558047.0888357,0.1340851542437648,0.20121059248394174,9.822640763310675,-0.0008729476836910102,-0.0007282083568925275,0.0034264920705505
1687558047.0988228,-0.02382178642077636,-0.08877223580656513,9.807698593867217,-0.0009701876073259007,-0.0005709859975092427,-0.0007488074751994
1687558047.108806,0.043287078143640766,0.05535313295596367,9.819561908545488,-0.0012510622482017994,-0.0007226183980073568,0.0002529145877384
1687558047.1189082,0.21924736717871202,-0.03190737018133112,9.693469924933263,-0.0006360467290996389,0.0034415120311349088,-0.0002004648831165
1687558047.1287618,-0.04538081198579298,0.0032410773256962896,9.855998356023715,-0.000457598463494922,0.0018213781659211004,-9.467024751520627e-05
1687558047.1387532,-0.05851083855689276,-0.11291196179624205,9.817958141572646,0.0016751546896027253,0.0003040630750865572,-0.0009883531874469
1687558047.148811,0.07665271947775534,0.15337601734046205,9.842153891376624,-0.0010890058844724888,0.0009306712215916768,-0.0002261456374502
1687558047.1587625,0.01667288481490336,-0.1511511468057463,9.764871569508356,0.0027938540600115753,0.00019790039242341452,0.0005423836137675
1687558047.16881,0.07097224830517646,-0.023627064188876237,9.78787546735369,0.0021225251162720767,0.0015893275994235804,-0.0017326608339748
1687558047.1788828,-0.1014630689169091,-0.01803642589862419,9.87655825160768,0.0038495968105244733,-0.0021348394667321116,0.0005513009692118
1687558047.1887846,0.1539382150058816,0.31452593270313395,9.840668118138218,-0.0019786242813196607,0.00032045932509983045,0.001501262109789
1687558047.198859,-0.09792817993089072,-0.10643482669640791,9.838957834351223,-0.0007634402200233513,-0.0015924751245124825,-0.0006933167150667
1687558047.2087855,0.19911946545125273,-0.0029868848206146656,9.712231535273926,-0.0013967000734571024,0.002549296466930116,-0.002335415365403
1687558047.218819,-0.08256570969022183,-0.027047086478529117,9.857224236614192,0.0006167830602082697,-0.0003947783491899567,-0.0004195152122951
1687558047.2288249,0.13307078288664195,-0.05121231586724087,9.740156439493077,0.001731017521936967,0.001616860879611021,-0.0006214295553467
1687558047.23883,0.07740339245314273,-0.008632283805612592,9.787065561078691,0.0034524657414118005,0.0016340252988964062,0.0016550982855302
1687558047.248777,0.006672496119384067,0.24327518842172807,9.90410739899102,-0.0020672613836604553,0.0015449627094940317,0.0001761552139692
1687558047.2588162,0.014371870851630143,0.08574206225711604,9.841547998783708,-0.0032195335618289923,0.0009589624074910773,0.0005486946629867
1687558047.268774,0.05468626644411609,-0.1945839622745168,9.725897106027753,8.146216147328792e-05,0.0021719247568405074,-0.0015736030454239
1687558047.2788236,0.028883583013264054,0.19735152637611175,9.874936293145995,-0.00369971083570019,0.0019405779209134206,-0.0011060781816444
1687558047.288821,-0.06240526283548886,-0.08514945657649553,9.828053247210962,-0.0008051460475468226,-0.0006566859792884459,0.0003147518455558
1687558047.2989192,0.106834017566091,-0.011957553459697555,9.760553658540523,3.0419652024740302e-05,0.0007600533352805541,0.0008817453363486
1687558047.3087907,-0.06815018104711763,0.08510266882216179,9.882383767935586,-0.002392502952458116,-0.0005695014018612203,-0.0008244287727824
1687558047.318822,0.18409205508237958,0.009853381354536249,9.721643691641326,-0.0018445225445636593,0.0024856011963922536,0.0001456304180943
1687558047.3288069,-0.2287129471130494,-0.0629716508442261,9.923489363859623,-0.0002582735786599659,-0.0031019561742600533,0.0001586591552519
1687558047.3388054,0.20140909884863287,0.043232327150010186,9.723147739474545,4.6087353238964684e-05,-5.281427949670585e-05,0.0015537696763682
1687558047.348796,0.06766801800108127,-0.10357525503128126,9.74871390847585,0.0013491410208919372,0.001536409893965452,-0.0007175480986437
1687558047.3587854,-0.25044896475301437,0.07231402159263003,9.975086347629146,-0.0002318331415011729,-0.004182310721544783,-0.0009112264069221
1687558047.368796,0.2578421865749967,0.06316387565573495,9.699403183278575,0.00020514600209323625,-0.00024540507942402674,0.001535162433404
1687558047.3788428,0.16332639842010113,-0.14610721248845768,9.680713636080966,0.001924738607887761,0.003658725602551607,-0.0013269296886823
1687558047.388793,-0.1022663916395274,0.1489357751491603,9.926092737079106,-0.00040469759740950406,0.00039647246226058206,-0.0002075159263289
1687558047.3987975,0.06924962723928813,0.0761141011515421,9.812074874705653,-0.001603877560437399,0.0009973460324180872,0.000177654876145
1687558047.408836,-0.00025245814029273197,-0.0687208698858502,9.80508544515623,-0.0002307223922913522,0.000280978447287704,0.0003218296642922
1687558047.4188304,0.10624992066089703,0.07275124532374938,9.795331665758466,-0.000851715212329506,0.0012771198909010022,0.0017817564967595
1687558047.4288075,-0.09979598686808622,-0.13653251271463804,9.830993380082537,0.0007799853352708844,-0.0006522148006860717,-0.0009764054829678
1687558047.4389353,0.06672833748903777,0.11079393062988513,9.812351911011248,-0.00021694132140872798,-0.0002234265210483629,0.0006965918310494
1687558047.4488437,0.06732431791652237,-0.0678433803956571,9.760080334382852,0.0015909664789634473,0.0003577086617981695,0.0010002135841683
1687558047.4589174,-0.05159505054477149,-0.015667556267126577,9.841114437508919,0.0005974251806101406,-0.0004860478964551497,-0.0018429236060432
1687558047.468839,0.13385032430986146,0.24494271496805692,9.825240279552004,-0.002313892088749483,0.0005633555119696538,0.0014412872829348
1687558047.4788036,-0.1939430541501776,-0.06676501270452727,9.910076075803255,-0.0021112353561174016,-0.003388442725509622,-0.0011328907257369
1687558047.488811,0.18585858691490542,0.03562832656380895,9.731631633160704,-0.0018884696389133502,-0.0005780791750902942,0.0003356167308562
1687558047.4988332,0.013620705840396187,-0.1518205702426216,9.768670463524323,-0.00011412596682283205,-5.5442431281423554e-05,-0.0028659185899845
1687558047.508842,0.16474832316949806,0.07112190246443893,9.761406230393963,-0.00021470280825679902,0.0019402169679717505,-0.000624771373575
1687558047.5189817,0.0005779108581991832,-0.03985324230412657,9.804549553538862,0.0004465304652832764,0.001520383861080338,-0.0013288437894038
1687558047.5288217,-0.015567638305178821,0.12985924113545738,9.884277267493106,-0.001190348871153075,-0.0001440801878845223,0.0003762221622788
1687558047.548948,-0.018632576539133576,-0.03404377667450754,9.819010797402598,-0.0007679147706353278,-0.0015004741448141805,-0.0022057876030406
1687558047.5590174,0.1356962466951754,0.062683898947155,9.773793744060026,-0.00034470701155344985,-0.0002707438676427608,0.0004861110083334
1687558047.5688608,-0.02036764340395245,-0.11596308584578366,9.801221464422683,0.001329423335864461,-0.0007613410653839855,-0.0015616767613641
1687558047.5790677,0.06373995634095156,0.0164174492988021,9.791215003688459,0.0018129628826872297,-0.0004577474822248104,-0.0004873252746141
1687558047.5889852,0.06531572242793274,0.14063583112040423,9.827085638252221,-7.909350777098034e-05,-0.00021038787204276567,0.000940971980574
1687558047.5988765,-0.005208856569629879,0.02931799980648139,9.837778874322845,-0.0010718992819832732,-0.0007680739148043984,-0.0002503833074546
1687558047.6088786,0.21362235570472204,-0.09200295380674224,9.683971800502817,0.001215808019294129,0.002842124721092457,0.0001881173539482
1687558047.619045,-0.04135635488377135,0.09464075669960155,9.874680529196347,-0.0008673790851283448,0.0013382232249643244,-0.0004779706050134
1687558047.6288643,-0.14290150496466533,-0.04414480832115206,9.889719168472007,6.470113672472248e-05,-0.0022105005374387066,-0.0006068869533441
1687558047.63895,-0.03324987427453154,-0.07468186390099282,9.827652341499878,0.0013205161179829685,-0.0034629538605183,-0.0019300940020433
1687558047.6488173,0.1706049168632881,0.07432114013076742,9.761509264127138,-2.5084783365035558e-05,-0.0008425691431309916,-0.0015594432169995
1687558047.6588058,-0.0019910928722697663,0.06509642970095461,9.84885771644381,-0.0002746691783294488,-0.0021311481271217314,0.0001683488681488
1687558047.668872,0.1386167247891273,0.12293368207272667,9.799328433134447,-0.0018810132936706529,-0.0006008012142337925,0.0016722515156767
1687558047.679209,0.11897951362212741,-0.13573897122206496,9.711507452139747,0.0007955998936697318,0.001364295822353261,0.0007170923363924
1687558047.6899462,0.06279789659324526,-0.07129109368468936,9.768485140945574,0.0019348309390653671,0.0024099543045743165,-0.0004869279491207
1687558047.6988494,-0.029933999193891017,-0.08017421597778215,9.812814200569356,0.003612288172385052,0.001273038573819407,-0.0004653319755992
1687558047.713475,0.03273133861271454,0.06623436459643224,9.839970973684618,0.0011934540856666797,0.0014745698947121722,-0.0011992036870173
1687558047.7188842,-0.1767466006209813,0.012369393359670652,9.913484341341135,0.00011385611725384218,-0.00015153545672900288,-0.0032537161877802
1687558047.7289202,0.10212233324780054,-0.07250514424970793,9.751600333425783,0.003766516056402812,6.93983861315971e-05,0.0005539179274388
1687558047.7388074,0.07118354268036209,0.13377564837912614,9.849479482948217,-3.1005197945408964e-05,0.00139370526145013,-0.0014920266384682
1687558047.7488968,0.035791040753462525,0.035470784422356155,9.814603462066865,4.530679111398763e-05,0.0011307167326848194,-0.0008553652132353
1687558047.7589772,-0.1190488127960196,0.19130518187685758,9.965136528811636,-0.002985184604121847,-0.0027357730201663286,0.0005766483100638
1687558047.7688315,0.2074057275500384,-0.23043416099591155,9.641112377878352,0.0018517255559329178,0.0009098048265603386,0.0006246992580168
1687558047.7788825,0.031837425771256624,-0.004097694825363161,9.802221710648162,0.0007821318620163825,0.0016060675926468809,-0.001746462103208
1687558047.7889202,-0.049962597502271146,0.0743652095407258,9.876473566010112,-0.0007910086040016003,-0.00016161849341642703,-0.001848530400773
1687558047.798933,0.0360465402459223,0.003839805376876171,9.804520159429305,0.0003601028502038091,-0.0006924426472627901,5.54410235532475e-05
1687558047.808855,-0.008379239776413956,0.04612230547691822,9.853432292632064,-0.001174317113368892,-0.0012463694466899944,-0.0017795915754935
1687558047.818915,0.027185476438855802,-0.057690256165798384,9.790157730704845,0.0011606863430905145,-0.0018260358250819957,7.708367961877113e-05
1687558047.8288574,0.2167597318907708,0.04434147012103042,9.722565614270998,0.0009397669094885015,0.0015732877846255182,0.0010900043435436
1687558047.8388977,-0.15838179120597512,0.11579947198129821,9.944906771053958,-0.002816055690076849,-0.0015209557542808915,-0.0017356494481167
1687558047.8488834,0.1586310943493871,-0.25690175287146616,9.645141893694989,0.0025263419556876823,0.001578898789474687,-0.0027489337644032
1687558047.8588417,-0.08465179136479382,0.24224010890768416,9.965604555213169,-0.0014440280201763367,-0.0017597369642909113,-0.000906771658217
1687558047.868896,0.23844648240527777,0.15999362682766724,9.746843332591732,-0.0030153232021956447,0.0017647716462802405,0.0019348879305221
1687558047.8788383,-0.07980158672476034,-0.17822583463344346,9.80333851766819,0.0004539814184183129,-0.00046258337199787036,0.0010564602871932
1687558047.8888285,0.07982340745209113,-0.10273783006915882,9.747176834037791,0.0022898109977067395,0.0008531880957805962,0.0002320463263937
1687558047.898832,0.021598377771993443,0.12027156149224812,9.853719354490112,5.872389924917401e-05,0.0006445705752889091,1.7848304244215537e-05
1687558047.908839,0.06914734503130039,0.008139844479627307,9.788478530971213,-0.0009944301918196697,0.0021145761799927377,-0.0020604754371992
1687558047.9190085,-0.06695946432710706,-0.030653301162818534,9.857010222061444,0.000470759102088681,-0.0006909459510797844,-0.0011280445887199
1687558047.9288695,0.011678106911701293,-0.030617047680341365,9.807620520437851,0.0011845345104110427,-0.0011327627879198015,-0.0009607690426013
1687558047.9388208,0.05590177802407604,0.07443241595832376,9.826817369012337,-0.00010629309165924327,-0.0007084746239479576,-0.0009328549767336
1687558047.9488406,0.16519244841426542,-0.049959534411407436,9.710183582091906,0.0016557594456644699,0.002053494505210595,-0.0003076989941722
1687558047.958914,-0.017956853740028585,0.10606246475863006,9.874590434555156,0.00010528658364652551,0.000494821712259746,0.0007565761643969
1687558047.9688537,0.015002209778786945,-0.02943483221046421,9.808495029452637,0.00047559904057702297,0.0004165725065363265,6.104467506938701e-05
1687558047.9789052,0.02196760135960288,-0.01974291214779696,9.80631648948904,0.000703216147885013,0.0005015157829407582,-0.0005822965449146
1687558047.988937,0.016748687209654264,0.021101727950362945,9.83485984597197,0.0011927090308768782,-0.0004569811362459982,0.0002987371718087
1687558047.9988186,0.004745946903520247,0.0844333346722983,9.847904406535509,0.00046852843448648033,-0.0015995645752707602,0.0013541079697939
1687558048.008823,0.024264455646791826,0.020670088353404066,9.827603623927711,-0.001201151410482609,-0.0009044166230817074,-0.0013083546927622
1687558048.0188658,0.17133694054594634,0.08685609909567985,9.769005110038703,-0.0016358673911469786,0.0011422692861973091,0.0009037186119281
1687558048.028891,-0.0581595291010606,-0.1711114892579874,9.795693588805888,0.00036159820853341913,0.00013977731408210757,-0.0020746578501961
1687558048.0389297,-0.03883247275651773,0.033018415821789666,9.864466160875844,0.001462435638085945,-0.0024712529466487184,0.0007181987476111
1687558048.048868,0.07590945421492523,-0.051454048927855434,9.756446929675594,0.0018904615118144103,-0.0009032637073496077,-0.0013128210829994
1687558048.058844,0.09134400039762038,0.16817330153024054,9.843067155742558,-0.0015863211318742235,0.0003141436707491415,-0.0012811593750915
1687558048.0689363,0.0576703715134765,-0.12757390241128336,9.75917077352062,0.0013432066682671408,0.0007336119143724881,-0.0012565782798878
1687558048.0788634,0.011321915787463145,0.15095670235360048,9.874451043292032,-0.0020125296603472715,0.00042961722579344707,-0.002016898155441
1687558048.088859,-0.04288755088891984,-0.006277208137782653,9.849043900192026,-0.0006192514251848789,-0.0018476526453502667,-0.0001363755708984
1687558048.1088831,0.10799178590741261,0.03506195328141415,9.76952295716075,-0.0016131722063236673,0.0015852254550224795,-0.0003605863584629
1687558048.11895,-0.04560806724443924,-0.13950190867126475,9.802974644940845,0.002524130200295394,-0.0005780502363926987,0.0013448323316448
1687558048.1288896,0.09871824592121405,0.023357056375409302,9.770529427921977,0.0008011707935195743,0.0016422034247249222,-0.0014610981142572
1687558048.1389174,-0.021493080336366023,-0.04759001501080628,9.825316548033847,0.0022186732232256628,0.00027540027116018954,-0.000991312930589
1687558048.148913,-0.06791332570431732,0.1861272076557265,9.929115249033268,-0.0006542727970600859,-0.002470894270878816,0.0007871208090842
1687558048.1589868,0.13416565183081852,-0.011069850882739103,9.747401715774616,-0.0005428998188464165,-0.0001500442894027464,8.042596350842242e-05
1687558048.1688569,0.1982799785706786,-0.02075903184075134,9.716041734116502,0.000700995999700544,0.0026480166383291534,0.001129487152914
1687558048.1788695,-0.13807334308368024,0.017409508093927523,9.907847192337227,0.0005977929693090035,-0.0010686912144025407,0.0013984341076617
1687558048.1888585,-0.037286982734314175,-0.06108539298719131,9.835732773903635,0.000568359674613968,-0.001811150758491445,-0.0011071978642097
1687558048.1988642,0.16288092413191357,0.16461432252468827,9.786119806975883,-0.0023273348196891685,0.0007905851459891602,-0.0002648941280744
1687558048.2089095,0.08580241087461556,-0.0975606490299055,9.739265765732315,-0.0010767165296166864,0.002471443405409908,-0.0021666564552537
1687558048.2189276,-0.1777638148502357,0.0523106768518048,9.932757658666338,-0.0018839866687009926,-0.0021978316524050327,-0.0016283587592146
1687558048.2288854,0.1640041524499937,-0.11680690664224147,9.703338800526838,0.0005553244482131585,0.00072204931653753,-0.0021595849229446
1687558048.2390263,0.007272922304742168,0.10790596794792562,9.86454760550745,-0.0005704700927285161,-0.0004856859171208255,-0.0004265896549872
1687558048.248893,0.0876916702649388,-0.0316088530695992,9.772588337907534,0.0016419733338518263,-0.0003243621705941624,0.0020403078834102
1687558048.2589583,0.07722887368788696,0.0012381012375769576,9.783770531747694,8.517661679736562e-05,0.00169249154681566,-0.001375412246441
1687558048.2689734,-0.009251320173115953,0.037901922145017364,9.846289070938667,-0.00037822944597443745,0.0005197673013515327,-0.0009034156373194
1687558048.278969,0.059098791097918414,-0.005339939119152627,9.789982153829305,-0.000864743329488224,0.001471215629952807,-0.0024654184507629
1687558048.2888677,0.10635825841816846,-0.13956476875044185,9.723519255731896,0.0026530661925443185,0.002943028022720232,-0.002108940299829
1687558048.298914,-0.14544110810027183,0.04934061016611836,9.920438984082427,0.0032986306189783515,-0.001803712257818808,0.0003766073805787
1687558048.308918,0.08796713690196448,-0.010604179301623582,9.769673140011399,0.0021382147009687586,0.00033873022556099906,-0.0029433678409508
1687558048.3189518,0.09594471707307672,0.1354837189508956,9.830317192972922,0.0015063812563836992,0.0002493215817708047,0.000685071952878
1687558048.3289108,-0.04129061367577598,-0.0864382865636996,9.819673262622269,0.0037408155469829934,-0.0014355967273244003,0.0009659515654244
1687558048.3389006,0.04870680948011242,0.13238860208611758,9.841634477203238,0.00013252359154875703,-0.000563184292541533,-0.0011384730732492
1687558048.3488836,-0.002144218394737148,0.004344285594048656,9.830534365719435,0.001258284521132418,-0.0020000134915391793,0.0006179891370744
1687558048.3689277,0.029372072229510045,0.0740322645163539,9.831273325915802,-0.0012510564647907308,-0.0023125703110447077,0.0013529913213029
1687558048.3789575,0.15219785187100077,-0.11252771236100834,9.70741060052044,0.0009646994371507791,0.00039834526048578256,0.0007685142646119
1687558048.388907,-0.008550314291219654,0.05938137682850055,9.845598124228454,-0.0006866821666993556,-2.0031341033408038e-05,-0.0003032704389146
1687558048.3990216,0.06793429756370555,-0.02755174980843781,9.771150826989077,0.00017124510471507826,0.0008729113785658353,-0.0001535321625373
1687558048.4088972,0.047216072068289726,0.046977456669656525,9.819486205322535,-0.000513077738812029,0.001046889699987635,0.0001258657740005
1687558048.4189465,-0.01793414579918024,-0.025190700024095677,9.847070136515779,0.00017235752596407345,-0.0006022806428598488,0.0001813837753184
1687558048.4290664,0.05420889807869922,0.10588415324651296,9.83427963849615,-0.0025150712135668684,0.00014761095099851784,-0.0006057563277385
1687558048.4389684,-0.07443278338323216,-0.09189538724969047,9.831144001384088,0.0004450621525381372,-0.0026161821573252256,0.000553177351369
1687558048.448918,0.10967007347527181,-0.05211609934656772,9.755355544766898,-0.00013831729265016294,0.00011594134735115219,-0.0031892481765202
1687558048.4590292,0.11638880283194036,0.03962950686913719,9.771369310155269,0.0020249454524469477,5.0765450580093635e-05,0.0018559051114176
1687558048.4690254,0.0694812775925794,-0.013222999952431619,9.785043978071903,0.0020510252562029965,0.001287554215467619,0.0005308234558948
1687558048.4789584,-0.06108332990017445,0.027273301915907117,9.871081346411044,0.001836827806989363,-0.0009025454507204569,0.0013511575762573
1687558048.4889574,0.06821822918064882,-0.0032779896815599507,9.7855418547592,0.0019973828051458578,2.1700895362075547e-05,0.0010176997184795
1687558048.4988918,-0.13176030433155753,0.040014923423006034,9.91525774127655,0.0007687774144949523,-0.003051672216199344,5.881392467253928e-05
1687558048.5088916,0.17031328035408091,-0.04514078454330209,9.729368536209668,0.0014576071175421799,0.00010289938282403211,-0.0009637539314529
1687558048.5190434,-0.050004990753179074,0.18080253557139594,9.914344756237808,-0.0003491736188939002,-0.003062471656144334,0.0024340720574879
1687558048.528986,0.04581170219836981,-0.07324873327758452,9.781456180827634,-0.0012596240450158135,-0.001154763154805575,-0.0022027985232374
1687558048.5389693,0.014928184071722191,-0.010575410999832406,9.799829804878584,0.0003083388552298689,-0.0021695293665002996,-0.0004195031051016
1687558048.5570846,0.1241120486419286,0.0038097540258325634,9.762650010931061,9.746534641008264e-05,0.001280825115362858,-0.0009988186920485
1687558048.5588863,-0.034516592909084313,-0.5131322854510137,9.666121597510987,0.0017437001139418067,0.0012380016838781838,-0.0016320770645937
1687558048.5689454,-0.023685717508300914,0.23170402559960454,9.910061234442098,-0.0011448953779146843,-0.0012642746271904406,0.0019788397203707
1687558048.5789158,0.04174083981764013,-0.16989912403090526,9.742562981645118,0.001058619076301441,-0.00010867953842840671,-0.0010326666797003
1687558048.5890436,0.01563846604484658,0.03386899764141686,9.826628435778845,0.00023197309985125154,-0.0002021937362493618,-0.0016801349392584
1687558048.5989385,0.03592338422278427,0.02841854490239956,9.807638686773526,0.0006056176999626995,-0.0007144125937942681,-0.000111038940256
1687558048.6089718,0.014998521018706584,0.11850906367548919,9.858277824378435,-0.0010133984982050933,-0.0016468617665280098,0.0012244811096503
1687558048.6190443,0.06011532400626014,-0.0038219127300797824,9.796712565619838,-0.0009124214010344432,-0.0010616234567522548,0.0008664758370765
1687558048.6290662,0.05942672247442896,-0.024544732726042615,9.782803079408156,-4.0725013212892444e-05,-0.000642895370865343,0.0009078298772261
1687558048.6390233,0.05789055401006335,0.018312856228663726,9.795172235978594,-0.00022885659811895664,-7.217790390342384e-05,0.0005673239084468
1687558048.6489732,0.023319897819825082,-0.16179790538977934,9.764377307891356,0.00249433281708939,0.0002806236268154927,-0.0012670062987557
1687558048.6590562,-0.02752782388990862,0.14059824151959915,9.881692415738508,0.0001928589030551816,-0.0014572476922660139,-0.0003706947008571
1687558048.6690848,0.02442776997940269,0.06392833520575822,9.82837751567737,-0.0009832201309711182,-0.0015898573525074016,-0.0003572828408754
1687558048.6793354,0.10833600676204026,-0.1042161542574963,9.73724545301974,0.0010410827899139216,0.00031042139438195826,-0.0009596745057455
1687558048.6889532,0.047933250730885,0.06450402468093946,9.810994184032905,0.0001734743645554536,0.000644948763924274,-0.0001266703747636
1687558048.6990268,-0.047500735364252956,-0.01966109194246706,9.843971712757918,0.001194213959903522,-0.0013011404122055062,0.000227217302429
1687558048.70901,0.030508807701763677,0.22975534895667152,9.895827660969989,-0.0037120011597615147,-0.0013462371855183304,-0.0002987903116694
1687558048.7197893,0.1849881076105549,-0.18169693490103456,9.65375485655209,0.00043237737417682246,0.0024472386109215035,-0.0009417700620791
1687558048.7290063,-0.00665789138563946,-0.03356268878842933,9.816074213911515,0.0010082982732466485,0.0017517466012441742,-0.0012315985786221
1687558048.739043,-0.014266793174693768,0.13122129628980514,9.871761447736915,1.737345475608552e-05,-3.0446781416995095e-05,0.001551559924385
1687558048.7592397,0.01519291664938241,-0.011702068458574327,9.805874040813734,0.0010705389917017066,-0.0007796245458192031,0.0020462646225974
1687558048.769009,0.020430414472939,-0.07215528800706969,9.793153024787433,0.0008835158342777253,0.00021578183887625984,-0.0015899845438501
1687558048.7790236,0.06373039795658823,0.197040762537578,9.867105303058326,-0.0019044901367390528,-0.0001381220841062747,0.0009532629356295
1687558048.7892616,-0.021577073757671796,-0.10510401764372951,9.797472120961686,-0.001085656422019729,-0.00020068802446550715,-0.0021632985717109
1687558048.7989595,0.13803961390742853,0.028148624807935986,9.768896321785009,0.00023121159093945613,0.0006889003577378432,0.0009692611948163
1687558048.8089535,-0.07507332667891191,-0.09235641348261502,9.831819472331798,0.000586649900317747,-0.0005758550116728397,-0.0019293498753062
1687558048.8191245,0.07578770570679527,0.07612828496094588,9.813003521238471,-0.0022338260925773503,0.0011262119311043458,-0.0047445764339021
1687558048.8289318,0.064815182541347,-0.0933030528049448,9.759775211437606,0.001874805614089359,0.0006382465918689891,-0.0015318672212264
1687558048.8390143,0.025320407368499703,-0.00512768394744525,9.79927677822878,0.0012918044257901307,0.0011679668897662514,-0.0033107075414112
1687558048.8633163,0.005338072195260059,0.03241147483159783,9.832591326789991,0.0017403428325198636,-0.0016211592111867305,-0.0003423817960969
1687558048.8645434,1.1478994006903793,1.1156658007149995,9.57850739162258,-0.0008871033338691091,0.001119156545299888,0.0001292014222168
1687558048.8689556,0.04386197989359873,0.17202198442119396,9.852417021455603,-0.002293805074082659,0.0011713122317738916,0.0002655778972008
1687558048.8789463,-0.02595954753718455,-0.1525122148222345,9.788734587410197,0.0016226217310827127,-0.000455885458578241,0.0014960462886416
1687558048.889589,0.007765584005433249,0.1611142809352893,9.879399130727279,-0.00204046089694928,-0.0009744490691866407,0.0010549746239599
1687558048.898943,0.057031052456999305,-0.15592329567946175,9.747910657489244,-0.0003342820557614228,0.0004229259355239378,-0.0017397323662838
1687558048.9090364,-0.04455631526423922,-0.028299332112688615,9.84925614662996,0.0006238683150737375,-0.0015738460976179479,-0.0011567384044132
1687558048.9190068,0.10622281915885175,0.11264126675624746,9.799142124723632,-0.0007619456064152096,-0.0006112210248657363,0.0002346661367961
1687558048.929052,0.044681111417264927,-0.00597527188154258,9.798075654421844,-0.00036185914675426225,-0.00048046914222783007,0.0005960212748073
1687558048.939041,0.04528025726650101,0.006250037071677245,9.801062353527954,-0.0005015255625644258,-2.524276366194335e-05,-0.0001367407657629
1687558048.9489512,0.13019568268890752,-0.04973742998283931,9.75118847062652,0.0013044911828412754,0.0015885459117021814,0.0009160357022234
1687558048.9590263,0.04616617524598584,0.12599873432323833,9.843146685688799,-0.0026167677716763434,0.0026387043874859396,-0.0015888788311234
1687558048.968985,-0.07418499166124093,-0.11298758668501173,9.83007227429967,-1.6512922443869147e-05,0.00017854121591490615,-0.0014245776964775
1687558048.9789798,0.02856995235969899,0.13548916412616674,9.853386039103492,-0.002239041893512522,-0.00021672496735267854,-0.0003826197043485
1687558048.9891388,0.1464299898335761,-0.08294784613839419,9.725952366366274,0.0019999654290349645,0.0006986161846012092,0.0039901352447965
1687558048.9989452,0.10690632755018041,-0.06635688505957489,9.75286394459984,0.0015771438886060744,0.0033912511650537654,0.0001009808348067
1687558049.009024,-0.07928866800519874,-0.027375357016656523,9.867147162460986,0.001322334668365989,0.0015721579413672147,-0.0018619577439925
1687558049.0190897,0.019356436806672758,0.015458963398261813,9.819355234414253,0.0025837460445499666,0.0003782125000629641,0.0004336156144314
1687558049.0299387,-0.02669930800794423,0.17141904388765927,9.908320267774291,-0.0008446346504292213,-0.0015224388346200479,0.0011354370818049
1687558049.039038,0.1318460551076992,-0.041379392621301386,9.733303247889522,0.0005836367467015821,7.310405450312697e-05,0.002058170533976
1687558049.0489483,0.040196109281478376,0.016578398288763067,9.820875045657921,0.00028261922582129077,0.00010887628713977639,0.0018816099928268
1687558049.0589635,-0.15754131745968633,-0.255761946761788,9.818309945763756,0.005407522166243932,-0.003578402101654671,0.0008687124082394
1687558049.06895,0.13501232707428046,0.25432068405233166,9.827013846387938,0.0011066723174804137,-0.0018722301501907254,0.0024951535470359
1687558049.078945,-0.02572840696102867,-0.07504887017440816,9.816657990377136,0.0007095626775040708,-0.001616320873503912,-0.0019163271917454
1687558049.0889826,0.18257439570337095,-0.097231014934167,9.68801527773791,0.003313130147729101,0.0014425757414603232,-0.0015750722067854
1687558049.0989373,-0.021731379777104206,0.10768537778223136,9.881222204033355,0.0013055773936687025,0.00016362144409522234,-0.0013784129677764
1687558049.108945,0.06187803080847773,0.217277705227467,9.853075668836748,-0.0022613839696725133,0.0003085350846793655,0.0004689671059646
1687558049.1189706,-0.07750141053859189,-0.1640621710358473,9.801539828382998,-0.00030635668007588437,-0.0008340009069174956,-0.0029005484229377
1687558049.12895,0.18600641007325772,-0.02354261791711977,9.723962584376363,0.0021840036130080366,0.0009634754999588884,0.0004801725463517
1687558049.1390066,0.005614304281594693,0.11792226290746335,9.86588216415474,-0.0002195418353623331,0.00031376219573613117,0.0003378491110675
1687558049.1489446,-0.05547673969604338,0.04525175568592248,9.86885591234516,-0.0015155604007096742,-0.0012016998141640416,-0.0009723383972845
1687558049.1590576,0.13939971265472526,0.11366844535268479,9.789940115209788,-0.0020970845726146683,-2.3752923380714984e-05,0.0020909632749431
1687558049.168947,0.024164827109976018,-0.2043065721758232,9.742906967044377,0.0017067873761798461,0.0003607150455795308,0.0006913616398856
1687558049.179042,-0.08880467174198871,-0.022278232930477673,9.879612310981445,0.0007717522891770972,-0.001471396554903883,-0.0018988201899877
1687558049.189011,0.06831465340368323,0.037731487269851774,9.796821408360914,0.0009665989517048058,-0.0009487441536197278,-0.0003684647653675
1687558049.1990037,0.050818501946214706,-0.03114726927122708,9.7874625292367,0.0009267600129510573,-7.66740567289629e-05,-0.0018820519598624
1687558049.208969,0.103020310268644,0.03876230834862858,9.777738426936024,0.001751879036907941,0.00034245169671533724,0.0007371749689378
1687558049.218979,0.03902410901974231,0.03957952911990806,9.81352861348163,0.0011632731134998673,0.00035923326608322564,0.0007908559364774
1687558049.2289865,0.018731006065069625,-0.07651075525624601,9.793191437626012,0.002399728385857184,0.0003629427453140294,-0.0002272505352697
1687558049.2390068,0.11533473414816575,0.19606077735460692,9.83652370949906,-0.002124294929378056,0.0025288664411788606,-0.0015433678908697
1687558049.2489755,-0.10968441961431939,-0.08230288993354531,9.848926992478734,0.000614186825635134,-0.0008999441351128769,-0.0001423401099122
1687558049.2589717,0.05542205534115136,-0.08915298727247556,9.764774338685772,0.0021173116925735616,-3.5273841882017264e-05,-0.0009805487042716
1687558049.2690983,0.023136743703649227,0.09162479656962219,9.853027364987451,0.00039699464216054047,-0.00021336777226152077,-0.0009671208953908
1687558049.27904,0.13084956350125926,-0.0736715308901791,9.752850678861043,0.0035504419694067616,0.000695625165529921,0.0013596767185414
1687558049.2890215,0.08985235620643905,0.21966279270164626,9.852363748289212,-0.002097444772107024,0.00252471001977765,-0.0008673075626096
1687558049.2990098,-0.007721286033250984,-0.12438138783784353,9.788233989570845,0.0016554149010655102,0.0010714697973927575,0.0010143573181745
1687558049.3089776,-0.08013042983881262,-0.011650984395589578,9.85907469577705,0.00034186970131021044,-9.969629380855594e-06,-0.0023156715596518
1687558049.3190112,0.15273024739682872,-0.01700884953588808,9.725075128413614,0.001935181627758209,0.001954007178310095,-0.0003993647678247
1687558049.3289728,-0.030080339123549297,0.16454272580437593,9.898173914178747,-8.395136664020655e-05,-0.00013624855439716934,0.0016659199191532
1687558049.33899,-0.08692116545578589,-0.06978128755050131,9.849178461534871,-0.0008025511568725796,-0.0012244262674869697,-0.0025708606971851
1687558049.3489828,0.14680773274340678,0.08237108182292903,9.777455911052732,-0.0010454267737777896,0.00021950480452005624,-0.0002622976007363
1687558049.35896,-0.08910221162735728,-0.023680614464004067,9.860476515588095,0.0005150938062238925,-0.0026742903883417487,0.0012505402428838
1687558049.3689673,0.25547906865561515,0.007653423279639021,9.689116438066664,-0.000693769671456411,0.0027527084957415728,-0.0009909529744139
1687558049.380408,-0.1465565086415457,-0.04193274792824682,9.893896483429552,0.0016434836581505573,-0.0022365595412155138,0.0011320710200858
1687558049.3889692,0.12855888764475285,0.292278093532508,9.864966344265405,-0.0026722676491338334,-0.0012080163193239118,0.0028378858424299
1687558049.399012,0.06771422267257199,-0.1971583034428296,9.71477224050131,-0.0013784604694799228,0.0014961695208064354,-0.0027954849919728
1687558049.409003,-0.016714177460810224,-0.06415819386789465,9.820922952284711,0.000881266475105123,3.363725622314276e-05,-0.0018161154857329
1687558049.419084,0.04108626902585799,0.01842449134887558,9.807234359589234,0.0009237564561923589,0.0002899154554286244,-0.0014867963308892
1687558049.4289746,0.07350481690558079,0.05191559090588733,9.809157758311711,0.000676386682736891,0.0003852913110468542,-0.0003565448841503
1687558049.4342053,-0.017157350084812353,0.374691572045247,9.957535586954409,-0.002471844927258834,-0.0007285800064656348,0.0013343607807224
1687558049.4479685,0.05945903120919509,-0.08757597070999028,9.769882415672713,0.00039327500254636205,-0.00032475629036271065,0.0012900368620217
1687558049.4579809,0.04832104180182426,-0.04537572645345646,9.779742936353935,0.0005855016353640259,0.0008069923018480049,-0.0008125099393031
1687558049.4679618,-0.04996388431982901,0.027209414512570064,9.869557688263528,-0.00027987994469626915,-0.0006771677449078487,-0.001911103636255
1687558049.4779644,0.14736294876528397,0.06976433173899725,9.773524007965511,-0.00014281707803392042,0.0008118267273189176,0.0008344477119431
1687558049.4880674,0.01636037816157696,-0.18344230378741566,9.759874821722795,0.002863509655886622,0.0008554138492804077,-0.0008281799072823
1687558049.4979863,0.0924373199236172,0.23947196671602425,9.854347221698902,-0.00011897207711163213,0.0010312570993835412,0.0020786826808513
1687558049.508042,-0.03771617919832369,-0.12289851440415077,9.796159762003004,0.002293924167810395,-1.818220699683947e-05,0.0011823741679587
1687558049.5181067,0.09563037632256674,0.043478240442655025,9.7850154769753,-1.8780495698274318e-05,0.0022538943815814034,-0.001647736555194
1687558049.5280662,-0.10716094371899972,0.01884645048618113,9.893491465638391,-0.00015695815600564204,-0.0009897381340480454,-0.0014193674123338
1687558049.5380993,0.053351001162688566,0.004847157432559574,9.797502469273635,0.0004882750183907073,-0.0008477998346935798,-0.0006072511004707
1687558049.54811,0.037010492767379694,-0.020115483046662302,9.792890631462368,0.001365199835028997,-0.0007520296073467997,-0.0005111343034035
1687558049.5581317,0.1811812009798916,0.10355462118729675,9.767431699017447,-0.0003130575874101948,0.0023403077627606214,1.4082035752470542e-05
1687558049.568039,-0.04904694345249436,-0.04031392119467235,9.832817482007096,0.0002505886246036576,0.0011955317406766258,-0.0009309958240441
1687558049.577998,-0.07177892625527496,0.0671024474827341,9.88515078153713,-0.0004814209187959305,-0.0013007871725767165,-0.0002187077461234
1687558049.5880797,0.10653028284308418,-0.07031051440118935,9.727421517431958,0.001282105260594221,0.0006061840066235678,-0.0003833984064362
1687558049.598073,0.06547543278207586,0.12197367714746188,9.842670237675362,-0.001830366252086568,0.0015587655386723835,-0.0020675427785567
1687558049.6081388,-0.06584446296244614,0.006777166921408617,9.8696629493518,-0.0015878441616755134,-0.0007617293683023427,-0.0015739578793249
1687558049.618096,0.06568766842024845,-0.020672361439593338,9.778603818499116,-0.000717236790518288,-3.231137592048157e-05,-0.0014607102184048
1687558049.628024,-0.15246234085942248,-0.06798130245010893,9.884542472030127,0.0009789247532650304,-0.004099954262291402,-0.0010881709440103
1687558049.6380146,0.41801349442365615,0.14511834615236777,9.647536589986563,-0.00034736915511087796,0.0031572843232639714,0.0017277835886967
1687558049.6480973,-0.10633375343822093,0.07550449287286426,9.907528993802652,-0.0023258227636793307,0.0006825652355230563,0.0007212106448174
1687558049.6580331,-0.016591298746217974,-0.12629470388644892,9.798445454948578,-0.00022661082463635703,1.3487713606451259e-05,-0.0009935741818002
1687558049.6680377,0.07193566991985306,-0.09178403827497442,9.764486489733764,0.0016874248889340068,0.0009090563057157629,-0.0014249776995233
1687558049.6780286,0.053510911777076044,0.11411475841194384,9.846263678844135,0.00029343623640461556,0.0007049327753172839,-0.0001709925981662
1687558049.6880069,-0.02731976850170523,-0.01538290338047407,9.82080770442106,0.0019701944072841953,-0.0010944053470182834,0.0022720152356238
1687558049.6980398,-0.07835652201319726,-0.020463299100452585,9.862882162199428,0.0018886126949694327,-0.0030434708119914445,0.0007260149887339
1687558049.7079945,0.3341612112599787,0.168350487098675,9.701881243795999,-0.0009675825864083018,0.0030391797991394247,0.001998575086011
1687558049.718047,-0.13258983588561446,0.038244077995390216,9.904608096350879,-0.002829100245769863,0.00031636483689257734,-0.0004005027275956
1687558049.736167,0.022190003733248743,-0.05219513308254032,9.790646488267782,-0.0007679375462989322,0.00067734045891615,-0.0012342365498147
1687558049.7380598,-0.025666368331962074,-0.2945133570272647,9.740439513132115,0.0008075158086648753,0.0002705766993729605,-0.0006303278768858
1687558049.7480347,0.0008245917066484114,-0.09680127959158656,9.788011081295597,0.0028672207149253977,-9.89712892366451e-05,-0.0013687172012827
1687558049.7730677,0.041934431407551716,0.0467469657055258,9.830209422029846,0.0010105373426021066,-0.0003303351372687849,-9.83942572451281e-05
1687558049.774643,0.5507289738466844,0.3673185507001796,9.655009371390317,0.0001768360900071392,0.0011713227459630674,0.0005360495725222
1687558049.7779949,-0.3567650732961329,-0.03263206463886724,10.017905868922124,-0.0001454161939360485,-0.0012836397592444473,-0.0007328008341095
1687558049.7880592,0.05864067654346679,-0.012603093242290152,9.792190641852141,0.00015893956700796297,-0.0005851801990117474,-0.0013448709195903
1687558049.7981985,0.14759509884185273,0.09056139063827223,9.76703208316657,-0.000541025061392454,0.0014931875526567764,0.0002518096899189
1687558049.808041,0.07819335549065129,-0.10413351439804218,9.734365492806127,0.0013122911393946808,0.0029434272618667364,-0.0010211678727022
1687558049.818081,-0.24357695106299915,0.09289863587497027,9.978012187755002,-0.0005056184723740648,-0.0027089317774112555,-0.0013433600815436
1687558049.8280306,0.24236039896041633,0.18984018739692993,9.754228775636221,-0.0029535375700535855,0.0007321027130452273,0.0012542739732931
1687558049.8385766,0.03586114794335784,-0.20098743525004498,9.752114971492812,0.00033106109258432926,0.0014045146863652814,-0.0009444103615782
1687558049.8482049,0.049647079946976584,0.02979899208089385,9.810424585086146,0.001362962217445398,0.0008706965961827944,0.0016230868514436
1687558049.858487,-0.06947200701546093,-0.005335955838534462,9.862166736507556,-0.00034395813571384267,-6.430853358016072e-05,-0.0023268222848377
1687558049.8680415,0.10464356238785136,0.10950058711440781,9.802550559269411,-0.0012563008306014376,0.0005942831173039309,-0.0003054833777672
1687558049.8780332,-0.06252422187193526,-0.044737812762741316,9.846583847836667,0.0010899136990700365,-0.002160198729056438,0.0019993156038732
1687558049.8880565,0.015742141873804568,-0.16817392323268984,9.758562767681354,0.0021601666089274894,-0.0008656805169020824,-0.0029594243077985
1687558049.8980474,0.09417508001540588,0.24216319802679281,9.871499049115844,-0.0018020535958597336,-0.0003217647705731619,-0.0014420833012512
1687558049.9082844,0.04565705898268011,-0.0003297245695605336,9.81270604567564,-0.0009806062030199793,-0.0004588716673935272,-0.0002321129704318
1687558049.9180744,0.04819960374874685,-0.07499023965022829,9.773857373103395,0.0007706533072059289,-0.0002349725331332771,-0.000309967346718
1687558049.9280498,0.12465395413561842,0.06161329147144007,9.764321976226295,0.000184658544981815,0.0014618979711387774,0.0005028982723639
1687558049.938039,-0.05949940685763338,0.09810100679115033,9.881084656130742,-0.0012641055503255644,-0.0005024586654225552,0.0010236726393964
1687558049.9480178,0.023492485869504157,-0.2793979992440617,9.714003533830596,0.003754228081552123,-6.659104051504196e-05,-0.001135881901016
1687558049.9580562,0.2278267835544512,0.22545408091573235,9.781027456492806,0.0011744862035907293,0.0028287051844635615,0.002454882576833
1687558049.9685383,0.0020304317907662347,-0.06199918205007901,9.809278878463388,0.0007557175453518043,0.003240364949349874,-0.0016987534745088
1687558049.9780426,-0.1361958012333503,-0.003711107548853771,9.910196161628212,0.0013499352604564676,-0.00032660696728702105,-0.0011030767618171
1687558049.9996214,0.07412658544473037,0.10977413877929926,9.818016330033728,-0.0020915020159875297,0.0014767942564893972,0.0004082692049019
1687558050.0018096,0.05909130656256715,-0.7504953634803948,9.549119597962418,0.0007542235735526268,0.001973375554083925,-0.0008561440317384
1687558050.0081625,-0.27209108757546135,0.23123857656024874,10.061735585128284,-0.003794331157473961,-0.0012016691902604628,-0.0035230304619721
1687558050.0188713,0.20666118570977543,0.025638381692616913,9.710678147659737,-0.0023288021856403248,0.001561727451629588,-7.48436827725644e-06
1687558050.0280576,-0.09371216211041442,-0.19002998420215655,9.807586278355439,0.002044325130961803,-0.0010973730425203618,0.0005230083789252
1687558050.0380237,0.10197073293532939,0.05955950404638166,9.787610959277242,0.0003895502715188978,0.0009999643804715452,-0.0008464047259143
1687558050.0480542,0.03627638056070404,0.021156380088217176,9.812299228236235,0.0005922202112639259,0.0008013973993093296,-0.0001572269520214
1687558050.0580175,0.07704262222739895,0.23327568047899688,9.849014491233298,-0.003280984022382169,0.0012413504249220567,0.0015671905585373
1687558050.06803,-0.12479753102240376,-0.08594235575947148,9.860735573834463,-0.002411122211625728,-0.0013495958080135429,-0.0008169907650402
1687558050.0780416,0.03793444616285418,-0.1090723073884773,9.7704836923432,-0.0008748130372335201,-0.0005959411148877448,-0.0022825078612617
1687558050.0880432,0.1718082305280508,0.10250833899736286,9.765534785111797,-6.866907992193222e-05,0.0007041716223868096,0.002764884238834
1687558050.098035,0.08296138726754017,-0.09620337928440117,9.756190836580034,0.0009967541045721104,0.002350752295847595,0.000669386501661
1687558050.1080365,0.020338490867472157,0.004899376091960011,9.809459547779836,0.001420706317443476,0.0021849780025606762,0.0013593419226277
1687558050.1181414,-0.12335247623041969,0.03880831457984834,9.900384612952587,-0.0015234515922117446,0.0005122852764663079,-0.0033569034694186
1687558050.128053,0.058588222992467257,-0.08546202238406092,9.757045897685177,0.0012444952126771413,0.0008628992492252323,-0.0022214128675363
1687558050.138047,0.037345680729029954,0.04353272079673959,9.814569956202066,0.0038954110340722993,-0.0011338664293664314,0.0038597563707777
1687558050.1480503,0.12248181056997949,0.12229845188917005,9.813208645529945,3.232259734432663e-06,0.0014585435642859264,0.0014234101945954
1687558050.1580513,-0.06192028289611855,0.0018253746750923683,9.869794088707712,-0.0007593150155221277,-8.93203035083243e-05,-0.0004500467602587
1687558050.1680686,0.1471783022722705,-0.018936095519124757,9.736689256725269,0.00039250327675726564,0.002047519978359798,0.0003397101264023
1687558050.17816,0.0033736115316504375,0.1626413666368164,9.880694039043616,-0.0019588807983043337,0.0009027259764328856,0.0019292836387217
1687558050.1881163,-0.030850813873621635,-0.16073229173472015,9.794055240658532,0.00025877302719284683,0.0002530572984368547,-0.0004280625416389
1687558050.1981256,0.10817743829157658,0.01864127554382797,9.77470201203234,0.0011182060461138994,0.0011121057010817662,0.0017531035719481
1687558050.2081337,0.012264270237451589,0.08859560719116867,9.828546548458142,-0.0005853611204793472,0.0009381166193972081,0.0013958139189095
1687558050.218074,-0.04071996238574404,-0.1570171597738912,9.794027634937018,0.0003887899843334514,0.0010796862893334357,-0.0032145857384852
1687558050.2280412,0.05284227715350059,0.1313136453554792,9.842837202635971,-0.000762312936340722,0.0005443394611134893,-0.0004195219643837
1687558050.2380593,0.005949895523547893,0.07973230588568231,9.851706439381939,-0.001971926902510041,5.521983777377313e-05,-0.0001404712947509
1687558050.248047,-0.006808189547514536,-0.14609789641232923,9.78954029418938,0.0009203971975362712,-0.0006834857954245972,-0.0008385906966826
1687558050.2581377,-0.04467612959283141,-0.003830949102490089,9.856410722840195,0.00038843323553341014,-0.002103196227454336,-0.0021446837617508
1687558050.268112,0.04624987998178224,0.16934702028915097,9.860017028579374,-0.002993367292329045,-0.0019567803233257837,-0.0021540097931823
1687558050.2781649,0.1411653252258486,-0.13240464067260765,9.686464432918678,0.0005668517048665302,0.0003543815882875461,-0.0012319915967485
1687558050.2880406,-0.032292939608929025,0.13535499896110537,9.889753531578851,-0.0013803419365569806,-0.0013503211341682284,-0.0004653164923614
1687558050.29804,0.07100214907654784,-0.10072893607722197,9.760364870812559,0.0001902379991781154,-8.001456975562581e-05,-0.0016611513255587
1687558050.3080685,0.010493957679147035,0.16753354873028292,9.873938810139572,-0.00119183575326226,-0.0018536159389041166,0.0021882048768498
1687558050.318123,0.13137158347235636,-0.16810815836642953,9.693368670148217,0.0021594496245273616,0.0006631802495039178,0.0012103267236421
1687558050.328164,-0.027522734696712528,0.11218814583674855,9.884327612631827,-0.0010443267144278857,-8.09133768485514e-06,-0.0005938302765092
1687558050.338174,0.1478257935474911,-0.03180066701225188,9.74424802012698,0.0011971762537399306,0.001422789533593697,0.0019218388497871
1687558050.3481157,-0.009889450926197042,0.21788886450398212,9.903405040171396,-0.0027300170145101617,0.000295496256397455,0.0029965891463258
1687558050.3580637,0.056366068737928314,-0.2969762464761381,9.686174573376599,0.001974659943369996,0.002035216283269637,-0.0002600569550371
1687558050.36813,0.09814950752604229,0.10032705671635826,9.8155345087797,0.00031276779704448297,0.0030809157612327813,0.0003971064889379
1687558050.378106,-0.0405007843452307,0.022895922745497163,9.856402539858186,0.00029751411294569183,0.0015080874465300232,0.0006328812178731
1687558050.3880904,-0.07205052844016947,-0.0061696430282546545,9.858867033302152,-0.0003562680201821891,-0.00021336348468423328,-0.0015072877558372
1687558050.39816,0.09846246041173896,0.11266796483932096,9.809844554177769,-0.0027919026532615475,0.0013303689314092993,-0.0020630898924968
1687558050.40806,-0.08355261186526819,-0.21173425643270746,9.794364124391375,0.0024067739083018054,-0.0013294627303915027,-0.0015162456820211
1687558050.4180937,0.05301226133142603,0.13705479341696777,9.838215936260745,-8.507292989614303e-05,-0.0010068657803486035,-0.0012647832317701
1687558050.428062,0.06659327139835503,-0.01186585357471647,9.78300914083124,0.0005061506969949069,-0.0003612716355885485,-0.0010565315878442
1687558050.4381258,0.1399695185665657,0.12670604145163356,9.78856710256272,-0.00010890365512054638,0.0008081145655288175,0.0018920340826776
1687558050.4481428,0.017737779384577424,-0.07022640018058265,9.796171646656013,0.000875696158935766,0.0007641554931017799,0.000615021885144
1687558050.4581337,-0.04712059527598869,-0.0621521278731147,9.825881065128934,0.0006722975067445427,0.00019902911357850276,-0.0025768165050498
1687558050.4681468,0.09558041821628459,0.09481657477435664,9.81094878641926,0.0015659950625066831,-0.00013215217755395097,0.0019344969496638
1687558050.478068,0.09498946287507519,0.046288740843643046,9.79259657849524,-0.001691757618274449,0.0026621915377863245,-0.0024669062385759
1687558050.4880755,-0.12590670373267232,0.028288252123222227,9.90791435663657,-0.0010450596853706377,-0.001525038629563984,-0.000613952664887
1687558050.4981017,0.08597692309243356,-0.017093406301007058,9.774857647921472,-0.0014361917771560954,0.00012934359329441422,-0.0018947300540707
1687558050.5082014,0.03531697814199412,0.02179681232248208,9.809058869243529,-0.0002739278906126046,-0.0008857854992272733,0.0004827639514156
1687558050.5181086,0.14625780816429693,-0.0075494715215253866,9.740150011989353,1.364402418905042e-05,0.0013981924920953661,0.00034156136285
1687558050.5280983,-0.025541725386165854,0.07756074121029746,9.87038843326784,-0.0009798674544209292,-0.0002089017760224114,0.0011745575193823
1687558050.538159,0.02280308489126997,-0.0872033313585397,9.791519841106043,-0.0005749222371866327,0.0005070984640883049,-0.002020634854441
1687558050.548252,0.19521584981683474,0.07940930563790226,9.758697879862899,-0.0014522142114891249,0.003574871532756277,-0.0006225415545008
1687558050.5582273,-0.1399669254471587,-0.10982758120738484,9.866324706118473,0.000525130449894362,0.00026011649903321787,-0.0018470395861617
1687558050.568092,0.035484667600237954,0.226033234399616,9.894948305014053,-0.00318227104821982,-0.00024988371810555305,-0.0004854232810861
1687558050.5781145,0.014267399627688956,-0.24801392083424942,9.731972727981239,0.0011476438690656147,-0.00015899540127080244,-0.0022005726622841
1687558050.5882654,0.01763600269336556,0.12458636200474119,9.871903444605552,-0.0010081864947877025,-0.0010225110731225924,-0.0012621669138274
1687558050.600512,0.11393092513890044,-0.00846275282700442,9.760311984810711,-6.231508716743239e-05,0.0006874059702594409,-0.0002425399415618
1687558050.6081283,0.040006509760989975,0.12396351120324882,9.848627206493031,-0.0013445952211621796,0.0004877209540189621,0.0008370539599605
1687558050.620151,0.07025677757609249,0.021685726247892154,9.794946515273393,-0.0013013744895249125,0.0014231489132367479,0.0013421876010876
1687558050.6281018,-0.14658661041606577,-0.07190603030181615,9.878322990740731,0.0007181322084622989,-0.0019545835545004826,0.0025529006689363
1687558050.6381085,0.12902596457539658,-0.012556394120894054,9.759297533134347,-0.0010879297166902333,0.0015739999879941498,-0.0019781868013045
1687558050.6481378,0.045691460932240295,-0.07115576650950256,9.780427239279382,0.0016877790905033745,0.0010596073948104987,2.5333576607043792e-05
1687558050.6581297,-0.012930685910938234,0.12493076078768788,9.875157019222096,-0.0007779650630422572,0.00013829651405333602,-0.0002872582098892
1687558050.6683624,0.027529283091816344,-0.0032153108190687407,9.806210474530165,-0.0006643415421116006,-0.0001079465029800155,-9.615256380802864e-05
1687558050.6812527,-0.026289237308723016,0.0724057292123895,9.87469721420145,-0.0016787294941899118,-0.0024809560298720864,0.0014800241242961
1687558050.6881907,0.1838189033345725,-0.11783150931908701,9.683672486222642,5.8371948822648726e-05,-4.722305182170468e-05,0.0009353914374993
1687558050.6981611,0.12377581154468038,-0.01918585759247321,9.746128191194316,-0.00015881292212791416,0.002490085796819318,-0.0006645933298817
1687558050.708157,-0.14923276076534653,-0.01786013644897168,9.900260287993895,9.597749380553794e-05,-0.001019914991830593,-0.001747952452158
1687558050.7181654,0.05723261314534202,0.003939813621028767,9.798924982830403,0.0007911384296442108,-0.0011063295211196332,-0.0008296602445147
1687558050.7281137,0.1210422273921904,0.057915870733102615,9.769535431607386,0.00012653909273027165,0.0006412212536030026,-0.0001777104607275
1687558050.73816,0.1299544452461891,-0.10666137689787668,9.731741577375756,0.0011320325025529823,0.003377753722820587,-0.0028730203902772
1687558050.748283,-0.1829204745275086,0.1344709477506836,9.965703156091857,0.00035192588362343435,-0.002245117090157672,0.0002894290683367
1687558050.7581358,0.15134970742899626,-0.036961927113497474,9.72790386038637,0.0014952235783980766,0.00014947562309125268,0.0005356901984237
1687558050.7682133,0.04999340829468757,0.007484137447194201,9.79511350255002,0.0007062182243612743,0.0011314765830484558,-0.0012308476997963
1687558050.7781513,-0.029418286800848965,0.05844756786170658,9.86402334249766,-0.0008763055277125774,0.00010141261951425286,-0.0022694730705074
1687558050.7881467,0.15490800526702608,0.03211749629313026,9.757884739804402,0.0007963404472879239,0.0011314668104781666,0.0019475477475249
1687558050.7981205,-0.08765940233846935,-0.08014227544376737,9.840242982610306,0.00026029542449806036,0.00015244931870831845,-0.0027384903787127
1687558050.8081536,0.0895162346399069,0.10104158326811287,9.820524493025014,-0.0014008625854300628,0.0010420284014684101,-0.002487790914481
1687558050.8182092,0.09013213679906583,0.05994615882040838,9.800297844186455,-0.0011303724768439549,0.00141644314597672,-9.353938907897944e-05
1687558050.8281798,-0.047188428377935215,0.052717422464049195,9.863720470698345,-0.0024968073914172976,5.821683798525012e-05,-0.0009946698828092
1687558050.8382463,0.06608644132626179,0.08636586166247048,9.822329716691817,-0.00336443657002182,0.00036067574442992723,0.0002398520901375
1687558050.8481607,0.03040604111463303,-0.03593098804405337,9.787208690216143,-0.0024703585313110145,0.0005417465503956228,-1.5303752613727998e-05
1687558050.858222,0.062275555737328334,-0.041249618042681416,9.780980213680577,-0.0011072999462617757,0.0009764808350164025,2.933289627070476e-06
1687558050.8681507,-0.0242030506419836,-0.18478209180327765,9.766172261686387,0.002111360359570832,0.0003841856808612529,-0.0015020690897903
1687558050.8780963,0.006114896861715099,0.30667470529508817,9.931552968521336,-0.002668912579498222,-0.0011566312858582524,0.0012088181556942
1687558050.888116,0.08211401654588224,-0.17868447398715442,9.723700873656846,3.565107561326736e-05,0.0007343253302081158,-0.0009421772828749
1687558050.8981075,-0.001495418046253036,0.09868740942512959,9.854403547419126,-0.0006423512566358003,-0.0007490710004701757,0.0010564583372366
1687558050.9081314,-0.07945891205351675,-0.18714038646117725,9.796112738900788,0.003142921246050477,-0.0026228339547223947,8.825722220772033e-05
1687558050.9181917,0.2020800412942983,0.11560433691723256,9.757428371048093,0.0012195444116301225,0.0007641463938163936,0.0005405000138603
1687558050.928166,-0.017115523199809076,-0.11038578617193145,9.799627198264266,0.0018494580404351687,0.0006382358143973265,-0.0030115811659447
1687558050.9381657,0.09017295375060351,0.26565248216496395,9.880396298446907,-0.0021362030984652075,0.0007693619758519702,-0.0005055519558913
1687558050.948167,0.03155138141833454,-0.026306257453102614,9.804492027307678,-0.00044305968172814983,-7.354230165488918e-06,0.0014453693343535
1687558050.958141,-0.08995342303261357,-0.171352386981621,9.823839547546127,0.0012150895133669587,-0.0013730370043794037,-0.0026874436570755
1687558050.9681098,0.2782410357389165,0.09868408806973478,9.711775169564119,0.00028560243596277807,0.0031982641961941696,-0.0008553305214694
1687558050.9781003,-0.19503365982667115,-0.07040689313550878,9.895646008786692,0.001399850306383541,-0.001334745302859914,-0.0017501932142726
1687558050.9881985,0.03929066896894258,-0.03467755387133142,9.790574074376096,0.001486630482671347,-0.0007222284761310675,-0.0031575939191929
1687558050.998197,0.0880481775357677,0.20995880771326625,9.850697348893036,-0.001237651585876459,-0.0003974127429729152,-0.0006623963399282
1687558051.0081043,0.07023365466304463,0.03893114093899421,9.816222603204727,-0.0009314420526096669,-0.0004078188781131597,0.0010016864126124
1687558051.0181694,0.06735373656454105,-0.12035391771365299,9.742152434801314,0.0009598733069332455,0.0009310650199901883,-0.0007297959218225
1687558051.0281842,0.09703096532550103,0.2079759748305755,9.845794039337624,-0.00255826060135327,0.0018154130584705711,0.0002774712357246
1687558051.038172,-0.019479595220454737,-0.20204038045320546,9.76671005152101,0.0011185639069238005,0.0012875475501460997,-0.0010118537156335
1687558051.0481138,-0.0026520809877054493,0.023817583351225087,9.837767966312382,-0.00017486139215832025,0.0010558529474413122,-0.0028226768171838
1687558051.0582092,0.11378863377654298,0.16108744792657728,9.797402365366327,-0.0018907283192271683,0.002247914514222345,0.0004995111685753
1687558051.068135,-0.8542764198344893,-0.26918235614879527,9.744795669798945,0.002952489393963524,-0.011346398265769228,-0.0042726273222318
1687558051.0781145,0.10784645523685492,0.2771369460599335,10.222541617313823,-0.0002460031155492675,-0.019179560694021186,-0.0001547119154087
1687558051.0881095,1.0929722571538274,0.0382753914172944,9.639432166050272,0.0009215501672197973,-0.011736059707043603,-3.802546229726548e-05
1687558051.098184,1.4268659505715984,0.26999886591561345,9.779980559620071,-0.004772241283634211,0.0031863200669095568,0.0021907179344021
1687558051.1081548,1.0613203462901872,-0.09109589908060334,9.614231896130052,0.00043794207169668556,0.012959240438182938,0.0051864020952531
1687558051.118225,0.38396807832442986,-0.06235358540951392,9.64039984137533,0.0011259374333450133,0.01733947864365803,0.0041211581283756
1687558051.128169,-0.8587843926749812,-0.023202872253832937,10.072316303977663,0.0006658907487620211,0.002727396427837997,-0.0021085458847186
1687558051.1382952,-0.5542862989346565,-0.07166930165184064,9.948724905679835,-0.001660531954771479,-0.008060162433842225,-0.0089374647049657
1687558051.148171,-0.33138962647961273,-0.1768160219228396,9.764289627133726,0.0014437723402524177,-0.01780378973901714,-0.0115585323928347
1687558051.1581874,-0.7972415035813506,0.11781170602616453,9.739538286621347,0.0010768261929867701,-0.04099377124952264,-0.0013581036163917
1687558051.168141,-1.3496917881885124,0.8312482549481137,10.328833372314477,-0.0042191263470638405,-0.09004487265263415,0.0200022974477657
1687558051.178157,0.35804673414287014,0.33152168823242284,10.743635186454643,-0.0045845528465691355,-0.13269926127535034,0.0155294503511437
1687558051.1882083,5.184080874240953,-0.5158686431151009,10.045041395565612,0.0010011013771395354,-0.1131519330014795,-0.0088406835256568
1687558051.198243,6.4993416767292045,-0.07952419012639186,8.955911960126148,0.003861764443432894,-0.06088544314646575,-0.0409383798523298
1687558051.208134,6.104553588730223,0.41457318737667737,9.817886261988383,-0.005592094605245846,-0.029347989443331394,-0.0812706748528829
1687558051.218199,6.287229488422557,1.033867552764901,9.022991341522117,-0.02507338827096364,0.014450744518151277,-0.0941374624653211
1687558051.2283075,3.734945090472492,0.08256537372094108,9.70866155414139,-0.027892890095272058,0.016216668061503636,-0.0849571774287573
1687558051.2382128,3.1282531157514257,-0.07832800394171642,9.587936506212028,-0.027494697843271524,0.005801733469664559,-0.0559103997929445
1687558051.2482617,2.668938922662464,-0.7935466562526561,9.788947506384117,-0.01331939557054606,-0.008910108108732509,-0.0198287392540327
1687558051.2582755,3.3914066338326734,-0.6816475691425394,10.039612007480807,-0.0007087991316317158,-0.013476013952611388,0.0223019191490062
1687558051.268147,5.330200703707073,-0.1727667123139573,9.553710716167636,0.007554968764582213,0.01599593064197682,0.0587928084151395
1687558051.278177,6.17634548335851,0.2633694736541244,9.252599778759581,0.00875157300536906,0.07284553642734667,0.0801892404870637
1687558051.2881873,4.603647171230213,0.27426144865052454,9.317831787625039,0.00790389911590899,0.12616031685723653,0.0728924547748216
1687558051.2981796,2.1841597046184456,0.6764456450097904,9.495979100543552,-0.0010165326443535496,0.1590899222736339,0.0532080245630391
1687558051.308209,-2.201964638104165,-0.045775859325612504,9.445896519717135,0.0007074802716414595,0.15183218217851718,0.0200608645991929
1687558051.3182256,-6.657766884951377,1.6822141640501005,10.703629908601533,-0.017896980980615988,0.07669345962334195,-0.0004575404145247
1687558051.3282418,-7.135016207863965,0.6351920723027542,10.629365779300334,-0.030386534847146603,-0.008117886131255306,-0.0166055491699329
1687558051.338124,-5.747615679937477,-2.4514635820351502,10.573427658760556,-0.0036082458753825255,-0.08483719086582191,-0.0331546055658212
1687558051.3481555,-1.3427479916673708,-2.622623346780745,9.281963292779427,0.03333937103346107,-0.10442887878942178,-0.0433007652445188
1687558051.3581505,3.285118378584139,0.6279515640379644,8.572449773891526,0.032049350853081825,-0.062094716788348624,-0.0340051154179922
1687558051.36818,4.0445230456441585,1.667698511334942,9.461345061339301,0.006691300264525265,-0.0040124974602897415,-0.0286010584367863
1687558051.3781528,3.6340926847319337,1.9827889872144115,10.28142528306056,-0.02693484141398305,0.046772377075084214,-0.0115927799178711
1687558051.388177,2.653722429222283,0.41160995961627694,10.394679867374359,-0.036498149723556673,0.09033011107252036,0.0081178483979352
1687558051.3982852,-0.825009625203756,-1.2943001398139184,10.389337898728671,-0.018873256533476684,0.09139647003563138,0.0256175746636041
1687558051.4082024,-3.34722246381056,-0.09062030252914567,10.17758846255336,-0.00883943228669557,0.05673903695509487,0.0393664551393636
1687558051.4181962,-5.180899599570772,0.2952391640251045,9.934318550087982,-0.009078137082764856,0.0010486837493459866,0.0477056925611146
1687558051.4282196,-5.032480750826853,-0.09647447200463984,9.678332634797561,-0.006253252966120947,-0.06080012731212491,0.0437035647647031
1687558051.438156,-1.9389171675770864,-1.133964321960936,9.160927880479045,0.003557481762168182,-0.08578964662385376,0.0337757219986566
1687558051.448156,0.18948728784350197,-1.2159853113253367,8.869799241193688,0.01712985875465866,-0.08151763395855645,0.0127931938932784
1687558051.458266,3.025466223904029,-0.7491166739429731,9.15708281040879,0.02110594544408313,-0.043112808508550385,-0.0055735131299547
1687558051.4681263,3.8835897040857206,-0.6651443745774834,9.34686333113841,0.023484716627598403,0.0186189758891815,-0.0180588594211689
1687558051.4782004,1.7907829388377734,-0.23605061399767324,10.817871595266226,0.017988961456753553,0.04816386613387729,-0.0286401255561462
1687558051.4881642,0.7651220878965858,0.511546467295345,10.6717329379344,0.014219566733032407,0.0673849310106871,-0.0250723703338257
1687558051.4982295,-1.3080883110558315,1.1276668578124083,10.879408598857085,0.0018354846075778457,0.0596390547676963,-0.0183354864402166
1687558051.5081775,-2.792283390874278,1.6355317104021179,10.133387493307723,-0.011182419559869466,0.02881199154654263,-0.0068171198053709
1687558051.518179,-2.8084112974036977,1.6331022677282354,9.366155078718682,-0.023183298089927678,-0.0027039993380747083,0.0033250223805704
1687558051.528197,-2.4330577846464476,0.830189442457055,9.135776171676614,-0.026675771291030183,-0.0312919465719885,0.0158545974136837
1687558051.5382357,-0.9867606207390076,-0.5937878059124709,9.010205527855154,-0.01610089624931466,-0.04379192707881973,0.0167412677274593
1687558051.5482771,0.1576540420968756,-0.6275045096394198,9.128765839602364,-0.004017910900450085,-0.03737899030593295,0.0147043898196467
1687558051.558198,0.45060041610627266,-0.29693678713125216,9.9009065769936,-0.0031175301534985297,-0.026750136786049674,0.0051129267977126
1687558051.5682302,0.9636037616735981,-0.9030349227500301,10.453896760649883,-0.003059225814157384,-0.008520090951312995,-0.004426387282317
1687558051.5782917,0.39018061055909914,-2.0783040615121053,10.76596602887725,0.010934085351920161,0.0009717388283960108,-0.0134818336500278
1687558051.5882154,0.5204581719616274,-1.5415360236382567,10.458611660633343,0.024943726383577017,0.011671017193560231,-0.0181462621821514
1687558051.5981777,0.397940042971389,0.5643489268693652,10.173836261472948,0.014105044221422723,0.022675415880097718,-0.0139809489755383
1687558051.60822,-0.09502125493242679,1.2395374192869137,10.024136124833953,-0.006352649453551181,0.023665607085040372,-0.0103573823852888
1687558051.6182065,-0.07846918983306893,0.12693512217169745,8.988866421722673,-0.005883846831709501,0.026128598911048195,0.0017854553316761
1687558051.6281688,-0.5727909452633456,-0.32521131173666123,8.751237246305243,0.004416947916664552,0.022042735296345116,0.0125569629909046
1687558051.6385138,-1.1094187036908298,0.2688242488547589,8.843678052612546,0.013619767906690219,0.009856457844677207,0.0255501115189441
1687558051.6486137,-1.5678044319324296,1.5518646852327778,9.620299764612456,0.0033389968043121493,-0.007721531920544546,0.0283101157711394
1687558051.659953,-1.5536242255509336,1.9562116451750364,10.431544952910508,-0.01928897948692673,-0.02894229883490299,0.0242157609628089
1687558051.668228,-0.22731096787519578,0.5272065370345814,10.519250844449724,-0.029407006541947753,-0.028652645247741693,0.0151931395249017
1687558051.678252,0.015407118867854713,-1.3673352917633488,10.506428120889662,-0.013008185138761296,-0.030198600931154035,0.0101350130008109
1687558051.6882043,0.15144947633597625,-1.5091279473370751,10.075185421125408,0.006650169230104945,-0.03064671236472301,-0.0023601687552831
1687558051.698192,1.2623262652612586,-0.23738900491289802,9.69305379404471,0.003663704298198855,-0.015097719005577425,-0.0143776970489374
1687558051.7083356,1.601407547534841,-0.727367780609147,9.495748045584953,0.0012600638554257678,0.006143948815921818,-0.0265031779690138
1687558051.7185905,1.5357430662551275,-1.0907651419531108,9.38004043514288,0.008724578975153512,0.02498038399653827,-0.0299050497396341
1687558051.7282617,1.07171186228075,-0.8307293527027734,9.391910181283395,0.014281399288082232,0.03818431767597483,-0.0269692862911573
1687558051.7381902,-0.06753817979236514,-0.37243320376527167,9.510337255153216,0.020180939785641904,0.03664898101145087,-0.0188136833293787
1687558051.748189,-0.579641336967944,0.7516535557926518,9.822869331329226,0.013422586172555762,0.027501279919003595,-0.0092531765385023
1687558051.7590623,-0.9489422411590491,1.3688026184428133,10.06322588763242,0.0008325945193573649,0.011129299728398902,0.006056377520556
1687558051.7686849,-0.8603506120449608,0.901195890702548,10.095876002507184,-0.005053712203682346,-0.0036227584877247775,0.011232879334832
1687558051.7783766,-0.25214099575291304,0.7396337448481028,9.861029352130386,-0.0086271383416499,-0.01025628239214726,0.0131421213464387
1687558051.7883017,0.18656325074073882,0.35186721340089955,9.725470499101442,-0.005258694789489307,-0.01244060487077132,0.0114860863850959
1687558051.7982674,0.28473092396985916,0.702041928001654,9.771468367139347,-0.010808973156269134,-0.010504237916172927,0.0043368692004629
1687558051.8081956,0.3617082802921594,0.43936074340168657,9.846667760700457,-0.01680742856436514,-0.009994967534263282,-0.0050307183100334
1687558051.818303,1.0226315338502425,0.03146709671504438,9.500002404989953,-0.018476850016694343,0.0021608612242639907,-0.0124835284932009
1687558051.8284252,0.3816845945098456,-1.0978829828837584,9.771259281339368,-0.011315324887564714,0.0038964822678638888,-0.0217259904874912
1687558051.8385012,0.23403992310292693,-1.7790049493042142,9.76336696762759,0.006080863866544615,0.004442790564081333,-0.0276935125275007
1687558051.8482852,0.45484032322965895,-1.7657733359228118,9.851945839965492,0.02149100684396993,0.008644349362334144,-0.0286562467499128
1687558051.858413,0.20096475827908308,-0.8922244730659801,9.956024775418324,0.02715519944814184,0.005661736792335927,-0.0232035449279896
1687558051.8682318,1.3911561726115063,0.7927823906380398,9.976276574362139,0.014648837592769156,0.01752096410510091,-0.011545629849886
1687558051.878294,1.2364277825404761,1.121545987888635,9.883105222523039,-0.0028169437473001668,0.03109061549582339,0.0041707151995547
1687558051.8881967,0.7211946451092369,0.5349343191803738,9.867804954798675,-0.00951906021260426,0.038463763050413,0.0172428948299535
1687558051.8981884,-0.7407562004149446,-0.4488651762079754,9.721728974628885,0.0027590090038690862,0.0283083041004411,0.0275224925444968
1687558051.9083374,-1.774672857736081,0.21231649734640962,9.835917354112981,0.011362528611777629,0.005728283517828419,0.0318173890428193
1687558051.9234178,-1.5562305165843002,1.3014047683890029,9.797837119228136,0.0037135286791551716,-0.02300208918876479,0.0309141998605378
1687558051.9352283,-0.8919775229923005,1.5508959560187339,9.866305679592301,-0.015664358918807592,-0.037611222280422865,0.0211868652568706
1687558051.9429083,0.3183345734128767,0.5979652947387556,9.590696922437218,-0.020158574133471073,-0.036613765377067974,0.0124686018989928
1687558051.9504771,1.9133240224794834,-0.28009683403115343,8.939963647681468,-0.018525996112225954,-0.015310889638722203,0.0042736414780416
1687558051.958693,2.1626531448196054,-0.9981412991551909,9.089247534957691,-0.01054897873821676,0.011999534592999038,-0.002527956994479
1687558051.9681966,1.2005498799344414,-1.429279729988407,9.702850403894999,0.002905752033934928,0.031246332914825554,-0.0048397641202858
1687558051.9781857,0.18271743328464632,-1.0473954840937059,10.283435617419041,0.011046703431580337,0.03615889855946038,-0.0065883283077231
1687558051.988242,-0.5898215991103118,0.02362563858384387,10.569074116522405,0.0029745323277025988,0.031499701266410426,-0.0068487801162949
1687558051.9981992,-0.8241364039312493,-0.28517845570810635,10.319628257715054,0.0002621722189999579,0.021449918826078447,-0.0022975424344143
1687558052.0082362,-0.6121538105072521,-0.3388199232520779,9.762989571292149,0.004091604378324508,0.011852155324087144,0.0024411456852727
1687558052.018225,-0.6236388585120975,0.1373114251454301,9.363627321287908,0.006731153656933585,0.003970508833207421,0.0068447616377421
1687558052.0282376,-0.4425142602621558,0.741808208699539,9.242780276796395,0.00019362663034436605,-8.52823540762761e-05,0.0079136182048865
1687558052.038198,-0.8211575517371167,0.7111054955006892,9.40741216717409,-0.001124270773533808,-0.009945339975416766,0.0085152064876207
1687558052.048176,-0.9709596568766505,0.9936893844508071,10.065777054684668,-0.010820525378289526,-0.02415547204465465,0.0084541387350805
1687558052.0581837,-0.2573472127364773,0.17739549000333252,10.03324952047329,-0.007813011918972584,-0.02941559072920075,0.0032561890275725
1687558052.0681863,0.5916778265260235,0.14120426626032462,10.135834928560561,-0.008225845394645775,-0.02395132297637221,-0.0009425500447354
1687558052.0781891,1.4893013523184901,0.02716228018182957,9.835471503814713,-0.009404153858766978,-0.005673136168265068,-0.0056312886571935
1687558052.088184,1.739804907732575,-1.1078497189179266,9.707476726075003,-0.0007940885708242533,0.016145782503646622,-0.0134782452641478
1687558052.0983171,1.084030347448241,-1.5728360861933055,9.61969149375298,0.012511780692630476,0.03309475431913096,-0.0153668379916302
1687558052.1082726,0.31719273365874573,-1.3132008936674286,9.623424864369861,0.022744808581250407,0.039050619140398694,-0.0162198028101078
1687558052.1182787,-0.32539701701701795,0.09894030471217156,9.853304641520502,0.018244869725028107,0.034331990594585256,-0.0092502754686824
1687558052.128267,-0.38077561977794405,0.8821729218279726,10.037350007103838,0.00153109569991466,0.02984227480413689,0.00047294903384
1687558052.1381967,-0.5971175973961265,0.46902871664525736,9.868876268152459,-0.006014307586298335,0.02320454929171527,0.0110891753302463
1687558052.1482596,-1.1392126088403616,-0.23655128888879984,9.9080908370283,0.0003489139267379661,0.009096060145710861,0.021936529638017
1687558052.1582096,-1.747317279816915,-0.11200357776617835,9.988414232282546,0.011468246967075895,-0.012950059125226097,0.0314228435473092
1687558052.1682518,-1.8114908435758126,0.8064837125989479,10.228545340948472,0.01148707091786394,-0.040347688880280716,0.0327182350175031
1687558052.1782658,-0.5211974735874076,1.8775221163180078,10.052372275073976,-0.007827951114613043,-0.050003606906396436,0.0290138901637443
1687558052.1882048,0.6073981276625694,1.0701514179684513,9.658322000612285,-0.021021194919286564,-0.04432943247011866,0.0148314063863404
1687558052.1982,1.611924841019619,-0.038145779296492856,9.081991981260348,-0.019872818457542053,-0.0246179536033799,0.0015340019836481
1687558052.2082484,2.0627430169563676,-0.45152443617771254,8.998448016442804,-0.01449365163776353,0.0015667680851732617,-0.0059376271946779
1687558052.21828,1.5716715247143649,-0.7803525501626427,9.3528202490044,-0.005251574456244174,0.02146295016148179,-0.0066508945582858
1687558052.2282872,0.3210604280827491,-0.6653578206734071,9.878446884969707,-0.0005006186121999899,0.02762901670447684,-0.0035155579952946
1687558052.238226,-0.6082220442481588,-0.7995228537846941,10.659811033542065,0.004404043761685362,0.016508302433657,0.0018885118789081
1687558052.248275,-0.34708944958259985,-0.6565498351974319,10.665615404213613,0.008327630353353632,0.00614651101229545,0.0176692319528707
1687558052.2583313,0.3197955846196828,-0.5334584640772441,10.331281325834677,0.013414381485463976,0.0014299326009019283,0.0289475166664966
1687558052.2682705,1.18327501604055,0.47885112924049383,9.508998480708382,0.01037711323454662,0.013345862538680652,0.0420751472429879
1687558052.278194,0.24727161608286954,1.3316683709553154,9.487396345038883,-0.003418466443825284,0.015148759333237073,0.0510525715963491
1687558052.2882,-1.090211397711763,1.0056207123953058,9.438978371080657,-0.014138176888159777,0.001880524153265834,0.0495849711315282
1687558052.2982008,-1.459388022425121,0.16164374109437618,9.534785398125376,-0.012852526086318686,-0.018488547208259334,0.0456451264636167
1687558052.308267,-1.2205698995293344,-0.41075509245132397,9.679973182139095,-0.0035317119740465525,-0.03865021452779273,0.0359788624064573
1687558052.3182423,-0.16389858937279403,-0.5267421367457724,9.682632304935328,0.0027502027940108564,-0.04325533839520753,0.0104687990115531
1687558052.3282852,1.1782835197450607,-0.04665994705112906,9.629922305053682,0.003293541498874751,-0.029389335213262667,-0.0102907788513652
1687558052.3396006,1.7334148207153868,-0.47514273165994886,10.151406685374972,0.002113594291421918,-0.009325689878267096,-0.0272209184749475
1687558052.348263,1.9885886029947675,-1.6744561634406072,9.992755272362736,0.01858244859268689,0.010273514468542593,-0.0282827454192987
1687558052.3583488,1.6437526657026234,-0.2263295164757318,10.439561981107571,0.019306785232244023,0.026928815271926344,-0.022790371118342
1687558052.3684435,1.568748423730484,1.4592158229721206,10.435045102696439,-0.00028298377335931045,0.04067926240315777,-0.0041411888359538
1687558052.3783183,0.7572237398527842,1.6359988974425341,10.203475918673709,-0.021901376934356804,0.04419930634564542,0.0201304697857745
1687558052.3899674,-0.32124515346231014,0.1986160026131882,9.599195102171866,-0.023109161080910882,0.033794015994076804,0.0437245679514058
1687558052.399541,-1.243816423985137,-0.9188229624607526,9.077882524967713,-0.004665206292358309,0.01636626843876462,0.0560351510958322
1687558052.408306,-2.284068260451113,-0.38962254993446294,9.216389915556746,0.006521530111083103,-0.01197445970080612,0.0539141309873708
1687558052.418407,-1.5543858052578494,0.658713789331069,9.215392534021385,0.0017609397224454142,-0.030573188108240567,0.0365396564321168
