time,ax,ay,az,wx,wy,wz
1681484047.337582,0.09321660047496282,0.12126247907072757,9.819409400855038,-0.0007833204966406667,0.0019482456639706846,0.0024927991867538
1681484047.3475914,-0.14825855504364074,-0.010699440313800466,9.907350728317327,-0.0012340646760414197,-0.0014179355583364209,-0.0001036964863065
1681484047.3576026,0.22207748010176875,-0.049522764203700484,9.693757098190037,0.0012328171325100942,0.0017459630941529072,0.0013789499239887
1681484047.367562,-0.046271256082026375,-0.055542839735076746,9.852779390248532,0.002329905012719063,-5.856193765477225e-05,1.996010136867481e-05
1681484047.3775387,0.14920609227497694,0.17669188649016895,9.80666287055245,-0.00045215155596191125,0.0017820904463727203,0.0005776691792074
1681484047.38756,-0.16753480164951515,-0.0866226622551128,9.89686548039194,0.0014116545249431905,-0.002619347435522783,-0.0001807863631743
1681484047.3974874,0.22269709334963245,0.15628682418608691,9.761701693556866,-0.0018223124597883816,0.0014550042268457793,-0.0015614032785866
1681484047.4075398,-0.050203392120111066,-0.0650103112229028,9.827331871621313,0.0008651307514579389,-0.0009317576887975486,-0.0003510533174026
1681484047.4175272,0.07678238307131051,0.09799413551623544,9.835627630610379,-0.0008533495447060727,-0.0005082221205429313,-0.0003871934063259
1681484047.4275432,-0.009023484356542535,0.005542567436862215,9.827533376387287,-0.0005333243496293586,-0.0014648702029364084,-0.0004102878778699
1681484047.4374824,0.12168549762469999,-0.1027404340024458,9.73097991082839,0.0027583304826659565,-9.20958640561902e-05,0.0001146022655543
1681484047.4474652,0.11564051264377939,-0.02242800656783927,9.760100284513923,0.0032690589984339107,0.001726584647927371,-0.0007753802969578
1681484047.4575243,0.032840758900666824,0.11288425239310826,9.862334571401261,0.0017402172325710016,0.001146183156473722,-0.0008528390939805
1681484047.4675996,0.10869389194820352,0.1652714706203598,9.819162331603595,-0.0010362692629294575,0.002501435235249468,-0.0003164312842759
1681484047.4775128,-0.08313382125404555,-0.09961428292574415,9.841829499029542,0.002131741519510141,-0.0006970946829562161,0.000809008484381
1681484047.4876003,0.11540068850492931,0.034226640519391414,9.793846419025067,0.0014172147057878888,0.0009960617150627852,-0.0001647964858907
1681484047.4974709,-0.10398800204880908,0.055434905649533565,9.898533232028948,0.0014023285063845215,-0.00244871502013841,0.0007843956660021
1681484047.5075696,0.2250663482335782,0.06471760915841651,9.72307623098469,0.00020389921649128847,0.0015090211906341928,0.0003641912440311
1681484047.517574,-0.11899015410232223,0.10735856264212244,9.925173297927616,-0.00028150178724856313,-0.002598477671731218,0.0023721292341601
1681484047.527634,0.11160929459896357,-0.061588967729574826,9.741505234409026,0.0010763571707512064,-0.0008934068944810432,0.0013357490638977
1681484047.5374744,0.031726517293127504,0.09190761866538444,9.843096567601014,-0.00016602195998263597,-0.001333368954555973,0.0016155215521816
1681484047.5475168,0.1174673690412806,0.004640097558417347,9.76268217453372,-0.0009032730976890115,0.0008678855477371831,-0.0005980571772429
1681484047.5575051,0.05734089187036997,0.024666292596039027,9.804381269498718,-0.0007143852292382017,0.0009804051828044991,-0.0003559043438631
1681484047.5675611,0.03094973539703046,-0.10753691490706312,9.782352517211185,0.0016012492003608394,0.000808687086320882,-0.0014056786935303
1681484047.5775332,0.07685436381779925,0.13641997487996343,9.827693176345221,0.000566739337625182,0.0005479030772225509,0.0011938154598705
1681484047.5875754,0.11401767658133964,0.1523232800869219,9.825911550822708,-0.001120439483617153,0.0011826896968166862,0.0031674731249463
1681484047.597632,-0.003786162001287933,-0.0018563159169279525,9.8280730257403,-0.0019612539241474027,0.000844802238584579,0.0004312646301936
1681484047.607558,0.06452722348372632,-0.04835413306600197,9.777714346831914,0.00026462078200955566,0.0008388441882057596,0.0012165415642325
1681484047.6175103,0.0657707597161344,0.07694175202452815,9.818252630534241,-9.596469781652206e-05,0.0008470269956536395,0.0025975168642129
1681484047.6275704,-0.08159125777432351,-0.09444727436155873,9.843619698383396,-0.00037503448210970464,-1.0926261412088399e-05,-0.0029468468896571
1681484047.6374755,0.05843712946528703,0.04941134640623126,9.81029620587078,5.8588922453155685e-05,-0.0004247489835595288,-0.0011903611052307
1681484047.6474748,0.0902103850711391,0.017143412450695696,9.783167856033034,0.0017133835488418942,-0.00027575568146207354,0.0011554437183317
1681484047.657629,0.06385635737378713,0.16701156441156778,9.851536884064775,-0.0024805448783290713,0.0004644689773910642,-0.000460189654817
1681484047.6675105,0.13282905530895336,-0.02011789546956971,9.758731959144518,-0.0013372574097274253,0.0019966548071393164,-5.8645735819986286e-05
1681484047.6776247,-0.004567686310396666,-0.20166895424595654,9.754261823805285,0.002386955867815468,0.001735156295640037,-0.002363428477523
1681484047.687518,0.005819737310190988,0.09453092248126418,9.853680959328694,0.002279250393238837,2.339396524913169e-05,5.313462638373095e-05
1681484047.6975293,0.03156001219296211,0.11751410630332544,9.8494125438992,-7.02799780084254e-05,1.07091706897469e-05,-0.0009396544232491
1681484047.7075732,-0.000980158805448099,0.02961128011333191,9.843134398749934,0.0005782854838532736,-0.0016298864084275807,0.0001917177537929
1681484047.7176306,0.15013877191112313,-0.01519465880806903,9.751712595230684,0.001338623247801532,0.00044695581199386117,-0.000257543757883
1681484047.727619,0.052192437555083716,0.14584068569650477,9.83917393023941,-0.0004841571465934948,0.00024354313986639487,0.0007818064146217
1681484047.7376184,0.05313965911509214,-0.11836211529984383,9.759062078244115,0.0009068510840723708,0.001396543969014398,-0.002097093737078
1681484047.7475083,0.09374765126337455,0.055269213899833324,9.808577890997665,0.0015759131360372116,0.001560430345055607,0.0001529511023786
1681484047.7575436,0.07048828997669328,-0.050679455833525525,9.775044639361928,0.0028525527309279787,0.0023230102028875903,-0.0005347407463464
1681484047.7675242,-0.019111339441163114,0.28923308796160024,9.949177074533866,-0.002165390083458695,0.0003295975410714364,0.0002908152487602
1681484047.7775135,0.0845151732336166,-0.06497469216441482,9.763859898805391,0.000435973048813541,0.000805325412121268,0.0014557175832546
1681484047.7875383,0.040236703005434665,-0.029211929812744546,9.789415966915943,0.0019190229785641527,0.0005467862845713142,0.0014139877417132
1681484047.7975793,0.027826806203873997,0.12254863359224814,9.853523105371556,-0.0008570730126019168,0.0006887150394603264,-0.0001826741540331
1681484047.8075902,0.04239083173044443,0.06921404172488542,9.853090553892889,-0.0008805273277915678,-0.00011594807649423802,0.0011792752734858
1681484047.817604,0.02462666748017577,0.020886449590284396,9.82443863421906,-0.0018752065957872383,-0.00024856662680845814,-0.0006192661862347
1681484047.8276818,0.09043407112657945,-0.1484991014792848,9.724822640971619,0.0023254518239440455,0.0006697079730778829,-0.000237073287693
1681484047.8375213,0.12912568437819671,0.10401724601419725,9.800840327258644,0.00036783599012593686,0.0025986536711365784,-0.0005418323020908
1681484047.8475814,-0.08779018424788225,-0.10283548479215573,9.838587113418724,0.0032686940498185117,-0.0004281452641747392,-0.0004389884456518
1681484047.8576124,0.14509238801319804,0.2497690781614949,9.839118853742876,-0.0020298064750869276,0.0018945746601152257,-0.0014545032795045
1681484047.867601,0.11967250576310863,-0.013266307928777655,9.756051364414473,0.0002743069106355743,0.002716020090786081,0.0013398553669926
1681484047.877544,-0.018654321497526768,0.018863200870686558,9.848486746864443,-0.00022415514917948788,0.001574955597560729,4.529719767237621e-05
1681484047.887584,-0.04921602106977046,-0.07561923780256007,9.821810252990883,0.002009929948737428,-0.0002835904606159012,-0.0001961001002687
1681484047.897528,0.19139893858161422,0.15986258870926554,9.79606941382601,0.00013387683279236307,0.0020879390334484485,0.0014206777591848
1681484047.9075854,-0.008676403966689322,0.14661930091936812,9.888803369849583,-0.003060609414126959,0.001184900164806569,0.0003910361515831
1681484047.9175775,0.01111494981362794,-0.11343751313598346,9.77804645451331,-3.0421430897754465e-05,0.000589251516423976,-0.0002538148587096
1681484047.927591,0.0545142252546955,0.14223274153696042,9.841332770173327,-0.0016546523509739183,5.690950915673125e-05,0.0021299775067258
1681484047.9375226,0.008653538928026405,-0.18931761029992486,9.753417918152746,0.00029367513269472264,0.000883943560979947,-0.0033275492064181
1681484047.9475482,0.0664917272938237,0.3125665182351868,9.89398922172414,-0.0034603030794021325,-0.00011185558943332723,0.0007948546513457
1681484047.9575553,0.1070119023791797,-0.19086149342251313,9.716935181648248,0.000587961449381795,0.0012694960553035707,0.0001313649077441
1681484047.9675784,0.005068272524127307,0.0313978650572016,9.837778106531244,0.00021171530865232946,0.00038064335282152233,-0.0004475378704715
1681484047.9776428,0.021211559670302953,-0.019510799121145516,9.817511455730054,0.0016541656108894928,-0.0007928318363813098,0.0007576049497824
1681484047.9876015,-0.06170045427310254,-0.024309498100320782,9.848276467088365,0.0013721541811034317,-0.002120537965119036,-0.0016314333810928
1681484047.9976065,0.25937888604258746,0.09725367618847038,9.72963621519767,0.0012354229729688334,0.001395035632677203,0.0008402821218136
1681484048.0077007,-0.039507311734271855,-0.003729468824484376,9.856267185586523,0.00045758316080048893,0.0002591990758624177,-0.0017051990184459
1681484048.0175433,0.020348475226436666,-0.16909658402659003,9.761209486176284,0.005467738526225268,-0.0009641231375018484,-0.0002288501750204
1681484048.0276132,0.2093058566183431,0.2680608013635918,9.785248972697627,0.0010107836361848467,0.002281655524597473,0.0009281975758735
1681484048.0375478,-0.04948324834742604,0.09660459113658126,9.888278143413253,8.765954975605621e-05,-2.0570043025323502e-05,0.0014512305001939
1681484048.0475972,0.11492205381075647,-0.10929813353139714,9.734513127990807,0.002434591876524487,0.001638682812017524,0.0002196761738982
1681484048.05764,-0.04849170044584586,0.056159606491833526,9.87194137907823,0.000853575338141014,0.0001757440779209239,-0.0013572652864727
1681484048.0677042,0.09945667792490043,0.1754776016672471,9.833279990923913,-0.0023196252869286033,0.0011767260501919573,-0.0010238392319056
1681484048.0775578,-0.04469588732488292,0.023139958891119985,9.868354040659062,-0.0017466587632748568,-0.0011467448361132042,0.0002066142583739
1681484048.0876112,0.06716806464027553,-0.03396837862736147,9.789237462535608,0.00039016324030765486,-0.0013329967540762011,0.0016289390874102
1681484048.0975444,0.08612233523797481,0.03220015250711786,9.799594139063577,0.000291435917616299,-0.0006203424044941077,0.00177496461724
1681484048.1075382,0.1079001046897934,0.03816784230588781,9.77812492965388,-0.0004688782974603588,0.0011510257597638878,0.0009017526131596
1681484048.1175556,0.002025499781581876,0.025690330727050528,9.841966455132585,-0.0014397232099001207,0.0009666278330231883,-0.0011888623743775
1681484048.1275918,-0.03246233562572637,0.060334860801337,9.863712368057485,-0.0003604843865582307,-0.0020013083604010352,0.0024347149842892
1681484048.1376584,0.1087136083718556,0.05445381204723438,9.796881872327234,-0.0021199270555794084,-0.0001282317848216488,0.0006018708768774
1681484048.1476824,0.048667412945086135,-0.1471093692019486,9.746204007635745,0.0006792517089665199,0.000464082947084636,-0.0010588585905257
1681484048.1575594,0.0912254716919264,0.1561915059875055,9.836838896197504,-0.0003157900552401948,0.00012060970528585722,0.0020349979709375
1681484048.167565,0.15256659900860756,0.1456783098922107,9.794879352017142,-0.0036085671403544065,0.002897069140285368,0.0009155791445177
1681484048.177612,-0.11115973516800791,-0.22224245833338943,9.810813502313392,0.001292425040293647,-1.0145462877252344e-05,-0.0002039138966697
1681484048.1876032,0.1314256174677184,0.1010360346296587,9.785081293073166,0.00028323075238364544,0.0014781187211378379,0.0005225485033829
1681484048.1976044,-0.1479431471843969,0.06459975684259889,9.926734298304392,-0.0009535480575776731,-0.002488585312114055,0.00022450054125
1681484048.2076488,0.16556723632092255,-0.09736311077093122,9.694788944253926,0.0008390764030156734,0.0008734832289398543,-0.0017085499170694
1681484048.2175407,0.0905300512760583,0.158279802471857,9.84322451957224,-0.00020327332496725012,0.0005438081040399942,0.0015805202233845
1681484048.227718,0.07805986124124664,-0.0691384315450345,9.770228038551572,0.0006885478154956191,0.0020018869979148038,-0.0007492934859815
1681484048.2376103,0.01849455705651581,0.10575124255574694,9.874401290298207,-7.995891092587394e-05,0.0006205442891403349,0.0005031622672926
1681484048.2476268,-0.003540394978235991,0.10706153367778075,9.85569158994334,-0.0020096819292213766,-0.0003223384417702902,0.0004372186918284
1681484048.2576892,0.1064999713071369,0.05030880631298682,9.783907328239264,-0.0014147468766445108,0.00019585974861021757,0.0030609307537328
1681484048.2676778,0.033368518296406906,-0.014510338924049224,9.813874740201612,-0.001498941041431524,0.0004752535036113249,0.0014940658143554
1681484048.2775564,0.062244333152722806,0.027109469151700434,9.799212088930853,-0.0022558990258500764,0.0013778979490097214,-1.2059350823214474e-05
1681484048.2876403,-0.045655105080465004,-0.06294940042345676,9.838021225134545,-0.0005638979359023359,-0.0005663363467745011,-2.584082945173067e-05
1681484048.2975595,-0.05132508693767423,-0.053724981239399165,9.845514180156822,0.0009266088588849038,-0.0023760588608060552,-0.0006807495414737
1681484048.3076355,0.23503476845452098,0.13795818513659552,9.76289060906378,-0.0008190463294429786,0.0009874829566439967,8.965550982470232e-05
1681484048.3176684,0.01525393109455648,-0.16453260333817413,9.758127909282663,0.0031885949756945055,0.00035308992479642586,0.0005877361359548
1681484048.327695,-0.006096538977366511,0.07041896968286368,9.855013275156209,0.0018899611111818893,-0.00043855656895312956,7.669553766796169e-06
1681484048.337586,0.07893861223132483,0.18533356580493365,9.835748139689917,-0.0006678203303168121,-8.614053305651586e-05,0.0011107546411462
1681484048.347604,0.1205585300226453,-0.05681778547402696,9.744347753687332,0.001269319288554145,0.001433037176128254,0.0014639097167186
1681484048.3576114,-0.0006131137512264215,0.047258852017029264,9.848779443425999,-1.998655811976777e-05,0.0009237828457475258,-0.0002169439143959
1681484048.367609,-0.05414353296003803,0.13829196078942368,9.902167190418766,-0.0019489616345035711,-0.0013471636044858442,0.0002327023499187
1681484048.3775246,0.04310374496095409,0.04168407653106608,9.825969647198981,-0.0017317587611060529,-0.0017409342453246024,0.0013610961573671
1681484048.387605,0.011035243902188623,-0.1374479973237871,9.771476526424733,0.0009862221593852356,-0.001908926494983165,-0.0004270449321243
1681484048.3976548,0.13540884019037253,0.09551326701673675,9.787628987855708,-0.0001377081243034025,-0.0003241865734125145,0.0004137493629481
1681484048.407596,0.09178664440397495,-0.06661384688417267,9.764073396031396,0.0010495363853432304,0.0008961898974447953,-0.0008610724512014
1681484048.4176538,-0.07152242341498462,0.07731168467331552,9.901676993629758,8.356556409482859e-05,-0.0018601177393448212,-0.000683353752223
1681484048.4276035,0.09705386512652424,0.01937956712782619,9.79438560272978,-8.553224655430186e-05,-0.0007794410074044406,-0.0020229709375176
1681484048.437566,0.13068543570864063,0.12075623902618479,9.794700845076267,-0.001279886498335317,0.0004227281901756397,-0.0001949718029696
1681484048.448795,0.01878441653529176,0.03878734074543736,9.83399048773033,-0.0013424723548019508,-0.0003707455381299439,-0.0001465332502025
1681484048.4576364,0.06513091571417053,-0.09649904681517792,9.768246200731523,0.00019716924379683065,0.0003694860697782938,-0.0017864068544927
1681484048.467703,0.03852240022403718,0.01446843630685613,9.816821542026933,0.0009094803992593299,-0.00012338366259662968,-0.0010629415086928
1681484048.4776683,0.013854042563984658,0.11663646400161896,9.856632792640532,0.0004467869606952147,-0.0015986122468231098,0.0017175999342238
1681484048.4876351,0.1111806195015951,0.14793183797198356,9.822556243506565,-0.002546504156338792,-2.320685513532775e-05,0.001003848646675
1681484048.4976628,-0.05392303986363085,-0.10264755893096375,9.814589821060947,-0.0006424860450456087,-0.0016645452376977722,-0.0001145019236478
1681484048.5077016,0.11202249848795454,-0.02368082607911183,9.74971054465247,0.0012890739248817035,-0.0008058667810320274,0.0017194551433444
1681484048.517664,0.012768907258224051,0.00210508290397556,9.826718145481985,0.0005298421430244641,-0.0008345452655321355,-0.0010108128230545
1681484048.5277812,0.12549968343388157,0.037845371827089115,9.781089453153813,0.0007079399582787763,0.0004998311417463075,6.132118464524466e-05
1681484048.5376377,-0.03162205357363266,-0.027189483303121296,9.818373061275976,0.0011966871368761952,-0.0006099337531258753,-0.0011024596210095
1681484048.5476484,-0.0879340534658236,-0.004698988540825972,9.86598717837232,0.001810967041280328,-0.0031632187360531804,-0.0017920215654644
1681484048.557631,0.21827957907146286,0.19939051476324007,9.773049213706136,-0.0011353346356972804,0.00017945501007313053,-0.0004758671897921
1681484048.5676107,0.0536530389122225,-0.023024686929628016,9.793194409395614,-0.0001976833279694998,5.2077832132117535e-05,-0.0004106462042305
1681484048.5776958,0.08432789851863183,0.03479423634946148,9.788675130457568,-0.0010586259741902193,0.0015883690849048122,-0.0025269973597947
1681484048.587639,0.07281544355377234,0.0711779337622299,9.811454128955441,-0.0024455194978055513,0.0023628604754612403,-0.0025243933818761
1681484048.5976543,0.03000929261480212,-0.08567695852529857,9.778932411805188,0.0011858831440800877,0.001214719809240484,-0.0002434124512124
1681484048.6077042,0.05203426455019791,0.1881159631120971,9.86821857900659,-7.884279809275634e-05,-5.226979491123114e-05,0.0034845166333493
1681484048.617633,-0.0010369661608134223,-0.04800156756072233,9.815475666815617,-0.0001563448843747314,2.8974855549465668e-05,0.0004845295293729
1681484048.6276882,-0.01627452929056081,0.053971466563317916,9.857913878593354,0.0002214035869973745,-0.0018426141098448886,0.0021605396137114
1681484048.6376562,0.11212313511761257,0.02101928871317499,9.78024473115418,-0.00010866738857717244,-0.0002154039450986316,0.0008954256150413
1681484048.6476283,-0.007848277021859095,-0.02826640136782762,9.826334315797858,-0.0005497353013511113,-0.0002638222478599136,-0.002055740453628
1681484048.6577551,0.11034101772684853,0.04261103658858849,9.794351705545706,-0.0003727842547246679,0.0003266139166006565,-0.0003719285636666
1681484048.667728,-0.1381167921312172,-0.012724868436404224,9.888861249382924,-0.0008887077387212696,-0.0025422349664956352,-0.0029617382719639
1681484048.67763,0.17253616807090527,0.05217859032475614,9.757772814760102,-0.000206279844730501,-0.0006929946858743304,-0.0007973446085575
1681484048.687639,0.16500348079755672,-0.013300033743537842,9.727790011916547,0.002377221668580053,0.0007759079877907881,0.0028467235347729
1681484048.6977673,0.0031190599300855502,0.042699850911323785,9.840588124225386,-5.2042292056914617e-05,0.0010403836485351678,-0.0007615906692567
1681484048.707654,0.15793953778693642,0.1879248816306452,9.814215555130376,-0.0018860179750984781,0.0023416198892055955,0.0016654348251417
1681484048.7176862,-0.22902011296240954,-0.038053585558843375,9.949353718691684,-0.000635030795385708,-0.003643426671318365,0.0019906491466339
1681484048.727665,0.28233752891688424,-0.19529781263877627,9.607481936748234,0.0029829542462905634,0.002038390919535719,0.0001439918956261
1681484048.737571,-0.17434715083395694,0.22719887184188323,10.011228251552316,-0.0019180200691236136,-0.002225580892059515,-0.0013952576595816
1681484048.7476196,0.1917849183422215,-0.15076187635008212,9.675383162652947,0.0011065323652096888,0.001390217326145285,-0.0024394330143455
1681484048.757636,0.11124381460979471,0.23508398468916664,9.849685597300892,-0.0006756531290277034,0.0012180792722876416,0.0020867839298684
1681484048.7676585,-0.10181032789323646,-0.05097477566292622,9.882186069024177,-0.0003299307006792789,-0.0012078264661595922,-0.0009426327928427
1681484048.7777324,0.035591793577539416,-0.08350545504080298,9.774837475372776,0.002370165125664475,-0.0015386279901005312,-0.0002132062840733
1681484048.7876625,0.12860763891805352,0.22517241078547878,9.8319190154507,-0.0011740881497636871,4.350090345569882e-05,0.0007602075889248
1681484048.797666,-0.058466937881249195,-0.04935862048294729,9.853460860488317,0.00047175086755634626,-0.0022710255369509085,0.0006707968382638
1681484048.8077796,0.14086218291845606,-0.09262770157875001,9.723178084790417,0.0023362321236784474,5.246220740830517e-05,-0.0003037548198822
1681484048.8176024,-0.033592074275525075,0.13370602605010704,9.892142407155053,-0.0001395474957640467,-0.001351619023268169,-0.0010856785851988
1681484048.8276708,0.18489753610622892,0.0595192651738171,9.747619572307112,0.0012223853241438139,0.00045403332228261824,0.0021016804344494
1681484048.8377206,0.00606870293200093,0.15755478226148523,9.888384757031059,-0.002777823027854681,0.00019510385575565248,0.0001548099058222
1681484048.8476212,-0.05099413490308077,-0.17489651626893546,9.797025814462614,0.0009094644729599132,-0.0014041558422414008,-0.0011076706036451
1681484048.857736,0.16203565074311668,0.020387003035946837,9.75234746297748,0.0017729970360549753,0.0005158522505930548,0.000335512678745
1681484048.8676972,-0.0719028132622413,0.16098220539103922,9.927493040247285,-5.015982271297065e-05,-0.0027012995520723044,0.0022517971770379
1681484048.8776271,0.24273112655604248,-0.06264463311971027,9.66678766278533,0.0017714988898250854,0.0015239227863042386,0.0022208786645446
1681484048.8877125,-0.027655002062598293,0.05130354503615244,9.853951394319083,0.0013319119256139972,2.8952927673755547e-07,0.0022983751801315
1681484048.8976903,-0.011676075137951145,0.12334000788003978,9.892732985336554,-0.002406038635586679,-0.00040206210290958137,-0.0006438712629947
1681484048.9076488,0.016594722909465464,-0.13316559586791493,9.775537955240658,-0.0004148784515215165,-9.466996172878301e-05,-0.0031617737881365
1681484048.917714,0.08067518872662928,0.06875446721092476,9.804893877234981,0.0009765335379402803,-0.0006531445615718704,0.0007888908108238
1681484048.9278593,0.027873220456739622,0.08023632063827904,9.839543219432194,-0.000749031586001149,-0.0006605985569575973,-0.0003801261813837
1681484048.9376073,0.15684957053891393,-0.1613013782943952,9.707701770242062,0.0026737228001929613,0.001595108958782249,-0.0012011833063784
1681484048.947719,-0.14061715903980868,0.056475990529717385,9.922658854496968,0.000991025253443871,-0.0017450162393191464,-0.003250832906318
1681484048.9576309,0.22874196652289502,0.20588492771419195,9.779310017131603,-0.000823911447882601,0.0007401248320683971,0.0006011214532431
1681484048.967671,0.022859189776633475,0.01234821137137533,9.82623948381226,-0.00011127167117562476,-5.67150836128131e-05,0.0013674459001289
1681484048.977609,0.03623351976384126,0.12329715861751676,9.847617864424988,-0.002511844237625352,-8.614891879918985e-05,0.0006965038442526
1681484048.9876547,-0.019622213247672923,0.012278399163004444,9.850148886961327,-0.001907595494616629,-0.0018049979689372894,0.00137747307194
1681484048.997706,0.16649434568018115,-0.1080365750668549,9.705746856516015,-0.0003396187328795465,0.001394283833965806,-0.0005075356497887
1681484049.0076857,0.013672574539935867,0.07064928945440511,9.835100760011997,-0.001198694211898993,0.0006670951091825227,-0.000351440864009
1681484049.017745,0.024514565837289063,-0.03410238640087263,9.800434418440888,0.00032943154832530393,-4.9256348650988225e-05,-4.558649784808439e-05
1681484049.0276363,0.08124620351557968,0.10143170261439963,9.823594076643511,-2.1470950983781146e-05,-0.000223984221425685,0.0022320668754641
1681484049.0377543,-0.049141737775047,-0.047023690072985035,9.851789683020419,-0.00042383038332712616,-0.0012897705872502202,-0.0012939386110279
1681484049.0477974,0.1382491469473902,0.0020036164011730537,9.761424438088916,0.00020837897511635873,0.0005072920382455077,-0.001061846971837
1681484049.0577104,-0.012932710188168868,0.034726758179352536,9.843397085651995,-0.0005519612916081853,-0.0002973523111747966,-0.0019920393865082
1681484049.0676138,0.10494017739974179,0.022510236779373693,9.789748572580988,0.0018273789148258804,-0.0006590814642508835,0.0019642077345874
1681484049.0776436,0.06986641031920716,0.13299587303062393,9.847854137476714,-0.0021653769138272115,0.000543412207601936,-0.0012507368850979
1681484049.087615,0.06272382253572074,-0.11103665254728771,9.763784815213135,0.0017852861160949959,0.00023535329055054453,0.0009542950970594
1681484049.097731,-0.022657405246079922,0.08061160187761654,9.870756981417001,0.0005805303221122602,-0.0013672671734361764,0.000885001088633
1681484049.107659,0.06032471800853411,0.10781470256095879,9.830681528134612,-0.0024466263386874955,-0.00015134551691251333,-0.0015718431718174
1681484049.1177125,0.1730655481522116,-0.03505725179407392,9.720688199183947,-0.00023979617147833638,0.0018100376720346996,0.00064248626181
1681484049.127695,-0.008117218483978715,-0.03798859262978326,9.82610177548757,-0.00036271624073100123,0.0015075444721109935,-0.0021596779156002
1681484049.137681,0.10527219163820765,0.10033882929922053,9.804495838114784,-0.001026207322502174,0.0022421522632082177,-0.0007608500349793
1681484049.1476026,-0.05061258838544349,-0.075138812682078,9.84342203747274,0.0014731084448919146,-0.00038863505981923444,0.0003619583981584
1681484049.1578505,0.05366002692725618,0.03782827124599883,9.819829131062267,0.002383936415263854,-0.0010330997154190977,0.0023043356446091
1681484049.1676776,-0.004296604731414505,0.058262640100867624,9.853174350886801,-0.0007796038549966338,-0.00040722779146126623,-0.0026242167263749
1681484049.177742,0.07534184048134449,0.03693294070667825,9.799648540847889,7.686738004454966e-05,-0.00043594273391093976,-0.0003775002009693
1681484049.1877666,0.07774286484749351,0.015622391356766529,9.787597627975615,-0.0004282677279286455,0.0005747369625308519,-0.0011855119414154
1681484049.1977258,0.07009687735729588,0.16097712349160276,9.852739256883412,-0.0031037917845292487,0.0009978909428961134,-0.0015103882219169
1681484049.2076333,-0.02619150183878273,-0.10055646592385646,9.812136378201341,-4.718065689985592e-05,-0.0008516801052886082,-0.0007861610542509
1681484049.21771,0.10548297131108017,0.046901745018209845,9.791206898693009,-0.000953580199645743,0.0007073321544671055,-0.0018095206509802
1681484049.2377467,0.026347347108866475,0.0020145234724405887,9.822124102567631,0.0008163416636648828,-0.0006214613926667815,-0.0014082868624005
1681484049.2390878,-0.2735769433490954,0.8549652134813125,10.273265335755747,-0.000700970354905781,-0.002055704352138717,0.0001332296483692
1681484049.2476742,0.14284254690774284,0.014622014405388064,9.74671943734078,-0.0010988500792416067,0.0003460077138588635,-0.001031656753597
1681484049.2577686,0.0787205110272471,0.061372279551999684,9.802407570562597,-0.0005534576790188854,0.00030016829983060876,0.0013152632268851
1681484049.267718,-0.008532083843715432,-0.08300811225184394,9.802647842904808,0.0006416153085290614,-0.00014054399183806085,-0.0009985223918679
1681484049.2776964,0.0912348537721968,0.10869982572191414,9.815021414490989,-0.001202793000385613,0.0009007078200927419,-0.0015006535727057
1681484049.287615,-0.08585787303311465,-0.0855763545288205,9.84410855622304,0.0019786328098317122,-0.0024606339541570345,-0.000136103950766
1681484049.2976797,0.20324099683743044,0.06524621783782952,9.74340474712588,0.000862518099753165,0.001108556559558929,-0.0010011310263994
1681484049.307666,-0.03449586037177453,0.09580963579143677,9.882287048495659,-0.0008380561476156995,-0.0005123107024783433,-0.0011490134097162
1681484049.3177333,0.05564781098765397,-0.01718384262031873,9.785359193481641,0.0002891956412773509,-0.0003208262764737276,-0.0008226824033532
1681484049.3277223,0.11893488779364594,-0.0358561202227551,9.755976302666639,0.0025552872332536784,0.0005322653943883952,0.0006543765735354
1681484049.3376684,0.07731908708494349,0.12810150333707893,9.83609756761316,-4.572306754913557e-05,0.0014911484480320846,-0.0003473367582533
1681484049.3477025,0.0419082872125935,0.08505262210517152,9.844274801352302,-0.0013205214227149551,0.0014467873351643244,-0.0006379371083799
1681484049.3576992,0.03126540639141365,0.13969968848882797,9.865045209178835,-0.0019161803546333173,-0.0002087110187858661,0.0025025019381668
1681484049.3676789,0.11630139534683953,-0.08837662656539713,9.736743069936558,0.00021878983352160639,0.001446447063342962,0.0021072459017399
1681484049.37779,0.026614490718155345,0.0164748182772318,9.823913527954026,0.0007429340713491719,0.000712939260098379,0.0027170809876647
1681484049.3878424,0.03960882152534038,0.17652312727029343,9.867496956245235,-0.0026303093656071075,0.000602658689260736,0.0022368995665114
1681484049.3976822,0.019190662080397693,-0.12406994742737308,9.766476517864545,-0.0011152425643749225,0.0011521393033613705,-0.0004501517436925
1681484049.4076614,0.019777897674536502,-0.026151522009120545,9.820836665462462,0.0006151598322273916,-1.722158633809995e-05,0.000594414882968
1681484049.4177103,-0.012937945227659856,-0.07463999943775108,9.804713279030187,0.0019778949770303303,-0.0007086282407199715,-0.0008342096156898
1681484049.4277942,0.16927261149448727,0.06831286079116475,9.756347646145546,0.0016023580563809623,0.0017299455593100745,0.0002181706909563
1681484049.4377322,0.03244018684275112,0.1206115682318169,9.83518659547467,-0.0004514229362641526,0.0017142859739223395,0.0001071467955138
1681484049.4476895,0.03523742138311294,-0.035432395483171154,9.80665387160522,0.0021164534525407105,0.0006846320955707902,0.0021672131802428
1681484049.4577398,0.028282128953362986,0.05427631420605776,9.819640231697699,0.0001383304728555646,0.0011018602911956105,9.524356168771702e-05
1681484049.4677029,0.03446211865217033,0.060189668739050864,9.827029641449792,0.00036817711139562414,0.0003959232789968189,0.0017149595328614
1681484049.4777982,0.06571862934618977,0.03702006824336831,9.809113560442297,-5.94759824219516e-05,0.0010146758661207125,0.0011845000222333
1681484049.487731,0.0026436184441900436,-0.06073994349267459,9.804603843727788,0.0012987695721188813,0.00029197594641080854,0.0003310522256892
1681484049.4977424,-0.01501617987205653,-0.013498937620717797,9.838210925480029,0.0005593030986064617,-0.0001625077069534783,-0.0024107710964504
1681484049.5077555,0.08970020238622425,0.047576697915229525,9.801825453288922,0.0019044955680465332,-0.00044003931233874843,0.0007616964826833
1681484049.5177145,0.07849146006274046,0.10082097401640873,9.832816048221297,-0.0002692146439730108,0.00032959395800942893,-0.0007768622640046
1681484049.5278287,-0.04635908138759673,-0.04775434771696465,9.835971187228184,0.0012484786650085932,-0.001743516767082496,-0.0006449765100601
1681484049.5378244,0.12608502596167478,0.13473687681297633,9.799787829905975,-4.1592183174967786e-05,-0.0007693680550844015,0.0014143502517494
1681484049.547642,0.10416039905633374,-0.08114090015723606,9.739709947024414,0.0007857839206598547,0.0013533288833055565,-0.0014283834065768
1681484049.55785,-0.031993006444868854,0.05398529732775953,9.873468846045364,0.0008129881168156679,-0.0009396092839204393,-6.756396437918228e-05
1681484049.5677085,0.1814561205218953,0.09653873088743833,9.758797850331536,-0.00012433078622234214,0.0016956669096563647,0.0009080879349734
1681484049.577707,-0.017719991037097087,0.03686656203286665,9.847046952896944,-0.0001999152295218263,0.0003981467011435892,0.0009434810449842
1681484049.5877545,-0.028019240125604666,-0.06510333823700128,9.819789228654274,0.00026648517696463165,-0.00021540457941211273,-0.0017998204607043
1681484049.597684,0.08294702206310528,0.17438769249087102,9.852692980177295,-0.0007151315966576558,-0.0008513219215813031,0.0019239890639677
1681484049.6078322,-0.012051664883275515,-0.05420904461019404,9.818014117888243,-0.0007371114123067416,-0.0010751722292203056,-0.0017230808775398
1681484049.617762,0.1547300170523052,0.08857515062026927,9.783026065301776,-0.0005150886673948498,0.0002211915488266483,0.0006633239059251
1681484049.6277754,0.008917804968729291,-0.08449295703612246,9.796111436558377,0.00094264445386297,-0.00012600932217664211,-0.000883391596702
1681484049.637893,0.11636483917218111,0.21164838581060844,9.83190955904739,-0.0005516030105047783,1.0347355204161273e-05,0.0034725738183137
1681484049.6478095,0.0769850977052075,0.043508167621488264,9.803500361171055,-0.0014542107593099086,0.0009710951161389907,0.0025148343952846
1681484049.6576955,-0.07168407835588333,-0.03569298080215671,9.857236497192833,-0.001937394883992206,-0.000497399303547141,-0.0007291508413377
1681484049.6677127,0.14029444246774786,0.0156614062758726,9.756762548283573,-0.00041226708381689474,0.0005095295236055682,0.0017153654439848
1681484049.6777973,0.09379825200115718,0.017691368428634623,9.78988671231609,6.045972778297156e-05,0.0012162230042621987,0.0022164279321681
1681484049.6877332,-0.07739343561440667,0.01351581370855843,9.881838649108515,-0.000733762437369069,-0.0006970892483122688,0.0001622864470359
1681484049.6976929,0.048966563547770764,0.027716460408563365,9.802320697368309,-0.0007024788246098345,-0.0006669237435217871,0.0001816560939427
1681484049.7077014,0.008551405727506352,0.004618661159537097,9.833767104437365,-0.0011845243372960745,-0.0009142753345118105,-0.0014913687522981
1681484049.7177346,0.14219159875929124,0.02427721086931072,9.766003644379348,-2.036758803767927e-05,0.0002886234099834924,0.0004908618243884
1681484049.727824,0.0002658424434948871,-0.05010895319327801,9.812760653804004,0.0006297026319099743,-0.0002672004011379638,-0.0014511451631311
1681484049.7376614,0.15689624327749974,0.04124969684385996,9.751509734169257,0.0014116310977806755,0.0012955932010338344,0.0002886091784116
1681484049.7477238,0.07011222306697319,0.09084873375973332,9.823746335472984,0.000527267702345226,0.0015466365376958387,0.0010176046594519
1681484049.7578113,0.058758525760893354,0.14265621048733268,9.853749868024,-0.0022533003803462143,0.0019396687061170384,0.0005798732122879
1681484049.76772,-0.07098233345001939,-0.04328553064515645,9.84672328748818,-0.0007862927842661293,-0.0005223857291472462,0.000523272024608
1681484049.7777972,0.04653798854380164,-0.03276715561739664,9.796068118445518,0.0010994572009884343,-0.0011456122460187267,0.0020286601461943
1681484049.7878823,-0.008084823238312172,0.021264190723880163,9.838451649539783,-0.0005158327083899466,-0.0011601497629048947,-0.0013900387607041
1681484049.797681,0.13622632497760198,-0.008816662039526907,9.759381183658478,0.0011292632824619593,0.0001139075516661214,0.0001004586188595
1681484049.8077502,0.13921367470004198,0.16345530925589397,9.813085682691748,-0.0016017351490517607,0.0017765031856920117,0.0008172059856828
1681484049.8177545,-0.028527243771366995,-0.04327697582295378,9.818247501282967,0.0001778228763073713,-4.5912953669366056e-05,0.0017839007737588
1681484049.8278005,0.04737579271950987,0.0074886794594678785,9.811275439264874,-0.0006529262641090704,0.00076694923858713,-0.0006203928537193
1681484049.8377144,-0.020142494442615518,0.020303667306305367,9.85653086504431,-0.0006752463943590385,-0.000605817501661573,-0.001184766650525
1681484049.8478634,0.06263099882492759,-0.06254047702785179,9.763307591510415,0.0012331718111443734,-3.8101944740600475e-05,-0.0015562293160233
1681484049.857749,0.09570360748237039,0.060642406138777874,9.794072302426734,0.002000594894351716,0.00022121359124127114,0.0006953815423425
1681484049.8677614,0.06019704676437744,0.024930367137502237,9.799788138940505,0.0020907416090173107,0.00037990956735423184,0.0011174427886966
1681484049.8778555,-0.06917709945564743,0.16967271548412838,9.920721764657188,-0.0020636758425448066,-0.0013233047050971117,-0.0006993801839176
1681484049.8878725,0.0731017222454627,-0.09067156842902259,9.75369700209735,0.0005432422579111715,-0.0008393886894383444,-0.0005131110123816
1681484049.8977923,0.1635002564049562,0.0925058284298275,9.781671791186804,-0.00040406605284069635,0.0013071165265776483,0.0004334925866227
1681484049.9078145,0.0472764050400889,-0.04090425781119573,9.785279349342375,0.00033500517446784667,0.001833506197895567,-0.0006792664102736
1681484049.9177318,-0.0038508713648575336,-0.004516322356753005,9.834472114651723,0.0016683129770705175,0.00030612744222616585,0.0003932510694962
1681484049.9277778,0.13020303679462647,0.07890940861108484,9.78769873654774,0.001056608814884393,0.0019180670802369198,0.0010731120669756
1681484049.937684,-0.09823759998527881,0.011102464462521248,9.887924260270248,0.0006218701169189202,-0.000758928729603277,-0.0002575555158305
1681484049.9478414,0.18337621677116375,-0.04555816767169702,9.726181691127097,0.0016742585104575522,0.0024232085376426266,-0.0013393980957094
1681484049.9577062,-0.034799900951034364,0.16539755683198523,9.905694962481924,0.00024040470383500045,-0.00023478186252185826,0.0016337780357811
1681484049.9677703,0.08479940841819197,-0.001244865776149545,9.787531201564388,3.141123586027716e-05,0.001069063017349399,-3.92779515582828e-05
1681484049.9777098,-0.017171161812400217,0.12955877356038487,9.880951170246604,-0.002495082134241918,-5.858428724780837e-05,-0.0009109666611525
1681484049.9878254,0.023801030532608004,-0.019375544095323202,9.806346292329257,-0.0009207686390969127,-0.000708994258944759,-0.0003175219794261
1681484049.9977622,0.0605272554802,0.011281474904398969,9.803460846319897,-0.00021110226825498294,-0.0007455235037707493,0.0003239597386222
1681484050.0077214,0.10974802206203486,0.03494211666722612,9.782644132903116,0.00030186353282536253,-2.9515526436964457e-05,0.0020081728539902
1681484050.017686,0.17052916763347165,0.08594225161966845,9.766577977239995,-0.0008965665346853177,0.0024664290530284783,0.0020230473560754
1681484050.0277743,-0.07848507648585885,-0.12788301959324172,9.838797390313651,0.0019029968496811346,-6.036477285418463e-06,0.0009803499520298
1681484050.0376985,-0.006015486993024322,0.036210955163312415,9.848352119750308,3.0687272134715e-05,-0.00014611433991008232,-0.0024595602921668
1681484050.047705,0.054607941857357054,0.15810497946161398,9.855690363374393,-0.0011047879131968197,-0.001151950681234886,0.0005553045735236
1681484050.057781,0.04719348016813123,0.0024288591531499855,9.795989308775713,-0.0010984635396559866,-0.0009086888587162365,6.43114286016913e-05
1681484050.0677235,0.14227697426503186,-0.08162318717594909,9.723653804612836,0.0008413023740583063,0.0013145759998070214,-0.0005142099730197
1681484050.0778842,0.15290105107989008,0.08704647724504457,9.777153058528912,0.0002400258237288099,0.0030360261617474655,0.0010377401445534
1681484050.0877433,-0.15159145211917863,0.09557208807195408,9.949629302600416,-0.001387185941001507,-0.0009068114382723471,0.0002245035680484
1681484050.097818,0.13233971754748403,-0.08757337680145079,9.72719866989424,0.0011717235887001812,0.0010679526471326156,0.0002837255556609
1681484050.1078162,-0.14198407339335936,-0.07726128284948566,9.87579632098953,0.0023395910223488223,-0.0021726635742599924,-0.0020896662067148
1681484050.1177654,0.17880828003489932,0.1371885159290266,9.776190320930416,4.184017500819253e-05,0.0005467738527175865,-0.0020088220521334
1681484050.127803,0.1706782985400081,0.05392785400800244,9.746590127872777,0.0005801511780207447,0.002573344612246205,0.0002379239263486
1681484050.137726,-0.04694440957684753,0.1078338295459609,9.873743452718841,-0.0009945167546693006,0.0007382642953397898,0.0004867799539592
1681484050.1477249,0.02072794313618483,-0.0580904232750746,9.7947147902786,-0.0006115718709288036,0.0011439093781516528,-0.0017383880953762
1681484050.1577482,0.18841982219571754,0.00982266777485076,9.737906237403521,0.0013229570361780508,0.0031552434472279975,0.0010716498032219
1681484050.167806,-0.11319997360119986,0.08395940983248033,9.919771625703131,-7.066139649763429e-05,-0.00028059898560664845,0.000895806060313
1681484050.1777704,0.01835330650034473,-0.13157880117467766,9.773656554172325,0.0024394432286233884,-0.00023886860781448808,-0.0006293340160969
1681484050.1877692,0.062366172753878915,0.13793326434972705,9.837013338448406,0.0007887730167919717,-0.00023217631304329084,0.0005277465639177
1681484050.1977177,0.12942923818987379,0.003763371991261668,9.762781161624355,0.00047959002011251117,0.0017735312704042266,-0.0010949827305499
1681484050.2077525,0.09171889896427,0.05200835375023463,9.806710124367925,-0.00018580130557160793,0.0027152500630623117,-0.0015878849703345
1681484050.2176948,-0.0843877595450986,0.03486622942547385,9.883032352020145,3.327277366240195e-05,-0.00015879347499536648,-0.0004989611956748
1681484050.227884,0.044544075086034064,0.02873644682335609,9.813086141706972,0.0007403394921346632,-0.0008986248223664439,0.0012839741935262
1681484050.2377298,0.17058200077544952,-0.01868422037566305,9.726420663047772,0.001578915987500418,0.0017228553383439149,0.0012113343068871
1681484050.2477398,-0.07762870395750625,0.08582717148679464,9.893165040699321,-0.00013025626832217983,-0.0006512644807073971,0.0003068367910113
1681484050.257858,0.1084930766173382,-0.026283860724821716,9.764116187091012,0.0007481602735519782,0.0007684321295751712,-0.000293332854611
1681484050.267749,-0.040281617401507104,0.18666505414227888,9.906780555846614,-0.0022343080328450036,-0.001176163350637532,0.0006059784750927
1681484050.2777853,0.09584660637055113,-0.03231537538737486,9.755761069752449,-0.0018762983645877343,0.0005508742655043499,-0.0007515344809267
1681484050.2877638,-0.012263477874298734,-0.07201554154214117,9.816647500495828,-0.00130185959381651,0.00011356861830406933,-0.0033811943180385
1681484050.2977414,0.06405389510764967,0.11716889650500628,9.838034678710121,-0.0005031581909791658,-0.0012599798258597762,0.0014840201493338
1681484050.3077898,0.02205737219860495,0.03482837012027828,9.818389046398098,-0.000804531133767981,-0.0015989878926110348,0.0009308083640884
1681484050.317793,0.18091627102554486,-0.04206385126477744,9.716644678032075,0.00019944173974796028,0.001352563177221527,0.0004227006534587
1681484050.3278532,0.11993913459346572,0.13784385245894487,9.81862258890404,-0.0011804213803450292,0.002249611747809994,0.0019534103299033
1681484050.337821,-0.2249190102530427,0.04501345556670226,9.956743468083399,-0.003113459146941298,-0.002511305884811756,-0.0006930518470231
1681484050.347723,0.15719413199007945,-0.030169413710632996,9.745219420795948,-0.0016241024209474868,-0.0005529271837252543,-5.6762368743470135e-05
1681484050.357859,0.08818691318453063,-0.0793071555404029,9.746877967538817,0.00013127067595973275,0.0008909978985278629,-0.0010014886542681
1681484050.3677697,0.0992136753972069,0.09889832637826414,9.80352767846752,-0.0014490396217334716,0.001991814892756162,-0.001039864499447
1681484050.377726,-0.01647807837554915,0.08636467647777375,9.86969550416063,-0.0019198849211574836,0.00018543085497432166,0.0006383737159434
1681484050.387789,0.03356006834770564,-0.049466895106079295,9.779774151075014,-0.0007378638615131713,0.00046670132535013136,-4.816754194830937e-05
1681484050.3978777,0.11253603102316931,0.055417362821053806,9.786266626243979,-0.0011849020170301991,0.0017615945158684038,-3.441737904136461e-05
1681484050.4078038,-0.08705006424313112,-0.036767772127683285,9.873688954342786,-0.0005322301363859145,-0.0008054992014113936,-0.0012827515642616
1681484050.417771,0.1943781730882812,0.22328632555856043,9.796266066110466,-0.00356274411894965,0.0017232302888313367,0.0007393426454168
1681484050.4290757,-0.0243545102911255,-0.20895408432965154,9.769849449594139,0.0030254363966572082,-0.00045755404978886833,0.0023978269851308
1681484050.437794,0.10732060657699803,0.07173756252736886,9.79144937371527,0.0013814844204188084,0.0012072681178745082,0.0005288553616505
1681484050.4477816,-0.042147944923594825,0.029798548958999322,9.860656118804217,0.00031045027730116113,3.307042110100999e-05,-0.0013125443405929
1681484050.4578006,0.10262348009779741,0.015089019611688799,9.779724431673639,0.001382202658708124,0.0006097499495259143,0.0001790577039595
1681484050.4677565,-0.05181815441611354,0.06450905758917874,9.869405588905028,-0.00038622252057754546,-0.0006572035055032525,-0.0017912590451065
1681484050.4777386,-0.016470475222401384,-0.09964256577995124,9.81370788195036,0.0023087020912856667,-0.0020016791034020423,-0.0018739458214018
1681484050.487752,0.008955832831266674,0.09069354605651549,9.850629075427715,0.0014444196022514193,-0.0031401376936150416,-0.000903147975308
1681484050.4978068,0.10501022800205402,0.20677393203139152,9.843017123707112,-0.002524141565722185,-0.002005762840623658,-0.0011303795076433
1681484050.507805,0.07075889524583688,-0.1617484567116482,9.744418330977787,0.0009046361853593134,-0.0012868152933522825,-0.0018579324282232
1681484050.5177588,0.17865916071943067,-0.0017364568244299886,9.727567971566316,0.0017241447216717837,0.0014013955344224695,-0.0016664648469064
1681484050.5278907,-0.05868244323484139,0.1998888155578794,9.919587302587114,-0.001368906544360822,-0.0010744650528508172,-0.0001629352377254
1681484050.5378904,0.10713107393171725,0.007469698924071571,9.77678987973901,-0.0016520257899669591,0.0005181130279324496,-0.0010245824273202
1681484050.5477912,-0.013244560729713452,0.09214264456776852,9.868766181655435,-0.001111873339230761,-0.001926438956905327,0.0020349898800727
1681484050.5577526,-0.03405623273605087,-0.04738625489391793,9.826199448017606,-0.0015637679805107865,-0.0023909851986823705,-0.0016396327450398
1681484050.5678596,0.21760559937797747,0.08592621833636169,9.743527822331544,-0.001158080166062766,0.00016270068942906426,0.0014728443234584
1681484050.5777864,-0.019029323470187445,-0.11099473985362039,9.796879278094279,0.0011273958758684437,-0.0007678754190268143,0.0003045862500097
1681484050.587838,0.08202029696409671,0.047431305623861574,9.806142048391113,0.0015006671453478746,-0.0006270450674736877,0.0016266863345176
1681484050.5978627,0.13854807891392595,0.09672165133984839,9.787349895098746,5.1527742910273206e-05,0.0015086589674825044,0.0014046569590813
1681484050.6077464,-0.09661254033369902,-0.09881981347506903,9.841137601771994,0.001404934963018643,-0.0006628194006591554,-0.0008316179777953
1681484050.6178567,0.233183255614635,0.11120653630499862,9.72713653728283,0.0006692053520007364,0.002857205450045151,0.0009229896782439
1681484050.6277845,-0.1543336617453533,0.15163963745876838,9.964962759618668,-0.0018386722476809799,-0.0015498029514342663,0.0014348406289595
1681484050.637735,0.0694455694025309,-0.0049359351536636025,9.79207671187528,-0.00017979665374416102,-0.0017405593297017932,0.003159280163842
1681484050.6478095,0.04541904762735346,-0.15076344370782613,9.759286473121211,0.0013796155441898766,-0.0003051995154348477,-0.0013542696874115
1681484050.6579351,0.030437090481201804,0.10335994723689838,9.85269184514029,0.001341980860675534,-0.0017323290210903843,0.0017924631206792
1681484050.6678712,0.1732106756019663,0.17861964573770409,9.793890677808035,-0.0027160289356587416,0.0015458824075959806,0.0004618077032741
1681484050.6777947,0.050686646088408234,-0.2023693501983395,9.722796421044302,0.002425660934475953,0.0015600679871496906,0.0009542879375171
1681484050.6877587,-0.1584786362916003,0.024774951083727237,9.924039069328122,0.0007652979632700507,-0.0016283979788410691,-0.0020106777123633
1681484050.6978374,0.20857482899617547,0.0495763509948477,9.727064616799325,0.0011594122047562906,0.001242682233639068,-0.0002396747044745
1681484050.7078345,-0.01720612311464852,0.09216947710501647,9.87307557166526,0.000143171654140136,-0.0005402523161384619,0.0002803787315737
1681484050.7178314,-0.07351768625512539,0.012847721022573465,9.874160128216435,-0.0011584320493215263,-0.002046014936386766,-0.0025925680569831
1681484050.7278955,0.10272443522953953,-0.022261784622659493,9.75976649005357,0.001733871944429931,-0.0018541420526353332,0.0007769619656268
1681484050.7377682,0.15133296522005849,0.07419179637368582,9.768642118320631,0.0006796252014205395,0.0003642437710927802,0.0006242350751076
1681484050.7477589,-0.02265245890123248,0.021464807707961803,9.850115392154528,-0.0003880399175982368,-0.00027019497558011606,-0.0018810455262187
1681484050.7578404,0.1657562927692758,0.1610573102090405,9.79273896987178,-0.0009785320065864274,0.0007408746021027632,0.0026265634183313
1681484050.7678816,0.028687663377270804,0.0020928962752130176,9.82046565878104,-0.0012355685032717156,0.0009632681629168222,0.0006715323502671
1681484050.7778907,0.11737591308772147,-0.13040827527601492,9.713888120086999,0.0029095671307741568,0.0021490411598868078,0.0023002313642304
1681484050.7878125,-0.1455622377579704,0.028210398384110914,9.917867120835066,0.0009660794849623268,-0.0007570614457732047,-0.0014917480334166
1681484050.797809,0.15058242477186692,0.14648981478439754,9.791500789212483,-1.1442631407031323e-05,0.0005389641058774476,0.0012370256259113
1681484050.8078308,0.05360815898913813,0.1839838142591774,9.848547589696313,-0.002791611782056544,0.0003046362015055407,0.0025520551676403
1681484050.8177445,0.17250765539295942,-0.07210243488936816,9.702603911600333,-0.0003616044320301027,0.0028296364978127324,0.002736850171956
1681484050.8280182,-0.17556788202803855,-0.06204570008892973,9.884289685973114,-0.0003161561560496622,-0.0006676619556734995,-0.0006703170988235
1681484050.8377929,0.09482916678324609,0.08035084693372081,9.813597495254884,-0.00042158916049192736,-0.0004433942879611544,0.0009747708641465
1681484050.8478515,0.1582216274395623,-0.06414824359352163,9.720654840101675,5.357540382171535e-06,0.0026940420269888996,-0.001571455275965
1681484050.8578324,-0.008083513410420016,0.1811909387396517,9.912762409135416,-0.0016185229107188552,0.000362749419276201,0.0011401856568649
1681484050.8678365,0.10730496984359487,-0.2153505725112872,9.69663439637872,0.0038207714315937006,0.0014758880446970701,0.0013343119604055
1681484050.877904,-0.06563831101067948,0.13019749297368363,9.916304655384957,-0.0004007270552515402,0.00039587909629407007,-0.0023157978470895
1681484050.8878753,0.05642926422743765,0.06213929593495719,9.82313763046292,1.800582154052407e-05,-0.00013158713838129903,-0.0005607893730971
1681484050.8977966,0.07679776029294504,0.1566445061153148,9.843733044094936,-0.002577763764931074,0.00019584828053727325,-0.0006002984050187
1681484050.9077723,0.17569863983003653,-0.024934252790403715,9.720430749252186,-0.0005262346903022456,0.0024962360834153855,0.0013159954064999
1681484050.9178472,-0.035783498215294904,-0.1908004820286976,9.790307124101084,0.0023030693804326485,0.0018860619950955418,-0.0022028926800463
1681484050.9278226,0.029179570340474015,0.293389217887359,9.908961795694937,-0.0017891476764048744,0.0005635470030393713,0.0002930652076851
1681484050.9377763,-0.09473062572880514,0.10573240644642974,9.925534796039106,-0.0033738717534611386,-0.002631646782035115,0.0003001327818732
1681484050.9478366,0.187824711574062,-0.1779745219495932,9.660160458462295,0.0005917103306368999,0.0008902421879233284,-0.0007634563412043
1681484050.9578466,0.04496748891093585,0.09177824860985842,9.840813403650388,0.00017930299569467398,0.00010198782719635836,0.0013879089706701
1681484050.9678783,-0.03495433007272106,0.0666338450468319,9.873814624179571,-0.0023598670869717617,-0.0007347179476036024,-0.0020330101292107
1681484050.977846,0.014503657005989316,-0.05062828451673359,9.797486959062939,-0.00013846593084726938,-0.0018154172623805725,-0.0007109218317541
1681484050.9877784,0.2910056032712728,-0.10082673963809465,9.633242711154852,0.003976490265930627,0.0024146506700863843,0.0017749689537108
1681484050.9978883,-0.11020044809986136,0.2810391645077021,9.983857234782382,-0.001935168135920059,-0.0005246120776073609,0.0007493886474061
1681484051.0078804,0.012251262552287425,-0.10680632959424051,9.788411320649448,5.719587198226239e-06,-0.0006821938082476637,-0.0006207723676685
1681484051.0178506,0.07772243846132319,0.07776017863364297,9.826580378534272,-0.00011759652871538228,-0.0007537106288136021,0.0008220426348511
1681484051.027939,0.12910244998603307,0.07969671803852198,9.796937214661705,-0.0005106175296887702,0.0004830810984884358,0.0021050302271273
1681484051.037822,-0.07168687571340754,-0.09771990993489389,9.82916386585279,-0.00011164248400683072,-0.00033055861330051996,-0.0024465483188155
1681484051.0478847,-0.001437600930032424,0.06444236705371537,9.850747928532602,-0.00038954023289476924,-0.0016801934923932017,-0.0013021235394749
1681484051.0579677,0.23857446882003971,0.029247315555385258,9.713326721197125,4.520108632980612e-05,0.002038014320204317,-0.0002698558423194
1681484051.06784,-0.005854424578181565,-0.020674868889940974,9.827325977926307,0.0008453779567428216,0.0010079762371542663,-0.0005991670809212
1681484051.0778284,-0.007044231857243979,0.10012654454442162,9.876739331924902,-0.00032210916622440463,-0.000625193778483097,0.000505387779
1681484051.0878246,-0.0028140770305475392,0.10010108447565869,9.867513814089339,-0.002570307826789385,-0.0012089394044967714,-0.0014813172205809
1681484051.0929916,0.2508170551295762,-0.23267184157559795,9.605099011294326,0.000355495829026087,0.001070924892671674,-0.0012399288866195
1681484051.1078727,0.03680120643180076,0.10524699395175223,9.848822655098955,-0.0015827675650006306,7.403369525833705e-05,0.0001052826369654
1681484051.118015,0.010408713099180048,-0.11515280158481783,9.782340192012574,0.001355018000444885,-0.0005994900637055749,-0.0002519738668102
1681484051.1229303,0.19778580339471244,0.2219495235912924,9.798746157976622,-0.00011759748712237382,0.0006384288423246562,0.0007099027821336
1681484051.136824,-0.04919004840495756,0.040688720946609074,9.86029113035454,-0.0015413994409845247,-0.001526353701160198,-0.0004933585918966
1681484051.1468413,0.16904170491500417,-0.10378965951098229,9.701553573482382,0.0008658596763293957,0.0014628479739561499,-0.0015979097265276
1681484051.1568823,0.08199920726529822,0.2242232368165724,9.861147647264051,-0.0019221346021194088,0.0013529365957160018,0.0008410532569054
1681484051.1669035,-0.07963426575692409,-0.15382070399428618,9.825304805392417,0.001398593728727672,-0.0012424506063726307,0.0006484364235315
1681484051.1768608,0.06059848970442652,-0.004203156530799573,9.788652332240112,0.0015941849659766982,-0.0005376531025594386,-0.0003134261391583
1681484051.1868277,0.019525995768635587,0.22322958020742012,9.8866496734653,-0.0020864052749586526,-0.0013523583044495037,0.0003612302203204
1681484051.1969016,0.06512218650971374,-0.013663017614835252,9.784096051625468,-0.001749654241324673,-0.0005342845344202178,-0.000600276053277
1681484051.206844,0.15953947249385614,0.0637488585349548,9.75067175307986,-0.001949302064852835,0.0015164832869857757,0.0004748409806292
1681484051.2167797,-0.09160691000851376,-0.09977147306340141,9.844087804188591,0.0004605583627520294,-0.0010915924590380725,7.54797325011583e-05
1681484051.226889,0.12472813778304441,0.1534113960704728,9.809977167520547,-0.0022324404312089423,0.0005095358694830515,0.0002122106921401
1681484051.2368045,0.007183906678038555,-0.12295443034486407,9.782437115491811,0.00048255060377067565,-7.869632948806455e-05,-0.0008312482427332
1681484051.2469137,-0.012461161462495733,-0.13114671848958245,9.805578164855195,0.0034560730559425336,-0.0011917843418209097,-0.0019384059164199
1681484051.2568965,0.11464788356665206,0.24231125755266478,9.85259957547394,-0.00045584982412515254,-0.0002630987103318669,-0.0002705958945203
1681484051.2669067,0.02107288828083307,-0.08647615936865276,9.795065135817897,0.0012957809695997031,-0.0004143381707879034,-0.0017763539257917
1681484051.2769003,0.02038089036033736,0.13694873591964402,9.878187569056244,0.0011940830628405833,-0.002591772773794597,0.0021080040565233
1681484051.2869291,0.17488109861337042,0.08979518194626247,9.75258960272863,-0.0015380644058430326,0.0011614516399424803,-8.097535869961065e-05
1681484051.2969906,0.02081884670418946,-0.07491595130896858,9.79174236570057,0.0010692877209767296,0.00025211286862127015,0.0007944756612655
1681484051.3068736,0.024666745733555043,0.011448457955186777,9.821223524815643,0.0011057986413104042,1.4439793709557067e-05,-4.408019999896568e-05
1681484051.3168926,0.052382697866057,0.12612433846210552,9.848696684955756,0.0006427362891473331,-0.0010245505454557506,0.0028702099767055
1681484051.3268795,-0.057882265638257824,-0.09830220782429736,9.82828970706305,0.0012916819786577905,-0.0019908784530146945,-0.0005879884160581
1681484051.3368363,0.19666230566403872,0.17245609549471091,9.786570647081819,-0.0008414356782771778,0.0005218283620111097,0.0011096362391494
1681484051.3468392,-0.10750165854797948,0.0039093916362160485,9.891074151092294,-0.0006424810203488453,-0.0026148682189130845,0.0005854790174875
1681484051.3568788,0.18661288122956438,0.03904890968911727,9.747272892597294,-0.001516102385672946,0.0007088459235928793,-0.0004579571581903
1681484051.3668492,0.04619900329462297,-0.08343730900431609,9.786552656093322,0.0013125389856026397,0.0003638717574032367,0.0003962184960495
1681484051.3769205,-0.008124245135325692,0.16980710329562973,9.890836530618477,-0.002512962516850496,-0.00017628604582850646,-0.0011385656002435
1681484051.3868628,0.08626232898619801,-0.06290687136504762,9.754398439961767,0.00024300565013525517,0.00011800162224632838,0.0006972244550947
1681484051.3970072,0.03463835459536821,0.022114118802977843,9.834591767594663,0.00016701192607524652,-0.00024967693204263665,0.0003969781060245
1681484051.4069262,0.012609512639365165,0.03764644383018899,9.85119195064708,-0.0006208893402383581,-0.0007775504462122537,-0.0009482163045082
1681484051.416885,0.14382331522232428,0.10548781406418693,9.788467486360558,-0.001963848160714437,0.001034430916594407,-0.0005004308226976
1681484051.426851,0.028672861756738454,-0.10457943539248593,9.772695867765266,0.0018940541139096433,0.00014818504582088645,0.0014340906123347
1681484051.436878,0.10704442470454135,0.2329149456083509,9.84971848449494,-0.0014635477254550508,0.0007047319455780749,0.002910064063641
1681484051.446881,-0.11828701265437093,-0.007109905203240979,9.882799586003154,-0.002453724305941974,-0.0015080765591589836,-0.0004639271687242
1681484051.4568703,0.15940798932533193,0.06814430617777098,9.77412774340195,-0.002135223192334945,8.29731588147068e-05,0.0014501103192255
1681484051.466957,-0.01593585703329271,-0.13993833250880694,9.806100994289906,0.0010007378407658144,-0.001152312500788937,-0.0001536146778139
1681484051.476827,0.2422503801032615,0.1660379519964676,9.750726637459906,-0.00015858708845264968,0.0018226959583032382,0.0028705734253403
1681484051.4869225,-0.035194236353531694,-0.016749412904642998,9.83222554267623,-0.0003523177580929641,0.0008150111705726627,0.0009084584267352
1681484051.4968295,0.03954439972449884,0.0435276579869838,9.815936876905026,0.0001502632962260473,0.00030462770989012175,0.002356492211717
1681484051.5068846,0.014649320520418771,-0.037480973785183606,9.805156210339353,0.00015285863976791678,0.00046557818563086557,-1.3830545281452201e-07
1681484051.516926,0.13207789245629772,0.06693659627981396,9.786060542372372,-0.0004599458755298631,0.0020648504367229894,0.0006614999106627
1681484051.5268795,-0.04019289610933219,0.019421731943064992,9.856495808741196,-0.0003161444915549928,2.561875985518586e-05,0.0004703750560533
1681484051.5369227,0.11041843951934693,0.1317872963518671,9.8097543056467,-0.001536197092113433,0.0007621037845300591,0.0020137539791416
1681484051.5469213,-0.09572428571567877,-0.06853566911450343,9.86567684565596,-0.0001362149122676046,-0.0020173270519861035,0.0008067631238613
1681484051.5568964,0.03535005704318535,-0.08014055244503683,9.782275446178021,0.0005980406338829441,-0.0013862542913380587,-0.0017793295014176
1681484051.5668333,0.22873909907211606,0.1854991759929438,9.765490621055934,-0.001418849612266914,0.0015440402012655867,0.0008771741373006
1681484051.57683,0.07038552143491779,-0.10020128014793787,9.771591021175032,0.0009563802128728516,0.0020994961352182634,0.000533328387561
1681484051.5868697,-0.042558608315627446,0.0416578377012325,9.875250508989929,0.0002344347847072896,0.0003888350936454209,-0.000519818397564
1681484051.5969803,-0.012265173999025483,0.03303917603970216,9.833094147533473,-0.0001749640796356727,-0.0005339128326674757,-0.0009392758406225
1681484051.6069083,0.16478426244778888,0.04096103151532083,9.751946557470948,0.0008360650184583894,0.0011190012720376393,0.0017615380016163
1681484051.6168578,-0.018664141215665873,-0.0023335046145836263,9.841486318412821,0.00047137581797071753,0.00012657994199000505,-4.1851428662589016e-05
1681484051.627082,0.09062928447435782,0.12368194466557575,9.814677775859588,-0.00038506559862042154,0.0004227247438971461,0.0017954657628674
1681484051.6368887,-0.11114507474338724,0.06516459463667669,9.915759671552621,-0.0025904521034219854,-0.0019100541642705867,-0.0009880755137178
1681484051.646913,0.1417531308416905,-0.05709583064547046,9.730406687651007,-0.00021034498226126593,-0.00026457373948222956,-0.0001450371969017
1681484051.6570504,0.06192369795243759,0.14942706352025123,9.841023311168035,-0.002023079813526806,-0.0005000219024593049,0.0015343072041527
1681484051.6669185,-0.003653605262716179,-0.1897241090148127,9.774587824327593,0.0017007132371517181,-0.0011027797656093952,-0.000120475659472
1681484051.6768675,0.061365873777352344,0.12014968196157479,9.84273876952887,-0.0005553128760236053,-0.0006311698793641022,-0.0009933132718775
1681484051.6869333,0.19542259647498586,0.05161950584771477,9.730894775047119,-0.0007244681843353922,0.0026195212458453433,-0.0003376922145012
1681484051.6969132,-0.021123437944775125,-0.04250464174569788,9.823497945350466,0.0007135207819231876,0.0011618394569815548,-0.0002281076780978
1681484051.7068846,-0.07745043256752514,-0.05109848170274322,9.850990920195057,0.0020706306905996894,-0.001134785605129829,-0.0009411498944733
1681484051.717028,0.23824592600851485,0.206643875746456,9.771052356852747,-0.0005475008412910441,0.0020946427478888306,0.0014665010753983
1681484051.726894,-0.2533933478342441,-0.10336863420022162,9.93504761729372,0.00034918565696784694,-0.002878979123542041,-0.0018795493565026
1681484051.7368443,0.18604043613798366,0.0521468180727934,9.758767714740793,-4.533824699535459e-05,-0.00015766783101946457,-0.0015424049965563
1681484051.7469783,0.14279982608567404,0.10979512603984921,9.781245073085977,-0.0003340443546561091,0.0009755656429915447,0.0010537486773923
1681484051.7569976,-0.09614917509202965,0.04670498815942138,9.898568398032275,-0.001327931817689653,-0.001851946082480338,4.233896792943197e-05
1681484051.767003,0.16441128054917142,0.02262031718705059,9.754699721702176,-0.0007933613763391517,0.00024764293266122116,0.0011327314964968
1681484051.7768888,0.03523781561402927,-0.18651890389437092,9.734978373896324,0.003458684719356012,0.0002990404045632226,0.0007445287733812
1681484051.786889,-0.05591954049551457,0.13425760690702837,9.904718928835734,0.0010279381915347453,-0.001820640793167017,0.0004081625916537
1681484051.7969158,0.11200141302796536,0.09922799729764009,9.812626051788992,0.00017371832643839143,-0.0009533863471043788,0.0016166426753865
1681484051.8069148,0.012082445749918137,-0.0048266631048126465,9.830911007917557,0.0003771268171725729,-0.0015952549846872438,0.0006093210500207
1681484051.8170018,0.11706429854089483,-0.007382218465218679,9.772500458556319,0.0013427355158276593,-0.00017221012568804635,0.000639471396013
1681484051.8268805,0.005775219148416593,0.02497953413049711,9.828718629410906,0.0006066049495696934,-0.0005488282180428295,-0.0008785610593382
1681484051.836887,0.08802376642484638,0.11977103851233487,9.828953772578357,-0.0014017128853577032,8.036414241222704e-05,-0.0007485530845347
1681484051.8469236,0.011700748355565683,0.019290922465344525,9.828851369381717,-0.0007725070917925208,-0.0008468491643370157,-5.080609521751684e-05
1681484051.856958,0.09726360278199597,0.013859333857029862,9.78359827715294,0.00022289368091115956,-0.00025489428564910076,0.0012005297135569
1681484051.8669076,0.04496153403203729,0.01594073718093119,9.813541023585719,-0.0003392498499681966,-5.03878173401343e-05,2.835407527932701e-06
1681484051.876922,0.13089585637581597,0.06338785267005723,9.788346695716314,-0.0011062820480934711,0.001645740757348143,-3.868718025436821e-06
1681484051.8869846,-0.0790786610798984,-0.15242250712981678,9.816827791250473,0.003284340980665261,-0.0010472747914604833,0.0007423039019581
1681484051.897005,0.011847327483653108,0.0541916139555319,9.83516172459032,0.0009984871483871985,-0.0007004284489212603,-0.0026626058429006
1681484051.9068756,0.0825902041354829,0.19888715375111682,9.847307580887378,-0.0007102855622605504,-0.0009634559406737106,0.0002677148400347
1681484051.9168904,-0.05732986203558168,-0.01274385500353436,9.844587238118658,-0.0009147877729930382,-0.0024911889543481683,-0.0015312293584916
1681484051.931401,0.16490595826562188,0.12698074990129263,9.792079813767081,-0.0019794963819812906,-0.0004046584297020199,0.0019370110199328
1681484051.936882,0.02733165895329208,-0.23499257053759126,9.73219159285481,-0.0001306470788210305,0.0001619534683118153,-0.0003957732155445
1681484051.947007,0.12325472755994706,0.07648952638315841,9.787258724729428,-0.0008730987594445612,0.0015932082636543527,0.0003925042652067
1681484051.9569025,-0.13170842753395923,-0.1272501212697733,9.865902884874863,0.0014828002078187065,-0.001687635291964845,-0.0008390513289246
1681484051.9668596,-0.006600170354105907,0.1333175691166747,9.875234604618194,-0.0005262452262335779,-0.0031300745110121814,-0.0002787889720398
1681484051.9770155,0.10987171440265041,-0.0436710086224133,9.759817840930857,0.00010631242924570744,-0.0014689570117053946,-0.0017476622055742
1681484051.986899,0.2139626146879966,0.12703673729162102,9.76387571873278,-0.0006968739564774656,0.001254592183175399,0.000660748158722
1681484051.996905,0.05328210856344638,-0.09200614259466162,9.763883481930568,0.0012823460667643074,0.0017325538103223341,-0.0002940811722997
1681484052.0068693,-0.08380576318022172,0.05039849475152501,9.887174786147439,0.0011415486467645634,-0.0012230925263904686,0.0001976704184439
1681484052.0168948,0.1355556900206023,0.07984712547954452,9.777391929530019,0.0010916332076700162,0.00010869367520792066,0.0020927256514791
1681484052.0270429,0.04116246493138788,-0.12151672036817482,9.774994194286682,0.0029404964597338165,0.0007051303638038755,-0.000113360005756
1681484052.036925,0.001168342100582107,0.0015818068083581266,9.83118488036316,0.0035611257325350396,-0.0002977239374765515,0.0001067693770405
1681484052.0469203,-0.014641037597683178,0.2197785403573417,9.914532986899202,-0.0007669112649881565,-0.0015911592116365073,-0.0002564345526966
1681484052.0569224,0.16513937247392832,-0.0067261691391629465,9.741470610825559,0.0016627206502554273,-0.000232538606732772,0.0029644474812325
1681484052.0669248,0.018803481752937643,0.06538661693318093,9.842756948540284,-0.0006752725477280145,7.552924629560994e-05,7.026455891395527e-05
1681484052.0769243,-0.10836986438372959,-0.0572463930352483,9.877279264861235,0.0007172425113057131,-0.0032433218990246117,-0.0002497372956473
1681484052.0869,0.19109653051610637,0.031106480258862774,9.738731104901035,0.0017677681115339694,-0.0009705097795815992,0.0018390423461336
1681484052.0969963,0.02532403604073365,0.08072383123363905,9.841854536150246,-0.00018241629408370403,-0.0008833587030322263,0.0004007013008471
1681484052.1068864,-0.030678445271640754,-0.014954820566010553,9.84226932376189,-5.871658258719475e-05,-0.001977094897094885,-0.0008625339291516
1681484052.1170056,0.06372468717684014,0.027957010842724745,9.800075745757212,-0.0006123077141158262,-0.0013032150780022888,-0.0021161031949791
1681484052.1269317,-0.040453651463390534,0.04489468320574632,9.804710587255174,0.0007440621742055165,-0.0035570025632740325,0.0002732991666075
1681484052.136866,-0.036735916589873636,-0.006236133239269771,9.83414972955158,0.0008756817595899542,-0.007006546873837488,-0.0075036317616227
1681484052.1470184,0.7729451756442298,0.025037619007038915,9.761576429437197,-0.0011557425200577269,0.0001418057751787443,-0.0078784006222609
1681484052.1569486,0.22223067769366855,0.03089519919852631,9.735823709472282,0.0013919065182783658,0.002999879466971192,-0.0020132805261287
1681484052.1669383,-0.07746321882017121,0.33999171303211523,9.992470566910907,-0.002279747171435658,-0.0009906593229651135,0.0069393373519655
1681484052.1769557,0.08188709207306044,-0.13726141053105817,9.667734039395874,-0.0010593681271283586,0.0012832557002968685,0.0060411768459256
1681484052.186901,-0.08059581522587418,-0.014469774898107345,9.816557234466618,-0.0004934748687787889,0.0006328585359040532,0.0056567054667052
1681484052.1969438,-0.8502875789557418,-0.48154883680377125,9.59719626608805,0.001243019762546921,-0.012640381579875749,0.010875817151415
1681484052.2069082,-0.6205763659612765,-0.5641600470046673,9.86521070024232,0.016196634820911007,-0.0466519331250977,0.0423309269786354
1681484052.2169766,0.8415936948008308,3.964629378711077,10.539955762086958,-0.013769601513374701,-0.07323422017402718,0.0879428673029419
1681484052.226957,-0.3657565698025213,3.3396233343106094,11.62986541349225,-0.051182294668670456,-0.12855042493712504,0.0893439713359352
1681484052.2368886,3.876495806160392,0.1023741278505801,10.801616568501245,-0.04818801204895171,-0.13082527296287166,0.0614075798035141
1681484052.246925,4.77468348987411,-3.7495533316349534,11.082723270647042,-0.0023730489608166155,-0.11034900385621801,0.0225307017058607
1681484052.2570882,5.205987314215825,-1.6875108175200768,10.822938248699035,0.03176632771320223,-0.08962617386576417,0.0091099136002835
1681484052.266974,4.6298188622337975,-0.006978666441788454,10.598029036969036,0.030867384626588255,-0.06688719798439431,-0.0014721497468176
1681484052.2769089,3.7131641052833015,0.06374294726788661,10.340001158096088,0.026070552245883585,-0.05651617016032864,0.0066097823396798
1681484052.286904,3.598466244801627,-1.4973163851500855,9.565368804385285,0.03393366867670245,-0.03931131700913996,0.0288539573044058
1681484052.296931,0.9102750942804816,-4.491362176290429,8.996331237226961,0.0791506691841012,-0.04934913329204127,0.0561520296574112
1681484052.3069336,1.6081651648703008,-4.02650678591228,9.684963313889035,0.13091113123338732,-0.06231093864358491,0.0758670109749313
1681484052.3168995,2.6195420288982727,-0.6757518497721753,9.84044483724419,0.13859204937883288,-0.049346025129085064,0.0904535714030739
1681484052.3269696,2.775692134300776,3.0794489305066515,11.242365255075404,0.09615405430447657,-0.014867765779089354,0.0827110770583626
1681484052.3369403,-0.9495669812993196,1.6139944475659709,11.437547881359038,0.0562121242514542,-0.010365187890626418,0.0522932473063942
1681484052.346972,-4.583903696886457,-2.205788565577628,12.458536358245425,0.0627984713703171,-0.0834957985074975,0.0253614063799854
1681484052.3569503,-1.1857485982307734,-2.7213358393657967,10.337374200469178,0.10606653728664053,-0.12702195318743983,0.0201057984918829
1681484052.3669703,0.13454041652069618,-0.20997192448910973,10.062964139670521,0.1052984243149478,-0.14280730662135918,0.0209344017744537
1681484052.377031,1.9514135147320784,0.35595775175341837,10.361134430631862,0.11743140057461796,-0.1526552879456927,0.0317144829273697
1681484052.3869357,4.564669514426083,2.506973075905378,9.624298123047287,0.08686317357528764,-0.11621978731738236,0.0410611766815658
1681484052.3969295,5.398103041882113,2.2306540271270983,9.122651745402939,0.06536671948173292,-0.06784674866877914,0.0405411522329327
1681484052.4069953,2.7781464938159086,2.183668875962461,8.340863025665428,0.04198805883451643,-0.04197137642662151,0.0462050016463276
1681484052.4168746,1.0941162725781703,3.353746174977374,8.786008478981492,-0.00033057739654568103,-0.05331216646115231,0.0467976171017166
1681484052.4270875,4.017938902282217,1.9855058099959169,7.687005155904093,-0.020334615623027956,-0.01594774318315182,0.0458700347185608
1681484052.4369152,1.4363562703436537,0.9919409849170774,9.349685883117004,-0.02973089361946814,-0.015009021038835498,0.042886092090654
1681484052.4469852,0.6535888591543463,0.821226176190152,10.463584993784876,-0.03273500291064455,-0.01367892901059997,0.0313988502562519
1681484052.456936,-1.0617177987698474,0.7492937009899528,12.23355213104548,-0.03120472106181993,-0.04583578819981129,0.0162825284019585
1681484052.4669602,-1.0636977472004194,1.395716384971696,12.153905912914592,-0.04058009723352208,-0.07197888338866006,-0.0109319149091366
1681484052.476961,-0.04685410177408189,2.3670239213338995,12.30594187139018,-0.0606563680513568,-0.0973724077847248,-0.0266421095042947
1681484052.486926,2.836657998476049,1.262991477514164,10.546987530627913,-0.07911371089521403,-0.08439670440922749,-0.046195817416859
1681484052.4969192,4.01184040768944,-1.1726316325618045,9.528074205446753,-0.05745434985143288,-0.05836679192118274,-0.0619304638862136
1681484052.5069523,4.525513129027445,-1.5517291760592178,8.579224659612722,-0.04033238614945163,-0.026265858517265404,-0.0818183731793883
1681484052.51693,6.266149059116194,-1.2343951582374162,7.006834502025484,-0.01687695428528851,0.039648404342924264,-0.0923552524804595
1681484052.5270464,1.946841349165322,0.0029336360451116803,8.039222099593168,-0.021271816746467567,0.05145327884308475,-0.1029255103826049
1681484052.536929,2.4548781485224564,-0.6731302257622083,7.675859166714181,-0.010750990918341958,0.0648901792731902,-0.1109942507504943
1681484052.5469172,1.5428405497052164,1.2432254671367695,8.382015552323587,-0.026076333018526743,0.07464005033157425,-0.1130469602107528
1681484052.5569122,0.7139419436558531,1.9705577204290396,9.841486766990558,-0.04968851265070925,0.06369927945449176,-0.1154784050344947
1681484052.5669649,1.5671187066608043,4.4227384831430605,10.862653225565136,-0.10176244969675728,0.0707700328307728,-0.1126710635184768
1681484052.5769343,0.02485610247470787,3.243685379701301,11.19128971555009,-0.14626698666333254,0.06469781075676306,-0.1062519785522941
1681484052.5870075,-0.004559008789296216,1.23025482150426,11.606072195278296,-0.1509655395189702,0.03967854747849668,-0.0862197813152793
1681484052.5969086,2.785498015931936,0.975658368281824,10.4737839263369,-0.1578970968616222,0.050567031086787596,-0.0546007056295398
1681484052.606962,5.641433817154601,0.9229581789609193,9.451472156254145,-0.14852317832875975,0.08974075587686917,-0.0200603504240039
1681484052.617008,8.442209092595077,0.6318281918725996,7.994548334382252,-0.1550428811682132,0.17313710630525608,-0.0028788198291782
1681484052.627104,9.418305406521727,0.3467471923772918,6.931805912655674,-0.14560760720059818,0.27692511976726936,0.0126150909305092
1681484052.6371138,8.147134341958411,-0.5164365414854161,6.134246948397477,-0.14389740848235297,0.3640031591835189,0.0204080815852161
1681484052.6469634,6.8040729309194985,-3.4210921122597315,4.874189054784762,-0.09398946590594226,0.44076179553287553,0.030680558407354
1681484052.657003,0.8535851844923354,-5.888566576639755,5.2833314524609305,-0.03150442600786077,0.445425220133526,0.0332491088152405
1681484052.6669676,-4.03846816096932,-11.687370234373509,6.601861823549964,0.09583972764313115,0.39846004839941557,0.039874925041246
1681484052.6769474,-12.658012045275443,-14.664865897845084,9.29520320310927,0.2573460339622582,0.2482693189141136,0.0032644633861731
1681484052.686966,-12.335608690706211,-8.164496001942158,10.111732479133837,0.34335945957716013,0.08383848183691438,-0.0271293551235917
1681484052.6971023,-9.04711176744179,-0.8272197376071911,11.531518265195462,0.33071033555902235,-0.02654234285674235,-0.0659328859805587
1681484052.706955,-8.270047815863633,2.693057848645294,13.956620995405995,0.2582103974918438,-0.12490441482935774,-0.123699606633139
1681484052.7169693,-0.9547388607432211,4.002392457541871,13.638218337995058,0.1689520470001559,-0.1445361641475676,-0.16349791107173
1681484052.726971,4.315832888185231,2.104646302736696,11.480720436450111,0.12523644943271947,-0.07663486998814314,-0.1833544683217529
1681484052.7369506,3.656195371334321,1.9233385094844098,11.708911840038839,0.09213952443183611,-0.020262853600965344,-0.1997188788413528
1681484052.7470522,5.398219930735064,2.544415584074852,9.619656248116883,0.0689987435142156,0.0556552435094497,-0.1929875325917724
1681484052.7570665,3.805455498119714,1.7533660283755144,8.255866206988125,0.06037219922267848,0.11651376458059429,-0.185240955328894
1681484052.766958,3.34814312523054,3.653124114130689,8.03657663487994,0.028499180796539875,0.14983497866164303,-0.1827822190284255
1681484052.776993,4.627555626505934,4.922127159937256,6.135107218645239,-0.02737730596530788,0.21469866119342124,-0.1690910470246795
1681484052.786976,2.3538516092493853,0.20533578664023738,6.663423898787983,-0.02125309419383129,0.24196246781369687,-0.1301821332931045
1681484052.7969918,-0.27654219648976697,-2.459364660884712,7.368514036318861,0.028831872922513647,0.22724070049391698,-0.0946821805595878
1681484052.8069253,0.11027529776342578,-2.1543118834987967,7.7495477773634684,0.0731597606056451,0.21215796706960988,-0.0525515165686134
1681484052.8169382,0.9678812329843477,-1.101382939998569,7.651184629628508,0.11499140972042082,0.2096235395661766,0.0068429794587668
1681484052.8270345,-0.27226934864979313,0.29929723434705524,9.230846335233728,0.12041826906880669,0.193529837941426,0.0597977365792271
1681484052.8371148,-3.08233608102043,-0.9769775909006017,9.973697863284888,0.15588089146476242,0.1440943314061152,0.0942442405462738
1681484052.8470151,-8.95015744375516,4.574219162840083,12.775739154600632,0.10814199812228846,0.045266611697781726,0.1144188407302376
1681484052.8570304,-13.146941199556652,4.329364427371451,15.143854548919911,0.047603538647180324,-0.1330601929504755,0.0988965544343468
1681484052.8669665,-8.534326072013268,5.696369071942748,12.083117081773288,-0.02186314341559262,-0.24470103924182676,0.0851410615683075
1681484052.8770127,-4.416100622391573,5.650300949617587,11.12891645137057,-0.10567428076379451,-0.2968240482835098,0.0666797670960899
1681484052.8870242,-4.3618622208668985,-2.109057035324962,10.067250549512758,-0.09354441310328179,-0.33410609555418475,0.052601678991365
1681484052.8970358,-4.662224717864793,-7.785183482048714,9.766253573175737,0.00999298522937254,-0.3891859962083756,0.0318986109883066
1681484052.9069798,0.8590387308672046,-3.5826953959179293,8.548498882529897,0.07856289136580216,-0.3828988355303317,0.0401667940855499
1681484052.916962,5.157655280276162,1.2083526047979516,8.365135364996954,0.07915825777329961,-0.3175530995924095,0.0476765807211872
1681484052.9270177,6.244463956385098,1.9433509210313118,8.940400894046029,0.050974554804723404,-0.23450290847186242,0.0545964229345795
1681484052.9369285,5.825346485216623,-0.3034646358112896,8.368916389195673,0.05433879874045409,-0.1591923712659231,0.0685881141067024
1681484052.946958,3.7837138297371466,-1.7700818116373027,7.592023877627862,0.07659764424687485,-0.10492378069859354,0.0771066236734863
1681484052.9570236,0.8961347922453914,-3.022815592529655,7.715779355811319,0.11564838043391296,-0.08832369409698665,0.0837385046720978
1681484052.9669375,-1.089717892776067,-1.8565667995580004,8.113140638710883,0.14014886225755416,-0.1051848890201039,0.0841697442770477
1681484052.9769976,-1.7312215008902785,-0.8072180651159013,8.163728717046247,0.150908835541887,-0.12530950450868086,0.0772556725383278
1681484052.987023,-3.494713505461485,1.354916970167931,9.363241094892603,0.13077676129166196,-0.17229477436988336,0.0736652526498314
1681484052.996944,-4.418928092296237,3.4581908290445007,9.89656900025338,0.0930729939653428,-0.22567668997311494,0.0670346606016632
1681484053.0070095,-9.842163465196634,9.697966055192397,12.063997681896359,-0.01566449407914329,-0.3205256560341209,0.0515731226146694
1681484053.0169308,-14.611719152994997,8.53475651726475,14.263061898055186,-0.13367893743916726,-0.49507164471278636,0.0226226344198461
1681484053.026991,-10.60652156648777,6.183187225744974,11.306157497337015,-0.1993475192838545,-0.6134004796972288,-0.0161202058702233
1681484053.0373309,-10.289663143045154,3.640732251784111,11.066547576113875,-0.24202093372968905,-0.7292676116350196,-0.0552620191633227
1681484053.046938,-8.309459067187866,1.2815912144221437,10.717661062170242,-0.2455431087726751,-0.8294142722497855,-0.0930790838360313
1681484053.0570662,-3.999550190898748,2.2543088853888165,10.240946740417945,-0.2544130142285709,-0.8952336188500044,-0.139625326967192
1681484053.067042,6.501893433661121,6.695588005396822,10.977341518335782,-0.3075108543063317,-0.8518346642144599,-0.1563853335141662
1681484053.0770051,18.50147932799814,10.082673014861342,11.87645442657738,-0.40724418000846574,-0.6598372219750128,-0.1838821333407882
1681484053.0870404,29.54969272510921,7.582167641027392,11.38121193030262,-0.5017810422071474,-0.314888525406194,-0.2367949348449233
1681484053.0970156,33.67848454980282,-8.22809391887799,8.740789827235554,-0.44224296072491726,0.12866083347746143,-0.2495324325322631
1681484053.1070116,28.298462347856596,-26.544601858922263,5.021823204892378,-0.12470573576472582,0.5164389002754486,-0.160194174623442
1681484053.1170387,8.264101220335464,-21.0811074817334,2.4141032447847124,0.16112316641639834,0.7162167850610651,-0.1146324065088752
1681484053.12699,-11.686983967238755,-2.0934990197239904,13.503881806534613,0.18988430023045275,0.5925775162118136,-0.0188976333051446
1681484053.13702,-17.942176834605185,3.5844889608150003,12.56092992796907,0.17104133830207083,0.3778946487504598,0.0194876182318207
1681484053.1469934,-15.044320335885248,8.396628348412484,16.7485408962783,0.010517619977527598,0.18946340685056098,0.0259283303708311
1681484053.1571052,-7.218405686158691,4.347424085384644,13.374906318010666,-0.07615722266650164,0.08369428766194431,0.0516075964510914
1681484053.1669989,5.147043119086598,-6.203752535937716,9.150604996122691,-0.022314515116686705,0.1261565857614458,0.0895405996084686
1681484053.176975,7.928727015700765,-7.687504530190643,4.352512927700298,0.08237937355190439,0.24443940520914895,0.1008965957403656
1681484053.187014,7.589011599992469,-5.497913673212803,5.608168646442901,0.16224036319032073,0.35229842397636174,0.1004812929273125
1681484053.1970403,3.515708917056141,1.9579309525557491,4.919938752241441,0.1601157240683119,0.43157703643602546,0.0750569391489502
1681484053.2070243,-4.109662228449914,2.988826365756695,9.144213372129606,0.10188836497432828,0.40587222985341004,0.0323744087905165
1681484053.2170546,-11.743684705403032,2.1113407732728997,11.21765203486228,0.07920474654463455,0.26472294680909514,-0.0010832909069481
1681484053.227003,-8.173389023872614,0.731733364834724,13.193455633174786,0.05189975418539979,0.12444142062367633,-0.0579943892120841
1681484053.2369974,-1.4341230954339652,-1.4412477939619317,11.553222754571154,0.08566381205849181,0.07632869311083518,-0.0633777540683273
1681484053.247005,2.254806004646403,-1.312223642321782,11.584532910659815,0.11258363148578458,0.07632395146992763,-0.0992245685815337
1681484053.256995,6.199641353090438,1.9153480218324612,10.077690048706234,0.10170979527392526,0.14817671839518481,-0.138231204128218
1681484053.2671025,1.6305023985142915,4.962132433715629,10.855000985002153,0.04310551912222338,0.15041206488810716,-0.1456663322209838
1681484053.276983,0.3650790198768191,2.2877140479349807,10.668926662401736,0.01726089368688411,0.12558305567702627,-0.151595444655371
1681484053.287019,-1.017960886998794,0.221092750691669,10.364762947785822,0.006675320369439207,0.0860297429420372,-0.1600540739058975
1681484053.2969663,0.9914442069009638,0.4932992628054671,10.024768015282145,0.010945631304069375,0.050949891351137096,-0.1461190742015365
1681484053.3070583,2.5074495086550725,1.1003606557263756,9.026706950065211,0.00968806394049122,0.05259058036732355,-0.1360853326081756
1681484053.317033,6.341256070474638,4.23025168843931,10.598442114117534,-0.03663973807795566,0.08791226305861934,-0.1318708967923644
1681484053.327101,9.296197238831796,5.814228479791245,8.889978041953533,-0.10226045474766012,0.18618614852217885,-0.1346199524163726
1681484053.336954,8.344459140579232,3.9305449495075937,8.805746081332881,-0.1523589198694134,0.27088125047645384,-0.1328784388064864
1681484053.3469896,7.084203212545466,0.001373656297871742,7.804852899365963,-0.15725359468422406,0.34425565789268725,-0.1250866812228683
1681484053.357056,3.640273695250598,-4.156491244659798,7.843419948592434,-0.10014459453523512,0.371635799060667,-0.1053003754972938
1681484053.366998,1.2659349079188427,-3.097370513991236,7.420245828416888,-0.041212224028701484,0.36777512418230907,-0.0498574499547008
1681484053.3770633,-0.2937867436799582,-0.7459553585603635,8.938107132810023,-0.0208186980997855,0.33207172785687517,-0.0065386074169996
1681484053.3870883,-1.3734167410818465,-0.6131414355177588,8.272014058745658,-0.003263621343154563,0.2903462879237482,0.0332131709397312
1681484053.397028,-2.057777743690223,0.17320247511238437,9.50187772176141,-0.007004240975601816,0.24033243779898528,0.0744904193521019
1681484053.407114,-4.003331716799048,-1.7102965712302216,9.645656682121421,0.017517167926633517,0.16546357050211086,0.1083665478468414
1681484053.417235,-5.043920288722287,-3.019140786821282,9.255852802979604,0.05605744793157507,0.09156751801062997,0.1357566702604767
1681484053.4270728,-4.542635258966098,-4.482659540715173,10.994092693454952,0.09799026761580477,0.012146114637633756,0.1742124098778244
1681484053.4369757,0.3456379021383777,-9.849569384011227,10.304368551701371,0.21349732194671364,0.002599214107091077,0.2203465092421051
1681484053.4469712,0.7112187226203581,-9.00715859074971,9.100202065126911,0.32003847933059565,0.00798303537154114,0.2383511650801178
1681484053.4570785,2.300987258700829,-3.59318529595162,7.67905330768037,0.3698433649142679,0.04564512136263858,0.2546077060938355
1681484053.467044,-1.135420276502741,1.9121631091023241,7.379584455122366,0.33913950962793205,0.05041085592010486,0.2469476747751709
1681484053.4770143,-6.142996336400089,3.516269602846762,8.07999345019115,0.2779841556353037,0.007362353742826129,0.2336415338755127
1681484053.4870846,-13.735943132876796,-0.05632364671650117,10.086226740584669,0.2434889791963537,-0.13805430396448595,0.1894097316503998
1681484053.4970307,-13.87747123548244,-2.4448366418258867,10.669982403465134,0.2514070808103491,-0.29980434625379454,0.1544788468122955
1681484053.507022,-10.18359417919619,-0.9749800514062217,11.502735616410902,0.25841416290198616,-0.430752245360148,0.1357530939817902
1681484053.5170135,-3.6617047700667578,1.492473162466626,11.919494850941906,0.24422252652797008,-0.4835637566271323,0.0983026090503212
1681484053.5271275,5.655995072517727,5.858013346223277,11.0319377993895,0.1899416342986298,-0.4329436130093916,0.0524882140994545
1681484053.5370064,12.79067160909085,9.392391839393614,9.947070426002874,0.09602199326320146,-0.27336786344991904,0.0196318000048872
1681484053.5469744,13.942960121042391,8.603352198263185,9.280106031444724,0.01897216794213802,-0.09718983607256347,-0.0061447795055333
1681484053.557114,13.131116711585673,5.143112161635037,7.681268396345512,-0.03388284721080228,0.08614751095292199,-0.0339086439966682
1681484053.567075,10.12055298087178,-0.040514987528575665,6.774431866996663,-0.007416108452943713,0.23746727123401717,-0.0542357389389995
1681484053.5769784,1.5393809269264724,1.1906677714041707,8.087431967099967,0.012503659864411874,0.2813849502355676,-0.080098600363684
1681484053.5870826,-3.405461764014422,8.097000789665117,10.455817955909293,-0.054432911562805365,0.2670992975976742,-0.0932911050080779
1681484053.5970142,-8.719601663583813,11.448957631465861,13.36346741136019,-0.17072859730512513,0.17645568739013212,-0.0877132278441909
1681484053.6070154,-5.517765392595918,6.119434013880348,14.385789205676426,-0.24848006999759997,0.10349216880110378,-0.0790369298815253
1681484053.6171649,-0.8487367128656563,-0.32138822894361246,11.650203963636034,-0.2352868869451764,0.10053175286310453,-0.0461588327347758
1681484053.6371064,-0.6087848675795641,-3.3708317833997916,9.090061077492523,-0.11638005662600691,0.11005260654435356,0.0243931568652864
1681484053.6470785,-0.9224394371278662,-2.217201594917266,9.909230379083327,-0.09661639628632744,0.1084023702879376,0.0498084973037716
1681484053.6570444,-2.6180225946626106,-2.6021527183053825,9.542096755078145,-0.07303032070204181,0.08740794845104212,0.0536026197910782
1681484053.667075,-3.5016836170701464,0.3101227817776222,9.562010674679488,-0.08906014694959191,0.05893518061237756,0.0531520533800598
1681484053.6770215,-6.079519196137519,0.0001626017323661181,9.60488467275579,-0.10427713424143664,0.001267950954823761,0.0323974161833998
1681484053.687064,-6.0468981947477385,-0.8490125392370055,9.444068589987776,-0.11130909215814237,-0.06776033627356863,0.0070054864004727
1681484053.697061,-4.18907228647094,-2.8916532663690946,8.277056865248895,-0.08257318951054625,-0.10865607223383554,-0.0143163774668697
1681484053.7070756,-3.7854479813730038,-3.0383855447967836,8.927632329999417,-0.04882169658810896,-0.1499203676563338,-0.0358637732028487
1681484053.7171009,-2.3911487651953873,-1.381132732700781,8.808083233990448,-0.021843850236585093,-0.17868175744544115,-0.0369344775139812
1681484053.7271914,-0.6493944217358903,-0.9890712878224309,9.758726902778662,-0.014482413836951705,-0.18505074752522188,-0.0422179636120322
1681484053.7370503,0.8633323467061153,-1.7748045693135162,10.247726963092223,0.01325308156598489,-0.17782903477022743,-0.0316434849559787
1681484053.747049,3.4741852061272454,-2.5459148627958137,10.349379765150589,0.043729155746921745,-0.1404437733065594,-0.0216914706438306
1681484053.757202,4.430169033202166,-1.3162776931471851,10.176567922601762,0.07119975929875348,-0.08568028644495139,-0.0135334834962609
1681484053.7672064,3.1023818107812904,1.963509156978799,10.667563611777926,0.05041111633062493,-0.0493836237868027,-0.00918677659179
1681484053.7771597,1.940988273454765,3.4732060687517285,9.43828523835728,0.008219926287195391,-0.01626854808493768,-0.0199616823851588
1681484053.78719,0.2473018980061272,2.5556004740886555,9.178183499971645,-0.023145274158502593,-0.009762822522282244,-0.029317599958134
1681484053.7971034,2.18234878764451,4.211076584153399,9.272269324335829,-0.06522775282909117,0.020211883106540013,-0.0434782330452922
1681484053.807127,2.809685485409772,4.345105675372781,9.67832282855198,-0.12050876342826286,0.06694423660908234,-0.060400870865536
1681484053.8170128,2.668642655127258,3.996787025123309,10.091672690466385,-0.1610837520531279,0.11688498325087192,-0.0737468760966781
1681484053.8270512,0.06464220909909543,2.0386371953553337,10.752142844935939,-0.18412093091296275,0.13880241427098677,-0.0892843317746642
1681484053.8370264,-2.0672913928004935,0.9312226308110972,10.877079510043346,-0.18031303881416758,0.12581391662787447,-0.0842027824878219
1681484053.8470795,-3.008240854083408,-0.014925746357023574,10.525154028058772,-0.16772447182390898,0.10093680414625857,-0.0743423190474036
1681484053.857049,-2.9002805317416143,1.1067283295718744,10.45736291906383,-0.16624308018215309,0.06999433079129336,-0.052030791765404
1681484053.867021,-1.3380004921957573,0.18997284642757709,10.083739056772549,-0.16252993184377232,0.05221096332482897,-0.0153592762112144
1681484053.877035,0.1046675558415669,-1.2121168492569503,9.518141974301662,-0.1432621341356675,0.04650582176851292,0.0339992332697388
1681484053.887128,2.4826012677395783,-2.6727162513302107,9.135904749983425,-0.1046687277558365,0.05964585007674984,0.0868180531502243
1681484053.8970551,2.138689409111505,-2.963711455246577,8.618219940717607,-0.06865670343412687,0.07906100010825907,0.1119396972895142
1681484053.907097,0.1472649113115019,-1.2855205820648228,9.362470437241122,-0.05203695535722893,0.0612969974219748,0.1241702947259422
1681484053.917138,0.20444240702105718,-0.6077434218920915,9.473930928235143,-0.052125265709517365,0.042526838896706165,0.1293462950230118
1681484053.9271588,-0.5490496819103268,-2.9080854947293218,9.86336532963921,-0.02665905705516717,0.01538627978965077,0.1215442407370087
1681484053.9370592,-2.329800936270309,-3.164891648224922,10.093610643949484,0.006722228443359952,-0.0358122761938466,0.105255721831369
1681484053.947073,-1.3673169542630992,-2.6895082651388544,9.765203756634017,0.03232582481165605,-0.0739853324466842,0.0905765879393097
1681484053.9572215,-1.7763830838815973,-3.902705909170007,9.61594333258982,0.07203803930875773,-0.11386538358392635,0.0710110652685638
1681484053.9670815,-1.3762955972871214,-4.016992499077827,8.859332650540658,0.11778291995674682,-0.14741273067934407,0.0502253423870083
1681484053.9770336,0.3384484140992124,-2.754613701338958,8.479653624847359,0.14514147949880332,-0.1550022516106777,0.0441890160978313
1681484053.987051,0.4385396640011415,-3.8790866499214007,8.744716914569226,0.18460408992841013,-0.15475739532048763,0.0413402270019527
1681484053.9971764,1.1697929611950175,-2.935232606647036,9.10327215835506,0.21655647040305406,-0.1432779178841933,0.0463450688362594
1681484054.0070674,1.090961313409493,-0.7025899684835991,9.253100227511702,0.22339159773663306,-0.12435742599209657,0.0473278749227997
1681484054.017214,0.4600892058257854,0.9076303223346908,10.211735141082492,0.2076579991295883,-0.1135243533569703,0.0388358931482311
1681484054.027077,1.255636345197582,2.1756801352184807,10.938693673417855,0.18101203427156662,-0.09425317697545363,0.0211329802364584
1681484054.0370324,2.3722577210594027,3.4076345472098577,11.370544042121335,0.14428281966313736,-0.061301722018752114,0.0084963028744336
1681484054.047083,3.155432972948756,3.9146182816725164,11.325587408343068,0.1022408216746579,-0.01511284578926795,-0.0075873027130488
1681484054.0571325,2.3772976327910786,3.1288913486299683,10.411224263147446,0.07365835851780482,0.027748774697443454,-0.0286347020923618
1681484054.0671136,0.6409546192941541,2.6364418024883625,10.02950633243652,0.05220975897396284,0.044032371458225854,-0.0468212638556483
1681484054.0772436,-0.7769722905392484,2.826107831028478,9.131226862813193,0.03474976389188974,0.042265740312959994,-0.0649290618061546
1681484054.087135,-2.022610064359001,4.408465175528885,9.125973620041838,-0.006749691187642198,0.02018708628890843,-0.0739295270800117
1681484054.0971055,-1.7609044412108392,4.806057974107578,9.025660123138163,-0.05550006781854682,-0.0058461856562670765,-0.074157358384085
1681484054.1070662,-1.3961014606458664,4.090875102749833,9.061406124463502,-0.09509567100415103,-0.0271896355493567,-0.0694812324404243
1681484054.117161,-0.830096941022765,2.998987053557648,9.640546063615565,-0.1263790587478769,-0.04339844175013878,-0.0612730097531799
1681484054.1270926,0.7426158938499228,0.9534814139692194,10.02400328447542,-0.1314315597031401,-0.04564763270272077,-0.0453886289655688
1681484054.1370797,2.2904409930380685,-0.9405886186133147,10.046870973867476,-0.1167126955065336,-0.024621062410435338,-0.0277071662753347
1681484054.1470337,2.8441886117279433,-1.921452671539307,10.042409696212635,-0.08428142433081855,-0.0008489160620137623,-0.0041985095053437
1681484054.1571364,2.7616508150447547,-1.9161278231523426,10.18662150382685,-0.05834257627257692,0.02932497845129573,0.008776872647601
1681484054.1670303,1.4902791346309763,-1.5251821704972013,10.811548544702363,-0.041208367832504166,0.041881465046754475,0.0270932118833538
1681484054.1771078,0.8848245193618576,-1.6256209310459575,10.574594894620287,-0.021552688799606416,0.043054864439593866,0.0448923881590839
1681484054.1870804,0.753634464301296,-2.1816015407219527,9.93259832526326,-0.001731057663060462,0.04533750671207588,0.0540713954210754
1681484054.1970685,-0.47394316175946877,-2.5749297562531894,9.21907746532573,0.02725946327576311,0.03561345464962671,0.0561204876244541
1681484054.2070582,-0.0965953522657105,-3.134492997341647,9.270066646539068,0.058948021716218484,0.024895038496387016,0.0476267549634453
1681484054.217016,1.6955845332270474,-2.7693042435607147,9.381774324101482,0.08584026919954774,0.04354398573470722,0.0329995888710495
1681484054.2270975,2.9081955688772,-2.9343963514721136,9.618614615077089,0.11605536388587934,0.07903352077875474,0.0242822698742624
1681484054.237082,2.492720001948595,-1.2310698647506078,9.484311575774104,0.12875525088710013,0.11559262214570457,0.0128007221460815
1681484054.247051,1.4410895853035277,1.7767767081300538,9.711742910148907,0.10499832469684914,0.1399006221945009,0.0107916786760565
1681484054.2571862,0.16745765128506898,1.6960096977991916,10.03704292985296,0.07885193838735223,0.14148940402617782,0.0109671892092105
1681484054.2671294,-1.1168393166878676,1.029273706381146,9.786631843038279,0.06467915638519937,0.1263269580654766,0.0176946173847195
1681484054.277224,-1.4576094019548131,-0.23523098660908942,9.453287596656239,0.06887981557094497,0.10124822551600184,0.0188480995089289
1681484054.2870529,-1.81339301439478,-0.7948017423853736,9.101951494514765,0.07997805591015394,0.07709292877848349,0.0183790798724171
1681484054.2970507,-2.6883699225116273,-1.6288915649712745,9.195739487128968,0.10473309214112601,0.03576454566581665,0.0148570535198327
1681484054.3071885,-2.4253750823381606,-0.5168236841445921,8.919174316988178,0.11839331162919647,0.0003206258819154693,0.0078525135718759
1681484054.3170788,-2.0894109820017057,1.4356715001850162,9.406384160047248,0.10906442624997685,-0.028317255118261185,-0.0024037819861892
1681484054.3271053,-1.7933107411119245,3.965368443202582,9.771109037956926,0.06326709360982734,-0.05096052740739886,-0.0173871212213758
1681484054.3371615,-1.086789432601744,4.362204720880097,9.994776525646225,0.01130418227323085,-0.06633333648262814,-0.0319392692803863
1681484054.3471427,0.4140893095542821,3.819857604402438,9.570725242210207,-0.027645806433098326,-0.05899174947839497,-0.0430354524909976
1681484054.357157,1.5601866765494692,3.5187504207757527,9.475307153375091,-0.06169813505474428,-0.039532197369355135,-0.054901478117657
1681484054.367165,2.421415940170399,4.2149366990799315,9.180221493242144,-0.09385815059141318,-0.0024202083866462533,-0.0687345799564841
1681484054.3771472,2.2891714924295825,5.246836898503524,9.657730848186274,-0.14379220028338177,0.0304288234393852,-0.0799117323517326
1681484054.3871045,1.4541122530134063,4.775798366326022,9.306978195366272,-0.18186070597200832,0.05946605272090519,-0.0893410232424262
1681484054.3971283,-0.2875593909304322,3.909764797250101,9.823268587689544,-0.2179184905654607,0.07048593943593112,-0.0982104179024223
1681484054.4070923,-2.2168881080852034,1.8647059096390928,10.629633477582262,-0.22255038540726607,0.0547682307462303,-0.0860224228858474
1681484054.4172404,-3.199342680589647,-2.2457097779846045,11.828783176648598,-0.19210156771191447,0.02351435714914022,-0.0611364033579353
1681484054.4271607,-3.459811443145204,-5.4676396363743605,11.729831205182574,-0.1029050982120165,-0.0115314024684687,-0.0298971210181239
1681484054.437088,-1.9768925031419484,-3.7709090323774834,12.043331370341958,-0.05606291687641545,-0.03302014959400027,-0.0002718314103308
1681484054.4471684,-0.48819469852518427,-2.652794470339093,10.907763587568622,-0.02316583853409361,-0.02842368550703636,0.0322225957602735
1681484054.457126,0.3272042981544164,-3.4257216997539746,10.242789269600458,0.001332556609304106,-0.01701243139666848,0.0582043330610271
1681484054.4671085,0.464453143846048,-3.8988216842691212,8.676516958827783,0.034740461374651053,0.003133555939136753,0.0698941710830208
1681484054.477106,-0.556973695477278,-3.8271639137088846,8.544965518015566,0.06605453483914056,0.010729004900887929,0.0748095500708099
1681484054.4871027,-2.1441252957981045,-2.2919164968167975,8.650098159445339,0.0843201401498304,-0.0034369710268654253,0.0781533855438705
1681484054.4971738,-3.081380938847634,-1.0053929889455486,9.439717874151766,0.0868996596605055,-0.037826275746154756,0.0666280973196503
1681484054.5071983,-2.658028090250651,0.1189699267769015,9.976884523271293,0.07474564018167551,-0.0718546071509077,0.0482248875737663
1681484054.517107,-0.8567538096850352,-0.19868502788796583,10.218778009822065,0.07019191428160537,-0.08661139562714013,0.0238739706069704
1681484054.5271645,0.42239524882320517,0.18152299895525267,9.965188961098354,0.06695185128615892,-0.08690950940520277,0.0029653168708559
1681484054.537104,2.159277769232751,1.2934677618434784,9.982593014834764,0.057995007218813545,-0.06933093133577267,-0.0095400793984059
1681484054.547105,3.278645595345985,2.4456190568401497,9.602111432274071,0.03814661872440987,-0.03814211601894169,-0.0179447487502816
1681484054.5571442,2.9388324582019245,2.7765132003465536,9.245467558729922,0.014577167506106973,-0.00882172154358185,-0.0350147832691196
1681484054.5671923,2.957665219767566,2.0740282524357068,8.758587944338432,-0.00022856406868914685,0.019510697045875214,-0.043278911387873
1681484054.5771656,1.8900225021436652,1.690829481827982,8.733490735250472,-0.010716210188305911,0.03592679607819061,-0.0499983255326274
1681484054.5870967,1.3374952187290132,1.3611146762095512,9.288278070737404,-0.012758960388771877,0.03919999090129255,-0.0431703229009631
1681484054.5970786,1.206321377193631,1.6622691165010013,9.64006439001476,-0.016779204610850904,0.04178448605945742,-0.0348420452832702
1681484054.607126,0.5705688659979948,2.1543732640072673,10.234781229294148,-0.032362928221067344,0.0410172323455474,-0.0215864435344461
1681484054.617129,-0.8316622944835033,1.8900078375028957,10.47336743769755,-0.04405467149478761,0.023380583674773393,-0.0083085282280567
1681484054.6272416,-1.6631437053896347,1.3857341780171484,10.80694047065373,-0.05692212235021052,-0.007451280580672219,-0.0041848507284644
1681484054.6371677,-0.8807136435748933,0.35627271293958046,10.31868200111455,-0.05927810491898065,-0.02393946872532397,-0.0058925414964083
1681484054.647093,-0.2355635282536491,-0.3201475125131928,10.025698414617061,-0.05799402625797236,-0.02848927411814246,-0.0162075881421092
1681484054.6572144,0.20208867906625402,-0.8275674956243869,9.579088700752044,-0.04951406623258994,-0.02699593360940553,-0.0168285307049277
1681484054.6670792,0.206646968017738,-1.5643835121427982,9.456106336263831,-0.03727180220286764,-0.019593728811292194,-0.0153637949883464
1681484054.6772258,0.08759531873337507,-2.34609926249774,9.55411413154527,-0.00999671279053791,-0.018279446660252083,-0.0089216365053776
1681484054.6870754,1.6383658231711358,-2.054289822714654,9.552363203161704,0.012142324280693563,0.004517132119739482,0.0058524238370832
1681484054.6971312,2.22676444327099,-2.246989397389338,9.887697116533733,0.03774488214748099,0.03533805686069974,0.0179629612207886
1681484054.707206,2.7086826457241413,-2.6358642197007196,9.776128119100301,0.0681070406020632,0.0734532588537459,0.0311502988875385
1681484054.717109,2.9392333760462988,-2.464643302881747,9.64743755261232,0.09571133163810425,0.11212731412853982,0.0454550001264091
1681484054.7271852,2.4557416742712794,-2.402717641559544,9.56288545547998,0.13059083385781495,0.14429924467005978,0.0508790377021309
1681484054.7372105,1.4291789348973307,-0.41676232863474355,9.437541873395261,0.13793575527156818,0.16489542564525908,0.0470811712980743
1681484054.7471747,0.44305420266866785,0.06924970776306845,9.494880203302893,0.13450816686765418,0.1736782801668198,0.0314597717911478
1681484054.757147,-0.6273490790280922,0.416201671461434,9.941681608333916,0.12842856574532838,0.16314865649960666,0.0166057103738662
1681484054.767192,-1.1912446416333597,0.4277440057576655,9.799188685384763,0.12199448233567142,0.1492700257157363,0.0024967201712083
1681484054.7770717,-2.8891927910249313,0.649641465737872,10.395973323853614,0.11456559768336652,0.11563222903154201,-0.0116136029868844
1681484054.7871726,-3.3665633464170095,1.3109895043408912,10.758683441147351,0.10423981655886358,0.06757038374654017,-0.0174967229872468
1681484054.797227,-1.8680378442624477,2.6708863996494148,10.49759900026241,0.07756824850116759,0.04585784589666877,-0.0157697640865567
1681484054.8071415,-1.7705930022375171,3.14473865791138,10.754849572584245,0.04549795917204302,0.024434936904157205,-0.0231211308896068
1681484054.8171256,-1.217453025037673,2.6959686331690684,10.0728406366948,0.017406692568871663,0.013850070239176799,-0.0252328116952899
1681484054.8271308,-1.7716142367088854,2.5173993535019243,9.864082158516961,-0.009017139378742146,-0.0014126441511851941,-0.0328256536781314
1681484054.8371956,-3.05059308111197,2.2229452268503187,9.87243558197708,-0.028041624385461508,-0.03853383084162872,-0.0325977068900588
1681484054.8471074,-2.3720329160539655,1.6007981511177214,9.755051346672465,-0.04319104639271382,-0.07011435272033892,-0.0338258121668819
1681484054.85728,-1.446172090181589,2.1002502560604577,9.283230877299001,-0.05662068198925379,-0.0920775078639962,-0.0336531784891608
1681484054.8671625,-0.22940795999355693,2.064445949948968,9.008601797504232,-0.07371389252245604,-0.0994282066323489,-0.0301428039133075
1681484054.8771389,0.5223455925438437,1.4153368449728683,8.411183370814463,-0.0794424776504724,-0.09190197314017132,-0.0284199484198812
1681484054.8871806,0.8538194304942782,1.1043747174466543,8.779703732371459,-0.08602635906152577,-0.0817817403263844,-0.0313427459954742
1681484054.8971903,1.8889699322103346,1.2196948396425735,8.730915950450488,-0.09139575785030948,-0.055090966007406046,-0.0333283182739738
1681484054.9071867,2.4657184696040746,1.4762785721751852,9.730980551380243,-0.10254564555256114,-0.01972795845533245,-0.0353937868535045
1681484054.917179,2.985597523669553,0.5854263707282463,10.063269192324858,-0.10426403459113405,0.023153410300968413,-0.0301937286316875
1681484054.9272106,1.717630447271552,-1.4883028577075428,10.294689032475302,-0.0858752199078189,0.05705009159000101,-0.0219936885445836
1681484054.9372475,-1.2043292651870177,-4.400302880313328,10.592566290233355,-0.032027488166981456,0.04873306195244987,-0.0139139920979264
1681484054.9471848,-1.827933879868939,-3.4882958162744746,10.373692494767853,0.017042078911198955,0.024706829937454242,-0.0030924531206015
1681484054.9572668,-1.3178658244922203,-1.2329047915793543,10.120874087329266,0.03516587470161605,0.008720373065987086,0.0076879819348927
1681484054.9672246,-1.667996305280348,0.49798772198087904,10.016860588690987,0.02337495064550637,-0.010125642003275396,0.0094540489331361
1681484054.9771595,-1.2457582575169106,0.629431245767811,9.808896311537339,0.0021066787307968777,-0.025365000509547125,0.0168424302205916
1681484054.9871595,-2.7721969468166945,-2.077144019232876,9.516654092881673,0.014278276877587774,-0.05326515550987225,0.0280138279736515
1681484054.9972825,-3.667599023079504,-3.404050835852284,9.888476030234088,0.04869387740499988,-0.09737617818045487,0.0355105835438248
1681484055.0071888,-2.203751163987058,-2.3318414957058438,9.639250660328608,0.0761633538653145,-0.12326305816486834,0.0399008083582397
1681484055.017177,-0.6256011962865318,-0.15084561259858076,9.835146369125555,0.07939450346168553,-0.12763653295055186,0.046851667338657
1681484055.0273156,0.46622111709421155,1.1317278139322258,9.86069286991379,0.06772444250094196,-0.1162153156013015,0.0533856104553219
1681484055.0371578,0.27896558109745645,0.591273666352825,9.852215027104545,0.05941194046583901,-0.1031954406155212,0.052019460821199
1681484055.0471623,-0.5178686806298547,0.2290364347495341,10.140429472657791,0.06050459034530996,-0.10174755148751014,0.0352601695299621
1681484055.057161,-0.4864908742789705,1.016795794985564,10.053179283792327,0.06110390750539678,-0.10030880553099418,0.0171270545065876
1681484055.0671506,-0.4084130148572517,3.6605226693815474,10.473086288374397,0.025661311142400313,-0.10028565376964366,-0.0058084230444852
1681484055.0771418,-0.1839272907918656,3.698505895267774,10.414808161166436,-0.014486402348971899,-0.09814001544502654,-0.03120801714654
1681484055.0878005,-0.5725547505350954,2.863761043786871,9.89074834151917,-0.04047627805869034,-0.09829795476376432,-0.0463662270962718
1681484055.0971467,-2.030056668891647,2.2686191665706144,10.146715741465465,-0.055329817493874986,-0.11987332586696813,-0.0561787721275809
1681484055.1071208,-1.5411831251589718,3.4116247270216653,9.851304684880176,-0.07696878061968151,-0.1424278404756318,-0.056088992631388
1681484055.1172142,-0.7231382526905143,4.997421844528733,9.86922314479856,-0.11807210695530822,-0.15625877523350257,-0.0510755006730083
1681484055.1272302,0.4642606245362913,5.873467130638948,9.991629033560201,-0.1763660949823472,-0.1544926505820376,-0.046985105848265
1681484055.1372192,1.3598451896059935,4.228168503241817,9.689847562969321,-0.21672638034351022,-0.1382005134856834,-0.0386902589857104
1681484055.147256,1.955969189307142,1.029494122305931,9.886607054771945,-0.21682324980708248,-0.116863645337318,-0.0325652335345271
1681484055.1572018,2.3231328873116777,-1.402165280069766,9.913134639316254,-0.18786097006915395,-0.08705702906688996,-0.0246993519871953
1681484055.1672845,2.736279641038996,-2.6029718950910863,10.18390170394653,-0.14925806656847224,-0.05336993857479463,-0.0185692042618516
1681484055.1771786,1.8940443345332751,-2.621704511250736,10.309266366037516,-0.1150710603123955,-0.026153977759128443,-0.0122078864410046
1681484055.187165,0.05974852565787958,-1.560307949528776,10.896697090828242,-0.09892633082296193,-0.02590475956279977,-0.0102916734799269
1681484055.1971984,-0.3461791990227678,-1.3970434907207028,10.641767764148613,-0.09328336626120473,-0.033998511456829604,-0.0139915237709406
1681484055.2072177,0.5291021916409919,-2.1333798089291576,10.061887636513466,-0.07958039526840417,-0.0357772043547397,-0.0180913202970746
1681484055.2172072,1.2596360375339322,-3.068953989012611,9.23728042692568,-0.05237312845861652,-0.028859746773349435,-0.0187053449958089
1681484055.2272315,0.7532006172878788,-4.343976931553041,8.784173066621346,-0.011289485934710339,-0.021580699907767127,-0.0215898652135852
1681484055.2371805,-1.0560286038724935,-4.725610753512037,8.860617013507447,0.03861705608671728,-0.04385286931415691,-0.0225393262266639
1681484055.2472336,-0.7594013311196678,-2.8445658172957695,8.909265718663466,0.07118078223582627,-0.06586252441838428,-0.0248545848339322
1681484055.2572594,0.12208849632856411,-1.5133621342530554,9.113632574094426,0.07770253357181224,-0.07048656839879716,-0.025646678408933
1681484055.267212,0.20197745386837207,-2.23169609061491,10.079057119128436,0.0986133187352164,-0.08473672432787627,-0.0308025826274875
1681484055.2771857,2.4473412504115784,-1.0942558754337397,9.499493947147274,0.1088216380817763,-0.06348044411582598,-0.0294071093707803
1681484055.2871914,3.219439192102486,0.7470099988250408,10.069546626648126,0.09703217401265418,-0.032365980972079364,-0.028492340123606
1681484055.2971272,3.38407717244138,1.8508559111594969,9.68732160718387,0.07620889998809835,0.002812393684392673,-0.025799266299558
1681484055.3072252,3.1096879416876853,2.4160504846267745,9.468865934786786,0.045610878770616654,0.03198222447425288,-0.0200118154793504
1681484055.3171735,2.342868873539514,2.0093937033591027,8.72282215333642,0.024807979096517965,0.054949675472046586,-0.0219208982347968
1681484055.3272126,1.9085002099375568,2.3523268261664034,8.348857963516886,0.0029066599727994493,0.06814386916052007,-0.0158062607556108
1681484055.3372118,2.756893147068982,1.9648809670280338,8.015955333944436,-0.011478344856254596,0.0902805341222791,0.0029534478631343
1681484055.347159,2.685869224754069,0.08606961644683696,7.93924238356859,-0.0013844395485104694,0.11298937177332226,0.0210979569197174
1681484055.3571854,2.8729352894004423,-0.86454929959562,8.281554825477262,0.020101587372166968,0.13694770202049153,0.036469525420713
1681484055.3671389,3.096481617545784,-0.771447620417453,8.62280754954541,0.04152670650495077,0.16765838154234333,0.0444349672139164
1681484055.3772533,2.2162251289622596,1.034604288699976,9.78482605867051,0.04257539681587161,0.1891911731979319,0.0492605071008678
1681484055.3872354,0.8943212899307241,3.235091892011973,10.66609835461816,0.01183370003853316,0.1957087850224851,0.0528461735189434
1681484055.397272,-0.22140105974563473,3.0810662182980324,11.244827991696733,-0.02811840173439654,0.18504996781096597,0.0511272500694271
1681484055.4072502,-0.7123218691531437,1.08547341533933,10.79135431799843,-0.04470441526207702,0.1697541351526916,0.0494525942445274
1681484055.417138,-0.620402480836891,-0.4611313363164377,10.201177879412972,-0.03795648617670864,0.1565281804064455,0.0396747912705418
1681484055.4273531,-0.17451823086850274,0.008791258996212106,9.568266744502907,-0.03464449857024937,0.14964444876996788,0.0272860887885567
1681484055.4371789,-0.27372321388291615,0.7654575399929886,9.37580744112234,-0.040413582709693904,0.1478638788089647,0.014243548499095
1681484055.447173,-1.4005662950497553,0.46360229667738806,9.356423116842953,-0.04738885041960705,0.13827324943765354,0.0001006615307655
1681484055.4573045,-3.735782750316198,-2.3661223267031803,9.907174167998113,-0.02690536847935294,0.1055419495556941,-0.004925998164666
1681484055.4672067,-7.595245617614817,-7.199140295850315,11.02541521377159,0.053497200534742675,0.027238682390010413,0.0040947783232208
1681484055.4771914,-9.398667810126332,-7.731116154560886,11.529506824277222,0.15022171066143347,-0.08504570451876108,0.015706763365912
1681484055.4872012,-6.670016003736594,-5.361977856788036,10.514964401071019,0.21412750140103748,-0.1637720575637769,0.0180622402072426
1681484055.4972675,-3.672106331139241,-1.9937031043734166,9.877660999770164,0.2289679002421158,-0.21042275570764277,0.0186322822660681
1681484055.5072348,1.0192541917748967,-0.8860816373655054,8.838511400732916,0.22727369564823335,-0.20398922856138405,0.0168378183112021
1681484055.5173066,4.915828590604981,0.0979329405230098,8.232865705090257,0.2131956305982292,-0.1424839631317501,0.0247026781976696
1681484055.5272057,6.405237097160653,-0.732126091625606,8.259739913432087,0.2161259246201363,-0.056584050985341465,0.0345473017037388
1681484055.537259,4.781017422350083,-0.9743115990392555,8.75551830652201,0.22765701642082117,0.00815437058092377,0.0390550184488769
1681484055.547312,3.4439781710370116,-0.3464392498403596,8.787255491580577,0.23101576451637937,0.0656054060080383,0.0354084398091312
1681484055.557214,0.7177602852565066,0.6848376545759683,9.719188531576531,0.22781448214926836,0.08482716529638068,0.0309051170439001
1681484055.5671978,-0.06064775980286107,2.987086224090749,10.533847036426799,0.20297707189444036,0.09261525089071904,0.0233893140644308
1681484055.5772336,-1.5374533553483083,5.159331677379185,11.021442679678708,0.15132989236109742,0.08445751039759296,0.0171971588820692
1681484055.5871549,-2.257306160028126,4.686828149678684,11.021702091864823,0.10395183637423357,0.06489205571994787,0.012504876354384
1681484055.5971668,-3.0355926953255286,2.6872148721872664,10.261859123261182,0.08749178695529296,0.03242274687866962,0.0005101357196931
1681484055.6072426,-2.1342490124740996,1.1346070853457395,9.91828962623794,0.08679964184278507,0.007558687962955373,-0.0054596259764853
1681484055.6172106,-1.6336017371899296,0.03551260750134676,9.42898069741031,0.10175187631581448,-0.009117823556730655,-0.01238999911989
1681484055.6273105,-1.0519360969029703,0.8326507854890739,9.611962485698054,0.11103390928186375,-0.021404252899567874,-0.0122037420555475
1681484055.6372166,-0.38990735900076395,1.9941010086984863,9.666341088573756,0.10230933102113307,-0.02120235041568119,-0.0123614987864617
1681484055.6472127,-1.066543818028688,2.1270131602552023,10.419813405077354,0.08530006585828039,-0.0326435965229373,-0.0184848487883332
1681484055.6571913,-1.526737041900161,3.0742706356927547,10.409749340877804,0.059417763931896926,-0.050163992325030604,-0.0244126908987287
1681484055.667171,-0.9272781952542856,2.3420426587743295,10.489561075598568,0.03163407533995263,-0.06263523528490908,-0.0315921988844398
1681484055.6771798,-0.544735995042474,0.9762336388649259,9.854399343272336,0.023960658073086727,-0.06858328138026427,-0.0379880529403213
1681484055.6872334,-0.41888979752837785,0.3654927289927605,9.430229627292748,0.022804854961213726,-0.07485101831925048,-0.0379242796957019
1681484055.6972332,-0.3673308561971313,0.3271943997089736,9.25609136516808,0.021848787421893164,-0.07916667280949713,-0.030725752240372
1681484055.7072082,-0.6042303176121693,0.498372007833564,9.740764051722978,0.01805100535274119,-0.09129396312258606,-0.017018978720856
1681484055.7173238,0.5136915688300001,0.1886851139430996,10.081434789403806,0.017996809158696305,-0.0945508504639065,0.0030165254097905
1681484055.7272615,1.7077845499036228,-0.2728628178568867,10.226781025105659,0.02318335517189446,-0.07748558731743124,0.0218681551009889
1681484055.7372358,1.4485801570900296,-1.6168055574706557,10.166153309825521,0.04695700480927835,-0.06482434284158714,0.036339479261684
1681484055.7473495,2.5406292811556894,-1.1707502034070256,9.990172200453195,0.06712649895870294,-0.0386552164832938,0.0460084441543098
1681484055.757265,1.730809479409622,-0.35098568770578953,9.953878931960809,0.08128280794475329,-0.020767035259555682,0.0403535987675663
1681484055.767293,2.469309545421602,1.6516864702694538,10.12786480208931,0.06891351265911994,0.003688890429174904,0.0254898767412182
1681484055.777221,2.007832439842207,2.4033912864773064,9.904411099837919,0.04160795558284136,0.025680596602268076,0.0073474293999847
1681484055.7872083,2.2642510210419773,2.5559432363216503,10.052983068573376,0.014754380323914061,0.04880207416053796,-0.0190424614160779
1681484055.797233,2.527365011055589,2.4733874122187216,10.340431204703824,-0.011169211176880025,0.0759748539523236,-0.0479631770908359
1681484055.8072731,2.458674853811121,2.192944188838134,10.160230286738129,-0.033207577951421395,0.1041007893790891,-0.0756129485129836
1681484055.8172371,1.5172083334458,1.0691981337263239,9.58422077948818,-0.036227866254442256,0.12300790367852575,-0.0987011652945998
1681484055.827213,0.6995324041971348,1.5090834636807058,9.668761762389698,-0.04267580112846798,0.12488650576238901,-0.1144288342952254
1681484055.837203,0.3099659626089026,2.8479134511011903,9.520931848561345,-0.06054029738132283,0.12235649450636008,-0.1169262465595725
1681484055.8472867,0.23636419074388532,3.8946801885712548,10.189671983472037,-0.09745646227367985,0.11611856930455904,-0.1109937590121749
1681484055.8573346,1.2755338395963207,3.4889158609799016,10.024738131743218,-0.12457666543734262,0.12187867530861751,-0.097028055465174
1681484055.8672545,1.4406433791349698,2.339886603331116,9.927068871700518,-0.14352284938471405,0.13806156176127485,-0.0869322356342796
1681484055.8772345,0.5509031195980386,0.6400015835778607,10.30711022059447,-0.14133517374806007,0.14128048660525253,-0.0778636124491218
1681484055.8873007,0.8288944183910394,-0.09742820316458033,10.196703486621168,-0.1305196643056728,0.14941024612586243,-0.0689506542443755
1681484055.8972163,1.0254599418837524,0.3995332928964585,9.691156288647678,-0.1251294225408215,0.16344037424566363,-0.0612914126872543
1681484055.9072318,0.677308197780628,0.1157030245265729,9.577488553539498,-0.12338582467894404,0.17539131876622172,-0.0605374027549747
1681484055.9172597,0.2388557549082126,-0.8889481585984851,9.400195892560335,-0.11138886836860523,0.18039222500137905,-0.0592442539095405
1681484055.9272797,-0.7777484822080541,-1.1267601437740329,9.283641661713375,-0.09647734139211772,0.17401364370747155,-0.065489293312979
1681484055.93727,-0.9593739178278539,-0.6692136422242031,9.470160897046497,-0.08680016197055672,0.1626832883508914,-0.0666786443948272
1681484055.9472394,-1.1451361726094387,-0.17155874653059142,9.50059097359327,-0.08436952616297534,0.15028520086193065,-0.0738944050430778
1681484055.957281,-1.4046382195819869,0.6848678881165006,9.910932101426496,-0.09345250382828146,0.1323878688865986,-0.0747854646801475
