time,ax,ay,az,wx,wy,wz
1681484183.9740949,0.25090372692430507,-0.8929023317278579,9.76678623858665,0.00248640842185476,-0.0011135643169636101,-0.0026216080918434
1681484183.984033,0.39762550351598697,-0.5433773884693213,9.803981945835845,-9.189272148672192e-05,-0.0005134236320038956,-0.0004359878407317
1681484183.9940124,0.3703747273604259,-0.5622093789448211,9.808935855594468,-0.002984946209978819,4.53693371247568e-05,0.0009438510710846
1681484184.0040045,0.3485677688367355,-0.8508206094890627,9.728637070354344,-0.0005773042609577354,0.0004078316873145413,0.0003850677708637
1681484184.0139763,0.2816649527801218,-0.830801044351309,9.767109598788998,0.0011184709877777865,-0.00036404664018988437,-0.0005142157937858
1681484184.024075,0.28879723382234285,-0.5198555405525248,9.865246683111655,-0.0028940611765535832,-0.0014678475609995675,-0.0003111711743745
1681484184.034098,0.4431621641189164,-0.936534995279789,9.651973370081787,0.001935409656126462,0.000613099754996768,0.0006942530122127
1681484184.0441177,0.49213815457026183,-0.5710691704259607,9.754982247169956,-0.0007203580318808807,0.0034748609477979133,0.0017600571696188
1681484184.0541914,0.01801904080412973,-0.8687511384694943,9.900113195020177,0.00033688837023558837,-0.0021380574783826873,-0.0017610751132938
1681484184.0640078,0.5167334750269915,-0.7070814174328522,9.680561285976152,0.001786397122747054,0.0006093756990946174,0.0015108619623301
1681484184.0739615,0.39166776141182885,-0.763666309841992,9.749596072449762,0.0021428699925850007,0.001897612531054422,0.0003072067589041
1681484184.084092,0.18238993363126632,-0.688174665839744,9.87029075783287,0.0021224246381927525,-0.0019517528642241145,0.0019537874282345
1681484184.0940316,0.3357393469598875,-0.7213751754605717,9.78318929785466,0.0002005369026719031,-0.0008136881225766867,-0.0011821738484773
1681484184.104044,0.3717629078993649,-0.6422195352932837,9.781098184202008,-0.0009215187499485523,-0.0002690503987860965,-0.0004937325179103
1681484184.1140864,0.4106735287699956,-0.7317657272343485,9.730515692236768,-7.139692685195046e-05,0.000954701221819005,0.0005742985481869
1681484184.1240082,0.35501654429792373,-0.8505065555032515,9.732413356940901,0.000842024511694909,0.002318558268137913,-0.0026037192478302
1681484184.1340282,0.2947841269011232,-0.6079293402582904,9.847486760222205,-0.00020809188683266374,0.00026440549810182395,-4.8177204420021e-05
1681484184.1440165,0.3592200628484959,-0.6512472228064377,9.789567940059989,-0.0014389622253113226,0.0005363491221574143,0.0004867560888182
1681484184.1540544,0.2932431531062341,-0.9021935407905337,9.73461184449786,0.0004154811244124127,0.0008619306781681057,-0.002892459979606
1681484184.1639953,0.2390677277523107,-0.6520766898372719,9.859774303721242,0.0002448739501664573,-0.0021007711173307814,-0.0001867805880952
1681484184.1741028,0.3938491962307177,-0.6135523383860126,9.773664700849015,-0.0015630052958226517,-0.001005173654958439,0.0003567463677849
1681484184.1840322,0.28890800741834743,-1.0185329461076957,9.71717754436575,0.0034870136531563,-0.0014421249028241383,-0.0017472773365203
1681484184.194054,0.36076002599769436,-0.40326318324722626,9.873291580918044,-0.0027960719679489977,-0.0011560410559668059,-0.0008830283808979
1681484184.204021,0.39255803159578245,-0.8564802279752992,9.693797801319288,2.2114184132060885e-05,0.00028229332317306717,-0.0008491193916175
1681484184.2140243,0.24876847170565158,-0.6454023626350888,9.856575679645715,-0.0020390926451509723,-0.0012819640456833443,-0.0016236184205386
1681484184.2240136,0.4178144035617698,-0.8378122347403872,9.698610153554243,0.000962724635676747,7.367444017863468e-05,-0.0008591972331974
1681484184.2340376,0.31683692622287724,-0.6329176557121642,9.806993836283878,-0.00020624921506872006,-0.0004344544168047416,0.0001891024835881
1681484184.244042,0.3801480075338537,-0.7739182523276397,9.742084306939399,4.071677199454552e-05,0.0011152706115821372,-0.0016061090904745
1681484184.2541528,0.3563377259809491,-0.6481195404045242,9.797167920541051,-0.000874959058923965,0.0011726334613990001,-0.0004516379016909
1681484184.2640994,0.21829775782561922,-0.7489605051496225,9.821937522964603,-0.0004540090849893792,-0.000880747063906275,-0.0009240112307939
1681484184.2741482,0.3559712835988335,-0.7543732157340006,9.748406302128908,0.000495590016328863,-0.0005920291908231755,-0.0004516373196143
1681484184.284193,0.40594285826430027,-0.6442890025978524,9.762831832936422,-0.0011319922400569373,0.0009599210316019253,-7.649197182541174e-05
1681484184.2940445,0.2805262775083471,-0.6605471672976916,9.829263354758638,-0.0025583987179064846,-8.875581422204145e-05,-0.0007254588458213
1681484184.3040578,0.4200221196461422,-0.78435435868868,9.717163963489668,-0.00010604774101685238,0.0009207993583393388,0.0013335289363989
1681484184.3140812,0.28970906146591985,-0.8287571236812185,9.758873205219796,0.0018702152917502955,0.00032029479133583724,0.0009177622228402
1681484184.3241055,0.3980434596233066,-0.7483066090406876,9.746238807503275,0.00260073237272269,0.0015511419576704408,0.0012839727674385
1681484184.334037,0.39844089757449125,-0.6483841918322932,9.774050608187784,-0.0003474523733534895,0.0035750741090106158,-0.0014783283736083
1681484184.349393,0.2288055057695522,-0.7472695370050594,9.829226897634157,0.00046840033824425444,9.044042724751687e-05,-0.0011408149770918
1681484184.3540478,0.38070703677417855,-0.4781727567727301,9.832136868662868,-3.525404897078133e-05,-0.0007105042605980861,0.00255019752835
1681484184.36402,0.46392332887113974,-0.7465632091892765,9.706842155482402,0.00030038375612369874,0.0019966645078719997,0.0022111997200649
1681484184.3740246,0.14993065511216538,-0.7770474433698785,9.859969883606542,-0.0019958838920484043,0.00023759379787801187,-0.0039280785753849
1681484184.3840382,0.29620867828283165,-0.8076061714702157,9.77533093986044,0.0009992586794858524,-0.0013322425127311579,-0.0013691720127586
1681484184.3941424,0.34608584884000854,-0.4811543766550725,9.854152273090481,-0.003991535332171821,-0.0012391425909020802,-0.0008125992066684
1681484184.4040902,0.4473948405404413,-0.7230449679684567,9.72372454620722,-0.002768512132871578,0.0002837713775020606,0.0017876149172902
1681484184.4140468,0.3343127152956189,-0.7974943044414484,9.756195290817736,-0.0017269065676869394,0.0005173589236054794,0.0008302345482174
1681484184.4240746,0.292407928306646,-0.8811316195508383,9.747612199450124,0.0013356463397591256,-0.00019156861553587976,0.0003124275204267
1681484184.4341288,0.3190822027948433,-0.5178710978546408,9.859991056826992,-0.002448133700645134,-0.0009787230083549466,0.0018226477509837
1681484184.44405,0.4172211220766919,-0.9811079426979772,9.648045434909278,0.002424531831257335,0.0011618430659804117,0.0009848075529102
1681484184.4540238,0.24207030227668036,-0.6871258870256436,9.841052660032341,0.0005793932426400161,-0.00011965424235522626,-0.0013725326902691
1681484184.464125,0.4082417084606695,-0.6850679260953169,9.762061113058948,0.00102830700150096,0.0005460402599006861,0.0010995765292559
1681484184.473992,0.32388023676932015,-0.7091511142663833,9.790083182614252,0.0014775789263141402,-0.00017555472931106035,0.0026716453681241
1681484184.484133,0.2444097718537602,-0.6354595401978245,9.854381983017165,-0.002819919446126305,-0.0006174064008505341,-0.0016835990868035
1681484184.4940324,0.5047340171614246,-0.8038267181148955,9.650798454575035,0.0004676454817213526,0.0021158781993882267,0.0011535912886269
1681484184.504084,0.2505527585510426,-0.7156827371020106,9.832380357493129,2.5048221525063353e-05,0.00040560137116083303,0.0006808513385717
1681484184.5140898,0.2804390055110093,-0.7944661275748244,9.783374749453403,0.0010368809762882074,-0.0004139693555708819,-0.0002057653659481
1681484184.524153,0.22047201387350535,-0.7662613894837469,9.820777725337626,0.0016478373163022256,-0.0026513522329362515,-0.0003383834886822
1681484184.5340457,0.3930745595410137,-0.6202725615128503,9.8006086528045,-0.00018688153264473557,-0.0018876870249304736,-6.458512912427467e-05
1681484184.5440671,0.4011874108785472,-0.7286934600440458,9.743723240226581,8.133448867266327e-05,-0.00046537705561256956,-0.0002385554875705
1681484184.5540364,0.4482570303786945,-0.7227561580064642,9.705104714827069,0.0004184544594980255,0.001794015548204199,0.0012400014634717
1681484184.5641603,0.26573568378581874,-0.8602968365882732,9.76770252398684,0.002312411703824719,0.0010109750306293546,-0.0008178185712072
1681484184.5740976,0.24052013470285288,-0.6031666005892603,9.869825432535377,-7.698793929288509e-05,-0.001307668755434214,-9.885640288626236e-05
1681484184.5840223,0.375396594028816,-0.7537233837813735,9.747041911341647,0.0003342676551586998,-0.00048100630554025555,-0.0001085281878236
1681484184.5940888,0.33470016024902094,-0.7115922611221801,9.775862162437946,-7.735760786093312e-05,-0.00025789033220806665,-0.0002020647556978
1681484184.6041305,0.34140169481356153,-0.7008232465677864,9.776138765934823,7.577231387747366e-06,-0.00048662106850714946,0.0007732254994575
1681484184.6140783,0.31303572182634243,-0.7553688153486946,9.770463704949437,0.0012324514163831468,-0.0011724327608948286,0.0014612921018364
1681484184.6243386,0.3853078690411445,-0.7924898015163429,9.72034267515575,0.0006807181570108865,0.001442720204845033,-0.0021861428435418
1681484184.634104,0.2779095933120844,-0.5064488963666217,9.881407846478725,-0.002234311538465585,-0.0007324948966910726,0.0008656268433209
1681484184.644017,0.2823375096243984,-0.8683846639000206,9.776841824568729,0.0012250071623479348,-0.0024159419582374035,0.0010463015310473
1681484184.6540632,0.42530146866396934,-0.6517149965995424,9.756347675143067,-0.0008921005370554084,-1.2386666721756408e-05,9.225133867079933e-05
1681484184.664154,0.28086130946676235,-0.8307930642594925,9.764645019233443,0.0006118219778442246,-0.0007213128703086838,-0.0009832431137088
1681484184.6740904,0.4796333144440094,-0.559647475291241,9.762383012805804,-0.0021858721793512883,0.0018152420935989863,0.0002833466237884
1681484184.6840663,0.3896202378576282,-0.7379239915776342,9.743101620990155,-0.0011312321037010276,0.0025383260674215723,0.0016121628100758
1681484184.6940694,0.2057942828955882,-0.8424574123543427,9.8125184286019,2.433012974100958e-05,0.000531135968902754,-0.0011613084975156
1681484184.704087,0.384863978046604,-0.6919989588575126,9.767248769220366,-0.001216558716175339,0.001683726085739436,-0.0019041430245611
1681484184.7141287,0.1419996003046313,-0.6810986605715734,9.89520712099647,-8.432667290356548e-06,-0.0034925455128062364,0.0018565475143499
1681484184.7241411,0.46557785773703303,-0.8405622543720952,9.661848357410465,0.0018132223729786664,3.2697223198984233e-05,0.0003161395393785
1681484184.7340455,0.369507292115387,-0.7006606929842938,9.773501686525162,0.0011504994236209087,0.0007691831447214359,-0.0003570170415092
1681484184.7440414,0.2969705008410945,-0.6434163534109858,9.8200639005902,-0.0006000330323820443,5.839532246854951e-05,-0.0008688790298525
1681484184.7541356,0.3270754399326211,-0.6791338932468112,9.804200926634483,-0.0005270103041458495,-0.0007294939522454325,0.0008145925199155
1681484184.7641094,0.2869853022901704,-0.732905906538872,9.805943921349595,0.00043151992442770854,-0.0022635653424310028,0.0025110787205871
1681484184.7742643,0.35914861719292795,-0.7134180704736168,9.7694962460919,-0.0003880487735753037,-0.0013966998862517822,0.0015060025430524
1681484184.78403,0.4706118272799018,-0.8617029845218495,9.664309283186501,0.0015599030747715293,0.0018841573310170116,-0.0002501391613382
1681484184.79405,0.23367641688865193,-0.7115988190417192,9.83606998826365,0.0010078282557589467,2.3382325928474884e-05,-0.0006602502002838
1681484184.8041077,0.27628369550877724,-0.5627128520985756,9.86584371496259,-0.00207001461262948,-0.0016470533308534472,7.287319344545322e-05
1681484184.8141105,0.45988162371037866,-0.9386435335443241,9.659234235019264,0.0016653158423580812,0.0011480598055346642,-0.0016321812331203
1681484184.8241415,0.25059024068242625,-0.6804651135069548,9.833417850173964,0.0007917585187600098,-0.000682582412242779,-0.001721224518818
1681484184.8342054,0.4537890495874185,-0.6602149902043198,9.732309618901168,0.00039238234778382587,0.001168166708875706,0.0005847382085871
1681484184.844106,0.3011756320414452,-0.6206978125970035,9.836202128639398,-0.0010686675793621515,-0.00012340136822941555,0.0023225867731038
1681484184.8540912,0.382071735661796,-0.8758044949930626,9.694865177859588,0.00035290232513471103,0.0020812182596312355,-0.0008692678570274
1681484184.8641586,0.2695606906430635,-0.6325953111518742,9.876065035561123,-0.0005571858017389361,-8.017837801643806e-05,0.0005705857143279
1681484184.8740473,0.257165030853503,-0.7569042323357211,9.800201736512056,-9.561403074284482e-05,-0.0014872208996389523,0.0002353042323615
1681484184.8840594,0.4341799681174915,-0.7520740401149801,9.713698929767485,0.0012644880879472415,0.00036685256062657563,0.0014516128535855
1681484184.8941193,0.1268919842353087,-0.7813225875910584,9.864863611406918,-0.00010159423649271527,-0.0022296812255040792,-0.0030735058284822
1681484184.9040766,0.5466622057671623,-0.6956696320360811,9.671598316660418,0.0009377858918092992,0.0013976374238052916,-0.0002758131635833
1681484184.914116,0.3410024751308558,-0.4920571567491982,9.850517505749615,-0.003084791104997949,0.0011472986501800486,0.0011524677352521
1681484184.9241822,0.23789722460676663,-0.9614928083549241,9.751397530537854,0.0007597266291420778,1.2186471729682343e-05,-0.0015457628800991
1681484184.9341152,0.22065411452153283,-0.5872227780304978,9.885625934635513,-0.0009710499191165911,-0.00312599160902106,0.0003765018150683
1681484184.9440958,0.4659284504461191,-0.6782340693006531,9.729590328966635,-0.0031868690709562736,0.000403725080626582,-0.0019812448922071
1681484184.9540637,0.4222742081199522,-0.7353649749268544,9.731755960513055,-0.0013007331652315334,0.000905531578305637,0.0012385056430015
1681484184.9641073,0.12101382354876697,-0.806802954518598,9.867128795389519,-0.0005146890025637562,-0.003084249335139243,-0.0006360400042954
1681484184.9741402,0.3978221382796787,-0.7657554838044409,9.726937205165285,-0.0006033761306142045,-0.0011318151461606266,-0.0023094376123968
1681484184.9841042,0.5598379538757449,-0.7011430733118905,9.662296261824643,-5.166596119050537e-05,0.0029857269837684445,-0.0001748601248014
1681484184.9940708,0.1912098633517324,-0.6728978313391054,9.877210413943445,-0.0011603043433669024,5.467145582288782e-05,-0.0002750608877736
1681484185.004099,0.4605201836938485,-0.8283250360798576,9.679936862828391,0.0007187273114441035,0.002796115942835302,-0.0010152773506466
1681484185.0140855,0.1950093159753208,-0.6646555342057414,9.867097602023382,0.000143553042391761,-0.000500774482510875,4.531256449485737e-05
1681484185.0241556,0.3265357331830782,-0.7552483001942898,9.762932641523568,0.0018668715984861987,-0.0012543875221779973,0.0014899883449711
1681484185.0342555,0.30645489849731583,-0.7257047615545159,9.806562580796598,-0.00029975833045067514,-0.0006456978333912195,-0.0024260506074402
1681484185.044104,0.41725055040986136,-0.5354923479869276,9.800964866538624,-0.0032937683438971728,0.00039330539282552573,-0.0004244481719556
1681484185.054114,0.3247551005086223,-0.9482011525491633,9.701307169003568,0.0017051853255051637,0.0002595669992746894,-0.0002095019485328
1681484185.064173,0.20689051441538045,-0.6824353658219946,9.851778234070713,-0.0003012417477781424,-0.0016675464795984983,-0.002177935563353
1681484185.0741386,0.618786632539532,-0.6474675753667775,9.646346068840769,-0.001967613495440071,0.0043238261514064345,-0.0021347634069148
1681484185.0840988,0.1775159495723803,-0.8005176835426637,9.841907439393356,0.001239151455189746,1.668253950226121e-05,0.0008298642892863
1681484185.094134,0.432558534065138,-0.5490919973457955,9.793557031035677,-0.0023628314625515068,0.0019761662486739054,0.0007188143168118
1681484185.1041138,0.23801189083310947,-0.8833662305579404,9.78660624389256,0.0016146568854831754,-0.0005573745022449313,0.0014415433320631
1681484185.114167,0.2019743231277973,-0.6625573800856361,9.866680470743402,-0.0013428279600236075,-0.0022736189049872737,-0.0011765782296184
1681484185.1242826,0.3730256685331504,-0.6713758806785335,9.775852430191701,-0.0004305192616297324,-0.0027363202110487527,0.0028720623773064
1681484185.1343293,0.39908861037892046,-0.8434087308357395,9.706924168194043,0.00035513451290128845,-0.0003468995247134026,-0.0004952242638442
1681484185.1440878,0.3728166126578802,-0.7116255036080104,9.759649343730413,0.0020497900677500314,-0.00088967308390953,0.0031510742806371
1681484185.1541688,0.38109773996759594,-0.5453939409157837,9.806002913404763,-0.0034286435545071783,0.001149517312262606,0.0004114796134185
1681484185.1641634,0.25017690297189576,-0.7928710511018817,9.81451058062618,-0.0017101549329490734,-0.0011035256674338605,0.0008529384463567
1681484185.1741433,0.3491158719322667,-0.8538867433083421,9.732392604537944,0.00014505485386096962,-0.00041137833798716875,-0.0003700641722876
1681484185.184085,0.400080720502661,-0.533679555514123,9.802202392172486,-0.0030229277368349337,0.0004328104868343353,0.0013108128583066
1681484185.194109,0.33418509700478866,-0.7890856600235677,9.759632025477666,-0.0005467540853991307,5.0949889110907934e-05,0.0028724368853967
1681484185.204077,0.21245063534369776,-0.6181774002809602,9.882070918735296,-0.00512141315639405,-0.0011247718428059395,-0.0010327782988074
1681484185.2141492,0.45625776467978774,-0.9020483603252584,9.650251557606214,-0.00040593111729880777,0.0007930245977938224,0.0007382062572527
1681484185.224162,0.3445540272221165,-0.6760005932025849,9.7887631921575,-0.0016598748013058788,0.0013294616763382496,0.0001406783663209
1681484185.2341776,0.2198011846859038,-0.8122801215302122,9.829884511102726,0.00018003638728786864,-0.0011608712629558673,-0.0003540382062542
1681484185.244091,0.4994537167473954,-0.562406595792739,9.741531395274402,-0.003168603460428673,0.002228766266738145,-0.0004948370664838
1681484185.2542076,0.16518392217963804,-0.854226445693513,9.824526331570503,3.855887829159803e-06,-0.0015132978423988833,0.0002010333078455
1681484185.2642698,0.4590805479180539,-0.7414478188700406,9.693953641215053,0.0002597726828404378,0.0011834393487159065,-0.0002486115594852
1681484185.274084,0.24566535829576483,-0.6473804097136742,9.853158021831693,-0.0006547855978404554,-0.0010457895402317611,0.0011602895061027
1681484185.2841103,0.3326702473177526,-0.6449597073816766,9.791085013120185,-0.0017585965351539523,-0.0011169295068872488,0.0019940113957513
1681484185.294182,0.4544745737236969,-0.8990879451829091,9.654435065760104,0.001928701475349824,0.0014393684269058172,0.0021974095102872
1681484185.3041697,0.3111658184225314,-0.7724166939381745,9.769810631885864,0.0012652035112709738,0.0020585331969252716,-0.0008051602676037
1681484185.3141637,0.33061870651395403,-0.6348133486626129,9.80535890160118,0.0001409636833353523,0.0015797989781630535,0.0005161848344382
1681484185.3243008,0.260351068477466,-0.7577304239709947,9.80624813626937,0.0014649042953323625,-0.0002522800270244019,0.0012128511403229
1681484185.3341792,0.3234206712560125,-0.7375602991464429,9.779633154527339,5.0774418447112435e-05,0.0007412635994975884,-0.0022628696210209
1681484185.3441248,0.3281810615630295,-0.568108100861286,9.83056739849953,-0.0023810783681431076,3.38065907179355e-05,-0.0005768146406385
1681484185.3541627,0.36514768930989544,-0.634067146689002,9.802685693486959,-0.0038678501597855103,9.712955371119216e-05,0.0001499977620791
1681484185.3641863,0.2812295268364969,-0.9532297066696992,9.722270634682856,-1.7724269468799334e-05,-0.0003007210006804993,-0.0013237176503512
1681484185.3741362,0.24526059707991602,-0.7071586881897148,9.831788506492712,0.00027019955838071677,-0.002377950081527982,-0.0009091170545194
1681484185.3841646,0.5044106291775421,-0.6698098271874432,9.714445393132772,-0.0014814160807336079,0.0015164796391197478,-0.0018113644368473
1681484185.3941095,0.37988206222958526,-0.8316337250395444,9.703180352786047,0.0009966299299518759,0.002562901866058134,-0.0011952263343605
1681484185.4041338,0.2919202714914897,-0.5927769947428507,9.84368743269107,0.0003849702416191885,0.00040073965825351485,0.0027688706718858
1681484185.4140916,0.3301745901038398,-0.6818410160489098,9.796715007833852,-0.0020532515184035734,0.0012974303536607956,-5.042460220788998e-05
1681484185.424296,0.42064070324260905,-0.8844549033184627,9.678562722339118,0.0011009226081978652,0.003383964972156511,-0.0002918518188867
1681484185.4341574,0.14426122295547558,-0.6770242646385888,9.920659215606074,0.0005645024982161712,-0.0011497150355647804,0.0001607893459972
1681484185.444136,0.34933034143666547,-0.7725705468647155,9.743695183392285,0.0014544917860675251,-0.0005693119215268464,-0.0002582814817774
1681484185.454211,0.444007529227978,-0.6083592680374398,9.759016683905486,0.000996264934106267,0.0005575832196946238,0.0037192043342169
1681484185.4642608,0.2693091668553946,-0.7419923176006519,9.799165662582723,-0.0007110413563348078,0.0006283622316735265,-0.0001942280254784
1681484185.4741344,0.3173256210383832,-0.7467856352100366,9.779093715432477,0.0009158016312647266,-0.000385269458329695,0.0018509477336433
1681484185.4841497,0.4159323882012323,-0.6965555234749294,9.740078159743563,8.32726192697531e-06,0.0017195019018366913,0.0014046771862435
1681484185.4943078,0.23059295918295478,-0.819591158050748,9.801597753774178,0.002049030587212514,-0.0003681298830012436,0.0014009434994899
1681484185.504145,0.3891651040578602,-0.6502959431645129,9.763405551653081,0.001194072633943074,0.0005486605101770857,0.0026585964911159
1681484185.514137,0.30128176606615614,-0.604723079548541,9.823378656988982,-0.000281505283379534,-0.0004035500738486676,0.0042765040375765
1681484185.5241828,0.35675732082340345,-0.7866943500582673,9.74351302634108,-0.0012061400538342852,0.0015574636851468473,-0.0001576961989972
1681484185.5341809,0.19683661841333142,-0.7043014469406566,9.850548022184556,-0.0012053739244682244,-0.0014477418209193403,0.0004625447286766
1681484185.5441494,0.3832161761372342,-0.6769283753955734,9.776273607799354,-0.0027155964383273777,-0.00025825437880380085,-0.0006002977065268
1681484185.5548885,0.4303169333275962,-0.8879413466467744,9.683005217057863,0.0014686217356330582,0.0012143659584424235,0.0002036360051956
1681484185.5641286,0.15216447546211606,-0.794007549614338,9.859011529687846,0.0021797854886431425,-0.0022129385191887673,-0.0009698229882392
1681484185.5741289,0.49631702334744676,-0.599079636967251,9.74253820184427,-0.0005467245752710175,0.0008794483979732437,-0.0008137410081449
1681484185.5841804,0.45067577468999653,-0.7523467582417903,9.719232949587042,0.0003212449871423551,0.0029350644909231526,-0.0004479235544327
1681484185.5941472,0.1555746509228204,-0.6279057478643625,9.918784184892544,-0.0014594464995435054,-0.001149353581616082,-0.0001063121057573
1681484185.6042156,0.4496638214841826,-0.7121447806126511,9.72359624930468,-0.0010414615337747493,0.0009118592062168142,0.0012564085732687
1681484185.614129,0.17101201995848034,-0.758853312426328,9.855488665165408,-0.002049868709022699,-0.0013397061321126008,-0.0014586101792279
1681484185.624214,0.45539115986578627,-0.6891367652370723,9.7322538322323,-0.0005053870131835408,-3.4361128013400714e-05,0.0021832637681167
1681484185.6341555,0.23941024925866092,-0.695569691393688,9.838533207919543,-0.0025252469970376535,-0.0011027818409716397,-0.0002024147001553
1681484185.644114,0.44427983080629646,-0.8169411298417992,9.664629494301588,-0.0010478135924294578,0.0018778244026185574,-0.0005678786005351
1681484185.6541376,0.28522212363343014,-0.7956706874943837,9.77559715475405,0.0013520146975095917,0.0004611224280424253,0.0009233632550116
1681484185.6641526,0.3356944078567362,-0.6600037130417978,9.792450027087574,-0.00025506900702827235,0.0006324733681589132,0.0002070094883915
1681484185.6742146,0.25183142911972883,-0.756360386634293,9.80437819105884,-0.001168147121399858,-2.3465777285466376e-06,-0.0026354177429798
1681484185.6841192,0.4135885493285445,-0.5949869396000683,9.781192302657901,-0.0017410839307215721,1.8158926533357983e-05,0.0015268707098097
1681484185.6942482,0.39298513996825823,-0.9120245550732891,9.699086568477702,0.0023682829661007747,0.0010772848805402997,0.0010023339960266
1681484185.704178,0.22099254212962918,-0.5595325467483523,9.89092838331811,-0.0011647670897454944,-0.0013404448251470803,0.0012687054655056
1681484185.7142055,0.39954483611227565,-0.7057571489278908,9.744501357601326,-0.0018476192815245793,0.00039962196755333955,0.000732238109364
1681484185.7243836,0.4060216033676119,-0.8713920950898203,9.69680876451293,0.0011147571604272345,0.002072280050226319,9.261839618051964e-05
1681484185.734116,0.1923793438991478,-0.7946548934766975,9.83475545433316,0.0022408889803839523,-0.0005018598450224406,-0.0005924329202148
1681484185.7441328,0.23160112561997664,-0.5721131231635579,9.877152020909238,-0.001115983703698447,-0.0025072049186863933,-0.0008290100417557
1681484185.7542326,0.40829325607147604,-0.7335554103292985,9.734229882668519,-0.0006767549846571857,-0.0011348131518304156,-0.000137972998758
1681484185.7641675,0.4933679007943316,-0.7180807740081745,9.699161047916407,-8.85517547076313e-05,0.001737762086480086,0.0012590214133037
1681484185.7741773,0.20079447954604374,-0.8324527503407928,9.804465338768049,0.00036930126015030786,0.00020445872746077448,-0.002195431854901
1681484185.7844305,0.3636752759536519,-0.7452067274346321,9.745362354196653,0.0013494289730128614,0.0008649231676083948,-0.0013803548685732
1681484185.7941897,0.26391786135784895,-0.5621028082936627,9.857727872195646,-0.0007333856385831207,-0.001059931067192277,0.0009229907259818
1681484185.804193,0.41040195492672465,-0.845099302408328,9.701212781525335,0.0008513355817428257,0.0010251265581749198,-0.0009247420861843
1681484185.8141756,0.3637767196288652,-0.6626089196259358,9.785881796804736,0.0006654612761880619,0.0010307000305498793,0.0009721646161291
1681484185.8242352,0.3775720525785203,-0.7017543473359659,9.757792503081218,0.0005935373987048078,0.001881934726491709,0.0015190291920102
1681484185.8341174,0.1923038689557269,-0.6532328539812199,9.890118198424112,-0.0014769588959041545,-0.0009589852402379277,0.0003947413020309
1681484185.8441534,0.3677720640440953,-0.8682833596309111,9.706890829926015,0.001120321670501704,6.397746206829994e-05,-0.0001927389570969
1681484185.854183,0.333294343745946,-0.7197632605935941,9.790844678278042,0.00011076229122514064,0.00046033752179700627,-0.001530122947273
1681484185.8642304,0.38426902607631797,-0.6059599282479909,9.794344033762023,-0.0021385857557213272,0.0014955957804929322,-0.0013159222475711
1681484185.8741968,0.32238801466886635,-0.7177411540459997,9.790207670997303,1.979443117096814e-06,-0.00012972686406592668,0.0026291805511813
1681484185.884157,0.3041241929046955,-0.6585490384756627,9.818825746656456,-0.002026441585903252,-0.00035064917911274376,0.0013871385631741
1681484185.8941343,0.36066819586267185,-0.8801078787722276,9.70465193632815,0.0003849547936592484,0.001001637598090438,-7.1662715030065e-05
1681484185.9042137,0.28812813110778623,-0.7350203030438639,9.797876692813878,0.00094300552816977,-0.00019640799463394688,0.0002334556734662
1681484185.9142122,0.3880524067148917,-0.599615512582115,9.790825081044652,-0.0011394306557963967,0.0005981911329299476,0.0018938101962216
1681484185.924349,0.26368603289815473,-0.8859128177988095,9.764054887326592,0.0017677890521011987,-0.000701936779894986,0.0009762778022799
1681484185.9342508,0.41932417830259744,-0.6256022359715692,9.767782687946076,-0.00147173280360704,0.0017701782205687862,-0.0010648097417775
1681484185.9441593,0.24056668548181312,-0.7690734736573295,9.811452170509872,-0.0009531675245645009,-4.558713282855035e-06,-0.0019268556538495
1681484185.9543166,0.4877919072261393,-0.7135481427472561,9.700801161324609,-0.00016010856983113413,0.0027845880282432373,-9.510352215652746e-05
1681484185.964212,0.14952363843038333,-0.6283029111595881,9.904479251388592,-0.0020316461701596587,-0.0010070303259383862,0.0001522345660727
1681484185.9741747,0.4012515480590687,-0.8703095927126522,9.686104533862496,0.0014932151349627385,0.00035047655859167537,0.0007929976523395
1681484185.9841793,0.1921568538669859,-0.6864770985053991,9.865626871867333,-5.46557025228398e-06,-0.0021838545446419702,-0.0004996934480491
1681484185.9941823,0.5102425490145636,-0.7796594495267977,9.671799508327755,0.0013389858494527573,0.0012925904242825344,0.0001075247960638
1681484186.004213,0.3615753131124034,-0.5578160207441069,9.831255107409223,-0.0018003269232914753,0.0014848154551386794,0.0005329782684806
1681484186.014372,0.4147226469219144,-0.8547301659603006,9.692370150760851,0.0005544313062199594,0.003495356221175162,-0.0001625573535907
1681484186.024207,0.24179485826269248,-0.6442563668022587,9.855949258654519,-0.0016192576770163733,0.0018804378071992762,-0.0007738748140159
1681484186.0341434,0.35553859014381384,-0.9056065003938198,9.710578808827446,0.003242586496163364,0.0015977354009897554,0.0009308462572757
1681484186.0442193,0.25905121431098826,-0.5806034533455613,9.876039851049258,-0.0005791609446470505,0.0004864241318146412,-0.0007481831166419
1681484186.054199,0.23100898058207917,-0.7974292782383744,9.806621894537626,0.0004166258701150963,-0.0012566253223534676,-0.0015710820484433
1681484186.0642009,0.28367905852384373,-0.7510372923478872,9.786068514378158,0.0011296300613173316,-0.002413334973781496,-0.0008461540605399
1681484186.0741866,0.3761734687691849,-0.7010454512870418,9.759946894674096,3.7766678596426695e-05,-0.0011392833503710382,-0.0019730464595827
1681484186.0842097,0.4612657106798787,-0.551624930881354,9.780092168548121,-0.002195179673212784,0.0007080939412665177,0.000336625376391
1681484186.094218,0.34715659957506406,-0.6805167021064642,9.787134641751315,-0.0027558573249732367,0.0008991868072536962,0.0005370418617043
1681484186.1041603,0.18199726108299946,-0.818486101515255,9.82155452239021,-0.0006164106754432927,-0.0020635221733123423,0.0004308768507566
1681484186.1142058,0.35222518721195195,-0.7480882674171515,9.756841745375036,-0.001779447951541311,-0.0006210605943706086,-0.0021298760588738
1681484186.1243207,0.39701994368629906,-0.8121495998255736,9.711310062760791,0.0012622531746199464,-8.241594190077907e-05,1.0297862487682876e-05
1681484186.1292863,0.22042486882826692,-0.2673721128717212,9.998845614648387,-0.0023974684545837385,-0.0020381939650530967,0.0022354136995513
1681484186.1431773,0.4090325614917011,-0.9311154270958424,9.67564678954441,0.002187602083920041,0.0009439152831116851,-0.0003853343700516
1681484186.153255,0.3519067992499984,-0.5100120609628673,9.852103928395556,-0.0015686125127356333,0.0006674706147218965,0.0014791975075776
1681484186.1632178,0.31744690244469276,-0.8618622867537962,9.738359769931092,0.00011932581083967336,0.0010713112305030259,-0.0007306656375054
1681484186.173191,0.17251706950062007,-0.6169813478555571,9.906204856597629,-0.0013949897766154472,-0.0028398725693087315,0.0004323717399042
1681484186.1832187,0.3942118699082648,-0.8365828998134326,9.707099699515942,0.00019048003128299584,-0.0009291812289113047,-0.0012753042432937
1681484186.1932034,0.5007906428770655,-0.6807866479372985,9.69522938866562,0.0004251875146660499,0.0019035393336767513,0.0009911492775667
1681484186.2032409,0.20346595459847847,-0.6048916552301888,9.882857263524844,-0.0018483636106496385,-0.0008841058535262245,0.0011502316006466
1681484186.21324,0.4149158595583253,-0.960339296576842,9.656792933276007,0.0027389653029725,0.0010321800492453063,0.0004524753854152
1681484186.223281,0.2229238184616602,-0.7362508182453719,9.839207686461114,0.002194693228261148,-0.000919108720973586,-0.0010335303417864
1681484186.2332425,0.46943295482311603,-0.6873496855936019,9.713954708442879,0.002039728928060838,0.0015026872478996554,7.996032540763336e-05
1681484186.243279,0.25700307487314245,-0.6083660655670164,9.865196482835941,-0.0006331746221015181,-0.0002448417659569767,5.797622320319134e-05
1681484186.2532394,0.34725158884056717,-0.829539418227981,9.742649942884682,0.0017498888504569538,-0.00010699027159938361,0.0007013451500337
1681484186.2632856,0.30235364092946043,-0.60774650237313,9.835043721274623,-0.001051540702649256,-0.0005182712677951005,-1.2417095107188645e-05
1681484186.273258,0.4353572472552847,-0.7462989334145551,9.713406253362166,-0.00011613223679344982,0.0016297139263065196,8.515454423690754e-05
1681484186.2832644,0.2574904092906054,-0.8391719814666011,9.772176946345322,0.0022472101417992784,9.640281798889209e-05,-0.0001629381481084
1681484186.2932584,0.2896976330477893,-0.7130750436275746,9.804283014320136,0.0021984201977929105,-0.0009377320775701032,7.102428530419785e-05
1681484186.303275,0.3629218187363037,-0.6114222004083164,9.798665340425373,-0.0012027660939356686,0.0003139503837673747,-0.0014705122489008
1681484186.3132343,0.5061174698010866,-0.7273946136933813,9.694333095417761,-7.105941907496792e-05,0.0031846700070994635,0.000538539137366
1681484186.3233235,0.21456772302989552,-0.736633384960404,9.836131252282183,5.971809554242608e-05,0.0007587566551495003,0.0002069919096779
1681484186.3332448,0.47435602682146943,-0.5996917958401845,9.757649390459568,-0.0033906652807702956,0.004006068151266923,-0.0013174056116018
1681484186.3432164,0.1618357626949338,-0.9335885859343964,9.795508107342974,0.0012797541145335614,0.00035940085638622176,-0.0008144965435836
1681484186.353346,0.3159868422359478,-0.7501034878844097,9.771245534864358,0.0033264423183703646,-0.0008602585292916445,0.002271154774959
1681484186.363222,0.41966879673687796,-0.515003833653044,9.803170634092913,-0.001254941700142723,0.0012042929968357533,0.0014389473686118
1681484186.3732064,0.24521863981422543,-0.6564419548954527,9.849922175302192,-0.0041640063962837814,0.00021560394236568646,-0.0011318740475449
1681484186.38325,0.3870283183474625,-0.8820775233022584,9.688085593620158,0.001069653507862643,0.00042384875235162317,0.0017392101831741
1681484186.393179,0.286061168890818,-0.590549274053954,9.844399990808535,-0.0018453868939755167,-0.00043668998246196414,0.0019809636246886
1681484186.403218,0.27489237031793706,-0.7975829595537155,9.778041753901379,-0.0015116085515467176,-0.0008591524998359489,-0.0002269974251735
1681484186.413196,0.3737670991213224,-0.7461914319475175,9.757411046922963,2.4338040616073533e-05,-0.0006952262212898717,0.0017149881855825
1681484186.4233563,0.43752037018577994,-0.7121816240918918,9.733362802435988,-0.0007255681887421842,0.0017090756608014771,0.0011140991951346
1681484186.4333398,0.13331067095736074,-0.7034611934160422,9.895594219170732,-0.0018260061617448092,-0.0021574027131561094,-0.0003573915495995
1681484186.443286,0.4305470569483828,-0.7425977300534131,9.718557604186756,-0.0013655659381162238,-4.740995927728507e-05,-0.0003696995594996
1681484186.453283,0.2932332590964414,-0.8086043547206334,9.773219178108018,0.0010927534991428786,-0.001612381854084645,0.0012284589716241
1681484186.463212,0.38545120492170304,-0.6786551201995659,9.768266378381028,-0.0003988459637403543,-0.00035883351387894187,0.0002647259930622
1681484186.4732666,0.4205125915203596,-0.8444897467471008,9.701294178555742,0.0019242359817770445,0.001276945758042757,9.039637693280892e-05
1681484186.483257,0.3241796015276453,-0.6145999956221507,9.827318246582065,-0.0012187814478632295,0.0015134989396523185,-0.0013762456405434
1681484186.4932845,0.2752363055588816,-0.7084418584355322,9.810145948028595,-0.0013145252700770813,0.0003254931320249062,-0.000987341631529
1681484186.5032854,0.420062353599192,-0.7565178033170741,9.718492177750585,0.0008301050291358586,0.0013786488677517868,0.0016501803871019
1681484186.5131917,0.25748791606115234,-0.6745988201291431,9.820682130426713,-0.0005344668995059226,0.0002319987973912074,0.0012917974341202
1681484186.5235198,0.34844636784046784,-0.6956611922892703,9.778287306257265,-0.0011558460217710592,0.0007043597674009738,0.0012020126992378
1681484186.5333126,0.35421739780360756,-0.7959125964738201,9.751826783623295,0.0003734126119362183,0.0010273481241184126,0.0013230781437836
1681484186.5432503,0.27239886386242396,-0.6072312588769047,9.85775784386827,-0.001984340681286318,-0.0003513915643168156,0.001437453378045
1681484186.553307,0.35296608617151565,-0.7012375751050364,9.774539753315103,-0.002291303237654213,5.579093114882489e-05,0.0014948133289603
1681484186.5631742,0.20609402134885382,-0.9041005019667805,9.77268359156321,-0.0008079191968651195,-0.0010859827438999582,-0.0029490699566427
1681484186.5732028,0.44436481451319804,-0.7381965925505536,9.708622926878206,0.0010718922540367754,0.00030613424147332274,-0.0003007547970387
1681484186.583182,0.40143269660358577,-0.6606495849441398,9.758938287744183,-5.239880178391722e-05,0.0017157862292832154,3.975035683328825e-05
1681484186.5931993,0.22455375781657685,-0.6675536950371794,9.859478836104184,-0.002612412910992984,0.0001913883176134372,-0.0025959198869291
1681484186.6031785,0.29670918088831105,-0.9336317838334172,9.720984020208864,0.002477057704455342,-0.0011113335331720707,-0.001332690710527
1681484186.6132312,0.37414144197450905,-0.6500307358802642,9.78505034440203,0.0015323364210117888,-0.0005834606003434675,-0.0003529151476446
1681484186.6232393,0.3503495832267383,-0.6523398146524115,9.793293469695351,0.0012123250788683509,-0.0008248512968836486,0.002033863561834
1681484186.6332598,0.43720871685944757,-0.7368717009865099,9.716956373844553,-9.52453612966481e-05,0.0022704767187547758,-0.0007846802513573
1681484186.646776,0.3204289322898978,-0.7092182293208891,9.795741130743448,-8.181085980205947e-05,0.0017664391562546566,-0.0001517711247775
1681484186.653255,0.23883540183561688,-0.6345057306664581,9.865828884065412,-0.00029976909265802906,-0.00024223236311925748,0.0019027467892978
1681484186.6632175,0.2277450429205729,-0.8721723085249763,9.784105503506554,8.618271477053354e-05,-0.0007481278569701617,-0.003134594070119
1681484186.673226,0.3285992955734577,-0.6773695895061868,9.796668392604971,0.0005145890608173264,-0.0016690358569252967,-0.0006509423296425
1681484186.6832016,0.34654291118746855,-0.6143395731708896,9.808892801247891,-0.001196061270286318,-0.0017587995343533714,0.0008574243361603
1681484186.6932268,0.40517822739046006,-0.6972502649929999,9.753805850670812,-0.0014601833501229392,-0.00044749486329240983,0.0011737071577467
1681484186.7033255,0.4141136106517803,-0.765787372749751,9.718152927252945,-0.0008973016503362907,0.0015328724664331961,0.0003712896682795
1681484186.7132764,0.3745882089654009,-0.7400416859648828,9.751600888424981,-0.0008652961987260765,0.0024109078750599276,0.0002170264447581
1681484186.7233734,0.15521649833343934,-0.7092189375591968,9.88997719657368,-0.0009706855550377472,-0.0015296884170125672,0.0004919749876957
1681484186.7332113,0.3445134788080891,-0.8246399589794413,9.754770576481626,0.0005469988813546741,-0.001328534371443729,-0.0004520224214989
1681484186.7433093,0.39578581512173344,-0.700109880148223,9.746045272941094,0.0012473478158355471,-0.000694106436571911,0.0018286170339219
1681484186.753257,0.34023145503404045,-0.7708569782326783,9.757793540390207,0.00199799560057774,-0.00031561227278317837,0.0009997358970817
1681484186.7632296,0.46128303308981145,-0.5944478209097023,9.750624377377937,-0.0012173223532799277,0.002784568459025132,0.000193598094071
1681484186.773249,0.37480204484726565,-0.7333728211229618,9.750328106018072,-0.000871231579895949,0.003506518530059118,0.0007858591812204
1681484186.783219,0.15927706707660938,-0.7883383018430485,9.843482816617179,-0.000582144901680546,0.0008481721636201169,-0.001279760156152
1681484186.7932067,0.32870073536933736,-0.7457063882133572,9.766438909925164,0.00044417713500801803,0.0003418823241242156,-0.0003790099912781
1681484186.8032873,0.2693527878310129,-0.735206973840883,9.805608868855199,0.0008144644936111683,-0.001070349157934901,-0.0002530862152103
1681484186.8134282,0.46412919307866857,-0.7020741677186149,9.711515290203282,0.0008856125921540451,0.0014516637735736463,0.0008179257816177
1681484186.8232927,0.25122144641834004,-0.6977201001558523,9.828253740812848,-3.228160335727271e-05,-3.5480486473624024e-05,-2.379998889913979e-06
1681484186.833269,0.312109155917324,-0.6285307039905031,9.822774730414102,-0.00167625664236369,-0.0006691560301876733,0.0008671113715049
1681484186.8432665,0.3421743523625203,-0.813859122391561,9.74731299248028,-0.001167015569759443,4.35169875378371e-05,-0.0015401574823532
1681484186.8532774,0.3148489196076945,-0.8378411621409474,9.746942546960279,0.0016414712685054156,-0.0005484373432491267,-0.00054664304885
1681484186.8632956,0.4460565076471497,-0.6357156682372092,9.7626025705301,0.0007831844274379177,0.0008477937115578879,0.0015741679922452
1681484186.8733132,0.08112497124319476,-0.8845972158042755,9.83629362292592,0.0026260853345140655,-0.003199350608390224,-0.0013315619475666
1681484186.8832786,0.4604542741301463,-0.646279455117194,9.737646094540928,0.0022848481229851758,-0.0013862820622871223,0.0010876343836084
1681484186.893273,0.43984369228080517,-0.5503845453724766,9.78672026580071,-0.0015063826930492004,0.0007516686270272073,0.0010120271722793
1681484186.903223,0.12492037914173569,-0.9050684061382025,9.83151618213243,0.0014265399834648375,-0.0031069754396537996,-0.0007370028219643
1681484186.9132853,0.5620111747408458,-0.4908335901106477,9.736774239758072,-0.0032166881453063196,0.0015399045492598908,-0.0003797699504989
1681484186.923432,0.28936584166525714,-0.9050855042859981,9.736255853565718,0.0009515651851556296,0.0004663214050091049,0.0003321649233352
1681484186.933821,0.2643100218355763,-0.6148201084425802,9.857357511910427,-0.0008380653499361824,-0.0015192644991110077,0.0017298922426074
1681484186.9432485,0.3855313373008689,-0.7740900163352439,9.745932072951929,-0.0007482659718638521,-0.0001319703155159103,-8.545641726737303e-05
1681484186.9533286,0.3374196928472808,-0.7281476855754021,9.758432904274027,8.245309379078004e-05,-0.0002567621929135159,0.0014527276212415
1681484186.963229,0.29657282367823595,-0.7292182203959116,9.803094677236947,-0.0018021730786777872,0.00014034910112500668,-0.00210008235122
1681484186.973261,0.39933176503903106,-0.7216058644430754,9.751727779406966,0.00024375738838650868,0.00027670853701259213,0.0018200272711932
1681484186.9832282,0.2801484635355883,-0.6684010537562759,9.822735382237632,-0.003561987623311889,0.0007471888658158295,-0.0032065126619759
1681484186.9932506,0.332424709854326,-0.8898340168962645,9.726268665739685,0.001702950660262282,-0.0004586751462131243,0.0001805315219339
1681484187.0032651,0.30642443011744025,-0.6740337839165692,9.814090056853368,0.00046280185536807226,-0.001023804451469025,8.851941269899326e-05
1681484187.0133686,0.3506511453700109,-0.6819174697284767,9.776777205333431,-0.0010600848574380483,-0.00019008287764382703,-0.0012112294829908
1681484187.02336,0.28196680502805216,-0.8823002907305874,9.748917963498256,0.0017681529964648892,-0.0009764930022332935,-0.0022271140519056
1681484187.033322,0.4040838004024141,-0.5382279424790998,9.803253126439618,-0.0010667927866861017,-0.00029214898111817894,-6.455466476431313e-06
1681484187.0432258,0.4418231760075397,-0.8061526253693538,9.697940416015818,0.0011232848215784338,0.0016751822878280356,0.0006607688806493
1681484187.0532825,0.2381176214480073,-0.6280090433174609,9.860415809279722,-0.001728788883457527,0.00023085359384347677,-0.0010719166643444
1681484187.0632677,0.28662279011632963,-1.0378936044209497,9.697211862491205,0.004075573549999948,-0.0003461137440743443,-0.0021656518842551
1681484187.073285,0.4611410393082496,-0.561729814994328,9.770541981657553,0.001009325912419976,0.0022268956159868796,-0.0014116275164756
1681484187.083265,0.25359987136417256,-0.7553328597346638,9.80434787328113,0.0008614109326443643,0.0009547034642778201,-0.0026927765033665
1681484187.093248,0.3143187335771246,-0.5143663159574021,9.867596450388955,-0.0014728526782328822,-0.0008993742399311006,0.0011826451187029
1681484187.1032956,0.41457376130686713,-0.7131882095196618,9.74100704015048,-0.0010667990489780217,0.00045552830688593585,0.002159762075777
1681484187.113391,0.40982190687889547,-0.8499702687665613,9.677622928646091,0.0016187276247728484,0.0023651176103559306,0.0021385715186137
1681484187.123384,0.09691804365682322,-0.6878185272128441,9.919745568569876,-0.0008622899612478115,-0.0013870296507942235,-0.001268222000775
1681484187.133311,0.43997192468362584,-0.6590689624779218,9.752577908987378,-0.0016099537657008433,0.0004331527720434446,-7.129239789133352e-05
1681484187.1432672,0.37230557798406844,-0.6303696127154014,9.795826718839505,-0.0028765593763829707,0.0006678436311182502,0.001416239621491
1681484187.1532853,0.16329499675278852,-0.8157097893372017,9.838352624126797,-0.00236319738513838,-0.00200506851274212,-0.0008614102884653
1681484187.1632276,0.40125570131413957,-0.8685788921701981,9.690237581301412,0.00028362225606468533,-0.0003640639895277579,-0.0017119112930718
1681484187.1733124,0.4181708225838837,-0.6734064299136187,9.749908478516398,-0.00011018311490517042,0.0010564136512382302,-0.0007325275841627
1681484187.183329,0.3351990561569727,-0.7029038702953653,9.789570445457608,-0.0009975095149732816,0.0014617065829669788,-0.0012987789272788
1681484187.1932418,0.28308760914988856,-0.6733159920370411,9.816414380349325,-0.0014650492797622624,0.0001235868878620196,0.0001794415252756
1681484187.2033105,0.35315079198028143,-0.7640208503337567,9.7442802503148,-0.0009382625919408775,0.000828052089880978,-0.0004806916735592
1681484187.2133372,0.2751372637893853,-0.8042793388881794,9.795768186944535,0.0012912955701204882,-0.0007965349229389594,0.0002367905067753
1681484187.2233248,0.27716375037518093,-0.6207419979310216,9.843039733559369,-0.0009237355420307388,-0.0020963168939469867,0.0005292320816319
1681484187.233322,0.3918374753762853,-0.7810254604703287,9.724586829961266,0.0003633441697814196,-0.0007161003351401408,3.3009444038221416e-05
1681484187.2432373,0.29767353204254177,-0.6204119677134444,9.823593614715277,-0.0005545634978657989,-0.0022043516176221984,0.0025982533075388
1681484187.2532694,0.3919929465399595,-0.8294154213390434,9.708897138414303,-0.00040670202848770807,0.0004234865083490393,-0.0013717841397497
1681484187.2632496,0.33017027944375926,-0.7561647504009177,9.766567094132476,0.0012868329760777994,-0.00020906270830808502,0.0002640013076838
1681484187.2732413,0.2593192143022132,-0.664682360624397,9.841309432914397,-0.0004912401138697101,-0.0016001034259938859,-0.0001010915770653
1681484187.2833245,0.31862982070991835,-0.8428130774323391,9.744059062982515,0.0018389262901247815,-0.0016768212698554696,-0.0007194925605777
1681484187.2932365,0.4591442581884367,-0.543191824297114,9.776692423310863,-0.002350547294802628,0.0011778267914208365,-0.0013844633981112
1681484187.303306,0.2935142231092537,-0.7364075740534581,9.791289980693122,-0.0007538763814897897,-0.00044228130791582857,0.0012232443510096
1681484187.3132231,0.33461931848368687,-0.9318437481006705,9.711852970182226,0.002539258309426379,0.00015529414615637934,-0.0010324143845114
1681484187.3233798,0.24249184489097922,-0.4756429521652107,9.90607434879233,-0.0017544843097472172,-0.002268420452524043,0.0008630138432149
1681484187.3333242,0.35376098940256556,-0.8018768291934439,9.74570910942319,-0.0001477674512280146,-0.002124633400301281,0.0012314518640291
1681484187.343361,0.4376968346103618,-0.592593425040299,9.772469795130196,-0.0028463767430030426,-0.00024671272875854185,0.0016792179481366
1681484187.3533723,0.22571636713430276,-0.8332089059758699,9.80525125104052,-0.0010522612402359447,-0.002333615796844403,0.0005340691382538
1681484187.3632684,0.4521514473101462,-0.7093859822785249,9.721180394996901,-0.001041837838032756,-1.5780178467828403e-06,0.0010600859200589
1681484187.3732646,0.41504095330232504,-0.8774336786690834,9.686007345927413,0.0018526957819164024,0.0018752348735507193,0.0009207608486999
1681484187.3833325,0.15502755777723476,-0.8011163450307421,9.848233283382697,0.00235115301883343,-0.000979092871971894,-0.0011497656855258
1681484187.3932793,0.44403023570696026,-0.5249912767380774,9.778505602482202,-0.0023788415398376317,0.0017794799588253351,-0.0019823664374176
1681484187.403308,0.3408543768748902,-0.7476251880312942,9.77420346619381,-0.00045101293043456944,0.0010705572084176603,0.0004252830945428
1681484187.4133334,0.3910702487187002,-0.7736448294710065,9.741497824855461,0.0016850756141797978,0.001448684964289851,0.0023087749100763
1681484187.423453,0.14752786171166846,-0.6526467566906633,9.896564052291293,-0.0006875572209507267,-0.0018146710565911128,0.0007404551102321
1681484187.433279,0.3945533102131449,-0.668525410122917,9.761611570151638,-0.002449991615240189,-0.00021691179924890772,-0.0007619618013027
1681484187.44327,0.3476529729067973,-0.7507741567807045,9.758649009515572,-0.0014181032503854294,-0.00024149341587336137,0.0003955038223888
1681484187.4533782,0.34696577851286337,-0.8139854150912651,9.743603372933794,0.00019048736368210554,0.00014632090690273918,-1.540442868058962e-05
1681484187.4632814,0.3740189849332746,-0.6124021927195377,9.793992558244202,-0.0003720264875240835,9.977121345036816e-05,0.0030191844521563
1681484187.4733186,0.43030378087577115,-0.6986103722697858,9.738113572679726,-0.0005203054962619165,0.0018759461606224503,0.0035899502650376
1681484187.4832911,0.32377042217524643,-0.8475231359831708,9.741990322631265,0.0004523796743344234,0.002654917420520034,0.000716957259598
1681484187.4933405,0.25530417793063137,-0.5969716706720376,9.869731559501393,-0.0023766178061719787,0.0012650176073375006,0.0001410599757459
1681484187.5034118,0.26316877372625624,-0.8519584402219562,9.776218103813436,-0.0012407698605156683,0.0007140164258241762,-0.0026357967912677
1681484187.5133438,0.2752936065168858,-0.8564433652848152,9.757397746209175,0.0016910246114726086,-0.0003718527472564599,-0.0024550992570344
1681484187.5233746,0.40703855336762584,-0.550141223447456,9.793581056798498,-0.0005426777568227611,0.00047229257270940624,0.0001824055757846
1681484187.5334165,0.30036556210992515,-0.7234733205374271,9.796600364486624,-0.0008287538308674535,-7.683390437387962e-05,-0.000291454376978
1681484187.5432816,0.47538714382815017,-0.7747418783073735,9.68468523900639,0.0015259873205699835,0.0020644766582872476,0.0022413935471799
1681484187.553296,0.11248251375416159,-0.6091256022553408,9.942983069858359,-0.0023509089660935733,-0.0017293766035373262,-7.958271865895214e-06
1681484187.563363,0.47970016381681707,-0.7232214896533021,9.696632872988777,-0.001763776880758309,0.0011130231984364902,0.0012299005425542
1681484187.573281,0.26272956242688916,-0.9669245008136692,9.740024781389973,0.001413477728232391,0.00048684246102208685,-0.0019980038091066
1681484187.5833104,0.28382579716477613,-0.6184144153590728,9.834868797358284,-0.0004364828436966455,-0.0006840452867966273,-0.0013829602434757
1681484187.5933678,0.3065274817054205,-0.7953001199114412,9.777055929079022,0.0015822611560269396,-0.0018209836278115573,-0.0004486582515287
1681484187.6033587,0.3973169881070498,-0.616880740188272,9.783590889719475,-0.0008086447951273491,-0.000624061300729772,-0.0004989411722395
1681484187.613325,0.3934146530784602,-0.7768807810999291,9.729541267978158,-0.00101988532269337,0.0014605991810495598,-0.0027296512893859
1681484187.6233706,0.3103721388684814,-0.7966230760985445,9.775224096104651,0.001187743645013606,0.0003556697339942658,-0.0016176635439965
1681484187.633319,0.42104198023087447,-0.5934422065229525,9.796586315366419,0.0006207468041283071,0.0004775017531530649,0.0021426476264845
1681484187.6432824,0.16966334964517832,-0.8193172758663654,9.841914141152627,0.0007302948765129796,-0.0018817189533233945,-0.0014284106477621
1681484187.6533787,0.529342629322474,-0.7323402002331516,9.670343514054942,0.001494708630910077,0.001884531549692702,-0.0002001929137382
1681484187.6633065,0.34250792049721224,-0.5196624550513377,9.847187406973934,-0.0026772555154402906,0.0021099047330205185,-0.0002862445584956
1681484187.6733196,0.2895940975187424,-0.8256290766631732,9.767353783241575,0.00041959112892375543,0.0006570569521258504,0.0015689404058743
1681484187.6832798,0.323120179907055,-0.8592917060868119,9.740693572485428,0.003035496481670154,0.0005307581589264502,0.0008738220745239
1681484187.6932912,0.29757267287959466,-0.574001678894104,9.84927087614529,-8.55612471123818e-05,-0.0003577147462143115,0.0010161253408536
1681484187.7033665,0.3149116540453948,-0.8286381775442622,9.73734444173612,0.0012592675616247002,0.00010273435405511033,-0.0005473881069097
1681484187.7133598,0.3881329728264264,-0.48826032142704523,9.832808994828707,-0.0030050790141454994,0.0007240933109416493,0.0010246990673717
1681484187.7234397,0.2908398896953369,-0.9108051227403144,9.728757375739917,0.0005048886039369609,0.00023013960875705648,0.0002263562014799
1681484187.7334404,0.2545558195610378,-0.5975022468792918,9.861946701210993,-0.0015954152151218615,-0.0017032948600213278,0.0012266006629456
1681484187.7433045,0.4198335561609694,-0.754111055820055,9.714278384945207,-0.001449773492987812,0.0006715678180776208,-0.0004501581465352
1681484187.7533596,0.2367975221076257,-0.6096414861878187,9.868957621580105,-0.003927812095865958,-0.0014335720163652353,-0.0006900792981955
1681484187.763506,0.4699045821675608,-0.8150743107415863,9.672177697938707,-0.0011048230055344486,0.0009073872927394437,0.0005482236115735
1681484187.7733326,0.1825133828156825,-0.8936155977333596,9.809802664794523,0.00128831716521582,-0.0015729038808731575,-0.0016798733308437
1681484187.783312,0.43249705286542284,-0.48931929194721674,9.799461596537643,-0.003038583899581435,0.0002316165966636933,-0.0003656033699858
1681484187.793378,0.23134230844826079,-0.7809637663095012,9.813966056894218,-0.002850108245900144,-0.001327436101639025,-0.0020386125001583
1681484187.8033297,0.5267634597725217,-0.7660994629560296,9.654578266116701,0.0005067681492317979,0.0013194033211478336,0.0022447330953095
1681484187.8133018,0.31822457229090095,-0.6653714356688573,9.804841154232736,-0.0006909308786135295,0.0009107486028885791,0.0024425279657829
1681484187.8234203,0.22105258698860078,-0.7636867118203294,9.830620007019883,-0.0021232918159851777,-0.00021282347395704053,-0.0017897742840919
1681484187.833308,0.39813280435563103,-0.8584991880424088,9.692769835558092,0.0002847381992830013,0.001703164676222076,-0.0026763521641019
1681484187.8434322,0.27784484102579693,-0.5845439202555501,9.848095214991474,-0.00117856753906439,-0.0003223337916118273,0.0001492412953179
1681484187.8533072,0.45457546422892625,-0.73945225130304,9.713593179666304,-4.384304074975875e-05,0.001631217738429098,0.0013491803652381
1681484187.8633485,0.1901667959608686,-0.8653360279370477,9.812223403832665,0.0019339212879727254,-0.00083529346624575,-0.0006677059031549
1681484187.8732994,0.47987181641692916,-0.5878433591944745,9.75314993246681,0.00019421892712195426,0.001357776939965643,0.0015212533212856
1681484187.8832972,0.33703052678458184,-0.7158899070588745,9.784022959410708,-0.000236443418047577,0.0016155724050769475,0.0011427892564337
1681484187.8933425,0.24393055046117418,-0.8543624609461327,9.777132967311589,0.0018780341994903609,0.0001489321568461077,4.642630987877565e-05
1681484187.9033048,0.3727764586968491,-0.6453861348059753,9.782079155443641,0.0006915349802549186,0.0005300234119301315,0.0011964318651248
1681484187.9133458,0.24153057133579556,-0.7253256463002246,9.838837926950898,5.005128750871026e-05,-0.0012264567405715326,0.0001738354290377
1681484187.923517,0.431897471742594,-0.7437765823875926,9.713513687179985,0.0006487026691746087,0.0008261782890640906,0.0004021942109342
1681484187.9333708,0.3095077541293888,-0.7076721903220575,9.782122842914564,-0.0006186512069159449,0.0010631029233485148,-0.0011806902516159
1681484187.9433177,0.38039922202413,-0.6734350235062465,9.777739082496026,0.0004270436834314351,0.0007028684965167344,0.0025990192039411
1681484187.953327,0.24723821784103533,-0.7442942959014497,9.817135178800722,-0.0014236637635976989,0.00041414776660052586,-0.0014682959340039
1681484187.9633734,0.18147412004429977,-0.7980610425986678,9.829189733182558,2.362787293734825e-06,-0.0024286225983503828,-0.002256170384911
1681484187.9733405,0.42420113810661664,-0.6209094815994262,9.756084678255297,-0.00030497584992529033,-0.0015274578209480804,0.0011334688711453
1681484187.9833784,0.31121905038993164,-0.7565907796955567,9.778680954730742,-3.153940449288062e-05,-0.001699928519226727,0.0002323231852155
1681484187.993411,0.45905007555989547,-0.6988389507357776,9.696600116316757,-0.0003753864437994086,0.0010344244215106063,0.0007929750677671
1681484188.003377,0.33245108935906564,-0.7470853902406993,9.782787909518708,-0.00022264924215669238,0.0010422390888748133,-9.46247423922104e-06
1681484188.013388,0.37378371110285497,-0.7670274454588487,9.7453277656264,0.0005693410237577417,0.001850266900779644,-0.0002169437979805
1681484188.0235136,0.2676316943255792,-0.7786052458963337,9.793375525512419,0.0027415669709406603,-0.00020312201587358326,0.0017883594514809
1681484188.033374,0.3208598809371446,-0.6979941036324213,9.7978835663679,6.044733213438187e-05,0.0007326698461082032,-0.002217814795998
1681484188.0434709,0.3781557008274251,-0.6641964052406333,9.770359411409503,-0.0010235936182478996,0.001636796089101385,-0.00222488376717
1681484188.053433,0.25874974622631136,-0.6892471602723359,9.832790041452553,-0.0006208797005541006,-0.0007086406083220313,-3.329094438736719e-05
1681484188.0633323,0.27616694840256306,-0.7850985018588993,9.811517677686727,8.95341559303312e-05,-0.001851934641333898,-0.0008647756225887
1681484188.073354,0.44240479832029056,-0.7270045629670829,9.711409885988282,0.0009958955873531612,-0.00011520083314563975,0.0007020820590209
1681484188.083367,0.37454175524942357,-0.6644245093697901,9.781965807294164,-0.0010474153826919692,0.0011607286057913177,-0.0009534286841276
1681484188.0933654,0.17339045035123404,-0.7435737367384765,9.86055842367889,-0.0002934199391582598,-0.0024714556069350573,-0.0004967164754394
1681484188.103411,0.38673644991630146,-0.7665982035409423,9.731515643140376,0.0016534134132790506,-0.0019629439495215534,0.0011707310000442
1681484188.1133337,0.4950133915186715,-0.8262670441964853,9.659737101790553,0.002931567103468459,0.0018714933540213336,-0.0005566694348577
1681484188.123379,0.3168052570884517,-0.6361928853519927,9.812135442115473,0.00016924871650822362,0.0021244609420745463,-0.002263606530008
1681484188.1335397,0.34730074384199355,-0.6030206702590813,9.81522978483539,-0.00015823106070887537,0.0008682835696979293,0.0018952810456052
1681484188.1433916,0.3592083284725415,-0.7017811560182097,9.77092373689619,-0.0011565719689203152,0.001717273881041274,0.0009699411998976
1681484188.153324,0.2975001639152741,-0.718981966569258,9.803313742498165,-0.0003221169090849303,0.00026365943897458603,0.0027487679576974
1681484188.1633308,0.31265994009674586,-0.8311657953843017,9.76146966107547,0.0014988092470317887,4.0889699225730845e-05,0.0019709250150721
1681484188.173349,0.500157014004395,-0.7137619391689998,9.722513652128129,0.0011944685335136276,0.0032356898189452015,0.0015797666961102
1681484188.1833515,0.30267060393725853,-0.6340404860780844,9.826214120712637,-0.002214225788420067,0.003379122610950245,-0.0009172761387649
1681484188.193413,0.18268609365295943,-0.7947131289821115,9.837207034560727,-0.0012627720581029104,0.00027259437994901504,-0.0016996134113047
1681484188.2033694,0.4041495099801237,-0.8679170921497744,9.695262567844619,0.002452446097319441,0.0013496254779431843,-0.0003283077425781
1681484188.213388,0.2135641763925997,-0.6394157784666601,9.868451097883398,0.0010510345075730415,-0.0013750918285055998,0.0004297684604775
1681484188.2233846,0.3661729615167948,-0.6725192818896951,9.782139347117974,-0.0003947564561790378,-0.0005607477296640773,-5.080167143528742e-05
1681484188.233351,0.2885420367985864,-0.6871724019717975,9.824320796822692,-0.0005918118997586371,-0.0020415504913760046,0.0007844156312298
1681484188.2433672,0.3392491858373637,-0.7464389531468687,9.767589743122345,-0.0010127700280706524,-0.0013050392046049042,-0.0007384824607047
1681484188.253446,0.3882240175207214,-0.7437460701073267,9.738892392400135,-1.9628267126621803e-05,-0.000598369837935876,-1.4667868939390602e-05
1681484188.2633655,0.4162704073060393,-0.6948936507648059,9.74358276065729,-0.00037725379175717754,0.0009092527998814901,0.0005880799104001
1681484188.2733045,0.16906547735925348,-0.6236755664059063,9.895440438560572,-0.001888592793120058,-0.002856272665230216,0.0014162240873215
1681484188.2833712,0.45862791504473494,-0.7471186192428676,9.707474345552408,-0.0024365974670470737,0.00031581697258424286,-0.000307834012759
1681484188.2933564,0.403973381148151,-0.7739403466295584,9.717431560234877,-0.000982978297042805,0.00174855350884818,0.0006685309886474
1681484188.303396,0.08910297163264637,-0.6515112611703466,9.938644115074194,-0.002533058725471437,-0.0035491846573221762,0.0007259235676851
1681484188.313364,0.7155987413688321,-0.8470837927975657,9.533025362247807,1.8764765461730898e-05,0.0043748893199478936,0.0005072300514679
1681484188.3234005,0.04221116150203352,-0.7418915305999589,9.927558854955285,-0.00025133475326870504,-0.001319585374006082,-0.0007653101387891
1681484188.3333712,0.36601152794618197,-0.7055091476523612,9.772971714842631,0.0005890926716540705,-0.0016753512195361977,0.0019519154407557
1681484188.3433404,0.4088437360352513,-0.8531016056426829,9.696197994189525,0.0020996758231898458,0.0007170409124933583,-0.0002400635316494
1681484188.353414,0.3598651727961886,-0.6731545467188582,9.782327691598292,0.0001793327629059398,0.0017165065237232328,-0.0016590270719948
1681484188.3634553,0.22140963211843484,-0.5577271983362572,9.897237601897729,-0.003460313546461375,-0.0005544533717019608,-0.0016128099563989
1681484188.3734145,0.44599139563488716,-0.873492906915701,9.666661558284424,0.0005861081689111605,0.0014255896720127739,5.3152903589257774e-05
1681484188.3833706,0.20101339401556392,-0.7823457073287478,9.826011166817906,0.0008681087995623198,-0.0009422177721841673,-0.0014332609757307
1681484188.3934157,0.3944741289770727,-0.6075431222294774,9.784608209513742,-0.0007997030190081315,-0.00012599520278531252,-7.761409911250156e-05
1681484188.4033656,0.3323046461098079,-0.7918207842540521,9.74685339501365,0.00036593863870525297,0.00010347983555400099,-0.0005067754577371
1681484188.4133852,0.31493886720015307,-0.8058967091515461,9.771021796937076,0.004074478674256916,-0.0015345311779509795,0.0025654586457189
1681484188.4236686,0.4346993212940089,-0.6729973465592648,9.725684730670292,0.002575404138126502,0.0009316198273959148,0.0019329335150782
1681484188.4333885,0.2123067792284241,-0.6240227080282527,9.86214378529549,0.0005399226642341992,-0.001405649587421778,0.0023970949073795
1681484188.44341,0.32975186817835994,-0.834915173787733,9.750261901737067,0.000961650596421199,-0.0004121098204352435,-0.0011154774151269
1681484188.4534967,0.25108809702492096,-0.683265854378812,9.845868617901413,0.0004490249467246686,-0.0027459942022341525,-0.0003492011496323
1681484188.463411,0.4208860117727465,-0.6676419676346772,9.744300027271626,-0.0007963530037759532,-0.000724661684884854,-0.000271340603334
1681484188.4734206,0.37787500610375696,-0.707517681940762,9.773784771331885,-0.0007698939837753968,-0.00014239571422341866,0.0003716440365191
1681484188.4835117,0.34216401028270865,-0.791888479420788,9.752594825776507,0.0008051517462804781,6.548734736795931e-05,0.0006316793110694
1681484188.493374,0.34316746437223106,-0.8080030287545608,9.737724845433394,0.0015941605865209783,0.0010161626869019391,-0.0010827262926373
1681484188.5033948,0.2646433793729661,-0.7012187841065123,9.830608062298488,0.00155917038355104,-0.0007582007421071536,-9.774370524024052e-05
1681484188.513446,0.30833040443468174,-0.5642653089462465,9.83866731676869,-0.00184835197631589,-0.0010130057872661054,-0.000403973161568
1681484188.523433,0.3578847536823375,-0.7820881306257071,9.743261322517721,-0.0012653747741434946,-0.00011520008154089105,-0.0016675686969879
1681484188.5333626,0.3611116661655164,-0.6069652724032188,9.808602976042218,-0.0023632049991668944,-0.0005834761762018197,0.0009718048927847
1681484188.543486,0.3451433007257138,-0.8648434730794444,9.728458586867111,7.872640063870571e-05,-7.906667047268463e-05,8.032575310284811e-05
1681484188.553363,0.34877111078348544,-0.6807575618791669,9.77591080386357,-9.299570830200475e-05,-0.00013680970785564405,0.0015421276143992
1681484188.563384,0.4230907429943921,-0.8251493510017753,9.698966428969564,0.0023999384426058026,0.0014952578794170204,0.0022838494583506
1681484188.5734336,0.09039702104322661,-0.7854112373412179,9.89303781471719,0.002345927446368696,-0.0027635112461749023,-0.0003861007321152
1681484188.5833611,0.46901474292172934,-0.6554564409835613,9.731883024149047,0.0005742166373289665,0.0002181967448589762,-0.0006800086743656
1681484188.5933857,0.22515177949979284,-0.5745463699329805,9.891931392904896,-0.0018327102765774293,-0.0026878934117784475,0.0005526957061615
1681484188.60341,0.5504168033169292,-0.744079940950543,9.647216958333194,-0.0017854019720770435,0.002258929421782603,-0.0005354639183256
1681484188.6133735,0.34548366991941787,-0.9157694854415444,9.706728250108059,0.002602584717161001,0.0022742408329551487,-1.1265980404963911e-05
1681484188.6235063,0.2988744169970954,-0.568460988040725,9.853083309211637,-0.0006696943615165181,0.001624513581937497,-0.0002016659168053
1681484188.63345,0.17333892252880395,-0.7912388489473784,9.82998824996689,-0.0001734733673572543,-0.0009559931089724229,-0.002231584865925
1681484188.6433747,0.35994945689500624,-0.6114542035356456,9.798645642467347,-0.0012780194762625654,-0.0013583193013552205,0.0001816558611121
1681484188.653384,0.37588281508467064,-0.7475781581266904,9.757588540224535,-0.0014728502267090506,-0.0001341971678961012,-0.0013457096687976
1681484188.663408,0.3471017248945522,-0.6568248848616423,9.793154686247966,-0.001995882797285754,-0.0004381906260686624,0.0006059618277017
1681484188.6733909,0.342498957690306,-0.7038419237815241,9.784861783698798,-0.0018114810395826204,-0.0007030529218588729,0.0015294770851564
1681484188.683431,0.2534876017723515,-0.92627239687804,9.740659844282783,0.0005831411203493653,-0.0012174959445942616,-0.0016630913637105
1681484188.6933763,0.5122261440191941,-0.6077303420934631,9.730286330010795,-0.0010571231164989944,0.0018647877245154532,0.0002252152149107
1681484188.703436,0.18211352900997604,-0.8589668962204189,9.803901045290937,6.534032526748663e-05,-0.00018822260118264245,-0.0030828125349703
1681484188.7134366,0.42101804882220595,-0.6172090691601049,9.779726364468713,-0.0013163985890342076,0.000904032107390923,-0.0014030856586519
1681484188.7235758,0.3007434669072514,-0.7375574646183134,9.793465524174346,0.000281750079068661,-0.0006326441536690933,0.0007259101799231
1681484188.733431,0.3194864081122044,-0.7530923227297946,9.776103484219233,0.0009675868472898603,-0.0009388535710707234,0.000588843303873
1681484188.7433767,0.3542084078634906,-0.6360724573969437,9.801657180491246,-0.00043908795955822444,-0.0008803737967899275,0.0013484177575687
1681484188.7534,0.41831940577458115,-0.6108213239789788,9.775526283240046,-0.0027986892427008217,0.0008716239691688596,0.0012787387054654
1681484188.763372,0.23527612757394434,-0.8988520792385937,9.780131179171384,0.0012581567903344752,-0.0015006266061311662,0.002131847195002
1681484188.7733684,0.33415077515478636,-0.7500802455225934,9.769349537134959,4.59319913408075e-06,-0.0003487840548133617,-0.0008897441479835
1681484188.783399,0.4257029828091167,-0.6870898967668392,9.740435754823316,0.0005875903633843734,0.0007695630275860005,0.0017552361201036
1681484188.7934203,0.2136986371960586,-0.7076567311890866,9.8535035374734,-0.0019459555123457104,-0.0004869745670246004,-0.0020959824364159
1681484188.8042915,0.3749419757368183,-0.7535613642838844,9.752747199658838,-0.0005873416687313352,-0.00023701550790989186,-0.0005283814429763
1681484188.8134215,0.4216250162019057,-0.6611086359852025,9.753773606608716,-0.0012511993754914382,0.001069434936824473,0.0005906736437704
1681484188.823469,0.22324419995714853,-0.8166831955886654,9.807444579243143,3.51492901253345e-05,-0.0009332758515486883,-0.0004996960091862
1681484188.8333778,0.35758738577614446,-0.8054202849069764,9.724840076652214,0.0011706328739558985,0.000110177248871334,-0.0015517119358751
1681484188.843439,0.4460983358315689,-0.7297511775579314,9.718289370606078,0.002722193349153424,0.0014702871823560634,0.0012541891588138
1681484188.853541,0.19103411988509908,-0.5330647607334152,9.917803075125102,-0.0008455056127392331,-0.0018429953853675528,0.0022588800016332
1681484188.8634558,0.39214920180768453,-0.8351394576813373,9.70454634781528,0.0010394766536338425,-0.0003130058325217635,0.0014721015618728
1681484188.8734193,0.28747235954442163,-0.6909531772210039,9.823496076658563,-0.0003213594557601304,-0.0009526395177720259,0.0001101447228815
1681484188.883414,0.4468494864161081,-0.6384111960788653,9.748499409291895,-0.001859183832472395,0.0013093385262452682,0.0008231382776525
1681484188.8933964,0.31243334617666096,-0.8004357574207108,9.770459631385936,-0.0003116876291306314,0.0007755164491358191,0.0008585481514696
1681484188.903438,0.26408528760950595,-0.7044941271383334,9.825584286899929,-0.001905721160854098,0.00010757837891775732,-0.0011464075691524
1681484188.9134104,0.24969617507426278,-0.8086107746206893,9.794143464597225,0.0007489072181822631,-0.0022676749215022334,0.0002699369756978
1681484188.923427,0.4257561566032406,-0.5949066113242076,9.770067182128386,-0.0012374298767671456,-0.0007991752969647046,0.0015600201764268
1681484188.9334412,0.19618093609104134,-0.9277243270034237,9.796701368275494,0.0015420457675189797,-0.002805583315518468,-0.0015070012345436
1681484188.9434671,0.5460481101890259,-0.6282223275564283,9.689997282976929,0.00034284583665017404,0.0011853005844926863,0.0002218796831097
1681484188.9535306,0.23097787893894162,-0.698297472825004,9.852042672592315,-0.0008697250532094828,-0.0005939039572770152,-0.0008126215584102
1681484188.96349,0.3232176408021272,-0.7187288794514985,9.791236110826508,-0.0018316088133471533,-0.00038454507853230644,-0.002638755137426
1681484188.97342,0.384229516286709,-0.6946570482598478,9.767913121104984,0.00028846036112608345,-0.001066262455085184,0.0024514783831786
1681484188.9834895,0.2912419963620786,-0.8882143053834197,9.737225517752545,0.0022308255569257027,-0.0009340197397971599,-0.0005988003726575
1681484188.993452,0.3666188021055489,-0.536535968168617,9.817943841630477,-0.0006327992464596313,-0.0007801635361299685,0.0013193622394705
1681484189.0034797,0.40686723156893173,-0.7178360936621908,9.74057030081016,-0.0010124071138238571,0.001067952439281176,0.0005910709110561
1681484189.0134797,0.2895769281418574,-0.8251821073327911,9.760323727937497,0.0013412451857484889,0.00017164545719253963,0.0012064769357916
1681484189.0236645,0.1416391541544095,-0.7802718250786108,9.856976517444666,0.0006669632104399699,-0.002721005424331112,-0.0020509061909738
1681484189.0334432,0.584217632256026,-0.5273864203898607,9.73562788236101,-0.0008615428027319714,0.0007196377310444459,0.0020737281843561
1681484189.0434835,0.1646714116704238,-0.7580145482215871,9.849630387272505,-0.0011331039105587288,-0.0022348925879329407,0.000578031114443
1681484189.0534694,0.41119953607617415,-0.9341000622754521,9.662005928862985,0.0010238071135062253,0.0010612399799970432,-0.0035045265726271
1681484189.0634604,0.27902468806017533,-0.6577767722944996,9.834406988689206,0.0014649076688321198,-0.0012603513816093993,-1.355132958774847e-05
1681484189.073433,0.4013637784488069,-0.687500028421626,9.74766266959991,0.0019749001294624632,-0.00046537645464831204,0.001996257105517
1681484189.0834672,0.41671909654327094,-0.7240533339028516,9.740936623453798,0.0010457801671548547,0.0019784209452889433,9.708269094193892e-05
1681484189.093444,0.30815876378027,-0.6680379466104244,9.80785954627271,-0.0004476726813226333,0.0018044559370565952,-0.000531713249487
1681484189.1034274,0.17248370131240554,-0.9243399014388142,9.803088999940698,0.003117428674019285,-0.0012316779772667257,-0.0018438058945808
1681484189.1134338,0.37066453839765007,-0.5042655904092382,9.844605132280778,-0.0002747868606856712,-0.0012946335582345672,0.0004532315029304
1681484189.123674,0.2375629125148777,-0.848547168467171,9.797253828303923,0.0015755569727937309,-0.0028521482493788397,-0.0015897240995887
1681484189.1334765,0.5413124243279612,-0.6000569716114657,9.698023565295799,-0.0007203464406601883,0.0012687444987330044,-0.0003830958198282
1681484189.143538,0.4025956602407381,-0.6902955231887303,9.753155638885413,-0.0010608163703307147,0.002317045873191765,0.0005575359642047
1681484189.153452,0.19099126401876693,-0.8667246755922486,9.818261266093954,0.0023630763521350147,-0.001183231938392377,0.0009338052437182
1681484189.1634276,0.3640006155117581,-0.6416120083818161,9.795818076993049,-0.0002863521304083552,-9.211267454403333e-05,-0.0005153510760042
1681484189.1735458,0.43036150183565,-0.792963243853623,9.705242216438327,0.0016481892786948127,0.0017649568904749616,0.0003947444452446
1681484189.1833804,0.32605026098728673,-0.5468255071228505,9.844888894028887,-0.0013994562459001508,0.0012918436874563382,0.001304084911268
1681484189.1934404,0.23766534262270972,-0.7450127960074502,9.818055845123565,-0.0019280791767691953,-0.00016028332421818856,-0.0002355763030696
1681484189.2035122,0.42463889722709336,-0.8151921427698673,9.694955867887844,-0.0003500542442996611,0.002243647433189529,-0.0008930987718973
1681484189.2134342,0.2817282061978012,-0.6818957383874269,9.819269779224593,0.0003473294532676911,8.96920211169897e-05,0.0021728317911278
1681484189.2235844,0.25144969527844363,-0.7713423153812207,9.80513510685617,-0.0018572818710064943,0.0002685198959143291,-0.0035194179549339
1681484189.233451,0.270259270357651,-0.8040593550263933,9.782084454428077,0.0010588527236392604,-0.0017245073612613916,-0.0010156487155232
1681484189.2434185,0.4556565566188808,-0.6821809355750905,9.724925658432314,0.0006043525872972971,0.000576222833881686,-0.0003387643996152
1681484189.2534747,0.2951670242542055,-0.7476564418421896,9.799232721166794,0.0006125622801742027,0.00010571496567918666,-0.001382219143537
1681484189.2635036,0.17852631406737202,-0.8254556547992367,9.821785712407156,0.0020143846367650575,-0.0028052353772964646,-0.0024286543525282
1681484189.2734325,0.456531372008399,-0.5237950836759164,9.785655866960568,-0.0010146355015801737,-0.0010014338709954367,-0.0004114023217458
1681484189.2834728,0.25112168957390607,-0.8051749645080664,9.792912465172904,0.0011333418769056084,-0.0029508901630501527,0.0001842499437283
1681484189.2934606,0.5207889742413835,-0.7535534126907808,9.675734513824878,0.0005183221779715855,0.0016110942806700133,-0.0018117432523045
1681484189.3034544,0.2046008331216286,-0.7120256696113494,9.857771188853123,-0.00011015954986928051,-0.0007827465694031131,-0.002269579101679
1681484189.3134255,0.2915081006169863,-0.6574404603116236,9.811289136456718,-0.0010507806893384716,-0.001788975047993811,-0.0018761907744679
1681484189.323516,0.6431470385006278,-0.6794610989685913,9.626202096506342,-0.00033179223722244034,0.0037047095963402494,0.0008998664521154
1681484189.333444,0.16719092273256017,-0.8261624620491932,9.833280613015654,0.002012528212790581,0.00020257483139093753,0.0010269318841405
1681484189.343398,0.1782571927727814,-0.6962601801644552,9.861711758470104,-9.338540102974308e-05,-0.0019383655796662716,-0.00179684185828
1681484189.3534222,0.45573836055223704,-0.6908312182711881,9.719561593573466,-0.00018428244237001155,0.0003929206259990752,-0.0007802208460394
1681484189.363471,0.27010729148406276,-0.673933743192169,9.831142578256209,-0.0010306624440929446,-0.0009515134519179921,-0.0007634412072125
1681484189.373492,0.48858462174488815,-0.7024919555797356,9.704336776313548,-0.001840543113359618,0.0024693755810343745,-0.0014373848720911
1681484189.3834505,0.20291498831877386,-0.6789025645743926,9.863465774281686,-0.0010764915477216026,-0.0012584964698214144,0.0015890683821875
1681484189.393484,0.4993741227351121,-0.774219008534485,9.668336919340202,-0.000455509436755949,0.0025707304355284586,0.0006506547174889
1681484189.4035754,0.25134369885114916,-0.7324865978396461,9.824833440515837,-0.0010631249160065028,0.001253455929077187,-0.0009866086806628
1681484189.4134183,0.32232454909408864,-0.7009001960211598,9.798812229307359,-0.0010876691761367327,0.0005993028037764857,2.8915932076820907e-05
1681484189.423457,0.35226928735837065,-0.8253570077275437,9.727143838655715,-1.9270572926411744e-05,0.001789531698279305,-0.001984988808957
1681484189.4334517,0.25276030648773307,-0.749189012875367,9.822886482689317,-1.1070880187031723e-05,0.0004372422612963648,-0.0028976753860238
1681484189.4434738,0.31570282584533454,-0.775647145990184,9.763825314205805,0.002124299499279881,-0.0006766065373853129,-0.0009057482279363
1681484189.453424,0.3767055093049164,-0.6576416931571467,9.779157226676546,0.0016664598090323707,-0.00045756650351977076,0.0006726645474795
1681484189.4636257,0.39621340497679036,-0.583080260072583,9.794670118147037,-0.0006998667732731178,0.00046110045221499715,0.0014992878346187
1681484189.473554,0.25650996531688053,-0.8970170500054752,9.768789867302877,0.0017446540497429296,-0.000431821862509441,-0.001057004094449
1681484189.483447,0.3761134129714907,-0.6869729783480472,9.757552850389729,0.001656010177111277,0.00014147772745950178,0.0001101216726478
1681484189.4934218,0.3096186005382063,-0.6006508437658687,9.826481664690347,-0.0010783437003362415,-0.0002113067198329809,-0.0002467414637554
1681484189.503493,0.3709447239851404,-0.7202037810263721,9.75533549121311,-0.0017764636487772997,0.001091415316886636,-0.0012291211209717
1681484189.5135322,0.29207254840847535,-0.6573314299685726,9.830221248510739,-0.0018088809330729805,-0.0008673427573195352,0.0012631086824935
1681484189.523492,0.34019785388855434,-0.7922972444874539,9.751912485424164,-0.0017422172725644674,5.467270563240212e-05,-0.0012503354850683
1681484189.533447,0.319076339232496,-0.7847654444284252,9.766745528255763,0.0009336787087253003,-0.0009962189406940158,0.00111409482956
1681484189.5434384,0.3890272082542036,-0.7669765400132298,9.725629094596147,0.0008785636390132882,0.0007956371065088065,-0.0008714620530131
1681484189.553487,0.2626364877558634,-0.6459330162479588,9.839820383176072,-0.00039512436285090303,-0.0009865476550564498,-0.0002966686192426
1681484189.563611,0.3885802484166013,-0.7412048553339287,9.74691704759635,-0.000975908696603811,0.0007546428163458003,-0.0019905648700419
1681484189.5735672,0.42153041231003047,-0.7548196855016379,9.723473032325996,0.0004166019119551421,0.002156486522160574,-0.0007232106331262
1681484189.5834925,0.129859747705596,-0.6920771859797553,9.88920205875234,-0.0008421539618352388,-0.0013039117933368485,-0.0021056633017483
1681484189.5935123,0.34051354688976915,-0.7789494101105062,9.753910451336317,0.0006147967649884598,-0.0014332053901782256,-0.0013557702809098
1681484189.60356,0.48437943597418937,-0.7923671467259698,9.67814691237961,0.0025020236028492015,0.0014579982624051285,-0.0005484959151122
1681484189.6134498,-0.22989470237522058,-0.6279953023382303,9.728409815154894,0.0004345074822788257,-0.004936465925791059,0.0003071847564082
1681484189.6234934,-2.903396445482209,0.14720964652641247,9.9149763290331,-0.004060075097445914,-0.057477196197726114,-0.0328437325119498
1681484189.6336572,-0.9383428791483366,-1.2107755796187847,11.21762359892515,-0.012681184451548528,-0.10549554419499356,-0.0892798390745643
1681484189.6435194,2.9784156422932035,-2.5349405826564637,10.610632895216574,0.009005405979996946,-0.10344808200079783,-0.1150786813854697
1681484189.6534996,4.634451065685584,-2.453382303652139,10.350541227969037,0.02353258123509416,-0.08191833166862585,-0.1256265502929214
1681484189.6636736,4.27597898173973,-1.5096734937210587,9.066293415439388,0.032441767734341244,-0.056003635265052636,-0.1210224491118911
1681484189.673489,1.3826494313311792,-1.5246379335307292,9.938689096784106,0.03657220516851246,-0.08247513855946771,-0.1262755107640746
1681484189.6835012,2.206559756328735,-1.0915608666278727,9.580991902021507,0.03325346650245702,-0.09633529853777177,-0.1422921430825713
1681484189.693512,4.38562245058589,-0.7070559074380023,9.569331310869039,0.020505854710977673,-0.07600146856982913,-0.1481949102639678
1681484189.7034469,4.057374026594666,-1.535124189377376,9.597137482453952,0.018943882284701154,-0.0517419166297065,-0.1562060725450042
1681484189.7134492,4.123682807824289,-3.026383528011486,9.740486408524609,0.03966528824835927,-0.023747094812098565,-0.1576792758464339
1681484189.7236154,3.514336930158343,-1.050117837253661,8.512475646836542,0.05384228195921682,0.008862699843912662,-0.1466905337333205
1681484189.7334826,1.702434565873728,-0.10318992029672325,9.805063914598579,0.05269808478641014,0.02443136669313454,-0.1293019664048675
1681484189.743488,-0.5274671433043113,-0.05816968300563952,10.642519782930211,0.054758691812618075,0.007603598858287462,-0.1024140205740455
1681484189.7534697,0.03459552097189208,0.15414750980077196,10.973169253749024,0.05570293282597638,-0.007511841321920241,-0.0804398146032813
1681484189.7634854,0.05332465691987568,1.4379952400604064,10.489493296608824,0.04201802745668014,-0.016197418043972032,-0.0625298034905914
1681484189.7734468,0.731606908847364,1.5281536865942247,10.359603926789017,0.016630638707245654,-0.016512474538907508,-0.0512046974658492
1681484189.7834473,-0.22713954710533957,0.07840589321370818,9.5487499100292,0.00932841044507361,-0.023920174069898773,-0.0452740092336658
1681484189.793516,-0.6642718032237536,-0.7343788304359086,10.0721338123072,0.006568943254693128,-0.04257959797861904,-0.0640969735145095
1681484189.8035035,-0.3484274443984372,0.7867426220456637,8.830917034135693,-0.005114257242044848,-0.0522271622786134,-0.0845245581626418
1681484189.8134985,0.7435485580892648,0.7304935099399441,9.811591630660484,-0.03720143205421116,-0.05025834209510174,-0.1010236379265311
1681484189.823544,-0.4907718099296307,-2.2399491753254477,9.83882874138364,-0.012662644606235443,-0.06513690389211052,-0.1056442570447448
1681484189.8335187,-1.7016279180796965,-2.7558023138495797,10.297479540605192,0.014577431814314718,-0.08947351982870834,-0.1036445435642722
1681484189.8434951,-3.1879188616715246,-0.14627796221033315,11.314992524723664,0.022341143583188568,-0.1477465762383156,-0.0960518133401397
1681484189.8534667,-0.8150057261944872,3.5846827110090076,11.59355493323571,-0.018792481717880852,-0.18991233730768992,-0.0824592423200133
1681484189.863523,-0.8348897022224531,6.761326848886097,10.639604694823747,-0.1096697203611733,-0.22150618433468297,-0.0615275513886932
1681484189.8735447,-1.893517739578757,3.7231953706013785,11.978664099508118,-0.17836424675782728,-0.27974154998017464,-0.0579567675053599
1681484189.8834984,3.102028568764488,2.644983611540567,10.65900724629894,-0.2206519141095529,-0.294806885172942,-0.0508117463945869
1681484189.8934956,4.584078938923847,-5.037613572564307,8.781520054999767,-0.17839812643551609,-0.26499148665068334,-0.0657539975404266
1681484189.9034786,-0.14720081151027542,-8.799665090513178,10.434744636605561,-0.0751296494565149,-0.30529399586945755,-0.0698448431252959
1681484189.9134867,2.492803885086109,-4.745553317579165,10.710057053956657,-0.006779155778286368,-0.33223180587607154,-0.0615502980112556
1681484189.9250283,4.430897587062352,0.6805126958887743,9.633682306465627,0.0007495738260718507,-0.3100270887657227,-0.0299333606421474
1681484189.9335215,1.6034190479480954,6.757008149619325,11.821839725883166,-0.0737740109914504,-0.335378244629738,-0.0117497819050673
1681484189.9435852,3.6659114685980945,7.1299242142585895,10.313370438683211,-0.17209567461437617,-0.3289075272750379,-0.0067051437258247
1681484189.9535158,3.3789539959985477,3.4368078540766884,9.595907455205186,-0.23417028928464365,-0.31838556484407554,0.0039383766666528
1681484189.9635162,1.9287439530353523,-1.618612535007998,8.696167366166355,-0.21760844790461006,-0.3316423389518956,0.0100670715287801
1681484189.973493,3.033847127518054,-4.216048382461047,8.533451401675816,-0.17016464067482137,-0.33168173093497916,-0.0104857154696706
1681484189.9835286,6.0768062048092535,-3.239261737810461,8.56142249011024,-0.12968782668206644,-0.2811727071479196,-0.0065496771171215
1681484189.9935296,5.878976080555223,-1.941504848771824,8.404872981279095,-0.10056139793504282,-0.23088942136873047,0.0018510739278521
1681484190.0035255,4.587507708805636,0.4367982550177683,9.600982987558973,-0.11140311471061513,-0.19553094667719087,-0.0132468848064068
1681484190.0134892,5.874686530550349,3.2994196767270174,9.792263480722395,-0.16956977644287974,-0.1444778154287161,-0.0028672686352852
1681484190.0235827,4.1222967150000365,-0.1549628047379829,9.487502918874538,-0.18105371479423837,-0.11608035283787423,0.0153747915715452
1681484190.0335217,1.4508003496491173,-1.8763824035398617,8.926581787588567,-0.1819100450529659,-0.11972551441437829,0.016596022756445
1681484190.0434957,2.3607819207129213,-4.264715677635057,7.850567355150678,-0.14210800262384024,-0.11889604741693523,0.0126504104078289
1681484190.053543,2.6589079310423562,-5.139619701460807,6.698127923645581,-0.09917479071175889,-0.10530256525750424,0.0141903150320526
1681484190.0635014,6.5477452077572975,-3.835872894750321,10.175443022348915,-0.053504168062825805,-0.0735983460800732,-0.0058799895964089
1681484190.0735111,6.3838071070213855,-2.6636731639771343,8.420273791353,-0.047334928791602136,-0.004186804439228151,-0.0286098395049098
1681484190.083496,6.52523443816929,-2.745552766233006,9.826233702185622,-0.020837270801736016,0.04086976006054617,-0.0529757302760604
1681484190.093472,2.8322180430698136,-0.9428969005556603,9.596157827536773,-0.02982609581986999,0.06311073629403936,-0.0949535530566695
1681484190.1035972,2.6413033824258627,0.9727391475654191,11.565523315398458,-0.05479277877061439,0.044049950284364994,-0.1015504163264754
1681484190.113663,1.2371099226269202,2.4648530799389867,8.969411524389153,-0.09353351473921645,0.028783544509257693,-0.0876242753624442
1681484190.1237044,-1.4086894608089064,2.615598403240914,10.174462788388254,-0.14103973456055496,-0.036102495878704795,-0.0760005500673774
1681484190.1336565,-1.0155783540132277,4.510660214700539,8.751875767072098,-0.2018900922367894,-0.10136759016208294,-0.0375721019267562
1681484190.1435926,-0.1676451104213447,3.4484117746042933,7.033757076264958,-0.24834384583365685,-0.13712461433797804,0.0064474034548279
1681484190.153664,-1.1318916009902957,2.073983562261059,7.321638875144027,-0.2806976664224326,-0.19246080303522556,0.0525019790471073
1681484190.1635623,-0.1861552087452584,-3.2804174414598117,6.050475990966402,-0.24721778942327882,-0.22341477713216484,0.0818777445197578
1681484190.1735566,0.8480698106470115,-8.143782266307422,6.319508439154805,-0.15234472438694063,-0.23812037705209949,0.1121409002185341
1681484190.1835887,1.6648279494119362,-12.738755295656565,6.22365404278374,0.005452524704083816,-0.2356848701652674,0.1162917304277893
1681484190.1936798,3.1749141506984,-9.152032848180168,5.606140546557263,0.1356740975789391,-0.2153927640467089,0.106252080524015
1681484190.2036,7.650853505793699,-2.1186853564297548,6.328415662373658,0.15907375017624972,-0.13735900136798965,0.1007312524557587
1681484190.213539,10.972436621078495,-3.551466539700846,9.023447160819156,0.17521883092991772,-0.025209941593520198,0.0912212792277809
1681484190.2235727,15.685848102018575,-6.464727566265931,9.148212730334446,0.23306034800444406,0.15166119685138388,0.096922888183641
1681484190.2336457,15.62353100825565,-8.910424918065202,8.235479358128337,0.3198333152382731,0.34675984212905897,0.1150152001023765
1681484190.2435777,9.600792831977335,-8.578515508604138,6.919433679466497,0.4071633225892912,0.4726227020890301,0.1261411446571823
1681484190.253554,6.556968738330883,-5.8749790186107225,7.475077984647672,0.4633808515289166,0.5596400000007365,0.1424380529165741
1681484190.2635329,0.16834747484678902,-1.5306712426179312,8.914365634789535,0.46052544287419783,0.5777840039212147,0.1475343543529984
1681484190.2735868,-2.7864171178626647,-0.07000567645826908,11.15209318454002,0.4363714373189286,0.5321518754837327,0.1334244001150604
1681484190.2836716,-4.609115507977925,1.9097194298570637,11.614708220564275,0.38526910391822966,0.4734267106487778,0.1121474492788788
1681484190.2936473,-5.946702687229901,4.2952840911536105,14.116468628383938,0.2990408820883156,0.3836449888856003,0.0770705926657196
1681484190.303581,-4.922670414663893,5.088774697002813,13.038419594323841,0.20822916962619473,0.3154799224688738,0.0415980617940899
1681484190.3135822,-4.907360373492229,5.162666998744329,13.170732586503062,0.1125855315669705,0.2531423297452646,0.0105569695547696
1681484190.3237228,-4.679015776051994,2.505561149644782,12.498816673254375,0.06468746536513617,0.18188529684905042,-0.0142686956136945
1681484190.333775,-1.8936917522570056,1.9756324681252857,10.736222302276573,0.03750463109617464,0.14891171170967876,-0.0303181235253337
1681484190.3436174,0.4338452614505382,2.518844942889354,10.01027988894666,0.01107393910359305,0.15011538717702988,-0.0322467770933631
1681484190.3536134,1.6072973501145635,2.1965226451098014,9.259688915667686,-0.0056986416564113835,0.16150720589641152,-0.0290807702153447
1681484190.3636425,2.595345875804192,1.3346220652273653,9.083953540792084,-0.014488702473049725,0.19307117983998368,-0.0296837047248605
1681484190.3736968,1.0767866576574503,1.9652319195007641,9.448259525584978,-0.026596184252766872,0.2030983625964869,-0.0227986939757589
1681484190.3835285,-0.30173118667012483,1.934875004048519,9.56469693261749,-0.04181429552373749,0.19416760927552199,-0.0108014170586589
1681484190.3935533,-3.870729447356205,2.5335289780579453,9.835365487430371,-0.06201427250202727,0.14507621656156833,0.0099558017641779
1681484190.403617,-6.8870260020933,1.9583940736026788,10.29574904071619,-0.08291116579869187,0.04411149569652719,0.027083803662705
1681484190.4135394,-6.949741110749818,1.7714285128098646,9.018100521213022,-0.09909903812715264,-0.050101895141809606,0.0394906948745724
1681484190.423615,-6.156058920077962,-0.8623400646507626,8.764309516719779,-0.09776771558433249,-0.14019354105225398,0.0481791968882557
1681484190.433558,-2.8273653971832617,-6.490970805945455,8.084064428849663,-0.02896569795866622,-0.1871880297056355,0.046171731078672
1681484190.4436607,2.7969361238246178,-10.773040431477268,8.563057915163999,0.09189469445171468,-0.16760253168930234,0.0421714584768291
1681484190.453646,12.985945091887425,-12.221494518272898,9.561944598172047,0.2352380474317827,-0.02766725016627034,0.0653176445007797
1681484190.4635808,17.207541630474473,-5.791697970321158,8.156016755917557,0.3097300483051335,0.19383125434638082,0.104361600005674
1681484190.4736264,14.789751445728404,3.500713796998492,10.76922367703499,0.2630356623593478,0.38024242180014634,0.1395531434059616
1681484190.4835565,10.693703790950517,10.435338153097355,12.050707840922001,0.11909510137657121,0.5376499792755485,0.1522457140923019
1681484190.4935527,1.177571272645038,5.532978075624828,14.341255223097752,0.0027783920926641482,0.5632136259258128,0.130405126833963
1681484190.5036144,-6.096045614548835,-2.0488588009122446,12.829186113462018,0.0008062700611146259,0.4905309121905382,0.0718582409859177
1681484190.5135558,-11.263805166896242,-5.656322406398348,11.744946735116773,0.051274250021493474,0.34414042921757093,-0.0038640762254122
1681484190.5236545,-8.49299893932886,-2.0760444487642773,9.045436231363935,0.0786627322404717,0.21398279277320548,-0.0481418569147113
1681484190.5335934,-6.098068589374493,-1.2725727910884892,7.133541904971323,0.07667919077133324,0.13657176174686955,-0.0879288178443435
1681484190.5435617,-7.189172857364982,-2.2752831735390333,7.638923137137999,0.09918720734040616,0.03592655127497462,-0.1114606421947005
1681484190.5536978,-4.156353590257149,-4.012699924301821,8.24672788281665,0.1295977157663385,-0.018398203567065875,-0.1042084333061698
1681484190.5635788,-2.4540572633466504,-6.935756720081413,9.43147425987654,0.20403779835286592,-0.048600633215735746,-0.0645481061696532
1681484190.5736454,3.604086992945253,-10.20665588603576,10.789269023840605,0.3167003250050656,-0.004681864800357098,0.0086382857949015
1681484190.583778,4.461282661803686,-7.608675851146234,10.527750888081552,0.40933154496155716,0.06302842533326432,0.0890454861760612
1681484190.5936272,3.3140573413535104,-2.811390955308411,10.57748173889349,0.44068317197217466,0.1187719495134977,0.1384920317173477
1681484190.6035914,-1.8857109464024635,1.9650592280755872,10.911235173349862,0.41497422403925477,0.12040272397820104,0.1746493715286728
1681484190.6135628,-2.0085896891681223,6.775352594404,13.442660819682057,0.31383393960570427,0.09565504666680043,0.1724760371685501
1681484190.62368,0.12629708451142613,4.191517683370567,12.402785613868874,0.2310357658763865,0.10902116109475957,0.1585950392723557
1681484190.6336615,3.1919816747073995,0.7030812256407067,11.85663750294361,0.19782745314890637,0.14912961958830798,0.1375340658665176
1681484190.6435616,4.738209208934586,0.8183453749270022,9.556043506125164,0.18326215825700917,0.21872788318337524,0.1170874077320572
1681484190.653742,2.6753055122701768,3.1971822545785216,8.999044099016373,0.15114056876094695,0.2601753927078476,0.1084113034844871
1681484190.6636176,-0.01276597393830243,5.717696300739427,8.457524093420801,0.07996711871542811,0.25949872092682635,0.0959643635392662
1681484190.6735396,-0.6574135149676645,4.730270792488748,7.8520624231086735,0.03067427648534976,0.24206481267226668,0.0957041371107574
1681484190.6836205,-0.022240437432935568,4.174017783874815,7.483430423382097,-0.01275011506644184,0.2260574677559048,0.0983478787780281
1681484190.6936188,2.4399777524513255,0.9636527619792556,7.5168758177083665,-0.016197703080254075,0.24130429693869662,0.1059030133724686
1681484190.7036662,1.7005538739897061,1.4380321271335426,7.920936784050973,-0.016829298424124815,0.2424753179162855,0.1183646086097237
1681484190.713611,4.6862729414761075,1.598210231165237,7.9373102897143815,-0.024009497379907777,0.2831606247241033,0.1266672897577759
1681484190.7237492,3.5888647947487335,2.4687829454138432,8.711986315458152,-0.0405739841707025,0.31132934845950794,0.1421918410301682
1681484190.7335446,4.732796028361453,4.583643500206774,8.941333625039654,-0.08585458046504263,0.35135949911841635,0.1525054115295883
1681484190.7436051,4.47084572092266,4.123072012452071,8.460822092283403,-0.12975055105107114,0.3947120461536678,0.1612772929907318
1681484190.7535455,1.4142516542995986,3.477352855989631,8.816511533658486,-0.170024057775377,0.4131619908304632,0.1571749884129044
1681484190.7635608,-9.791279435983268,3.248476852034286,12.207444776068844,-0.1980213721357614,0.323099745315979,0.1420671332121368
1681484190.7735546,-19.820970954208686,-1.2031084360216957,17.93774455920253,-0.2076927261485123,0.06243587500623156,0.1061221572995659
1681484190.7836113,-12.252951827600798,-6.327942384456397,14.937597565380303,-0.12776202840686918,-0.1022330913173301,0.0788235578179832
1681484190.7935338,-8.146464670173005,-5.510758923673447,12.611275630580163,-0.057384363705516986,-0.20965182913433925,0.0440192695200916
1681484190.8036492,0.09299817201349792,-1.5258947724871446,9.76592609622458,-0.04405588163915175,-0.21128208510875623,0.0245371635497089
1681484190.8136096,1.6501501442459,-4.513380176460343,7.259619853051279,0.0011665258727878852,-0.1764318892659645,0.0199205938220497
1681484190.8257904,1.535060921758988,-3.445839758159725,7.271987280199568,0.04201588143446949,-0.15087266843882277,0.0197643886745449
1681484190.8335824,3.116514583433845,-3.240427152317748,5.39980904074959,0.07434485621122516,-0.11028147683209386,0.0360482435167309
1681484190.8436186,1.757872913446811,-0.506839717139493,6.359127979809369,0.06655062938713725,-0.08103653816027102,0.05335925030117
1681484190.8536496,1.8428539099652828,-1.68054489357264,7.2276856581435815,0.07295074735092145,-0.05377911223013476,0.0711813780904289
1681484190.8635976,0.7521056538551614,-2.0289270196935263,7.495422263792525,0.08203721034448148,-0.0437233375099097,0.0818601835012909
1681484190.8736062,1.2602073430394816,-1.3276234817717443,8.032324403825774,0.08957853292700334,-0.021775648632932788,0.0969037699938293
1681484190.8835454,-2.9197618767826317,0.10163394024611697,9.68530175400429,0.08235237495195294,-0.048433485693565294,0.1061412754893776
1681484190.8935318,-3.730622022317041,2.0058239213618845,10.975460593490201,0.05025523495767344,-0.09137692928768527,0.0984608370304581
1681484190.903603,-4.4285980746746025,2.813459263837214,12.124846108536124,0.0026235663816618344,-0.1353542268653821,0.0785328585148331
1681484190.9135542,-3.784105537820915,2.1554227053893698,12.551631092115443,-0.02895326028724112,-0.18608178236675713,0.0491311203182217
1681484190.9236326,-1.4694997408103405,2.0520642702955185,11.22829964661409,-0.06370652507043847,-0.19523565790907868,0.0107012258336421
1681484190.9335938,-1.1268993577493243,1.2429421479438731,10.56750598369965,-0.07449452118029729,-0.20273924076098937,-0.021080724200559
1681484190.9436066,-0.933157497271114,2.041836433516314,10.046994384060397,-0.08904184105539681,-0.21053880045223658,-0.0481795866548541
1681484190.9536576,0.8004396754394221,5.483887007674762,10.062550958489247,-0.1464445945885182,-0.19324277264648537,-0.059908994710398
1681484190.9636116,1.9231045374685065,5.601677503059153,9.879079917316245,-0.20637688947129684,-0.16389360459470562,-0.0519849297165397
1681484190.9736552,3.561515379698608,2.871674751068657,9.757976293180704,-0.2385867344998297,-0.1183550783561898,-0.0412832771002772
1681484190.9835525,4.626495804210004,1.41845817945206,9.399414622405006,-0.24478208072208935,-0.0585667969340723,-0.0329900917171958
1681484190.9935749,5.416766547453643,1.6722314524509445,9.541790059296137,-0.2561146546201362,0.009720110655634594,-0.0132276297121766
1681484191.003597,3.733297763777949,2.3058001841700815,9.880966717739867,-0.2781114698487409,0.06184070712904132,0.0093445458874579
1681484191.0137277,-0.35944129139532977,1.3735635005385003,9.924482927163274,-0.29074766774251637,0.05558466321436604,0.0390848170459743
1681484191.023654,-2.8220775524362938,-0.26624968265231375,10.116561762557424,-0.28796190720008663,0.003779805361673387,0.0485521915793892
1681484191.033586,-2.0087241516252963,-2.3906199743178074,9.211034287404926,-0.2628956892565509,-0.03783624523907674,0.0516965452075477
1681484191.0436945,-0.7520169139939251,-4.05681002801642,8.428381525885358,-0.21839138518678153,-0.06753772885691008,0.0434278685093399
1681484191.053678,1.591058785185866,-3.807984289833128,8.133270238863341,-0.18007515001462618,-0.06762280966930449,0.0290365579963203
1681484191.063633,4.656331208376112,-1.9955066075148813,8.719436054278281,-0.16603772081281004,-0.02790575567795241,0.0169760591775652
1681484191.0735855,5.5971918223125785,-2.2616029260193367,8.673992639518104,-0.15747724187871168,0.03377144540623656,0.008887719126093
1681484191.083584,4.123465975666714,-2.5180708439050656,9.35974872323182,-0.14892057375721107,0.07713829890827985,0.0061841916718062
1681484191.093603,2.3733929602821187,-4.996785641786085,9.103839973721684,-0.11001214970925577,0.09321045934289056,0.0194452337414499
1681484191.1036992,0.23352948242729216,-6.367368241575264,8.52276797971729,-0.048852692019950565,0.08631257609512297,0.0214727807283874
1681484191.11358,-2.5539969873368946,-5.875208486331978,8.511979329339214,0.011153807578828152,0.04618622536315046,0.0198539316148039
1681484191.1236355,-4.401113539285388,-2.1680040249466863,9.188832139032007,0.026899717206444268,-0.01478518663977533,0.01251078559612
1681484191.1335945,-4.4250234038012275,-1.2787818147509713,10.72994713945728,0.01699292607955612,-0.07796819275071641,0.0052555024117704
1681484191.1437073,-2.555555978447123,-1.0478809018933777,10.835915829848078,0.012772513792559234,-0.11264827989355149,0.0057161475956913
1681484191.1535835,-1.8577772002514643,-1.1756872765810489,10.99088386311644,0.01137190988273961,-0.13440935082188432,0.0053800090641256
1681484191.1636298,-1.0494553760611836,0.26740481908358393,10.801541451008728,0.0012273547322344174,-0.14128797726589445,-0.0013396590988609
1681484191.1736774,-1.7219689413849057,3.1415232603252523,11.66710788183389,-0.04662241526777722,-0.1584616329108809,-0.0099393513559821
1681484191.1836314,-0.7283344955918541,2.992025542919527,12.565653446381326,-0.10078529546059692,-0.16345549847973034,-0.0268774565815452
1681484191.193574,1.0332230130975528,-1.1810243916676728,11.929404293748846,-0.10719720175569723,-0.14241130589473044,-0.0404251415788654
1681484191.203734,2.5130501860677996,-3.340857347548512,10.86746389759068,-0.06847688262046193,-0.10664565211612496,-0.0475240137934211
1681484191.2136784,4.016343973232548,-1.5688787095547658,9.662717203498667,-0.04960545004638997,-0.04151792754864141,-0.0426011655985835
1681484191.223646,2.8723553284944527,0.12112626624764102,9.278723898866737,-0.055482168330556615,0.014008412138626527,-0.0174248826264861
1681484191.233619,1.9334828124577712,-1.353545797962165,9.47228328657037,-0.049085043989659835,0.05192754997718389,0.0089530388318475
1681484191.2436793,-0.04494722306202731,-1.6074454933157447,8.985117185603656,-0.03393003187918202,0.06373892855748894,0.0330175484955784
1681484191.253641,-1.0486434794489983,-1.1693803198983754,8.699139263982714,-0.026276555909026583,0.05838734583549731,0.0607171717525001
1681484191.263643,-2.5909630217978155,-1.8693256029190675,8.525163143950818,-0.01207629586311887,0.02956490933540895,0.0722174558282371
1681484191.273661,-3.315464204953902,-3.62119539456524,8.76367831151307,0.01708236988033203,-0.020953522290170813,0.0658184203744408
1681484191.2836418,-1.7919790790881955,-5.309638378395177,8.295485024360104,0.07049785905779767,-0.059131388597234845,0.0677662852645393
1681484191.2935996,-0.46054867054948007,-6.191949101473707,7.909599800566518,0.13660073415288757,-0.0779698944679995,0.0632154818118092
1681484191.3036494,-0.15647127862958765,-5.34802875857021,8.198876933773784,0.19408894275874164,-0.09691043654808859,0.0603291045368191
1681484191.3136573,1.290426174434077,-2.9669310979037973,8.59995285950198,0.2188645795515364,-0.09601215860926572,0.0624797518790241
1681484191.323745,2.4673186682142307,-2.3154332961781905,9.363077185981272,0.22934644068895035,-0.0780063424683792,0.0728052470326897
1681484191.3336544,4.127147681934606,-2.2350282173283667,10.227129786503872,0.23270614135870482,-0.04260261996904093,0.0938645440578934
1681484191.3435862,5.649678533553327,-2.3867274928849267,10.279353193604354,0.24489717032532374,0.012962831056686535,0.1122677389026161
1681484191.3536737,4.729381938347876,-1.4026214552362832,10.080575994237536,0.24459147917364202,0.061176854178491974,0.1247967767954346
1681484191.3636568,3.475597505307175,0.7302353108182003,9.535753638100035,0.2271821241081205,0.0951022593196157,0.1156311843038078
1681484191.3736925,3.1918233966981275,1.0940129645640357,9.101527816345882,0.19592650726101524,0.12284393639561522,0.0995735365391251
1681484191.383567,4.121937718153276,-0.2171132216713029,8.291610248784803,0.18821449767068274,0.15767538022184682,0.0791721108794685
1681484191.3936236,4.005541420749649,-1.3919489770835052,7.0152756798727145,0.19673641579743376,0.20122570045358731,0.0530137109995361
1681484191.4036543,3.6079943933441347,0.48324493635263677,7.035779058618881,0.1911100029186822,0.23591071610308464,0.0387760873377796
1681484191.4136455,3.4958593129096576,2.4108624905407394,7.682049837883884,0.15545945472900463,0.2684241803658618,0.0321969750762459
1681484191.4237423,3.996128686674883,3.589763208049695,9.344174987963495,0.10946551276194755,0.3004114869820807,0.0346685301006313
1681484191.4336247,3.94809110720949,5.8502562989896125,10.865727954440004,0.04304553602093635,0.3337448208912718,0.0371026832104202
1681484191.4436426,3.4638045990716257,7.277851777304444,12.340956944496668,-0.03807912498115659,0.36374389155616055,0.0375080506742473
1681484191.4536278,2.7918540612084493,5.662498043140742,12.252604983075521,-0.09844161179753577,0.38715169727747784,0.0247332348913427
1681484191.4636571,3.490260778643807,4.212582020302741,10.671662452510832,-0.13654379968051322,0.4239034625106676,0.0033736445434864
1681484191.473678,2.5736159538525207,4.727678305363928,9.502365138417089,-0.1782707825431338,0.45432836389614273,-0.0134868205099824
1681484191.4836512,-0.0013979266378333697,6.4362161062991925,9.622484304382533,-0.24010275307229587,0.46725000996964877,-0.0453326713799956
1681484191.4936056,-7.201298120748496,8.704847610027263,12.129586067454294,-0.342978829744189,0.4034481503505569,-0.0795660403131965
1681484191.5036893,-14.429552284568278,6.201242567818429,13.983624061969797,-0.425094445114433,0.24432889267489685,-0.1192946967243674
1681484191.5136297,-15.768737063706457,-0.3205554710245565,14.49784280724007,-0.4312251306591239,0.06094127652046281,-0.1342757951974395
1681484191.5237308,-13.300144552175293,-4.242092828405208,13.229895537781555,-0.37255806571999067,-0.10798486642012371,-0.1326540720223907
1681484191.5336475,-6.021618626893964,-5.167866085589862,11.242565022486174,-0.30846606458245107,-0.18316375913022645,-0.1231650349258903
1681484191.5435932,-2.123155769075832,-7.296090652632915,9.140758333815812,-0.22658568004744256,-0.20332335263482365,-0.1249368798493865
1681484191.5536785,1.050048778657881,-6.291077268915288,7.334563829980273,-0.15311372809095855,-0.1709313114903257,-0.124408127045584
1681484191.563696,0.07767241734003473,-3.9952847321580207,7.9493769667517125,-0.11609905853695936,-0.1480487964241278,-0.1192494269966605
1681484191.5737016,0.7981921161594768,-3.3399939367160774,8.579578336719248,-0.09052077888609357,-0.11879464223413108,-0.111948379552317
1681484191.5837767,0.7146871365964845,-2.319091700122633,9.212364021162722,-0.081386173801356,-0.08493515644857286,-0.1068627846002105
1681484191.593699,-0.13611979399222715,-2.0654996944214465,9.666429028221433,-0.07677539171162116,-0.06442853125685247,-0.0964131292461875
1681484191.603691,-0.38263901390886434,-2.30782974873611,9.849042024735127,-0.07299795197611911,-0.045838380145240984,-0.0934622895478728
1681484191.613644,-1.600894514572713,-1.7993279458072569,10.057883164089752,-0.0705660894309903,-0.04602260792378651,-0.0853313666343215
1681484191.6256423,-1.4686289022998558,-0.7398354430243215,10.239819905841074,-0.08619032597935351,-0.05014647496399726,-0.0751806509255889
1681484191.6336763,-1.7049771132288967,-0.4899907760873994,10.209236163214404,-0.10122868810629,-0.06194595465754775,-0.0572542783379081
1681484191.643669,-0.3360681008700784,-2.914948694823924,9.571669973050657,-0.08992239112915541,-0.06613610510596615,-0.0334944848477367
1681484191.6536634,-0.3162972033143791,-5.042594615261813,8.790023263227488,-0.045252425981710934,-0.07099884641538108,-0.0157623861491206
1681484191.6636384,0.1593887575310036,-4.488039279241752,8.32196218419586,-0.0018136734603884672,-0.07511897672267016,0.0048994533677127
1681484191.6736722,0.0002880917093880814,-3.1241365742491443,8.12151414765606,0.02619030315996061,-0.07882535764232958,0.0200627602130647
1681484191.683704,-1.2514656824465786,-2.5507139165958006,8.791853361726595,0.044124186904850975,-0.10305737722100294,0.0244439120829578
1681484191.6937444,-0.14438439416033452,-1.88578510113873,9.150715372660189,0.0491862151554235,-0.11549806759776154,0.0302855845034595
1681484191.703648,0.6080664888088313,-1.951660145760203,9.822668714050328,0.05910891887722093,-0.1204092255779066,0.02676096628015
1681484191.713697,1.9717676032996256,-0.05910971912481621,10.5038531770244,0.047033689904358876,-0.10553436717389568,0.019631997445273
1681484191.7236586,2.9811114879915306,0.6039081369722972,10.934027137056958,0.02405885716744855,-0.07857696094121054,0.0117790249601479
1681484191.7336695,2.0294734149438316,1.4954452414742783,10.76527878412906,-0.0036982794413521537,-0.057258785192759475,-0.0051582895725492
1681484191.7436569,1.0499614247863178,2.015589777331622,10.64989673377088,-0.04025976082327783,-0.05464161245751438,-0.0207004726439241
1681484191.753711,1.3050080382794171,1.197373241047283,9.221665461875475,-0.06356839235862279,-0.04883675187733329,-0.0229679395019534
1681484191.7637968,0.5971314887657295,-1.0060414984206842,8.25915856196715,-0.055490805457616206,-0.051255818478561546,-0.029203306189132
1681484191.7737055,0.9062562655900693,0.4045828463125701,8.0513229913381,-0.06060915144832658,-0.053305497958644046,-0.0269322053104165
1681484191.7836545,2.0043210681662487,1.548400848161821,8.159111264438508,-0.08142576025501792,-0.039438960998725583,-0.0185416818171266
1681484191.7937562,2.6694992549635392,2.0624300197410554,8.639053614190873,-0.11133966817155992,-0.017661749527011935,-0.0120454023167017
1681484191.8036623,3.7247013105805338,1.503759988039404,8.989235599995578,-0.13688015788866773,0.017440080713674217,-0.0018101246136698
1681484191.8137317,3.853326858890887,0.09899615810293033,9.307630755699227,-0.146821306691592,0.05788842565504854,0.0097186069429394
1681484191.8237858,3.6056283296365996,-2.1021149656586755,9.753200036237471,-0.1320081051675163,0.096486488318352,0.0152236891404267
1681484191.833676,2.2997165500400665,-3.0634381052412567,10.17331414340979,-0.09982910255839425,0.12282449532773292,0.021193374642777
1681484191.8436356,0.4138922118787446,-2.3458411359851774,10.988885793785911,-0.08077724549582257,0.12571896233501065,0.0168118185788866
1681484191.8536956,-0.07069954270744709,-1.49206926970032,11.349342315848585,-0.07742243762043557,0.11816359822424848,0.0079588389449294
1681484191.8636954,2.1149657709669785,-1.2650797280103616,10.169968146520008,-0.07684687918301977,0.13179290958464215,0.0165256687865134
1681484191.8738227,3.4779554839450304,-1.8285474433295337,8.313652816720307,-0.0715299382098485,0.17183873641978437,0.0219525757670875
1681484191.8836658,2.072974986662934,-3.7293881012610743,7.517191830188375,-0.04216081087040829,0.19838636550858466,0.0365476894617554
1681484191.893682,-1.3680071188528862,-5.2287804326912175,8.072910664275689,0.004864454023039108,0.187786951610419,0.0332759532571312
1681484191.9036896,-4.121657014549471,-4.0080203870116655,9.262889893730497,0.041255338271558716,0.1379742544450331,0.0179245218128439
1681484191.9137046,-4.635926758506635,-0.36720898827932047,10.5554540363145,0.030029779634344167,0.08385741677879739,-0.0055301229044321
1681484191.9238317,-4.865990308576311,2.6469152690609743,11.612817240039867,-0.021999860115572204,0.02710146214931266,-0.0286043819546226
1681484191.9336853,-4.007984541269075,2.697617773102321,11.836921964569083,-0.08380119609243071,-0.01809705857896684,-0.0624874096869949
1681484191.9436605,-1.4712145682307851,0.43822958941824386,10.674194952147328,-0.1125568319142255,-0.03745027130494659,-0.0778343093156341
1681484191.953702,0.5396681500714826,-1.4209084129367076,8.940668269479838,-0.1037935800233944,-0.028349484923631083,-0.0828468215226653
1681484191.9637678,0.5902176659348546,-2.4338006291739247,8.589685102472435,-0.07975028646001636,-0.020588065633072954,-0.0836256307124618
1681484191.9737055,1.0911771953079032,-2.6959167744169066,8.217524088954898,-0.05356451690073641,-0.005134749957446312,-0.0809459921478751
1681484191.983647,0.6805357629425981,-2.450461821693433,8.208340530444685,-0.029723295656332797,0.008768717194949094,-0.0744458448647979
1681484191.9937449,-2.13601096847136,-4.777982337844971,9.022938869248037,0.010089378080662344,-0.0006780970542879913,-0.0475470696150783
1681484192.0036705,-7.762838826262253,-10.175625727089603,10.508869050734672,0.11603346836682589,-0.07885442236891119,-0.0223210316657546
1681484192.0137188,-9.687003563165273,-8.393782123623193,10.950541750572027,0.20601341993875089,-0.19864787434051395,-0.008690850114775
1681484192.0237782,-6.160697664760561,-1.7217643900660065,9.670817852243882,0.2207097113774164,-0.2684114659714165,0.0284861240029808
1681484192.0336711,-6.410567929226882,1.7575053333005726,10.32025209828702,0.17580846362676542,-0.34293598773957984,0.0603188041091438
1681484192.0437317,-4.1862961885457945,-0.616211137114496,11.004195372922364,0.15109861174326025,-0.39858810547366424,0.082793823206472
1681484192.0536635,-0.8350812767487439,-3.2121057520978975,10.467268558076361,0.16495413293406042,-0.4114320351909097,0.1156394917011734
1681484192.0636427,5.032669047412245,-8.160641252216674,10.891281573213547,0.24143028685982326,-0.35984284991071286,0.1267862308264252
1681484192.0737026,8.912687629724937,-8.362186111753168,9.27237497308881,0.33320779849811927,-0.2506037731814495,0.122668302381086
1681484192.0836508,11.93924558115007,-5.113798451938797,7.479815072302714,0.3822459524111765,-0.09787274598478972,0.1222391489387031
1681484192.09367,10.936326265915856,-1.621985275217223,6.412662389638365,0.40349148859815065,0.049260649589109785,0.1155151340604301
1681484192.1037605,8.79205450953808,2.8236973606294646,6.778998550543415,0.3557077009969413,0.1711361925981635,0.1124873075128075
1681484192.1137447,4.595582015448182,2.132938409183292,7.111369910105454,0.3235097957530569,0.24326182515593564,0.1262970555067535
1681484192.1238818,-2.567143699170941,0.7681653813383308,8.973672638101236,0.304911795959179,0.23561824007122337,0.1273719805717941
1681484192.133674,-11.165895129823213,3.256867152054347,13.614722421086187,0.2692872798654468,0.1278325629955722,0.0957190531731125
1681484192.1436818,-15.596019427283567,10.614906213028032,18.479938703147553,0.12743376166986634,-0.043661306446614125,0.0460695873439785
1681484192.1537104,-12.024141199579558,8.610985401613325,18.508423541225675,-0.0068742726873001585,-0.18499994417898738,-0.0126381882041219
1681484192.1637206,-3.9094721323505603,4.751299842719143,13.432002548442682,-0.06940646663870116,-0.23957817598616357,-0.0606343608855727
1681484192.17368,7.259476510922902,3.587727203630038,8.356717478930996,-0.10669668855936966,-0.1445003877613137,-0.0847886663436416
1681484192.183648,9.749168554089204,6.368779744875737,6.783763093762483,-0.17196955465061511,-0.0019044857460502936,-0.1045810442924026
1681484192.1938589,8.369520150077786,3.216178554124523,6.7546634279848785,-0.2102756422785161,0.11616073823813704,-0.126874746060324
1681484192.2037623,6.274635967257249,-0.02786035523411586,5.517192594414338,-0.21088843260882192,0.20973100625663282,-0.144977660155249
1681484192.213719,1.8766924467203097,-3.460711733688487,5.86632774642541,-0.165981776867783,0.23975800830746846,-0.1677459639071944
1681484192.2266212,1.321782649357204,-3.5363478518049405,7.339635860551539,-0.10870196297136342,0.23840632696108735,-0.1663319182157043
1681484192.233708,1.6531066267030543,-2.6230089014413855,6.388708226168591,-0.07111819369004138,0.24367757835488535,-0.1621847015380386
1681484192.2437663,-2.1169690222859066,5.189612821572466,10.279742830538442,-0.130517298229328,0.19554306399672144,-0.1507801276206496
1681484192.2538576,-5.086649495285106,6.956664064774634,13.904928467692862,-0.23590485075520182,0.10530088276455098,-0.1336670678615096
1681484192.2636757,-6.747383173112957,3.885475813678262,15.468917022286806,-0.3049880752418303,-0.014214693483724703,-0.1039166983723167
1681484192.273673,-6.203909840493037,-2.399115419230296,14.411051484514712,-0.29011448527743594,-0.1249861200622799,-0.0570648510515216
1681484192.2837346,-3.596652095363746,-5.255491300975521,13.131089182286221,-0.22222162129874776,-0.20907951061199356,-0.0183310632168773
1681484192.293713,1.0188854301635355,0.7010920724326806,10.711349137061072,-0.21626297668180774,-0.22520277472941289,0.0059894702822443
1681484192.303747,5.512720278433305,3.958400225283441,9.412202158810764,-0.27086194067061486,-0.17214299894387763,0.0273245337844368
1681484192.3137865,6.71441637098045,2.4888993646724473,8.19570031085606,-0.3122311123488829,-0.09287532376729289,0.0439227099955555
1681484192.3237827,8.62214100280292,-3.8874830343984987,7.820567893335757,-0.28622899899405635,0.006581238043441179,0.0498110603034969
1681484192.3337216,9.412078392195221,-7.156141009892417,5.7012417211077775,-0.20371463503096066,0.11760347862457177,0.066861762428331
1681484192.3437493,9.115362963096171,-8.5468661408179,5.095655518495127,-0.1073692357968786,0.22826084509640926,0.0763686287641998
1681484192.3537588,5.73142570891052,-7.363073620015591,4.722846517224817,-0.01828354919617024,0.30350024811093634,0.0752946424723144
1681484192.363746,1.7101125349494843,-0.6661552305818104,6.49314510773201,-0.025076126413012854,0.3204345653180634,0.0731290269136902
1681484192.373711,-0.2642181393714151,0.4776608949773978,7.6058875674744435,-0.051533720501465,0.3110760592412119,0.0739505130291458
1681484192.3837185,-3.6195572672908787,-1.6016966967779418,10.846290896798612,-0.06925900124063382,0.2701082795375207,0.069060339355516
1681484192.3937063,-6.469665805013199,-8.47294550460866,13.826980580303605,-0.007682345329002022,0.18295117858455467,0.067355810427713
1681484192.4036925,-4.1893778676403155,-13.561753285429722,14.564369016343203,0.12396795958401739,0.1194166795382266,0.0702007401228424
1681484192.4137647,0.9693975860138568,-9.707789231043463,12.1888309293337,0.22856264796841055,0.12661635626290926,0.0778323921800133
1681484192.423744,3.1628317910979287,-4.576390268380364,9.272404193283533,0.2695997510477091,0.17508073360468637,0.0776254225016113
1681484192.4337378,0.437798635435564,0.10847575464423903,7.522089491107981,0.24148059833717353,0.19976096053512715,0.0611595611513134
1681484192.4436672,-2.5879417192914134,0.4608585117727612,7.22925982028817,0.2181037948663896,0.17575408473802334,0.0506366591394421
1681484192.453688,-3.651709643727924,-0.8403082612629271,7.742081861579393,0.19593270349965008,0.14068689975001852,0.0299462235957857
1681484192.4636643,-5.154886659930379,-2.849707415966483,8.573660803938731,0.22034738175461815,0.08833603366679593,0.0207538518548485
1681484192.4737763,-5.756911308047788,-1.3508588285200231,10.161524999736178,0.21619914065609727,0.025149155496257923,0.0236726428807255
1681484192.483816,-4.456546052322461,0.21728739995571578,10.660583565282469,0.21524912336487045,-0.027741890971031285,0.0244005068630453
1681484192.4937284,-2.661063064759006,3.054799976162728,11.404520509423495,0.16400157197193463,-0.0560621271195633,0.0162400871009107
1681484192.5037453,-0.8680279068817793,2.9697819850222484,10.868971300023249,0.11719738476465355,-0.06261025740624142,0.0103549386799808
1681484192.5137482,-1.7292971045571144,1.2897598351484583,10.374739471954395,0.08601722553917288,-0.07347645687799086,-0.0088279584928873
1681484192.523771,-2.853008586739232,-0.81143693628894,10.12615059800308,0.08446608883482974,-0.1014295120248057,-0.0285378966986659
1681484192.5337577,-4.28622019545306,-1.5218136762454018,9.883115611099813,0.09622492511185428,-0.15278026065326797,-0.0507019434630397
1681484192.543802,-3.5844858026484907,0.8289844921602896,9.744525404447394,0.08479997724670986,-0.20178937567210364,-0.0703812402247909
1681484192.5538576,-1.937099447390559,2.1527908948264436,9.315880113236151,0.055407189778733275,-0.22382020954607684,-0.08186819521184
1681484192.563825,-2.369831922158629,1.5119317663906147,9.822864041538079,0.02844584401434389,-0.2446752161405129,-0.0922026645898345
1681484192.5738568,-1.8114092353096052,3.1614380001130966,10.4718152324745,-0.012430451883923914,-0.2697637391593504,-0.0977839466690543
1681484192.5837944,1.6338220888199448,2.361474534143571,9.937477696330323,-0.04352958180200046,-0.24572848709650236,-0.0964530941605094
1681484192.5937655,4.878793070767635,-0.39412663802261466,10.360377162290666,-0.05420350375186958,-0.18100186470561058,-0.0829367872833732
1681484192.6038153,5.182484700684177,-5.233174040556547,9.311903582365902,0.008992698459012488,-0.10639734220975695,-0.0756523024796966
1681484192.613749,2.5560284023908477,-5.397341429866224,9.326149773716025,0.07106514935690267,-0.06310450977804079,-0.063314819014025
