time,ax,ay,az,wx,wy,wz
1681483828.0330958,-0.148663680654581,-0.32526511800794033,9.86497171188177,0.0002351982740623559,-2.0200382117234216e-05,0.0014262874679356
1681483828.0430737,-0.16959301219505316,-0.41610994601016654,9.849147894929661,-0.000488265550775953,-0.0008785334010489751,-0.0018218103836748
1681483828.053076,0.05109320368014521,-0.3152730560415741,9.772257048303727,-0.0006365232874762097,0.000893236390401546,0.0003727645339917
1681483828.063096,-0.13180130144421115,-0.3495102463144592,9.853318319366673,-0.0018241436528470207,-8.79961184805209e-05,-0.0004676580469581
1681483828.0730977,-0.088840934567641,-0.24892795642668736,9.857349313029058,-0.0032259652665838417,-0.0012737554329776898,0.0023334035027314
1681483828.0831077,-0.13772257811977387,-0.5955761693472132,9.768300955364976,-0.00044912974667171,-0.0015803560451431756,-0.0004389680729705
1681483828.093163,0.04540195615790338,-0.42870568992663693,9.732546718671548,0.0005462175110202773,0.000817631968335191,-0.000366333061223
1681483828.1030412,-0.028953756574624297,-0.3785557538375058,9.781238176966585,0.000998100233291824,0.0015183572457913375,0.000867113758019
1681483828.1130378,-0.16864903309351809,-0.3525211316644558,9.872811743325787,-0.0001526002087655824,-0.00019119340002852957,9.550359706232128e-06
1681483828.123231,-0.005328066490474325,-0.35625123740897596,9.779964150510228,0.000261251621900803,0.000657436511568252,0.0019403808360461
1681483828.133119,-0.37466174558570037,-0.6768306796729443,9.865518416279928,0.004135965847286097,-0.0041139005970341255,-0.002171223987219
1681483828.1431017,0.03717252014976539,-0.14821317536689607,9.818542439917627,-0.0005672221414251327,-0.001862369412460542,-0.0017968465148929
1681483828.1531787,0.058173065308937795,-0.23265943560021995,9.787476202514744,-0.002182529005020114,3.194191130018124e-05,0.0011401633051231
1681483828.1630695,-0.09412592019568491,-0.5323184219425787,9.769014851572434,0.0001811675930587698,0.00013403999704164775,-0.0001431764143977
1681483828.1731474,-0.10333075462374469,-0.2687300934883929,9.861177941913738,-0.002305095863903546,-0.0006129182718014152,9.89626819741221e-05
1681483828.1832125,0.005180525098792149,-0.5490865201503707,9.707918983031135,0.0014477719693420546,0.0006935614718243629,0.0009427407599527
1681483828.1931093,-0.21764600407632703,-0.409512343744117,9.8649995913502,0.0012041371906158715,-0.0017275150603405234,-0.0005257846828076
1681483828.2030687,0.0012905489956093529,-0.2972258409796077,9.795238160096003,0.0006621066466705853,-0.0008975069772135202,0.0016602241772001
1681483828.2130978,-0.02868770985606525,-0.42563104149624614,9.752637596836495,0.0009121012948617626,0.0008276581610952004,4.9786288897344646e-05
1681483828.2230368,-0.09069799130158662,-0.3689845326799329,9.824749951081696,0.00026499115965923463,0.0007721698747490553,-0.0011557159054551
1681483828.233136,-0.15139264705809172,-0.45938736348775333,9.813122362824625,0.0019849489579721667,-0.0008505462991356994,-0.00100224535386
1681483828.2430575,0.037048027658129,-0.1495648625357337,9.814886058400242,-0.0019758005609895857,0.0011808096478982551,0.000622325456376
1681483828.2531228,-0.13370486852550492,-0.5486016002967427,9.76796995440365,0.00037639751408741266,0.0009345944572037921,-0.0013915137428316
1681483828.2630975,-0.05619084158068953,-0.30418502311816875,9.825139934682564,0.0002571732913514345,0.000464082758384255,0.0010198510386057
1681483828.273047,-0.1764621584289662,-0.40203966895846216,9.845893972379244,0.0009199012138934497,-0.001927183290995613,0.0018762963841676
1681483828.2831028,-0.04375026129142535,-0.4446765395015596,9.774931140179458,0.0009970122908505546,-0.0007473802655270925,9.175385954627573e-06
1681483828.2931058,-0.16397642062053067,-0.46131618316816914,9.81589536438988,0.0017439230540783677,-0.0016950862710425514,-0.0017160109750453
1681483828.303053,0.08404772775674407,-0.24055709107532627,9.758935744922205,-0.00026585736548243423,0.0011279281016636795,0.0002811289119076
1681483828.3130426,-0.11903205960862238,-0.40350464075493975,9.815475773897292,-0.00014705176779591697,0.0007632169087689169,-0.0008692659943822
1681483828.3231435,-0.08404091353079175,-0.2825814932784433,9.843296028124511,-0.0010027246033169055,-0.00020460763230699326,0.0011781752360061
1681483828.333083,-0.027556407233387425,-0.34479038305315607,9.790857443968175,-0.0024619681197224587,0.001291814092461574,-2.37464378510994e-06
1681483828.3431883,-0.11555896433858268,-0.46023168783787893,9.795283027648374,-0.0010869322002056811,0.0006179460210307831,-0.0009042511268976
1681483828.3532271,-0.13818886897422958,-0.33220066954914323,9.85329596819194,-0.0016334112984570184,-0.0010070376510895953,0.0001321112463724
1681483828.3630712,-0.027487835047218852,-0.37289296714697917,9.780941889059646,-0.0013514122059319132,-0.0003823068838785823,0.0010630627471495
1681483828.3731043,-0.1096470238049461,-0.4720544699914198,9.805744624204932,-0.0005277578374944149,-0.0005424912497496209,-0.0010607263579491
1681483828.383127,0.004241222033880055,-0.3515420462113791,9.784153260034715,-0.0004078157540995839,0.00041603545913544216,0.0004379603738438
1681483828.393124,-0.13951638921185724,-0.40526368126582835,9.824866348043004,-0.0014233246327542573,0.00018989018097575046,-0.0025016691110554
1681483828.403099,-0.05217883285384278,-0.4863420980071361,9.751994487312851,0.0028365592613748543,-0.00044711302794596993,0.0011856482556563
1681483828.413085,-0.01023902219474379,-0.24428466535827867,9.815685708659455,-0.0005691010389536019,0.001372312859817423,0.0002375477884438
1681483828.4231217,-0.19803267539143832,-0.4840109242489476,9.832600729760902,0.00018490628565532677,-0.0003759530498057913,-0.0023887790780041
1681483828.43312,-0.14580824038305892,-0.222678467169578,9.888462409957139,-0.0016762481039385927,-0.0026584597689821195,0.0001771867933225
1681483828.4431207,-0.07632924325388968,-0.4373051703466675,9.783171462933389,-0.0009401382076951976,-0.002213663101661646,-0.0008923406753215
1681483828.4531777,0.000882200020404744,-0.4107734894707466,9.760149908877581,0.0010972204156638494,-0.0015036146869058977,0.0014344683727781
1681483828.4631283,-0.02884840064575655,-0.32494501781245566,9.797549618124348,-0.0012307104858784556,0.0002919710968534441,-0.0004319001495364
1681483828.4731731,-0.12113283465467074,-0.3919722248208403,9.825738815978838,-0.0010843056393503802,-0.00046724186257002254,-0.0004479156381908
1681483828.4830935,-0.02597322882932124,-0.43839638671933223,9.745355028425282,-2.000689086966488e-05,0.0010184119713635043,-0.0005123596678945
1681483828.4931016,-0.051393463621717685,-0.42751720097782203,9.77274903994201,0.002288179024097995,0.0009729758411281293,0.0016676810005687
1681483828.503127,-0.028272775300268435,-0.27426876074287576,9.80831127235358,-0.000684963374750342,0.002390058835111295,0.0003891678020831
1681483828.513116,-0.2122045751263194,-0.373660432576948,9.88515354970446,-0.0001298860429467429,-0.0012089405538220344,0.0017794313276194
1681483828.533101,-0.04977290199031927,-0.30203858846546966,9.820810926887386,-0.0026828210634335823,-0.00036032282222736,0.0024466424907099
1681483828.543115,-0.11835273442192284,-0.6419990922937971,9.731803539537694,0.0010163839919464753,-2.988732357583276e-05,-0.0007761118508402
1681483828.553212,-0.16248314608739428,-0.34207783944795966,9.870130543250164,0.0002538112870405485,-0.001799780646910196,-0.0004002476384389
1681483828.5630622,0.033565771457921605,-0.2238883121765312,9.807769601694465,-0.0021501119560134005,-0.0001580467601625975,0.0016002465522855
1681483828.5730584,-0.06833072730666592,-0.6280043102327957,9.710523066583107,0.0017662664523574064,0.0007472153448406611,-0.0010320439509574
1681483828.583196,-0.11501543771961555,-0.3695380943883984,9.840234566976942,0.0009973529253323433,0.0003042960785755144,-0.0024711194023016
1681483828.5930889,-0.026020879221197855,-0.3639068706773885,9.787693869510951,0.001450017441481467,0.0008489167934389717,-0.0014142401091281
1681483828.603115,0.01099521499616864,-0.3466842743308008,9.756824207853672,-9.044084138068326e-05,0.003300923693029728,-0.002817904347879
1681483828.6130986,-0.16837452460388524,-0.22541516225507738,9.891871079975733,-0.002154971861395726,0.000731187821013738,-0.0008837557438287
1681483828.6230996,-0.08433552009038016,-0.315388758382093,9.835539049429133,-0.001948955747393942,-0.00027539298719374863,0.0019806041341748
1681483828.6432345,-0.11815131481487724,-0.44000784291685446,9.801297833389606,-0.0008771712390440034,-0.0008900640901035807,-0.0006349233485284
1681483828.6532393,0.04597056812763903,-0.4149441182418355,9.724326465693267,0.001282372099559283,0.0009595486228772931,0.0017656648374635
1681483828.6631334,-0.1586902460664603,-0.38147384424785385,9.842149624560394,0.000549226317608402,-0.00016734793352873856,0.0001179632923107
1681483828.6731536,-0.0586762498725132,-0.24830749291385273,9.84029091920086,-0.0025248660569603685,0.0004655869125316409,-0.0001670236274126
1681483828.68309,-0.08842290408839013,-0.5206154535222156,9.768152285572935,-0.0004920052904601461,0.000815728383942955,-0.0016221404116127
1681483828.6931643,-0.0818615376168015,-0.2570520402561808,9.851985539188608,-0.0010716280757958648,-0.0005853299225155851,0.0021024143166382
1681483828.7031786,-0.05641944493522535,-0.44824340222889614,9.780737626927221,0.000330559932654876,-8.20535686138496e-05,0.0019854517263833
1681483828.7131553,-0.1927377709912838,-0.35276928787294315,9.877777205256686,-0.0017187328407421618,-0.0015349133463331277,-0.0008398152462664
1681483828.7231336,0.029740945526758808,-0.5507850319511102,9.686944491594687,0.003211696398414627,-0.00016064454269848342,0.0019791310729
1681483828.733161,-0.1969707820199742,-0.17606940943167032,9.933901296054149,-0.002404546781114056,-0.001715220235282335,-0.0005727144930038
1681483828.7431066,-0.045418456827749566,-0.4925210194743151,9.757854748258952,2.806575892796647e-05,-0.0010837676448939044,-0.0006881882477078
1681483828.7532265,0.06840227863055592,-0.37359692430609376,9.72572659107559,0.0004478733892947294,0.0015008387722396388,0.0006227115477908
1681483828.7631917,-0.21149410427639725,-0.3869292078843791,9.888399518805175,0.00024561699829961473,-0.0012994634131520155,0.0001559535699438
1681483828.773167,-0.043929620119252,-0.4604498598418981,9.752820315722774,0.0007701374336197688,0.0003136007851431375,-0.0016843271482262
1681483828.7830894,-0.06710545190118228,-0.27707787371413517,9.835006699548979,-0.0018409048248336978,0.0006302162906931651,-0.0024100365157697
1681483828.7930932,-0.0707392868938997,-0.47564733040739027,9.765980409834663,0.0004147472905230049,0.000492762091053212,-0.0014701453078064
1681483828.8031456,-0.09141190223960671,-0.46242496691164964,9.793749911694556,0.0030827986706584,-0.0005532678976269605,0.0003455801593613
1681483828.813171,-0.03613358452449618,-0.11883657593765728,9.873782741937742,-0.002272296290643979,0.00025621020265955774,0.0002609997714411
1681483828.8231332,0.02351025358028281,-0.516664443602303,9.705415127723793,0.0006080740659102412,0.002363615964812057,0.0001935845898937
1681483828.8331664,-0.18296767933105085,-0.32916034788914306,9.893754582742751,-0.0014482894252178435,0.0006037840695591891,-0.0014511251396957
1681483828.8432558,0.029185788714369658,-0.27133602631694226,9.780189978193462,-0.0020897274715602275,0.0018700241395505945,0.0013402101572377
1681483828.8530655,-0.2637512857794382,-0.38859092463939715,9.908019480574586,-0.003069500002757314,-0.0012905222583782217,-0.001028320523304
1681483828.8631215,0.018134072520029743,-0.4884458772352837,9.714563315521938,0.00019495597907472637,0.00025099948067198,0.0007374536904048
1681483828.8731823,-0.0650675512663124,-0.30450955028563564,9.825482898886854,-0.0008704792096186034,0.00021076375105109609,0.0022152950946714
1681483828.8831508,-0.09288055863421052,-0.6832428965600935,9.714231487834038,0.0041221627694888454,0.0007792576960060952,-0.0007298982277039
1681483828.8931625,-0.02324984758472098,-0.06365774868044244,9.893041102113363,-0.001374145368442628,0.0010601253429510082,0.0015302191564355
1681483828.9030638,-0.22719091424932306,-0.47258005559344746,9.85437119789528,7.239517798918627e-05,-0.0017554411806786753,0.0006115552928772
1681483828.9131637,-0.026912856584689126,-0.29702253789143607,9.810719686915471,-0.0021381933834034644,-0.00045457657666513886,-3.142632017766518e-05
1681483828.923147,-0.09903592419492062,-0.43763594126493416,9.80413872733593,-0.0010697673773355572,-0.0008278512054523085,-0.0001692686968941
1681483828.933283,-0.041409662536406565,-0.4353877759459531,9.765539900438986,-0.0008090197319782329,0.0005609416678572715,-0.0018843843176487
1681483828.9431214,-0.17309573418880703,-0.4464159279274271,9.825606286385494,0.00117806144669898,-0.0018619932307802247,-0.0008211911230806
1681483828.953206,0.12292551975027388,-0.37063427128887794,9.698338437786088,0.0009798779835576423,0.00248059199812185,-0.0007824345997992
1681483828.963196,-0.16458852373273114,-0.3037944213912928,9.885305356965027,0.00038418446045966983,-9.022974002957167e-05,0.0009546645410832
1681483828.9731596,-0.1775135552623133,-0.40307991736999804,9.845231949994792,-0.00013061857541782004,-0.0017833853038216976,-0.0001226901117238
1681483828.983174,0.0286077441916127,-0.2370539920184866,9.800727090203605,-0.0007825488480522159,-0.0010316224256348681,0.0041442492470618
1681483828.9931474,-0.04908714810671211,-0.5688060747901638,9.712570123605786,9.550153359802681e-05,0.001640895946726572,-0.0014116524293545
1681483829.0032518,-0.09633275026455557,-0.25035203004339496,9.867561537513982,-0.0026754021561156737,0.0012221610748927483,-0.0014030728529665
1681483829.0131457,-0.11535495990370741,-0.7095406488502284,9.707416930027094,0.0033856756766047725,0.0009527979245645737,-0.0029405162244561
1681483829.0231748,-0.07311355386643702,-0.1444321035459706,9.883236213933925,-0.00019581489535342703,0.00019623923747578322,-0.0003856996813315
1681483829.033172,-0.17157429663367182,-0.45130888311426914,9.83632903924129,0.0012551884871348676,-0.0019599401012360424,-0.0001476495567235
1681483829.0432036,-0.021037791911174695,-0.34069468315488755,9.783881483282032,-0.0005497272124553265,-0.00020275775492713399,-0.0018087718676302
1681483829.053137,-0.11415696323488565,-0.28880692379445044,9.85926032456847,-0.0010913810671975984,-0.0019495328392884243,0.0007527440862272
1681483829.063181,-0.01314181494946322,-0.28196858112126727,9.798351266147149,-0.0033410931804417755,-0.00042925198558977355,0.0007449166692335
1681483829.073191,-0.0249556025696283,-0.5085462847976014,9.738342758783663,-0.000757583121564794,0.00067567678742104,0.0004614224849742
1681483829.0831146,-0.11385591475883551,-0.3977275468113913,9.834055617552375,0.00013050832184441656,-0.0005097121870441438,0.0009937538084581
1681483829.0931573,-0.07707093116448308,-0.4098131235431304,9.781559474051447,-0.0004167295021183433,0.0005043234185720222,-0.0010510298929635
1681483829.1032448,-0.1266697013196298,-0.4271607023297151,9.806772574532626,0.00011448575574756852,7.734667432914367e-06,-0.0016254847909781
1681483829.1131463,-0.02016847988107015,-0.3989863722628018,9.76505238095062,0.0012186646041272167,0.0009252757830777128,-0.0004345066885921
1681483829.123174,-0.053574385319560075,-0.24838162662484967,9.837926235966789,-0.0010824534749198321,0.0011901424736886974,0.0007799350383233
1681483829.1331837,-0.06230525418567562,-0.34368055986508245,9.81781013826094,-0.0019251084141616375,0.0014341386031058103,0.0007195686298895
1681483829.1431842,-0.15208142413795847,-0.41715198814911475,9.849222877644937,-0.0017090296928915817,-1.721657791280622e-05,-0.0001785593380678
1681483829.1531937,0.0048318992993729055,-0.4933657882356062,9.724842688181777,0.00018897282486394086,0.002045464350989961,-0.0012905872467431
1681483829.163231,-0.1260250126788734,-0.24615566719789386,9.87245592527363,-0.0006760098537032054,-0.00027389786338361227,0.0021877377835575
1681483829.173174,-0.18446142074543095,-0.5794024593878061,9.796358967408173,0.0016291883721895799,-0.001369877798287587,-0.0016456011257592
1681483829.1831212,0.09808790530825488,-0.3414464915119949,9.726360866301167,0.0015341935368613857,0.0017634701971480193,-2.8815240924408856e-05
1681483829.1931665,-0.1426077160277157,-0.16494186120512805,9.913849523411894,-0.0032259791201329525,0.0004372563148210727,-0.0001670190872151
1681483829.2031798,-0.05385989602362896,-0.5823540603573508,9.727874440139912,0.0005242622041170691,0.0011532549545965943,-0.0010056025389108
1681483829.2131815,-0.21776683462311283,-0.2797901458889636,9.919845704529713,-0.0015272386637920484,-0.0020374431053008036,-0.0009165622800115
1681483829.2232163,0.08653500035388223,-0.28377802386229517,9.741595805982847,-0.00211026270612184,0.0005680116098464216,0.0020182248513687
1681483829.2332132,-0.07960152172444508,-0.6310798945070798,9.723797646724694,0.001998741712145028,0.001393177807030512,-0.0003763715544242
1681483829.243146,-0.10379148206602128,-0.19761753742771845,9.888130242624236,-0.0011282514054870173,0.00033369601706456094,0.0010489119700163
1681483829.2531824,0.08536979947274136,-0.40099205794978854,9.725993248267264,-0.0005780514637614673,0.0035247792840981456,0.0013138118916198
1681483829.2632234,-0.2787173857104684,-0.3753729531898708,9.919067848829643,-0.0013465767315888062,-0.00042215606853935727,0.0003690499539029
1681483829.273192,0.06652728223736797,-0.3866717850810851,9.725777164896106,-0.001008686871516455,0.0022738275217856186,0.0011070086580243
1681483829.2832067,-0.1334715203722176,-0.4255233049550687,9.826842638940738,-0.001498961109306721,0.0017861915414945884,-0.0011989234521511
1681483829.2931335,-0.22098823767005812,-0.4153198039797948,9.865930801097567,-5.612803909983055e-05,-0.001688391374972436,0.0004159798805143
1681483829.303284,0.08925948422143808,-0.4392677265004206,9.682546641230047,0.0010409496822323696,0.002134142025068066,-2.2483178739598217e-05
1681483829.3132143,-0.21586000114909604,-0.31144748914546466,9.914764632309364,0.0004952011665870103,-0.0013732007395723734,0.0015182931779658
1681483829.3231575,-0.07231600205667896,-0.40554577022744853,9.78721190099118,-0.001006461523498782,0.00010906645752115786,-0.0025072523898903
1681483829.3332143,0.040980389821202313,-0.4371283515916157,9.725252077675757,0.001580763003774619,0.0016461257717980682,0.0003675665898721
1681483829.3432312,-0.19401600185479956,-0.3084770688621641,9.893091890746613,0.0002791406735137335,-0.0009124069427508703,0.0003884024877574
1681483829.353195,-0.03983352370564943,-0.30944301822612047,9.802191526171871,-0.0010839051392932543,-0.0001390567083123042,0.0009866852156359
1681483829.363205,0.08339434822366247,-0.49124995189417336,9.69103231746208,0.002291944798368898,0.002475348408423539,0.0028735501651194
1681483829.3731291,-0.21453215535355027,-0.34478809702417806,9.886861599120015,-0.0007330449561879584,0.0010265903510872007,-0.0013304459902915
1681483829.3831477,-0.08592062455320716,-0.39352027566620595,9.806895877784582,-8.369503005307802e-05,0.0006652456673320647,-0.000522425402281
1681483829.3932836,-0.19000668431308287,-0.4193888005410615,9.853975839211722,0.000689304541994843,-0.001781148739706374,-0.000801073158485
1681483829.403207,-0.01628239581373389,-0.34627052851611584,9.805332274926448,-0.0005199227466876323,-0.0005059710440093754,-0.0017189842223647
1681483829.413133,-0.06133231236555759,-0.2962093073525993,9.822632190175593,-0.001802542411256135,-0.00040616402515727463,-0.000706832394329
1681483829.423139,-0.05723477740740976,-0.6051310747546821,9.713349205731088,0.002772863824515288,0.000326612717803893,-0.0012372965033624
1681483829.4332097,-0.0922814105802249,-0.296884300536064,9.837317469969273,0.00011932235843989493,0.0005955704717900894,-0.002640259223384
1681483829.4432154,-0.07905690330770031,-0.383331307817857,9.81077875503527,0.0007012584082879633,0.00015225944369269082,-0.0014153618871692
1681483829.4531543,0.0959898366000468,-0.1502075650678332,9.795513709474719,-0.002413142716727565,0.002563273263192042,0.0016296894132633
1681483829.4632018,-0.15392742189484435,-0.4938624663463546,9.815053955573351,-0.0005512183706946122,0.0012922189330228074,-7.351115751003307e-05
1681483829.473119,-0.19369267755754987,-0.4540501143482178,9.846443577683507,-0.00011796154477547937,-0.000426254818578552,-0.0022133255883577
1681483829.4831305,-0.027199956869829886,-0.2842031268281044,9.79166972419891,-0.0010582470501678044,0.00017649151336885023,-0.0002117261796716
1681483829.4931853,-0.07393248690384653,-0.3299537956920241,9.823897775314345,-0.0001872483233058219,-0.0008476054750454238,0.0031194268918138
1681483829.5032606,-0.05627567221446861,-0.2735062477739628,9.829734496963509,-0.0038067549252083282,0.00044507392518615163,0.000905863645627
1681483829.513137,-0.12751248540333165,-0.6028612372287169,9.76255527912506,-0.0005031320453670861,0.00013997955355593255,-0.0017383543349329
1681483829.5232198,-0.035028046132329974,-0.2582362317033235,9.827960740004306,-0.0014333729855155286,-4.293362083914708e-05,0.0012470970937524
1681483829.533201,-0.1487420363982768,-0.593114567612363,9.768736169858196,0.0022431292841140447,-0.0011187944551984657,-0.0002307203871655
1681483829.5431836,-0.034640063624824115,-0.2171386309579598,9.831422869134126,-0.0006182797905667142,-0.0006069363345689786,0.001039602556872
1681483829.5531857,-0.05279055824284984,-0.4339021354034732,9.770352070750988,-0.0006842139709992935,0.0008291677899743094,-0.0011095176491413
1681483829.563301,-0.0781219833467813,-0.3906993318722888,9.803306190902202,0.0004184607282918196,8.969640082180088e-05,0.0005873507430318
1681483829.5731976,-0.09163838548869285,-0.41256643998787973,9.800258684990068,0.0008800418342133566,-0.00028359019924636947,0.0008384280913982
1681483829.5832295,-0.19091936386001243,-0.38241734445762393,9.870306692150248,-0.0008954350251981222,-0.0017848779951470278,-0.0024048120289567
1681483829.593229,0.020370225446946173,-0.4207514889445279,9.739041010767462,0.0003387507393376118,7.177265352500611e-05,-0.0017715289763632
1681483829.6031888,-0.018415029114548485,-0.3179527709312942,9.790143447329044,0.00027358108753321994,0.0005125162324168859,0.0006480656989392
1681483829.613232,-0.1483402890406022,-0.36197646082910817,9.846467510795069,-0.00023568704322578644,-0.0009600978454790127,0.0003712760476868
1681483829.6232276,-0.0014356529274295762,-0.4510595455211602,9.730140877132776,0.0019700567367659538,0.0003430088497158567,0.0014613155849896
1681483829.6332347,-0.1421297695132199,-0.49185094203202473,9.8007718745908,0.003074236484482297,-0.00035061876378377686,-0.000902389413071
1681483829.6431549,-0.08501137013599391,-0.27962660900910935,9.846611139106724,0.0011784390044572957,-0.0005983560649625924,-0.0006986164994064
1681483829.6533008,0.0068184866694595515,-0.1628929234127493,9.828935506419546,-0.0033537604073006575,0.0010031401449350455,-0.0002999900647897
1681483829.663237,-0.16738282495979295,-0.5935819575117663,9.799161339565508,0.0007034754971094232,-0.0008851974605535175,-0.0011195703450117
1681483829.6731904,-0.08683585030947312,-0.1863219115216198,9.87948745314927,-0.0023665505851438,-0.0018836022978618101,0.0007210837170955
1681483829.6831665,-0.0804027085847122,-0.524175020219689,9.768320832808659,-0.0012117232257526137,-0.0009395969033371924,-0.0026286959222975
1681483829.6932042,-0.0336003893317736,-0.41776744378535,9.762237535215476,-0.00021259536311887497,-0.00014944015631971185,-0.0024014392442527
1681483829.7032354,-0.0023541799406667637,-0.4840263737880313,9.707898003674538,0.0032228506090186118,0.0009826519689456414,-1.879560700540823e-05
1681483829.7131672,-0.16278426955185413,-0.19793797369803304,9.907255817156678,-0.0003105617088571535,-0.0009280558909859482,0.0004215702606838
1681483829.7233193,-0.07402564700994678,-0.3120094040822893,9.815184480245787,-0.001572317778455992,-0.0006710218919853714,0.0005251214566182
1681483829.7331693,-0.03945790676305725,-0.3656629288991344,9.789011608434471,-0.0016267029883612035,-0.00017107562180664906,0.0011308787175461
1681483829.7432306,-0.10239052481047026,-0.5634074432038044,9.767407710318121,0.0004415697535766434,0.00048384637839159466,-0.0026283159426871
1681483829.7532318,-0.05357636871911949,-0.33526245197665094,9.819943777188628,-0.0003865625747583684,0.0008582358558648187,-0.0027959544717792
1681483829.7632391,-0.12247825656684763,-0.18179192346093334,9.887340218219032,-0.002357610531862838,-0.0012901579102110863,0.0012660885800382
1681483829.7732067,0.03039415719207779,-0.4717914709064985,9.710377683989424,-0.0013596040425984971,0.001716526654403233,-0.0005742011166635
1681483829.7832406,-0.07859603557973154,-0.445281352577399,9.783852084150483,0.0004654032133486272,0.0013235112752588768,0.0005057800986346
1681483829.7933166,-0.206025977701108,-0.3486229595010684,9.89331816109052,-0.001394620982204161,-0.0008841030196649167,-0.0015357006381723
1681483829.8031635,-0.11691645373935478,-0.3545369107155381,9.831642211654895,-0.0025170635548691085,-0.001200743973797586,-0.0028577998786691
1681483829.813193,-0.010852584354973742,-0.33880485446779557,9.782075022142282,-0.0013450837707167185,-0.0008800030898246635,0.0004394568928059
1681483829.8234084,-0.04924996442686632,-0.49772531463138325,9.746236331036227,9.511964670064411e-05,0.0003635281284707035,-0.0015252542256835
1681483829.8332667,0.058487230507137646,-0.4543362261054026,9.716799477668461,0.0022848262485666263,0.002557702450839618,-0.0002233034505966
1681483829.8432624,-0.19040155117476093,-0.3497928307940339,9.88571694147059,0.0007194797300784731,0.0005926195389693547,-0.0018866148352149
1681483829.853323,-0.08212236957080052,-0.28065973678985606,9.84147460400348,-0.0005638862031919135,-0.0001345685654768472,7.401057113970238e-05
1681483829.8631933,-0.1684763948934742,-0.41557489689934346,9.845573727403567,1.2387703136619616e-07,-0.0020735882361775817,-0.0002009281929109
1681483829.8732133,-0.07138802439018473,-0.4619423305355296,9.780948435654436,0.00081968258706984,-0.0013810210090981156,-0.0020624545908991
1681483829.8832555,0.11577447762455174,-0.37313311647780184,9.707592045538451,0.0008897417718439264,0.002531613334865198,-0.0013918948865953
1681483829.893324,-0.14686273955517015,-0.38372816478006955,9.835197329975593,0.0006259794338532195,0.0010940156581860884,-0.0016485825221512
1681483829.903255,-0.08920453312959488,-0.30199890656471146,9.832435421496776,0.00044826766775620593,0.00010459554563527611,0.0007184738602031
1681483829.9132917,-0.20762953950309948,-0.3589446667903201,9.883881580938459,-0.001047047202477603,-0.0020042904508756265,-0.0013214952818576
1681483829.9231784,0.04060884219737791,-0.48861942532016134,9.716212982234687,0.0007567501868679022,0.0006458773192994459,-0.0025921810924533
1681483829.933251,-0.04004660022794325,-0.11056611739708055,9.87940802611389,-0.0034196966651381987,0.00021969675186740654,0.0004662796814467
1681483829.943261,0.02850529593502575,-0.49801466303814956,9.726361979160192,-0.0005903186482117571,0.001904279135862665,0.000872333588219
1681483829.9532762,-0.23378227596137377,-0.4537181487617189,9.854329629024676,0.0012581578581125595,-0.0015520495820859138,0.0016445748874925
1681483829.9632258,-0.08594078763924698,-0.36784398992755485,9.816817994994576,0.001127399703569347,-0.0018593698204280998,0.0018919413519565
1681483829.9732249,0.0901421412911512,-0.38983836163111724,9.713412807998877,-0.00027630768950163195,0.002580045068125219,-0.0010223705362055
1681483829.983216,-0.15682752916705112,-0.2579210992497715,9.892410038892654,-0.0016386334182285718,0.0002506206890640687,0.0008060155628722
1681483829.9933414,-0.11178761455684295,-0.3654691355538151,9.834178762903642,-0.0013391224938359332,-0.0009668012320148856,0.001752979234467
1681483830.0031972,0.0800178744547038,-0.5412573166111558,9.658841401100776,0.002281488195519829,0.002103960686643697,0.0022883066517774
1681483830.0132637,-0.18116351966684707,-0.2956484851553158,9.893860791315838,0.000660614962801811,-0.00013122023829563936,0.0027178458363291
1681483830.023321,-0.15167711334712528,-0.4786537271136518,9.813395070050179,0.0007187120483172321,-0.0004016649839281584,-0.0011907476040992
1681483830.033233,0.05510716440943561,-0.43558456525136025,9.70828247148263,0.002082170386546284,0.0023207748470749565,-0.001125927552906
1681483830.0432663,-0.19940111014422224,-0.4496859558268299,9.838820511647391,0.0025117097476947577,0.00025810021092885905,-0.0029568898066404
1681483830.0532389,0.13368321195866603,-0.08633569947901068,9.794797809904148,-0.0017694039332295903,0.003263252361881272,0.0008577629883315
1681483830.0632503,-0.26228603887819796,-0.5448748869293418,9.848073670158882,0.00101414587667324,-0.00019379742509533502,-0.0006241202394935
1681483830.0732772,0.03808283606118065,-0.40910997253207526,9.727846839706315,0.0012391393636365174,0.0024675578953408557,-0.0010391136206213
1681483830.0833604,-0.1694666542107447,-0.28597370103254505,9.886111337514402,-4.010468479365808e-05,4.163777497375496e-05,0.0003947535256397
1681483830.0932753,0.036033073224375566,-0.3474999191451491,9.753313706013012,-0.0010761137719057527,0.0026210253300027065,-8.99150076780228e-05
1681483830.1032372,-0.11640480669044478,-0.5392482051325559,9.773366379314158,0.0009120731960581091,0.0025547181102161184,-0.0024852745741132
1681483830.113314,-0.008209740307419243,-0.24594212448330824,9.818823378378575,-0.0013279534256429187,0.0033735542567735217,-0.0011296030174467
1681483830.123341,-0.14997434234154072,-0.4939198368148123,9.809459285675839,0.0032373889130157658,0.0003210609396118071,0.0027588182088461
1681483830.133286,-0.06803307708759194,-0.2743255856782177,9.842788335440508,1.7999704987411075e-05,0.0011424579527292557,0.0007113949355211
1681483830.1432228,-0.20182168699217418,-0.452072580943965,9.834925095041642,0.0013147800833935774,-0.0009910118944227793,7.995706577862221e-05
1681483830.1533055,-0.05754125324817955,-0.2381937620147789,9.837062421349554,-0.002198165689387376,-9.546131217118342e-05,-0.0009176794014397
1681483830.1632462,-0.03809336766051352,-0.6215599686147004,9.710961830186683,0.0031967607112101323,0.00039108325089647197,-0.0007221458985928
1681483830.17336,0.0017911553608132525,-0.23221225689199648,9.813343982473418,-0.00016196093754888155,0.001982520216380689,-0.0010841882362488
1681483830.1831985,-0.11261360089523369,-0.4629537970448311,9.802231775515496,0.0012756610313163592,0.0013823432097443595,-0.0015301446005228
1681483830.19319,-0.14140875746604276,-0.3518596481073063,9.85492678602129,0.0010655524556023974,-0.00015653344265833063,-0.0007977110839906
1681483830.203227,-0.15125527020621632,-0.42137100476693884,9.825908156256501,0.0018653785296757726,-0.0016332817965390232,-0.0010748836252365
1681483830.2133822,0.006265131037733011,-0.3134068350978939,9.788387163858152,-5.3880762565881235e-05,0.0005289115302243206,-0.0022714324336025
1681483830.223313,-0.04809253179522872,-0.3601963582129008,9.792331915539169,0.0006151689277010518,0.0006790301646121786,-0.0004587316693264
1681483830.2332568,-0.04037522155120824,-0.31566013348191835,9.810191301678136,0.0005361891301176578,0.0006481156334902849,0.001965317405435
1681483830.243336,-0.05456273424633095,-0.37829221194481305,9.799380970415832,0.0007913737200069572,0.001133501845932017,0.0019281072559774
1681483830.253388,-0.09918609946261484,-0.6018637569561568,9.740423416236473,0.003924702673985694,0.001713922263366992,-0.0003559261135283
1681483830.263224,-0.07029055139591904,-0.035442811503667765,9.901522553301659,-0.0017924878542993955,0.00099829163163694,0.0027699759189512
1681483830.2732787,-0.09946213366399279,-0.5054972379934143,9.776971000109278,-0.000657785085668495,0.001456133984508437,-0.0002966532524201
1681483830.2834432,-0.027638486123865394,-0.4106602929919969,9.765425868707242,-0.00013544784909031235,0.0023468376126120328,-0.0001286560477215
1681483830.293246,-0.14772202758644437,-0.4758076544586435,9.807321354923726,0.0004415609168576772,0.0017958857052491652,-0.0025832441210273
1681483830.3032296,-0.12062453035425842,-0.3091920576882017,9.860100491191293,4.81828311204211e-05,-4.5533201655100495e-05,-0.0008595557923886
1681483830.3132863,-0.13634358973873598,-0.3460951978047444,9.840376059976903,-0.0009479472947732402,-0.001081916204416775,-0.0013140447012606
1681483830.323257,0.06926393315992582,-0.3194008597415917,9.748040105288698,-0.0016945336657629134,0.0014557535820989855,-4.588630375614586e-06
1681483830.3332796,-0.15688419396526562,-0.46601288070521213,9.813950368321995,-0.0009297080427081527,0.0004324081220930495,-0.0023239750921252
1681483830.3432117,-0.11394274269601058,-0.20283155052837235,9.88786546501059,-0.0025781445667471784,-0.0016001074503830418,0.0016274452896563
1681483830.353308,-0.11309356227878682,-0.6119534851632661,9.752193159521966,-7.995725585694389e-05,-0.0009902599436295448,-0.0026946326292577
1681483830.3633242,-0.11021660743278157,-0.293023605712536,9.85900370969469,-0.001325329254648198,-0.0021961701023514154,-0.0016627335030112
1681483830.3733404,0.0748048174705303,-0.41809155229697514,9.702792363213028,-0.0001563539632348443,0.0008619431305909537,-0.0013200060970607
1681483830.383238,-0.18649511416708328,-0.35251026621569637,9.869674873067884,-0.00039401727342483744,-0.001538257179037631,-0.0007630754302713
1681483830.3932686,0.11073005905061256,-0.3249664199095107,9.72320373965914,-0.001768636373633469,0.0025487393563640446,-0.0011974624398622
1681483830.4032311,-0.10778136753208278,-0.3989289686318102,9.812173963671226,-0.0008198141497954385,0.0015850199841432203,-1.764705344026369e-05
1681483830.4132814,-0.11557241858110731,-0.2794725801646839,9.85684005524162,-0.002257777064094652,0.00037876856671716064,0.001143520140928
1681483830.4232583,-0.0623745956762983,-0.49367352112326096,9.766965561975748,-0.0016162702093847395,0.0016983055784666483,-0.0023425733711097
1681483830.4333024,-0.24100186383783684,-0.39850420324486596,9.885837365936386,-0.00019842873431495946,-0.0023611824837693773,-0.000897185182524
1681483830.443231,0.05041728263677073,-0.3468771228967489,9.751840424103762,0.00011747129110350639,-0.00023589919374961146,0.0011751950619749
1681483830.4532957,0.09456949677755122,-0.36113316923536126,9.73525051772074,-0.0007594436556969152,0.0035899755739325066,0.0004137636820327
1681483830.4633093,-0.1784395754638623,-0.6225362604595874,9.774459644378373,0.004227575804567821,0.0015217078665537632,5.387665764505583e-05
1681483830.4732697,-0.20120198948689974,-0.25929977390609066,9.918996895257191,0.0024074097006180494,-0.0016466713070902876,0.001539172004001
1681483830.483376,-0.05043940226591044,-0.435567354642206,9.773832697061739,0.0015084907189470283,7.552549505113567e-05,-0.0020300536456975
1681483830.4932616,-0.10702838273430963,-0.36093650520713244,9.83249660458184,0.0013486872392934996,-0.0007388148899298086,-0.0016631002112749
1681483830.5033429,-0.11361408273871096,-0.3043625246119375,9.85224391292397,0.0011572045098347244,-0.0023567053075915214,0.0008361933246728
1681483830.5133572,0.10643811334939475,-0.2766176401261871,9.736180218201838,-0.0005136087377434165,0.0013618824270660906,0.0019027416961275
1681483830.5233316,-0.14849024046984172,-0.4539919161351086,9.822110855203098,0.00010592868038653552,0.00032437931423740716,0.000127636124986
1681483830.53327,-0.055607630426422035,-0.44682058593885043,9.76726803976069,0.0007027035661308186,0.001301178789617392,-0.0015680883120272
1681483830.543246,-0.07276625169208163,-0.25120720314610745,9.84185423020725,-0.0008838855893776431,0.0005940963200198133,0.0004424343310769
1681483830.5532794,-0.09414438319428922,-0.4762990756464464,9.786349559064844,0.0006535371613039768,0.0005203466367185728,-0.0005436460528049
1681483830.5632408,-0.055133896346261396,-0.40853983427148244,9.781597299958031,0.0019495615870875507,0.0006060231379669627,0.0008570388850298
1681483830.5732446,-0.15742234322761953,-0.2409153673510432,9.89903261454742,-0.0017675259634275901,-0.0007131061995824667,-0.0003115624462712
1681483830.5833106,-0.02495145178128305,-0.40128206390211424,9.774627969125616,-0.001124526974554171,0.0002517405717038843,0.0002725534100558
1681483830.593299,0.02182949664684044,-0.4982607454853115,9.711558636408617,0.0005406525065921469,0.002661263686783343,-0.0012946722603861
1681483830.603284,-0.18046941301318062,-0.20853753624601185,9.92568035391657,-0.0013372571433241988,-0.0009992168405971247,0.001896037250432
1681483830.6132572,-0.16156635671028358,-0.40060840050067825,9.83688951716886,-0.0015350645632221706,-0.0022583668542615083,0.0004536055453595
1681483830.6233091,0.012768698705710227,-0.5598149795411347,9.690899821806532,0.0014235406686943946,0.00031134266477998506,-0.0011743649415198
1681483830.6332972,-0.004423517217099823,-0.17534948527681266,9.829792835538665,-0.0007899953574786713,0.0006596602814353051,0.0028325720882516
1681483830.6432388,-0.09571996535304982,-0.4800333065516233,9.778642149904526,-0.0007013233933704631,0.0015917127825902056,-0.0008535995188627
1681483830.653301,-0.14048595687881213,-0.31904011316570574,9.85755293129767,-0.0013763594061513107,-0.00028060815474436013,0.000436828933331
1681483830.6633337,0.042464483652453464,-0.42035432899995645,9.714341378958284,-0.0012613016367963715,0.002770038778835603,-0.0008412993087891
1681483830.6733446,-0.19998316804269323,-0.4245051659268467,9.85195358738617,4.3340185373126464e-05,-1.2139014858256989e-06,-0.0001692744012448
1681483830.6832805,-0.18336860263127658,-0.38178406533367587,9.862959553280321,0.0002873509150220189,-0.0023354704343264677,0.0001138603507083
1681483830.693321,0.006033123136964943,-0.3410575183950399,9.767281060974453,-0.0013350325429957947,-0.00010737948506370794,-0.0012596526689354
1681483830.703261,-0.14340917667960446,-0.4084617446972592,9.831472284056339,-0.00028783729873657144,-0.0018031298032533663,-0.0002419074339318
1681483830.713294,0.040312432638650864,-0.3787192297325252,9.744145181428017,-0.0004637043305834132,0.0007106913379395234,-0.0004427025600794
1681483830.7233014,-0.11891201349535584,-0.4937476093606536,9.795542852515162,0.0004322825977803846,0.0009252241034153469,-0.0034050631843033
1681483830.733282,-0.15602803270237178,-0.1988436067362879,9.909589931786343,-0.000720345310118,-0.002241969369585056,0.0008052735898185
1681483830.7434576,-0.009471833262791059,-0.4449323282509348,9.74636808129119,-0.0005851361022659044,-0.00018970850621825662,-0.0012648762244257
1681483830.75327,0.0391874446743042,-0.35685647150453165,9.75547414886359,-0.0001362346989370204,0.0015347313103757968,0.0003641903127085
1681483830.7632997,-0.15597941147978242,-0.4223549990181464,9.839084155953113,0.00017484763426590217,0.00011353714662149742,-0.0003584955160964
1681483830.773391,0.025743399689368625,-0.2544936596515473,9.785968348552707,-0.00094573676648421,0.0015045610629603665,0.0023732336663183
1681483830.7832973,-0.3417662409102946,-0.4337302184715696,9.934193739892132,-0.0023721451188321425,-0.002643513713661683,-0.0022982675622675
1681483830.7933428,0.06627906347925654,-0.4228620391057801,9.723509536014896,-0.00013213184016364518,-0.0007153405265560211,0.0002982533729177
1681483830.803264,-0.013105095438586454,-0.39650467482114543,9.769224366676934,0.0003260710150701898,0.00046670275161296066,0.0002613828942653
1681483830.8133657,0.01770377594211916,-0.3318315778950403,9.759233143240113,-0.0007740071887646026,0.002571845314810479,2.3693424324342785e-05
1681483830.8243032,-0.18984312307538684,-0.3783501988799473,9.87544525925302,0.000255303340980543,-0.0009068218645253529,0.0021717147279072
1681483830.833381,0.023933703522329382,-0.40256413751925685,9.738507907643797,5.0789488232078374e-05,0.0015112648060872885,0.0008473835728604
1681483830.843326,-0.15511743358938299,-0.3090970938513299,9.865863009565373,-0.0013461859987648768,-0.00015320128382356567,0.0011144663399558
1681483830.8533618,0.056238845712459,-0.29730262450200207,9.754227666320123,-0.003170851105009059,0.0024533821736590095,0.001177447232791
1681483830.8632653,-0.29477869875053525,-0.514302037896653,9.874222745101727,-0.0023121608099019144,-0.0008136704594433905,-0.0023668168618801
1681483830.8733275,-0.02325583188548825,-0.2652539444889836,9.811638881429129,-0.0031138454029488697,-0.0006725087645215471,0.000588823047607
1681483830.8833466,-0.11733457772393216,-0.5651992633232149,9.764846430243107,0.0004296511437138442,-0.0013113874044233275,-0.000357763612968
1681483830.894008,-0.009942578368865838,-0.4994381173061794,9.724400096067304,0.003402064535200904,0.0001094513834626123,0.0001515059225734
1681483830.9032636,-0.10020290971351434,-0.30030204494929147,9.843450104497622,0.0029322987463181963,-0.00096977018786149,0.0019735436613213
1681483830.9134133,-0.03842220893009971,-0.35713666051138176,9.792367919785246,0.0006885472977908371,0.0010124692195819464,-0.0014757094945285
1681483830.9233303,-0.12100274608934752,-0.24982501410322694,9.863609610750805,-0.00064397253733401,-0.0005734093721372712,0.0004156131722506
1681483830.9334123,-0.08707636398276551,-0.3759889757686536,9.817787344576645,-0.00028262426888894755,-0.0012584911035943061,0.001458689460875
1681483830.9433515,-0.12756570847104565,-0.44771319665447556,9.824882746463272,-0.00012019072769588894,-0.0016969538191293628,-0.001010804673982
1681483830.953292,-0.002443410469174055,-0.4510362278129066,9.73153973795258,0.0022192783711380585,-0.0006896309479716938,0.0011133582116112
1681483830.9633143,-0.11853073693183058,-0.2034061665397837,9.883125712642792,-0.002829602547475512,-0.0007399273827567444,-0.0013200040015849
1681483830.9733253,-0.0024138045138758888,-0.4458318013869767,9.729654197835151,-0.0012709410865162066,0.000927136944108869,-0.0012849879025939
1681483830.9832854,-0.20333077694196638,-0.30810132773429316,9.90220346867752,-0.002923844723361196,-0.0018750134668346166,-0.0009310934733126
1681483830.9932702,-0.07585450357011636,-0.436424873628082,9.779898330478801,-0.0008332161161961996,-0.00228593656383453,0.0003090640489485
1681483831.003322,-0.07409383512882445,-0.4086372149732902,9.79189274667793,-0.0002520777199471402,-0.002041911888894354,-0.0003428683889556
1681483831.01339,0.022141469827075867,-0.24750751364630882,9.802067566911578,-0.0023416014132574036,-0.0007760655946487426,0.0018069946341224
1681483831.0232446,-0.09840806571546773,-0.5413924669947644,9.767187268705035,0.001714139164330545,-0.00162204878869802,0.0028411446797203
1681483831.0333955,0.0014653728442565054,-0.3368819482654312,9.77205577253936,-0.00014329444835888,0.0007356569882805045,0.0012299551413402
1681483831.0433178,-0.11564010301295718,-0.3905054615268987,9.85048448242349,-0.0004923720523132276,0.00021076335740848948,-0.0002743185072663
1681483831.053316,-0.1551006952632211,-0.4986762114743519,9.803610435441186,0.001500288990177105,-0.0010513562155500503,-0.0008197124156627
1681483831.0633707,0.030797316019474868,-0.13057839078134634,9.824489673950023,-0.002687668351401557,0.0006876030721006158,0.0010574710573077
1681483831.0733323,-0.05533009955808472,-0.5374548001784358,9.74712971312379,8.659168447995809e-05,0.0013566630253984864,0.0001191062579404
1681483831.0833282,-0.20886239320384384,-0.43367671545437814,9.86226593107421,0.0007492772978434134,-0.001213022594241781,-0.0006147983990136
1681483831.0934591,0.08150881614039018,-0.35135702376582323,9.707793794722093,0.0004691224726260821,0.0022801630398089335,-6.645813523714823e-05
1681483831.1034312,-0.13602877086797496,-0.44310204597903863,9.815574424243907,0.0016545300864218603,0.0011014696666264282,-0.000481064901081
1681483831.1133587,0.050938892574316254,-0.27161904916346147,9.774974981704258,-0.0003746630945338172,0.003610834961024749,9.224423733616788e-05
1681483831.1333923,-0.15889320469475454,-0.35793087055467115,9.860290802940648,-0.0011584384300937524,-5.82070471606519e-05,0.0011316063424114
1681483831.1434178,-0.15411729765068083,-0.5586390472823564,9.782064220120125,0.0010484520348648342,-0.0004418858354555372,-0.0020888862240586
1681483831.1533625,0.10049904980403589,-0.1596600603240028,9.781891107000142,-0.0020026058293227556,0.00251894619200438,0.0006473025965046
1681483831.1633503,-0.2799356019677547,-0.4695581327845927,9.875335796989374,-0.0009017579782258276,-0.0009045896442970519,-0.0012645036953959
1681483831.1733308,-0.024268421153063414,-0.3330169511629563,9.799564761840777,-0.0011673886788832705,-0.0005056161819875633,0.0003347684355926
1681483831.1833842,-0.10523338870684182,-0.5098589045113902,9.776900013374542,0.0003756307704201363,-0.0005886924639455941,-0.0018374547402832
1681483831.1935005,-0.011185764843479273,-0.34127246965107505,9.790832304218412,0.00011489254007755947,0.00045737662546158206,-0.0010074428323182
1681483831.203476,0.049140529843933405,-0.2649801488828327,9.78091219863876,-0.00028636043818595046,0.001744465687130406,0.0030188419582795
1681483831.213337,-0.1870855767091682,-0.5296789241168907,9.824397294446396,0.0006397577724615964,0.0006541033811511981,-0.0012935290619257
1681483831.2234964,-0.05036487560105302,-0.32312935437059354,9.809013330038754,-0.00027108240118108685,0.001005742989790848,-0.0007206031627479
1681483831.2334511,-0.09911251524695457,-0.48506926591514876,9.77030722486932,0.0017390971845463845,0.0008451969268524143,-0.0012726641766253
1681483831.2433836,-0.1494166114828357,-0.332072660333017,9.84645450826241,0.000913564645829119,-0.0005801186778517228,-0.0011624286457422
1681483831.2534063,0.020788144551604062,-0.3434523817259928,9.767662241550088,0.0002411335720975105,0.001479222692341394,-0.0011780881363425
1681483831.2634082,-0.0110267324809406,-0.24320504542305352,9.812948462139714,-0.002680947335211698,0.003008834967374908,-0.0012726923491332
1681483831.273423,-0.2012262629723095,-0.5605842022298919,9.810980893063483,0.0011478766447718285,0.00017687199202187133,-0.0010104388970408
1681483831.283358,-0.06537001660757838,-0.29975788178797325,9.833447264339854,-0.001612192379017105,0.0009833797730024205,-0.0029766454867545
1681483831.2933323,-0.020230079456885586,-0.31890774936489413,9.805081170599463,-0.0012452519928020057,0.00104187106402669,8.666433454568106e-05
1681483831.3033524,-0.15449539544785432,-0.41832588401078075,9.833770120201027,-0.0008287545331908911,-0.000264583180314002,-0.0006475865415755
1681483831.3134112,-0.21272663646299142,-0.3348462426765229,9.896022398724483,-0.0020428180477580706,-0.002994475989449364,-0.0013527900486711
1681483831.3234017,0.14195364369473976,-0.3637845903457693,9.691038092364852,-0.0014575995970259326,0.0010761361863699753,0.0001034139382194
1681483831.3334217,-0.20183127625364491,-0.4012653712455323,9.870090602194265,-0.0011006896208903866,-0.001417933283560936,-0.0001130118075284
1681483831.343419,-0.0643779293771229,-0.4877822241066785,9.764733835058896,0.0010964705347042123,-0.0012215953121399812,-0.0001759767805684
1681483831.353332,0.0052939378469707985,-0.3448360173394009,9.784321690642818,-0.00033330337758714375,0.0006160632567921281,-0.0011743621475521
1681483831.3639314,-0.1782806476470731,-0.285349611197325,9.884641281633073,-0.0023516526342345816,-0.0015073596937891349,-0.0012563027016345
1681483831.3734407,-0.017493385217071975,-0.45450684069850006,9.749073244911179,-0.00017906142723306612,-0.0005581356123834408,-9.587360951041264e-05
1681483831.3834145,-0.12447242929704391,-0.397090017296834,9.821945833609846,-0.0004707405666381483,-0.0010196865830145532,-0.0012603916733983
1681483831.3933582,0.0651407650082092,-0.2715810102802623,9.756744668068883,-0.0017150101680977544,0.0013160567713844562,0.0006566517363775
1681483831.403395,-0.08389469241933269,-0.4620200457057928,9.788243164681655,0.0004583217286664271,0.0007308259518833345,0.0014922228042873
1681483831.4133854,-0.17783646538083484,-0.33228048759453915,9.885013819090343,-0.0013245883296746823,-0.0008360437950089155,-5.526922582571787e-05
1681483831.4234114,-0.06815091694032385,-0.6071588964685426,9.717783859433387,0.003115590080815894,-0.00038078652054670197,-0.0002701856469262
1681483831.433443,-0.021510003036724484,-0.2641692717635276,9.811858918245516,0.0012607667562615076,0.0004544089799593961,0.0010832127841662
1681483831.4433985,-0.09225777997289418,-0.26522282259598867,9.851479696751625,-0.0013793536892336528,0.0002983043944146791,0.0004387029871817
1681483831.4533246,-0.08437919091622006,-0.46516320238146674,9.77097130097493,0.00010405141312154645,0.0003508342254799031,-4.186446717863363e-05
1681483831.463382,-0.0024676406851379417,-0.3336369082225154,9.782038249834615,-9.822585049627878e-05,0.0014240879610644996,0.0013990736584186
1681483831.473394,-0.09704388021652159,-0.37105000693319673,9.82454549567355,-0.0009025266999218252,0.001171888795847387,0.0005243924056653
1681483831.4834795,-0.14862467935185647,-0.3966611871831477,9.840024101560305,5.339759578470794e-06,-0.0006956003141325175,0.0014572020932486
1681483831.4935038,-0.0907513111553798,-0.3713952267920504,9.828741174894327,-0.0009561451843115188,-0.0005681914180533026,-0.000672922473726
1681483831.5033777,-0.01881553511540474,-0.39597513258560324,9.763457772904328,-0.0001351025081315137,0.0005061800589550456,0.0004573364235934
1681483831.5133903,-0.16297889256866427,-0.43837491580562893,9.766978721029583,-0.0004741036587428224,-0.0006471699021154083,0.0007903744658928
1681483831.523344,0.1544955260686107,-0.2175973850365593,9.777378228468672,-0.0004114284687497891,-0.0008789213258378799,0.017543372461247
1681483831.53337,-0.009107164059970672,-0.19767927392688645,9.857867839137988,-0.00043222963256225275,-0.003351633922974742,0.0345191347837921
1681483831.5433707,0.12968402120428915,-0.19583476509041373,9.906984961029586,-0.0001983999368237991,-0.006106376629882946,0.0546275402844425
1681483831.5534136,0.5727183371814407,0.12438166135158435,9.707613721794573,-0.0017310515046283345,-0.0017096491973135237,0.0753643575549599
1681483831.563404,0.06687263988441831,0.17946388807571964,9.913672008188945,-0.007904774605071099,-0.002143017337081356,0.0885913956404205
1681483831.5734446,0.0014894758144573088,-0.5810690685437692,9.851446259458958,-0.0035846482460019998,-0.003408843538657,0.0954577836633202
1681483831.5833693,0.10071117088465233,-0.2943303716708942,9.66299156453162,-0.0030985874572518916,0.002014339441443542,0.0966544214129921
1681483831.5934052,-0.1315221207706773,-0.58819020704671,9.839385861585658,0.0009742291660042759,0.0032690967065944813,0.0938674870372291
1681483831.603382,-0.26165957193148637,-0.18453659167644,9.848856632032232,-0.0037065870417202326,0.004675657976107321,0.0895439002156731
1681483831.613394,-0.6077734341695763,-0.769371316227529,9.76939422068794,0.0012390668404669582,0.0038262075885825923,0.0850295710802551
1681483831.623382,-0.902236114311824,-0.5889572730958756,9.935774391190174,0.0012280210204916621,-0.004646527270169113,0.0807924631476875
1681483831.6334417,-0.38371801958667634,-0.629806313006929,9.770776672561961,0.0034447739414941525,-0.005286953039663944,0.0785092476249214
1681483831.6434002,-0.15489443145886814,-0.579929765516303,9.660098069155309,0.005486405682325477,-0.002440374724603871,0.0817387613893028
1681483831.653426,-0.2570472719045112,-0.1590308184111142,9.77714316343108,0.0021057560271809635,-0.00176405873334441,0.0891393113375183
1681483831.663385,-0.51584339663071,-0.41882174429069313,9.838907820863305,0.0019558411257689203,-0.00478248539621139,0.0903701994061943
1681483831.6734324,-0.47103570543385265,-0.5942100666149469,9.8236435137695,0.005731167718754536,-0.007962995754244974,0.0941416087985512
1681483831.683407,-0.6682099085401374,-0.04212708883538552,9.931153039116168,0.00031416357252685303,-0.014925281536022999,0.0963582459331032
1681483831.6934357,0.3802751616512363,-0.5530097370809828,9.924351962362389,0.0007319600225337131,-0.009756340486713005,0.1112035203218933
1681483831.7033434,0.36213377801040525,-0.19114596710314913,9.434308745193036,0.0017043648762114318,-0.0008983711563893233,0.1459489006042953
1681483831.713336,-0.3845559911099642,-0.13089708920342616,9.876521819910947,0.003944919103426609,-0.010824664193376243,0.1894453305244919
1681483831.7235408,-0.36998396900221775,-0.23160591998825691,9.863891187253705,0.00452741078307815,-0.01720474382446253,0.2238487142563339
1681483831.733344,0.06641268773266672,-0.6301196218964175,10.027791283472544,0.012506099010295204,-0.024662860000617442,0.258746145987558
1681483831.7434237,0.7868075166870055,-0.08047953849730327,9.433145647207217,0.019279962295222393,-0.01564969586349814,0.2857506859541412
1681483831.7534451,0.5021120681345683,0.030022937937367305,10.274083642976265,0.01644696366644377,-0.013854484123634062,0.2993647742510315
1681483831.7634137,0.918797725365715,0.8218643877767253,9.847342247848633,0.005415570877393976,-0.00514540074847391,0.3072703171015259
1681483831.7733731,0.6300945034399738,0.7749263664390801,10.077854998262886,-0.005754134474585915,0.0009256747454733477,0.3092683840036865
1681483831.783404,-0.004481781000704433,-1.2056108066811237,10.037232281022078,-0.009100436297066595,-0.0009265495183786352,0.3031986344099518
1681483831.7934089,-0.30912840515132606,-2.3205362999756107,9.318049551846643,0.016054662508845383,-0.007480741637980469,0.2972556638956543
1681483831.803476,0.0834934271355096,-1.6828867225212802,9.600652245919884,0.029186258503987705,-0.013740521628218207,0.3000662017107483
1681483831.81335,1.3875516683342668,-0.860972309156043,9.282531406193254,0.03836367562365354,8.8406860083492e-05,0.3057031023741242
1681483831.8234518,1.535460751763197,-0.16472724496597274,9.579630944337477,0.03944345735705716,0.018757066195700996,0.3165629494429108
1681483831.8334036,1.0614952716847705,-0.532789433065417,9.427026570169723,0.043358937016655566,0.027786915773670148,0.3365450191736694
1681483831.8433747,1.5821205834990437,0.4116692963971987,9.495137804394961,0.0494068229193199,0.043215270022186676,0.3683668959379669
1681483831.8533812,-0.4902396239994367,0.21647866275500013,10.062879817416722,0.051298175551435,0.030431285730751104,0.3916100847959992
1681483831.8633776,0.302258744344767,2.0768926721395378,9.97501481747739,0.03636147859863381,0.027704475157432122,0.4103221285582062
1681483831.8734071,-0.5114143653340499,2.226225187697428,10.667863875114831,0.009924247883786723,0.018694859334875212,0.4211918103933807
1681483831.8834145,-0.9697538176567664,1.4804427553416277,10.42545294194765,-0.010074640709282616,0.0008361887925719861,0.4277432847261902
1681483831.893453,0.23980317891868722,-0.1249290334109206,9.89314719840447,-0.011227352847796062,-0.004346138010791825,0.4283503878355499
1681483831.9033556,1.239402479922525,-1.082331780282721,8.893404535144636,0.005138014563205738,0.011638916772187681,0.4358884382486817
1681483831.9133973,0.8640194301946696,0.044592204713892164,9.52951106577454,0.0032183375832302756,0.021277160620978775,0.4348341214895722
1681483831.9234238,0.13262882024910067,-0.29341142077873145,9.317774932748785,-0.0002858962729778557,0.028060467234092567,0.4147607374430176
1681483831.93339,-0.05846275848206591,-0.9201381340534611,9.277763939380227,0.008301547081533373,0.031231125572869965,0.4062488067389008
1681483831.9433749,-1.7620445849017026,-0.42882754883242796,9.739598823789537,-0.00041499419010830027,0.01865736292894594,0.3882765460253235
1681483831.9534194,-1.9420275982644077,-1.684083482066973,9.992430480701563,0.010184297335816658,-0.0072672091401131235,0.3643531191587921
1681483831.9634445,0.9239510258284616,0.31707946428585676,9.92504640189652,-0.006864014559750698,0.015198473378402034,0.3463623512030121
1681483831.9734688,0.44109506390269204,-0.20414495899013366,10.364948874516315,-0.012001496662276543,0.0323619953257314,0.3313918102026459
1681483831.9834678,-1.1602153620365787,-1.8747211598494185,10.44658644725593,-0.00709503400498454,0.03353316883479555,0.2932072270155426
1681483831.9933994,-1.1813274599339672,-1.888183540534491,10.139753669421232,0.006071589189176122,0.029320030831197635,0.2624642539263245
1681483832.0034325,-1.2401014399689623,-0.6398812298129586,9.719387584759518,0.003850638610422622,0.023011551291042834,0.2505505520344254
1681483832.013438,-0.8517740837338947,-0.38070763605244096,9.48984234712092,-0.0019367800077976843,0.01951885276136966,0.2502410251141068
1681483832.0234845,-0.9301493142528456,-0.26069912218015817,9.4590176923307,-0.0030073459862267607,0.010952233817443447,0.2577923524618622
1681483832.0333967,-0.3411344677530021,-0.6286122353959596,9.757987939976314,-0.0014533471556474578,0.008394093200349477,0.2754726398230072
1681483832.0434742,-0.36861505855137433,0.6045972829526483,9.799255412637292,-0.011970201574288922,0.010656488107905197,0.2877969134092804
1681483832.0534663,-1.2513746152939622,-0.48659016448168024,10.370563966966099,-0.01138072584253232,0.002321927024014839,0.2849715936422821
1681483832.0634985,-1.7583148996461022,-0.115705289404933,10.423159323788028,-0.02113548081392068,-0.015087577641046785,0.2734234619379517
1681483832.0733998,-0.12228520730421093,-1.4987153554907329,9.629257844182536,-0.01354472797340218,-0.011858850259259358,0.2695854890585419
1681483832.0834515,0.28092489652013375,-0.3357558625869694,9.1603210314325,-0.008573743549275236,-0.0009376748643816745,0.2833059120417114
1681483832.093435,0.2919399698273232,-0.4233639425485956,9.834492640757826,-0.0071881864001199424,0.005849822520885832,0.3002212631941315
1681483832.1033978,0.29936224727368116,0.04479928497719474,9.62912095659716,-0.008614983786904729,0.0177927255056481,0.308869003081369
1681483832.1134298,-0.6904638302553758,-1.2293340331475864,9.885467798456444,-0.005632727347993215,0.020085122469467517,0.3116443145514008
1681483832.1376972,-1.359792476279665,-0.818023980987392,9.68317989956994,0.0019010023817087887,0.002641546075415018,0.3182394790888306
1681483832.1391585,-5.547480003238583,-8.908361598155754,10.073063531092737,0.018863576645934396,-0.009793265879052626,0.3093641388655182
1681483832.1433606,-0.8138358767636198,-3.519194827535696,7.955128448131223,0.044584337077477346,-0.007062859723792054,0.2978647935629364
1681483832.1534452,-1.7409362872813203,1.5818583433154068,9.918265971562269,0.015157739022382962,-0.026341591707325286,0.2867961514235016
1681483832.1634138,-0.6612378684669016,1.5360719567093923,9.824049350025598,-0.0045033152180348705,-0.027572856048634378,0.2816548335791107
1681483832.173437,-2.1258702195439896,0.3857591558154755,10.583602948598141,-0.01640406805878719,-0.04904777245139096,0.2679603982210632
1681483832.1834638,-1.451344103443595,-0.679810727339855,10.57005011710878,-0.013804320677335644,-0.06817382317761209,0.2446960348129745
1681483832.193461,-0.26152928725814256,-0.677967150076588,10.193466683333845,-0.012402522890267439,-0.06463353452614362,0.2282340365887161
1681483832.203403,0.7395080661953323,-1.9884735697253408,10.075948057297312,0.008180781077018676,-0.05457682032718589,0.2233192461967941
1681483832.213412,2.011065139191342,-1.1609650975834247,9.502025405007013,0.028090363613623406,-0.025610757878366995,0.2124640780926224
1681483832.2234807,2.1002122309226436,-0.8562069044208217,9.11459014141187,0.03790842133449149,0.009062924511815843,0.2179244297981735
1681483832.2334182,0.6855572265444663,-0.9022313322451736,8.768129379463474,0.052042682330206376,0.021984696731410052,0.246905176663446
1681483832.243513,-0.489606190293806,0.7853484895094887,9.869093026110429,0.047375710460752916,0.010363351619767518,0.2679870116949555
1681483832.253477,-1.346422329571002,2.124569314782778,10.680787155960713,0.02099095727062199,-0.013145803573002119,0.2848893392324921
1681483832.2634864,-1.085016729290919,0.1048076282140446,11.037433905495885,0.006555516604780525,-0.03196089084908847,0.2704761314630982
1681483832.2734177,0.46194906349840975,-0.12654348565587992,10.28590171602401,0.016544065380446404,-0.030059161388205496,0.257715849900293
1681483832.2834022,0.3314467497354748,-0.1299658615810994,10.045246055019142,0.01005775147992483,-0.02496362594712972,0.2564702916384216
1681483832.2935057,0.1899588274825892,-1.7681814215061438,8.911271906445139,0.026236257650037887,-0.018198606708237256,0.2458572674036499
1681483832.3034587,0.35565817147081186,-3.6204064913728677,7.9984376879875665,0.07304406453687372,-0.01115958839006597,0.2486895460129257
1681483832.313439,-1.4931849402141426,-2.422698737432945,6.84529775315024,0.10169116388288835,-0.024041479611542693,0.2573074090719696
1681483832.3235478,0.8141648753630499,0.5987189973603961,8.903071319377823,0.10278919939091181,-0.026375128925932093,0.2774629581213471
1681483832.3334012,1.0695230903141717,5.502719422982255,10.349099065066543,0.04671035491486304,0.0019673248055884726,0.2797676313162323
1681483832.3435037,-0.7998127122389569,4.423351532907388,14.023408891338056,-0.025307777759430775,-0.004652440803127034,0.2399906057358261
1681483832.3534908,-2.530118845021698,-1.900380779328369,12.399229582246921,-0.022839143139248345,-0.027198513029403484,0.180738447928476
1681483832.3633878,-1.6636231337251126,-3.445632671127844,10.102688209111776,0.01997633061716098,-0.04856765735661666,0.1457368868828293
1681483832.3734453,-0.6038215846496986,-0.001966697249388696,8.308983626710734,0.02230269472465924,-0.05784724873406389,0.1510129857302185
1681483832.3836043,1.2935831700508644,1.1814677101722162,7.746142985839255,0.01631092704510256,-0.048175576553889383,0.1858199376106735
1681483832.393423,1.8116730408503134,2.05309401445592,8.35730593719694,0.005408794995168959,-0.03373231972036117,0.240910201096582
1681483832.403535,1.254539662691793,1.907052475658319,10.048777587108464,-0.009885381335611895,-0.022224133910137462,0.2892250108957764
1681483832.4134538,1.3165618138811752,1.6977612267481355,11.549102248409763,-0.019070695567284225,-0.016588622939692314,0.3025241184473511
1681483832.4235375,-1.024781582785699,0.40296835348488785,11.665242289260526,-0.038223669185441254,-0.021211662166687396,0.2805116462946411
1681483832.4334412,-1.1544546788854242,-0.9020252569869992,11.29526802909929,-0.03519831114408319,-0.04278264772607872,0.2641535389662262
1681483832.4435732,-0.7286324767729236,-0.5123709236845193,9.455106380655824,-0.03055097109076113,-0.051692151430486465,0.2629940498114105
1681483832.453401,0.9409646282069734,1.131675512615699,9.395047219827033,-0.0408608446377569,-0.048734369072188165,0.2859918165445801
1681483832.4634738,2.0237245438213773,1.7795749168685253,9.154413767429274,-0.06275905924373901,-0.024555095222687905,0.3129130590200897
1681483832.4734824,1.5122561652816449,-0.5350972361693637,9.062427581938298,-0.0544788444981334,-0.002403468548086076,0.3323510277510162
1681483832.4833884,-1.0405883915960015,-2.091834273212506,9.683390637865896,-0.039235931992867616,-0.01387181478469941,0.317398397946405
1681483832.4934604,-0.9182074846923589,-2.232896033428305,9.495038567512402,-0.018987827165199398,-0.024755347535787023,0.2879736709833618
1681483832.5033891,-0.6387731874904524,-0.6677049435201978,9.834857874245067,-0.018604507963663534,-0.03172507223177344,0.2629664230585571
1681483832.513497,-0.517799825354539,-0.3481644155629967,9.775277594161254,-0.025579292426582127,-0.03109642192509059,0.2439946520567413
1681483832.5235147,-0.19971428700207025,-0.03052996860407037,10.064561785373392,-0.033317950008109644,-0.03660419289699635,0.2317772048950668
1681483832.533469,-0.06816818909850508,-0.7077761835250885,9.61799669158828,-0.03279472646522855,-0.029234337952393556,0.2208407658577438
1681483832.5434668,-0.7789979997455171,-0.29140433120633963,10.196331255980235,-0.03613322241968221,-0.03810133120859656,0.2093469339848038
1681483832.5535257,0.19806429939338893,-0.9892066035591043,9.181740147958124,-0.029275770270267308,-0.03009186995213963,0.2084665584803101
1681483832.56351,-1.1190253051588217,-0.3445279668703726,9.586977600820852,-0.02884682090002054,-0.04092945541053032,0.2074261296034332
1681483832.5734522,-0.9493818400500922,-0.777643576237242,9.04258857062001,-0.018851174728147346,-0.04912545124773141,0.2006396192551132
1681483832.5834727,-0.3922730191283455,-0.4215958607363287,9.68618532358768,-0.018181312602821287,-0.058594638220015656,0.2160465407610413
1681483832.5934565,0.3793665258349579,0.44996315833528955,9.953634874857139,-0.018770664431336966,-0.050976082122115025,0.2215304064989563
1681483832.6034498,-0.2483331967057553,1.5368708933383917,10.822828282944796,-0.03513580984147689,-0.05199997688355016,0.221060245060968
1681483832.613525,-0.6779972515980273,1.8604707906251496,11.029365793866322,-0.06485828622939023,-0.058313718730858964,0.2167823153973099
1681483832.6235862,-0.3444167851878525,0.542332600905695,11.004433359676437,-0.07353377610462533,-0.06802754051345235,0.2200727153063293
1681483832.6334507,-1.326506569282502,0.7844662234674917,9.854194274083145,-0.07901644578918121,-0.08636645884702503,0.2281404572964188
1681483832.643442,-0.4511891855616157,0.5289758351184287,9.73018088932403,-0.09044869475383416,-0.10466739500729623,0.2510976034641739
1681483832.6534429,1.0873649533209846,1.1784494543768924,8.572146772530393,-0.09461937924610149,-0.0940071079058853,0.2873631704092499
1681483832.6634858,1.0599271705098001,-2.1915901132321722,9.026268929381507,-0.0686397539556185,-0.08917995680946479,0.3276582646608826
1681483832.6734524,2.674755930353794,-1.7566137228531116,8.518033835736203,-0.035926480430719596,-0.0632026086373046,0.3622774172068115
1681483832.683462,2.602440763085506,0.0731198183956442,9.87361484154483,-0.027000033477763898,-0.03211853545699224,0.3627895403147217
1681483832.6934252,0.5492147692242355,0.7877705920247945,10.909667398890996,-0.055718321412573275,-0.014265132762396928,0.3303711402655121
1681483832.703453,-1.1016564282681467,-0.9795783390549329,11.58155862542627,-0.06112042108454015,-0.02396755112705494,0.2831163692713257
1681483832.7134764,-1.5296882234076292,-1.6497956546017816,10.63251992405909,-0.06299951008626431,-0.04065527526482279,0.2493968296289917
1681483832.7234912,-1.1942915064545359,-2.0932019433102695,9.27986226749891,-0.05634574255238526,-0.049249852504323136,0.2325884092092987
1681483832.7334406,-0.867607923006401,-2.5270298981202477,8.806627308285162,-0.04319264604550372,-0.06533625068427613,0.2441325921059128
1681483832.743527,1.8215447359724624,-2.6404172662991425,7.894057275452558,-0.014190490732297873,-0.04468037406727368,0.2776969361544129
1681483832.753446,2.0490788806603875,-1.3600269106846712,8.845580341711868,0.00495741450746986,-0.022287923647420035,0.2940550136805054
1681483832.7634466,2.3092949116669232,-0.9934768648102996,9.701634556934817,0.011020778385492614,0.016708045719151066,0.2925363171339508
1681483832.7734933,0.8386439417574215,-0.019903597228479213,10.893580177104434,0.0013717548140231212,0.03282424620663834,0.2664788651705261
1681483832.7835767,-1.6557760462544973,-1.4836345196910168,10.881806509143178,-0.0032104230547884585,0.01931999338551087,0.2307095515966888
1681483832.7934666,-2.7493521852623286,-1.162665810228882,10.023745901070177,-0.005278171919126063,-0.011499419765794218,0.2161197352648254
1681483832.8034894,-1.3041130436066222,-0.20361185783807187,9.858437873966544,-0.010250273785381953,-0.038268740401816735,0.2198265630245682
1681483832.8134809,0.9740618228492463,0.3363247328192298,9.19165817974535,-0.0182335834462426,-0.03424076909927789,0.2438233930111404
1681483832.8235416,2.565974326835244,-0.3138961932588087,9.083331144262573,-0.013554595038706586,-0.007408343289063432,0.2792057681322571
1681483832.8335285,2.090364486605154,-1.3952121749366537,9.747615917858933,0.006569955010625802,0.013096178699605167,0.3024967599153992
1681483832.8435843,0.6680582447936991,-0.8782764158977926,10.065779015802658,0.020224814849136866,0.019550667806300888,0.2983915794134613
1681483832.853464,0.14144510252640302,-0.17837187513434144,10.439505069707263,0.011786130681080378,0.02310622266184213,0.2790007579565521
1681483832.8635173,-0.600214792503494,0.15845605453540357,9.928996036440944,0.0054109587389114784,0.013366702480289441,0.271452604556131
1681483832.873539,-0.4755812362824004,0.34094950739726765,9.81909174043637,-0.0014248282467109498,-0.0006241103168638901,0.2737189519644257
1681483832.8834715,0.43773556298769517,0.31335736283424714,9.39906898649868,-0.006894173352297244,-0.0013822914298180081,0.2836617219686981
1681483832.8934655,1.9533186106723779,0.5630974333805628,9.44823346131326,-0.007782682945118915,0.012976063331400858,0.3031903791666504
1681483832.9035857,1.3851212247007678,-0.379421335798953,9.464765341522808,-0.0021650574536253844,0.03423000864313166,0.3156882810831543
1681483832.9135008,0.06746111301279681,0.18201820122339563,10.584073652496084,-0.006760462179705039,0.028176733127272365,0.3165829169989105
1681483832.9235425,0.11804260536474949,-0.9010905307271676,10.114501461500769,-0.0048021972493661426,0.0317010846008343,0.3019741463900086
1681483832.9335086,-1.0752595285155495,-0.9665934904229077,10.567320672448115,-0.006784583958313129,0.017845161961084283,0.284394441866922
1681483832.9434433,-0.6748723962419764,0.1086268143239618,9.622247686675374,-0.013881606647910757,0.006644986134293879,0.2784364509821411
1681483832.953527,0.8649144105904848,-0.08031579314558124,9.54477114708914,-0.02191653376055704,0.014820275491702187,0.2976220238447662
1681483832.963538,0.19381017756787225,-1.1064600379291498,8.96139007818244,-0.007496964549287519,0.019366650585002178,0.3144289243460175
1681483832.9734173,0.22993147347986112,-1.5785598669126377,9.094131642563088,0.004910920894011983,0.022684052658587226,0.3168360281229492
1681483832.9834414,-0.5286036515584093,-1.1556996146122223,9.257836455550297,0.00700253554397822,0.023340588469916622,0.3065439450979706
1681483832.9935057,-0.4947665683432925,-2.39993702450311,10.089410437390288,0.013835420335108692,0.01959268702719677,0.284804164195108
1681483833.003467,-0.34280071869923234,-2.5225361436143556,9.553470894539384,0.0374817308157001,0.024314523563154538,0.2565395522356506
1681483833.0135276,-0.11268161782322647,-1.0437848530508829,10.490469952497437,0.029896055747881015,0.030134807589254794,0.2226765740156647
1681483833.0235758,-0.4179411697485378,0.3395340187042826,9.470367055814659,0.018013709407402347,0.04004365337155381,0.199692561054277
1681483833.0334334,-0.5634315014567632,-1.8781082338933606,10.336006070145217,0.028830365378362095,0.0302475320457816,0.1923822450876709
1681483833.0434706,-0.4678754858854222,-0.931917401492642,8.73636649333777,0.0406757912876257,0.03403031638001191,0.2024172085762497
1681483833.0534835,0.5940291359589394,-0.6398323486005756,10.190010327832102,0.047597469958364724,0.03126433277772215,0.2296941268682953
1681483833.0635092,1.7545971949043115,-0.33103519014345223,9.118884132847244,0.05945273659778413,0.05666544240140362,0.26073124887948
1681483833.0735393,1.5691309071426482,0.5528279411811063,10.280061795954095,0.05283514888467604,0.0765658101314948,0.2882667470217224
1681483833.0834782,-0.18139657455067382,1.2981275647631745,9.822492366081931,0.039904022173635895,0.07782263661023016,0.3078143584967133
1681483833.093479,-1.0327324345795392,-0.3505497487094765,10.379618655890162,0.03408275328632916,0.062335523959184416,0.3179636883974548
1681483833.1035182,-1.9835508339523493,-0.0014922007499432244,10.00814994973821,0.028522637176635744,0.03468397199507051,0.3340270805597778
1681483833.113477,-1.3127991123903169,0.7468516601282499,9.86957362976647,0.014636264093203264,0.012068812537412503,0.3379499900579926
1681483833.123585,-0.8732492314899518,0.7905064350104204,9.861892425290835,0.0017930338479872755,-0.001892831542870446,0.345438896441507
1681483833.1335168,0.22892900251588558,0.8010068588763833,10.084052705877866,-0.0151948335458518,0.0019577215803184837,0.351353465342569
1681483833.1434565,0.6571892778308799,0.1295558399810872,9.943106888543854,-0.010878772909517876,0.009742123156961343,0.3407765019178864
1681483833.1534843,0.3794316063981196,-0.9676646628981246,9.791570847293833,-0.011301476298424032,0.024941738586732657,0.3162841189146515
1681483833.1636355,0.1799279803021618,-0.5422172304633488,9.675339544593747,-0.0012568443125875984,0.031752309299770055,0.302004544758844
1681483833.1734996,-0.3266871147194219,-0.3878571462134844,9.433812037912718,-0.007594048914510748,0.033069596111162745,0.2979993212461945
1681483833.1835334,-0.8696878126293637,-0.20299632649265614,9.471929626424869,-0.00969123267875564,0.027075175635402106,0.3058767605066773
1681483833.193488,-3.0853734213694786,1.3802318323602107,9.352208114488745,-0.030497182959142607,-0.007669145064457728,0.2942099261522766
1681483833.20348,-3.332289762598058,1.7727302538415495,10.273914984894569,-0.06705288575671842,-0.049434457875107606,0.2868666935205933
1681483833.213499,-1.2492499743250842,-0.2210913939825315,10.755048766104668,-0.06995865466213562,-0.0643138412820609,0.2714585948229309
1681483833.2235055,0.16218654399163515,-1.7617976795973058,10.549864881321872,-0.04994941802497735,-0.05527417756140966,0.2342004466295715
1681483833.2334616,0.42237066922059047,-2.1070521316065296,10.036669326134266,-0.018002251199879808,-0.04235097133435685,0.1902682620525833
1681483833.2435868,1.299060479975634,-0.9937806787834603,9.715951443068246,-0.007745081214686239,-0.021962923913445887,0.1603625107050415
1681483833.253508,1.0525278294126685,0.4224984689367945,8.290199941865495,-0.006699562877034181,-0.0013495383939280217,0.1660956728697296
1681483833.2636197,-0.4092278479192796,4.134567827735675,8.798912768403586,-0.045536955918803634,-0.007932301761965676,0.2025425571442123
1681483833.2736506,0.336136365982621,0.9356078887548233,10.084372779815565,-0.06493357552187623,-0.012946931578818235,0.2551122892141815
1681483833.2834735,-1.3546327864707979,0.22176253652283492,10.08179956114232,-0.0605754704790284,-0.02826940688423992,0.2801234710455414
1681483833.293515,-0.30363965754200806,-1.1900531704413913,12.088745641512434,-0.057903396937536974,-0.042700572775561954,0.2768275726080414
1681483833.3035944,0.054650414740005794,-1.4024016974600628,10.339454388174495,-0.05114794695813625,-0.031884750025097656,0.2676524210215088
1681483833.3135016,-0.15680382123640169,-1.1694852477369235,10.44063378789006,-0.049643377223359875,-0.03028832316659435,0.2580394435167786
1681483833.3235326,-0.6466401967925488,-1.1319308906545185,9.101331748439208,-0.04328987838678015,-0.032193915229264486,0.2623766350985047
1681483833.333559,0.00827814104751719,-2.409930795689723,8.522587401114398,-0.03592684061645887,-0.024334239103511845,0.2815060007811066
1681483833.3434596,-1.413018675880085,-4.500818537983287,7.596666092778411,0.014979887217849305,-0.039355098487514735,0.3062855291605469
1681483833.3534846,0.9681591684535338,-2.3959598911619118,8.668875397837756,0.03328284633666739,-0.03258451175278009,0.3346614229917999
1681483833.363587,3.493474230953328,-0.6207730714179891,9.652527405692922,0.04363225281962861,0.01704423167264555,0.3377761829138275
1681483833.373483,1.851064145580903,-0.895925811625918,10.53707450189944,0.03779133682327718,0.060492453875653954,0.2990248489618775
1681483833.383546,-0.4430054035582568,-1.3937294412642667,10.957757107349865,0.037010446580971974,0.07120155127509827,0.2412253159523483
1681483833.3935082,-3.0518536986194897,-1.8103382941709927,10.099532125200662,0.0401979317402534,0.048694424908305924,0.1928149450064178
1681483833.4034667,-4.330514991341232,0.19880087789949447,9.791638402730422,0.02257644322999757,-0.0021205038165452404,0.1711021352053162
1681483833.4134877,-2.902571099044312,0.9998833613713899,9.371141316308384,0.0015889674730417715,-0.04335900897909829,0.1884821343660828
1681483833.441657,-0.39123405189711896,0.28772551922224004,8.443571161967592,-0.013466997769946922,-0.055087615071431784,0.2168853271246429
1681483833.4426095,10.035675844210834,15.284610011763787,9.332345219799066,-0.024661816864604967,-0.047901913694709475,0.256152688288736
1681483833.4434657,13.352652839251059,-0.8472929867839849,4.210725362217938,-0.012834633238525678,-0.03165894978190113,0.2769794750452515
1681483833.453576,1.8727405827619208,-1.8758814647083206,11.448359116495276,0.01632397838443276,-0.007382289882641064,0.2592817235231873
1681483833.4635322,0.6992651696822575,-0.92180968526819,10.399970912120136,0.030386215681037363,0.012859971880268668,0.2341327208519455
1681483833.473497,-0.20040607759098905,0.48130089010144955,9.711771986692176,0.019893372990320485,0.01638706286100312,0.228201283836412
1681483833.4834907,-2.019992326098388,0.2976724208775781,8.760690077394825,0.01214202223865759,-0.005550299137272357,0.2508295911789414
1681483833.4935389,-1.6031656915597683,0.21403964456985725,9.211677902296449,0.005498023828344294,-0.033813072601384435,0.2886840987444397
1681483833.503538,-0.26624879971100285,-0.05012174818656349,8.580006790147744,0.003633169836235258,-0.040752753208907685,0.3233942675829407
1681483833.5135455,1.725254321331779,-1.1617237371135796,9.91631547949858,0.017099508824756634,-0.029658013204366028,0.3489671039820191
1681483833.5234911,2.249114045266964,-0.020814729350597,10.550728140557903,0.013804255614871386,0.0044532152049145835,0.332221715474176
1681483833.5336246,1.3011583498434505,-0.7306450638006765,10.923524951505835,0.02019694652706666,0.030565056606561773,0.282856493020105
1681483833.5435345,-0.483063840562808,-0.8689384174257552,10.362470708620286,0.017370147700997488,0.035523369514474226,0.2402913707733627
1681483833.5536094,-1.669527393317253,-0.24775406281043477,9.749047232453801,0.012589322332530104,0.018379101487965052,0.2165130812168594
1681483833.5635543,-1.6080008407956432,0.3880244480061307,9.28481096402893,0.00237895619486799,-0.00639554917534644,0.2226726103067871
1681483833.573516,-0.8755802932463731,0.7503685876337696,9.155277372539146,-0.015900083148971542,-0.020154877769756118,0.2486489552498337
1681483833.5835173,0.7157952641387221,-0.2801842283867425,9.812715266415813,-0.02111435656950581,-0.02139962471637343,0.2708200502634522
1681483833.5935793,2.0109442824368493,-1.480206848941879,9.682000246603602,-0.0008962542152568575,0.0017374721644935795,0.2929141211748596
1681483833.6034544,2.1111137997825975,-1.4507092520016196,10.452718380504948,0.018305670910387102,0.025556873756105467,0.2938541758299347
1681483833.613464,1.650392258215669,-1.437768210659563,9.648373196115449,0.039213333657221724,0.05435958673647675,0.2882182288408753
1681483833.6235294,0.1073127809099864,-0.6359445263935158,9.893086740711443,0.04479001098536131,0.05727747241387426,0.2926136243582245
1681483833.633559,-0.5903650113236663,1.4158647458643137,9.05312964925613,0.03489037798690631,0.050957487427656024,0.3129057872534271
1681483833.6435137,-1.2465817864869788,2.0477071557024575,10.164308754361626,0.0053850332152023,0.03172898798086859,0.3413291561842438
1681483833.653582,-2.913761300473254,1.958819730297037,10.129990873782067,-0.01948057475436476,-0.009419786204344503,0.3549690532923218
1681483833.663526,-2.8248047166973085,2.627770569082511,10.339373778966426,-0.061270641277411754,-0.04723529936008453,0.3462672817945953
1681483833.6735592,-3.3680339555690493,0.4741237624980676,10.7560443380608,-0.08371585716588885,-0.09108930495077462,0.3352576184511658
1681483833.6835203,0.09742117339435662,-0.9087450570806223,10.526628393421655,-0.07472729300369349,-0.09574966396568832,0.319812743687677
1681483833.6934772,2.1952553007032343,-1.836634516141582,9.685520574524825,-0.0511643358850535,-0.06646332861535219,0.316610931181955
1681483833.7035797,2.469021579145494,-1.7360330016657375,9.20167295903492,-0.024958569070272912,-0.029913242002117663,0.3186704206705567
1681483833.713518,2.1274206696737608,-1.7728212772930145,9.510678926553378,0.009231790126675164,-0.008029469858340818,0.304410128617334
1681483833.723523,1.9715068217621086,0.026248089169782916,8.820005080297175,0.011514684347528583,0.024257852596469967,0.3018739509821411
1681483833.733523,0.43238305279710565,0.7344231163573077,9.61485068577865,-0.00213333337841707,0.03209213540553511,0.2967976618052002
1681483833.7435827,-0.9596799691519414,-1.1409855233088324,9.981881838496868,0.003258991862854142,0.012959116483586271,0.2835260617971893
1681483833.7535334,0.4979744395715274,-1.2354663128089425,9.718730428492727,0.00315035574653312,0.02020366961230349,0.2869871843100067
1681483833.7637029,-0.4269016769985106,-1.317419121752686,9.821742023337322,0.012915098487760457,0.009084395024327513,0.27979943039422
1681483833.7736166,0.846592160505961,-1.1832791601518708,9.727357072958092,0.011647713593544167,0.013705936514076963,0.284110097909021
1681483833.783574,2.7914873645105382,-1.7782632339715176,9.023869331823573,0.031260431668892884,0.04435246731555567,0.2968553292990204
1681483833.793662,2.7086280999199777,-1.1228680301940768,9.04246447728729,0.04127831974296743,0.0775493008066919,0.307324676537561
1681483833.8035667,1.3924001352122057,-1.5674280103923404,9.50087471452095,0.05057094594139817,0.0967106913918431,0.3015068757772919
1681483833.813497,-0.700242561931298,-0.4636063184103208,9.776408992320308,0.048965247721933315,0.09156374409821907,0.2843180585146423
1681483833.8235931,-1.7968428836000412,-0.0496408928539229,10.503730046597825,0.0284052808015185,0.071341875027223,0.2679368841886994
1681483833.833527,-3.4212365820553003,0.03586800669555676,9.640731700775111,0.01098524585020653,0.036632181503614636,0.2555007028818604
1681483833.84357,-2.2808885429086176,-0.5203341186338352,10.592855194865125,-0.003481544453591298,0.0023455686540007313,0.2474526304245468
1681483833.8537204,-0.8357188389705046,-2.009813847853275,9.307312492704423,0.0062646565647476145,-0.0006932672723996218,0.2550532508135315
1681483833.863568,1.3617978968826918,-1.992910428655566,9.607254158615032,0.025983054482071978,0.012276358080571096,0.2562001633882996
1681483833.873638,2.118351822163299,-1.850683400791541,9.403088770587084,0.04565351190927636,0.04707939938091869,0.2545918810606476
1681483833.883526,3.4993425043839648,-1.9139751803800387,9.739276403856682,0.07167474463351939,0.09835991105606101,0.2518968868494507
1681483833.8935337,1.5305030465590035,-1.3328579662067355,9.196933116484518,0.09159493269746147,0.13097663881623847,0.2359025764704224
1681483833.9035802,-0.9903122872281673,0.5224852981254234,9.067272801911798,0.08535733196638204,0.12704101697663917,0.2319834965706345
1681483833.913508,-2.2914327533582126,1.6363211737277708,9.225352257087412,0.06310294180124565,0.10088970314938452,0.2402372497559067
1681483833.9235754,-3.56960574850671,2.4135212055187045,9.970686685677848,0.027673608928779653,0.05754578200590551,0.2536850261927124
1681483833.9335709,-2.1647879534015186,2.8543667126252026,10.738751269720188,-0.007094347386487057,0.026425735904930924,0.2705287027597901
1681483833.9435682,-2.302066539315618,1.2423610605714783,11.09015292981175,-0.023366965519091603,0.004727161960613441,0.2681812036276337
1681483833.953606,-1.761328632572497,0.4995648426338485,11.38549830379175,-0.03178996412218447,-0.0156697784490368,0.2588958430529114
1681483833.9636557,0.13354851215831925,-0.12938397366076912,10.097850619744946,-0.022552980847821053,-0.00909589806092651,0.2520788002253052
1681483833.9735968,0.0828134908216606,0.8306127407803846,9.258791734574448,-0.02990308506807933,-0.0026689816077863234,0.2612155664206024
1681483833.9835773,1.194705398714626,0.9954514531060827,8.321080615163092,-0.030925584544897206,0.01223071847987526,0.2943724978209015
1681483833.9935436,1.0342617666162672,1.6325794750996432,8.615555653252917,-0.04283658819789908,0.027949830546790483,0.3315736639738556
1681483834.003533,-0.2394871526945469,0.41340802720605574,9.738062402743168,-0.04368794239079357,0.03167146593898308,0.3492377388716217
1681483834.0136695,-2.517042731001019,-0.45991176179500054,11.492363628742696,-0.04344364214523594,0.0024038788881565808,0.3288234758615967
1681483834.0235631,-2.7915265181657265,-0.806334540291872,11.587919114104034,-0.04813442618726546,-0.023212061322633367,0.275445489907312
1681483834.0335474,-1.9991607762636472,-0.018057219327414553,10.458895481582243,-0.06372957230525106,-0.03983448771593575,0.2389120000839706
1681483834.0435953,-0.9193590100721946,-0.23784074958505627,9.060488080026936,-0.065810882303593,-0.046294414837335866,0.2443774181843277
1681483834.05357,-0.47081321319401875,-1.0563843843526937,8.616704731491286,-0.05714451097039799,-0.04958042570914262,0.266414670968103
1681483834.0637157,1.3250043675799708,-1.2451037432261234,8.980923001922992,-0.037062330127103325,-0.03606415867434622,0.3028784680605408
1681483834.0736182,3.9611765856586616,-1.2375207220189972,9.446562315017495,-0.018170682800382084,0.013822688079980348,0.3299548912287232
1681483834.0836158,2.133115878637484,-1.350616584502019,10.089711583617177,0.0015332993585515037,0.0540985003613917,0.3255653667688843
1681483834.0936406,-0.6297701246570668,-1.441321674488278,10.846814370501296,0.0010149858779305314,0.05949008555795122,0.2931787955999848
1681483834.1035748,-1.4912211028417413,-1.9140096425059652,10.107629053915948,0.01680105492568562,0.04840897950869711,0.2611735451460358
1681483834.113629,-2.586248341393953,-0.3084020149472046,9.632715845735262,7.637022100509049e-05,0.020076485632352325,0.244126840257692
1681483834.1235373,-1.9849493694301332,0.0017863606155854301,9.055041859397926,-0.010924094645542346,-0.003649549014862702,0.2474244523287292
1681483834.133563,-0.7625355867340543,-1.5907273220156217,9.373847227527001,-0.009561312698958758,-0.018731667807436538,0.254756032252359
1681483834.1435604,0.9750184573517302,-2.377906568314073,9.251119339665031,0.009989828070898737,-0.007343290328597948,0.2648405719042297
1681483834.1538715,2.388478822515038,-1.7363032151706521,10.456325806818192,0.033514368029879185,0.01706849371667573,0.2620494950056549
1681483834.16359,3.1573349056078497,-2.196763732667748,9.638672030040802,0.057494468592549246,0.07009337647097733,0.2426998305559631
1681483834.1735966,0.16228663489399403,-0.550937821693116,10.377473876183213,0.055076952599684266,0.07993158606267199,0.214735879325914
1681483834.1835673,-0.610457787452381,-1.1003285453533123,9.49046142194325,0.06584266723068896,0.07078379922410773,0.2047415513039108
1681483834.1936667,-1.123757378774781,0.5342993370310246,8.625447451262808,0.05181963518105381,0.059556690727445696,0.2180374700069901
1681483834.203566,-1.8823670420433307,0.7100884600087347,9.425130597993128,0.04048406422035825,0.028895990396728147,0.242901756191301
1681483834.2135682,-0.27370855666332083,1.309948395395159,9.87531876980473,0.010177548229223317,0.020037333558666146,0.2574788022280213
1681483834.2236953,0.3493395566144286,-0.8100812604793488,10.905716803714409,0.002276823293245748,0.025496151831092318,0.2482012498617645
1681483834.233613,-0.10892288958275727,-2.811071978502918,10.864515586120639,0.021192344595527084,0.034587970438940685,0.2281023401260849
1681483834.2435794,0.14489892966915446,-2.2324620991461064,10.062675330885028,0.04488439565261536,0.045778116185839365,0.2039351451635834
1681483834.2536604,-0.6446210870533496,-0.506277687155029,8.911218210984142,0.04455280825464346,0.04832526392107319,0.2043445247650619
1681483834.26352,-2.2466073801309276,1.2009869691034203,8.670474306495509,0.030042541130614313,0.027508856434507366,0.2191325861454483
1681483834.2736528,-1.7783377651721635,0.34057194766700344,9.182022447504991,0.0168725899974782,0.001309740039791716,0.2501641947269913
1681483834.2837024,-0.26789205572408104,-0.27240492926247467,8.567021433158056,0.021823559459250855,0.007984981188520248,0.2901497173548218
1681483834.2935812,0.3716862233100682,0.08437017988369191,11.25823626965667,0.029841098438269376,0.006957598133105434,0.3093882787466522
1681483834.3035514,0.31063373346296663,-0.12108102990140028,11.062463034042878,0.026359804529969652,0.03393677360476385,0.2766891110182282
1681483834.3136032,-0.9291903011350889,-0.683835421667524,11.52856656914035,0.02783493419891864,0.03729855771559301,0.2281938779592987
1681483834.3235755,-2.1862079201208187,-0.9986710939275573,9.65293159709264,0.033716729009671154,0.02708946368926674,0.208633824014711
1681483834.3336868,-2.174555317118256,-0.2868555635748723,9.071899201794746,0.03491770501586481,0.003866863506578452,0.2190347898245331
1681483834.3436456,-1.0626305629755406,1.0207706869293522,8.475585299549872,0.0327961572220701,-0.014875547467005808,0.2581533479929443
1681483834.35363,0.7141364014196433,1.8911645493470746,9.015111623412759,0.023294743036038172,-0.010032674802747365,0.3070454585791107
1681483834.3636632,1.2875691711669481,3.5230172043859107,10.0397708374201,-0.0013965635192079516,0.0036901297099361918,0.3355696785688873
1681483834.373673,1.1127321778866552,1.7275789030298045,10.763747820185035,-0.0178823079900881,0.028530032498104985,0.3282263267279144
1681483834.3837292,-2.5729513100330688,0.16099867334034648,11.338291722417063,-0.025552128771166156,0.006543771624396034,0.2859387982130524
1681483834.393608,-2.8026362225181836,-1.1897114937961644,10.707893475472481,-0.017310889692945183,-0.026124184242251183,0.2520637500524994
1681483834.403649,-1.971172532502988,0.6009612915168026,9.501027718162,-0.022863155293952032,-0.04865846695264585,0.2452049988747116
1681483834.413677,-0.3927922513919094,1.5384226079170376,9.446207930564842,-0.042176211600749226,-0.05837821782280976,0.260421304726648
1681483834.423642,0.9467365031917756,1.5949519042171598,8.985852859890857,-0.05665162976083818,-0.04648102385110016,0.2890423226595398
1681483834.4336388,0.9382546890287609,0.48541343748432675,9.676782542047286,-0.0613485457015953,-0.03135806947387191,0.3104470956564423
1681483834.4436069,0.3564688858327741,-0.7319239818432396,10.104060021088333,-0.05496740220432958,-0.020358037699339332,0.3154854166746613
1681483834.4536352,-0.7954178629060326,-1.4695891555728755,10.42522117793737,-0.04245843647881389,-0.02305150673811744,0.3046740579843994
1681483834.4636283,-1.4097033224887527,-1.7963229335834134,10.083166058887016,-0.03581046411988588,-0.03216491076079983,0.2941783356905457
1681483834.473711,-0.33596585135883456,-1.5823578130984703,9.295336317712994,-0.01400932758511758,-0.039222167648182586,0.302527188086557
1681483834.4835851,1.2677407194965418,0.534517547157086,8.654460470122107,-0.006999459618390897,-0.029014840590530857,0.3410342324018952
1681483834.493637,2.427167318548299,2.5873600721790546,8.980322871127955,-0.026784308152662497,0.006030158855956395,0.3832597422838684
1681483834.5036116,-0.2771433407848801,1.466230984526002,10.779752102809999,-0.04485709306467844,0.007095736707335567,0.3832701134920593
1681483834.5136833,-2.346506111226347,-1.3837532536998105,11.147177318533736,-0.04421066615735933,-0.013824196423846944,0.3444054413080689
1681483834.523589,-2.8975877122080123,-1.1208061041314332,10.73210808887487,-0.04488728489033415,-0.04547001962686423,0.3092125940561768
1681483834.533656,-2.176806885506953,-1.3794127816848925,9.954580784761582,-0.04424493719329254,-0.06919113172342296,0.2908655989408966
1681483834.5437355,-0.5252371615623708,-0.7913261733544532,8.96306304516719,-0.04620816164632974,-0.07473461476630584,0.2961005556822296
1681483834.5536668,0.9429020269003127,-1.580878429494445,8.376178255101582,-0.04173802974702409,-0.05774046186211712,0.3097639370203491
1681483834.5636303,0.7230438873642644,-2.1015167592538826,9.040814762669875,-0.027879256238419657,-0.043261484569855915,0.3210591066122528
1681483834.573662,1.8451452237928743,-2.3782186106529544,9.953089198248664,-0.0018137376567717433,-0.017365474331358374,0.3183170545340057
1681483834.5836112,1.5062303341106453,-1.157929788898839,9.880699868334883,0.001504839088379459,0.02180335705400661,0.2898417401552673
1681483834.5935836,-0.885292733766339,-2.068411514152327,10.443810088460047,0.008025352673413226,0.02683966881708924,0.2484519768000122
1681483834.603671,-2.1971266394305387,-2.498504158242512,9.718381212915526,0.02042117829309633,0.012656803494526149,0.2123556423426147
1681483834.6136594,-3.2424554582854848,-1.0267925457100187,9.471826557198558,0.011130779153437034,-0.017484993860824503,0.1896237421274658
1681483834.6236897,-2.000963914818457,-1.2423319365140986,9.114708327879443,0.008730708805996443,-0.043487236871661734,0.196512116813707
1681483834.633608,0.4340677948112949,-1.3656923217394077,8.710415696997316,0.02203949012737917,-0.03686490572891864,0.2263456422329422
1681483834.6437151,1.8865819071834367,-0.29080606797026537,9.969436853208368,0.030766901882650757,-0.013356034878746415,0.2529004204512116
1681483834.6537032,2.219459799720777,0.20555910799816732,10.577805377400194,0.03359111048429996,0.026339994552518266,0.2561513471842285
1681483834.663721,0.07228284671169555,-0.13207818000954924,10.76806663157321,0.03871856867069774,0.03816564418797411,0.2420125890017029
1681483834.6736786,-1.2997865660018941,-0.39733465390839284,10.223285482047505,0.0446034665817006,0.02938550447315183,0.2274558830500122
1681483834.6836274,-2.8515530519845558,0.8638319014944992,9.449503432440942,0.02902762902656588,0.0006857775545508246,0.2247788000345703
1681483834.6936247,-2.40905039335063,0.9782475250102326,9.38864889762162,0.009235972604340071,-0.038879893347292756,0.2459621715784546
1681483834.7036805,-0.28988262624547856,1.1058878200003064,9.134864796181276,0.0028617666159636043,-0.04833337083600399,0.297517924332666
1681483834.71372,-0.026381699345169752,2.6425937262746833,10.474901083041,-0.019663815060834863,-0.0519636962031992,0.3295892465353485
1681483834.72371,0.768213819991073,0.5551645746051836,10.824423949622382,-0.020157069332326517,-0.040823593128824276,0.320070951008844
1681483834.7337048,-0.13704211353809553,0.3158357736594038,10.51282953514139,-0.029381197697126812,-0.03295659798233146,0.2968507695436951
1681483834.743692,-1.08976275916846,-1.4336161595393657,10.124146250396999,-0.013199653443793678,-0.039218429033470135,0.2825784671545502
1681483834.7536266,-1.854462139150537,0.13136814759191406,9.865531666008485,-0.01945003666440845,-0.05856374030366306,0.279846786284494
1681483834.7636802,0.028289548734375565,-0.45983461194826636,9.619916111722018,-0.012615388969477713,-0.0645590739885169,0.2944448876619812
1681483834.7737763,0.7791872673349323,0.4823796600029088,9.111117087377478,-0.011852643461019559,-0.055347416258303576,0.3181467044592377
1681483834.7836037,1.8817369342989996,0.12749544908562022,9.457304530262284,0.000257112755182764,-0.037352540700548234,0.3503201294184204
1681483834.7936714,1.9202924619401895,1.6273447667512353,9.18483879830923,-0.006675388218508916,-0.009717273465642554,0.3888634729624268
1681483834.8036287,0.13755915201300603,1.4159005117206223,10.130664145814695,-0.02056794519893791,-0.006919316033782312,0.3926101315260407
1681483834.8136775,-1.8306067221848263,-0.16986153983026883,10.162410644186602,-0.034793029802763935,-0.021558498079062367,0.3733721065760132
1681483834.8236942,-3.3035451764289614,-0.8393863941340578,10.301758131562703,-0.045000892094723334,-0.05782165204659974,0.358940123343515
1681483834.833692,-2.361737812655479,-1.4043376590938896,10.43230207601998,-0.04816199458540663,-0.08872283170201044,0.3482687163591858
1681483834.843657,-1.3604624529086842,-1.3576452465189528,9.704716367516417,-0.04628267895670032,-0.09847656803905991,0.3469005811453339
1681483834.8536198,-0.8799457383518514,-1.1438526084120362,9.646392938141844,-0.047243786247678075,-0.10230362836829317,0.3412650513887879
1681483834.8635952,-0.0451845935052715,-1.9568616617087982,9.64076194285814,-0.03285970562180866,-0.09702779682524036,0.3465290355921265
1681483834.8737087,0.6635119522213175,-1.6961773732297265,8.89101163885483,-0.015342014405324766,-0.07832791807979922,0.33777221920495
1681483834.8836567,1.2097120426311194,-0.834218673209955,9.264406863033315,-0.013199714536397246,-0.05550411299341209,0.3378177869558807
1681483834.893627,0.6522582609661134,-1.142733335335265,9.146353934751264,-0.003443221468967608,-0.03880230311872336,0.3378786731005188
1681483834.903643,-0.2935841102473515,-0.7297202821167382,9.93893120279511,0.0017999306824135364,-0.033890348660687325,0.3134695577860352
1681483834.9136813,-1.0403874454001087,-1.0426007039846565,10.35734685796217,0.007804068634128641,-0.04162418812470458,0.2857947039843079
1681483834.9236908,0.09545720598942115,-0.7634126607841312,10.27710272189183,0.013784840371035032,-0.03908097244677529,0.2636033284903046
1681483834.9337497,0.05286516300259819,-0.17443679872939602,9.669813418664253,0.015470065110580711,-0.033916732144554936,0.2567982661962982
1681483834.943768,0.42555805699665655,0.2427497823826068,9.469403383266236,0.019761464745290985,-0.03295903802816989,0.2672442782164093
1681483834.9536924,0.7161772831790063,1.0089516365602444,9.41289258520362,0.015520750197463415,-0.02714223944821645,0.2858875084162232
1681483834.9636304,0.1301923371898866,1.4339036766517554,9.83991539657203,0.0005797915528141147,-0.03076163703893946,0.3041844058275696
1681483834.973804,-0.15286258902354924,1.0994540185490784,9.995648446975151,-0.01158829300158178,-0.036094940205662916,0.3086104679346558
1681483834.9836876,-0.688198579917996,-0.2660141283227481,10.197860001823388,-0.019076688328677146,-0.04934137712243226,0.3143653857946869
1681483834.9937046,0.7319125156454298,-1.7632104222337104,9.91362537445136,0.0026186505426338187,-0.04556212802809877,0.3312661636114594
1681483835.0037365,1.8376924942668498,-2.362097388269759,9.420267701683379,0.038474848505615764,-0.026224665613973238,0.3510755586863037
1681483835.0136526,2.2833381859794604,0.5143387198088247,9.240182824326551,0.04363423461874037,0.00021866328124709488,0.3809036898851868
1681483835.0237236,1.4565194210724788,0.37132503955328805,9.768619766415597,0.040647608009530024,0.02054069740773946,0.4000220287085053
1681483835.0337093,-0.1974518136226344,0.2804866109498122,9.545065387609391,0.03875175072572283,0.01817446062248139,0.4076959479094025
1681483835.0436876,-0.1493940750607614,0.2449192873872554,9.513946219338338,0.028677946510670616,0.016388898525387958,0.4083123195410248
1681483835.0536747,-1.4385296789650381,0.30769383897311214,9.665164044626161,0.018793060300293048,-0.0019492960797216643,0.4132512498140808
1681483835.0637622,0.2602198818229322,-0.6636098393549739,9.67057286079784,0.022394866600409975,-0.001972589296939811,0.4241767812014099
1681483835.0737095,0.22739193495624727,1.2769435719158984,9.220993102075983,0.009378081343476818,0.00811572913586741,0.434035121226358
1681483835.0836632,-0.9234131421256835,-0.2806154060131196,10.872551717006063,-0.0057545530694784195,3.521639242700972e-05,0.4201253640890595
1681483835.0936663,-1.7630759287769513,-1.9325570674100823,10.16293236116318,-0.0006516213659071117,-0.010216792833029677,0.3814499664545532
1681483835.0987148,-2.104628898265608,-3.5698854455393363,10.645063622718082,0.003928693539733281,-0.019049101249729687,0.347977011227655
1681483835.1126928,-0.6392445482608566,-2.791568104875237,9.373326910670556,0.03464598906919392,-0.012707138619890666,0.328808127665567
1681483835.12265,0.34451363567649107,-2.5713168919466978,9.61730767162355,0.049306047115606516,-0.0047986737257276185,0.3220551002264496
1681483835.1326609,1.8505686123584826,-1.7976284859598386,8.308352696396968,0.06659937970827957,0.030831139389863788,0.3339201796293732
1681483835.1427183,1.757251764945085,-1.4371632622120243,8.946417123187482,0.08071913002869235,0.05944779522303927,0.3550629008055206
1681483835.152635,1.026063127025404,-0.47860504657275643,9.470290623323319,0.08350352784171852,0.07756243646995657,0.3631654072046753
1681483835.1626923,0.2272780088293995,-0.25002011757091486,10.21650407486377,0.08868093033134372,0.08542663488628757,0.359276889586496
1681483835.1726897,-2.2172172077175323,0.22402558069883102,10.41943821470845,0.06914862347896715,0.06815432674074215,0.3319372225046631
1681483835.1826537,-1.8477737097317417,-1.6219576333203172,10.326651512768057,0.07260528627680479,0.05010848208982033,0.3192919779062744
1681483835.192653,-2.261787143862961,-0.44849054033160585,9.97340141055002,0.07068069771486614,0.018954168514538676,0.3159238982439514
1681483835.2026396,0.03830118726780202,-1.259776649447999,9.457744428843252,0.07921313578562325,0.017684640162086183,0.3305155623198029
1681483835.212738,0.40607938970992846,-0.9469926014427004,9.568595300752053,0.10005267682270494,0.020911992678344742,0.3510248053312775
1681483835.2227027,1.9497386682312676,0.13001371731867856,9.957250416814874,0.11142443038742877,0.03796385933010397,0.3625535357237335
1681483835.232725,3.0880386058348916,1.6910618962512476,9.05014149153886,0.10435818229999648,0.07941665074759241,0.3740930545568939
1681483835.2427287,1.5366467726306428,1.485762261235467,9.482858695570846,0.09999410852512951,0.10206633712663353,0.3921503710985657
1681483835.252632,-0.35410352412214713,2.4552909492510286,9.575890686070638,0.08127519463595767,0.09671148812406134,0.3983681786299225
1681483835.2626848,-1.5624363777043095,2.8349064190125124,10.01991645803351,0.04170492056526547,0.08065709556789592,0.3887478995562073
1681483835.2727146,-3.668686415414958,1.335591328158507,10.39695839015998,0.017138379593949808,0.03942261535370936,0.3730112898588654
1681483835.2827694,-5.034625021208854,0.6633233161069156,10.15671853922176,-0.002700386462107876,-0.019504448035255223,0.3468473839998718
1681483835.2927718,-3.4769697237923927,1.1125976771056691,10.61178478294999,-0.027659494863070067,-0.06396152519146324,0.3395396757364746
1681483835.3026526,-1.7182328971970446,0.8571241471003259,10.554045074526035,-0.039882468853418764,-0.08067209976867232,0.3310496795416351
1681483835.3126397,-0.904132815119999,0.12958829586572934,10.811369811083928,-0.04628813298102646,-0.0857666375143568,0.3096469629049774
1681483835.3226988,-1.028073721199482,0.16317179639475948,9.771647984815543,-0.04347921024304829,-0.08079137820714448,0.2745014119387146
1681483835.3327014,-1.343626941365693,0.3510335185168415,10.15558732421402,-0.05188628840543474,-0.08519932791001009,0.2541584658861633
1681483835.3428645,-0.6411074656797625,-0.27963812092751367,9.610496758333763,-0.04614330487624261,-0.07734111080907846,0.2493240821600433
1681483835.3526788,-1.1116666095041912,-0.8992142861292932,9.75634410736847,-0.040456616652399316,-0.07979295513352665,0.2475158262491699
1681483835.3626578,0.19056986168761583,-1.8150997386025371,9.001401138022883,-0.017643169897615038,-0.06222007813461072,0.2530237424612518
1681483835.372774,-0.4333813710223189,-0.6361080915490959,9.302778436082814,-0.004510196774234456,-0.05652247626918093,0.2724142360926148
1681483835.3826826,0.48176866189353823,-0.21504965191964479,9.769381003856326,0.004343038982928799,-0.046435741280174574,0.2931163001299378
1681483835.3926885,0.6757408053298146,1.1087867855528915,9.40774937052729,-0.0003098325347704489,-0.02707763276824949,0.3157578397036072
1681483835.4027154,-0.16717952450627527,-0.2371513889047668,10.364314735917098,0.0047744449653599865,-0.024376219428787992,0.333744286322641
1681483835.4127038,-0.7385096461385257,-0.23786893505739318,9.681874531802652,0.015072152700610382,-0.027881196672796295,0.3375551986933228
1681483835.4227495,-0.23827993470079184,0.18686737968216102,10.322378339294817,0.014049657909681487,-0.03405055206654456,0.3513120997190949
1681483835.432765,-0.03148250844944712,0.8486484519074575,9.940095069569795,0.008130427236027488,-0.03772160294432268,0.3496042180300232
1681483835.4426882,0.7868273881826293,0.9206751018080291,9.828077892576077,0.001392575672046262,-0.032710451583920476,0.3417047846556183
1681483835.452759,1.0415406792649173,1.4342420782939291,9.421930392574852,-0.01482773944227434,-0.014991303126866324,0.3453140247107025
1681483835.4627562,-0.692837898236904,0.1770557820314509,10.393475178945636,-0.016060918570210324,-0.032537499142163855,0.3381864118814942
1681483835.472677,0.21310935018524327,-0.18494099973264352,9.511676562859025,-0.023756168447067946,-0.031260370838593586,0.322716294550943
1681483835.482705,0.9726209368848951,-1.9512950471903983,10.136061445316813,-0.011582329234637251,-0.01979111592894922,0.3144806611776825
1681483835.4927886,0.2319085547919861,-2.738669914658032,9.775902615793012,0.011521467936892273,-0.02060402472278512,0.3061518657446381
1681483835.5027442,2.3864413087268748,-2.8419984795089026,9.002233923298887,0.03710323646221834,0.01070313695995916,0.318402706408548
1681483835.5127194,1.14299829115111,-0.9754534405705922,9.297818589330822,0.047498394982632954,0.023172841799047213,0.3289452481508728
1681483835.52271,1.4160136897588669,-0.7136277284865774,9.713147390185425,0.049630369046294136,0.036607920653367036,0.3383834052324768
1681483835.5326924,0.022038498142404595,1.2611577130476008,9.212093420599942,0.02916995914159931,0.04357488937487897,0.3473335194826599
1681483835.5426722,-1.73302705715015,0.7916623706633604,10.189428414464214,0.01661920605678141,0.02129192784187193,0.3449110377073761
1681483835.5526764,-2.6405076824694294,1.0153533956387673,10.641931805260427,-0.015574569217548658,-0.015565092946868813,0.3327728498220917
1681483835.5626743,-0.9815641624621492,-0.8339515909883742,9.931419866450353,-0.01200840558145393,-0.02505780023575951,0.3251301336527344
1681483835.5727718,-0.44540111588037784,-1.8475843591863188,10.274366976881742,0.006574387340917823,-0.03189022017940603,0.3076365876436707
1681483835.582725,1.1603435334923249,-1.7010339749521506,9.615980603350986,0.022731400078720168,-0.01533419838867825,0.304721145653772
1681483835.5927105,2.8355815225977734,-0.8977732623414416,9.10019126315266,0.031950249829545356,0.03080161392663819,0.3077625918627258
1681483835.602781,0.19285935106592764,-0.3947937472797325,9.153650435204744,0.03930819619318458,0.04668309733697277,0.2998938250780579
1681483835.612693,0.06101700404762127,-0.524681460748539,9.67884742906642,0.03477035680304209,0.05508657279896668,0.3058495807886597
1681483835.622718,-1.6454930162367571,-0.02819409386361907,9.591858347608937,0.03224049332066817,0.0439363587151879,0.3096841860056397
1681483835.6327553,-1.3734146879507778,-1.0520346353547225,10.178616818433792,0.028872450670926596,0.029988237051523592,0.3116750109434601
1681483835.6426785,-0.5741563336321578,-1.233927178031317,9.702941674325865,0.050133778103897804,0.031217162431703686,0.3193916070700165
1681483835.652668,-1.1695110780560407,0.41345754775310906,10.724737525855431,0.038846816101773964,0.021097917826731993,0.3165372300386902
1681483835.6628137,-0.2729263302118889,-0.6182111551071101,10.133392550265597,0.05428698204763316,0.022520909796552465,0.3142969894648071
1681483835.6726956,-0.5622054913283961,0.38912526662669944,9.655588821019647,0.04735282817757421,0.026390078482986752,0.3106194722891327
1681483835.6827495,-0.08552506479622522,-0.40172834481880443,10.04983895584917,0.06066293611652094,0.023731169225565268,0.3346689331770416
1681483835.6927323,-0.6161813875453032,0.742764624180284,9.580177579750325,0.06261512949832182,0.01963097275441726,0.354803411984491
1681483835.7027192,-0.32319481465218414,0.9142159872429337,10.330950225824036,0.06950681004639025,0.012035315044647683,0.3651951837778565
1681483835.7127397,-1.3007320477040938,2.409463431113285,10.183861878368695,0.04892724580225042,-0.0024074878388474982,0.3689285803080078
1681483835.722734,-1.545666649051103,3.467014357707019,10.024624538830395,0.03261527833495146,-0.02427227700653466,0.3712919938803192
1681483835.7326975,-1.22554715397167,4.256873834950373,10.261682074476433,-0.012577632794155382,-0.05381406261824347,0.3672719288111206
1681483835.7427104,1.7890347828730047,2.5839597655703423,8.791969183222152,-0.020460719538237974,-0.026810899575712328,0.3860061156988617
1681483835.7527215,-0.6415037967703943,1.7446863736307474,10.836144568758549,-0.026617238547378134,-0.04788635089543914,0.3987432408571716
1681483835.7627842,2.0501049394455944,2.0437599746027657,9.298574526898499,-0.03878999427199502,-0.02158670168234539,0.4050070333719727
1681483835.7727404,2.5691313873294876,0.30077873007376726,10.164737471070353,-0.03865483209505394,0.007444448719432499,0.4173078823328491
1681483835.7826898,1.336145471110772,-1.0047622902995268,9.170650653729542,-0.01640025338103675,0.030980068590564694,0.4301244604826447
1681483835.7927046,0.8179784365628853,-0.0534368347189301,9.503631734579695,-0.006370027122608621,0.03960058459540537,0.4384379375219818
1681483835.8029392,0.9198148767118223,2.037132714425641,9.225512673558157,-0.02465146977732643,0.05173750207406496,0.4569378483534332
1681483835.8126965,0.5698607903493211,1.229276279298246,9.612966822445086,-0.049595465623241575,0.06633680013388199,0.4729861307383057
1681483835.8227456,-1.7868044806988226,-0.8555460226201101,10.304888553099907,-0.042544762039181165,0.04551504632770994,0.4768067586660858
1681483835.8328576,-0.6037453000228697,-3.1819827805292196,10.100125581871035,-0.019646984487891844,0.04009843813748827,0.4685516047716614
1681483835.842707,-0.21927119286437408,-2.3616116386671653,9.439951636884402,0.005132464716062591,0.04729821971494221,0.4562005985022064
1681483835.8528054,-0.8783466560146586,-2.976672096990325,9.829422716339106,0.025796396796943157,0.04251683464812644,0.4348464000463959
1681483835.8628192,0.30376914052757437,-0.5373780773134571,9.131918791821446,0.026387086282346504,0.050938123156178274,0.4138159442186829
1681483835.8727665,-0.0872283247393135,0.015348937673332124,9.532700840386354,0.00818541649343392,0.0632637081736886,0.3855292487383362
1681483835.8827672,-2.0598948452789534,-0.6731198136350866,10.043530137273404,-0.0025598388983326054,0.04786455891209135,0.3509633231401917
1681483835.892793,-1.6944078107677536,-2.4087208759694,10.118237492466806,-0.004012013098152529,0.037659867344003985,0.3101733017206665
1681483835.902804,-2.017290718779258,-1.9861037279102884,9.798669858309225,0.008535152410849364,0.020066023248945367,0.2874784755945679
1681483835.9127223,-0.23894661346450605,-3.4479828549387106,9.750780391684788,0.025344706656519146,0.018859992081959598,0.2649607348680969
1681483835.9228504,0.9508711338115989,-1.7762046394997677,9.187140986163534,0.05737503660338012,0.04311169456864692,0.2491092521191116
1681483835.9327402,0.8757194887344708,-0.2371328211274812,10.564653602092724,0.05167063204060048,0.056364228304968345,0.2414795297623154
1681483835.9428334,-1.5893562847268847,4.216221484702389,8.743687835241133,0.015618780976769078,0.05086096617117356,0.2434084254742142
1681483835.9527783,-2.523232751435232,1.213319733114887,11.74345628617604,-0.03283074830685485,0.009427466002362378,0.2541280079126831
1681483835.9626803,0.310669637199657,-1.8596013453116775,8.63341954751368,0.011391059857028226,0.01154790403411653,0.2702673065901276
1681483835.9727402,1.0436047671195505,-0.13769537993784076,10.065080338459827,0.025135808677487798,0.012015093773115559,0.2918135512114044
1681483835.9827414,1.1560879817798997,2.7329656805774123,8.92998345030501,0.010052101729596103,0.031673057680941766,0.3210220325232025
1681483835.9926996,0.473488885584685,2.418968445378301,10.814641443856285,-0.011733160625609773,0.02547410750190371,0.3337900626898285
1681483836.0027356,-1.0687475587767459,1.9972461319004007,9.014122601042269,-0.02575863990415647,0.02466792491402561,0.3310841906309601
1681483836.0126982,-2.960289771081876,4.160075247716121,10.036179752128032,-0.08224939559058023,-0.007252645460958183,0.3355533468962189
1681483836.0226803,-2.8037260837579514,0.580973625992961,10.22509787776255,-0.0908132229181327,-0.04530622127175115,0.335303066992807
1681483836.0327067,-0.8461735939074271,-0.4673942712202169,10.382613726254853,-0.09244019695348377,-0.045984179994621434,0.3303322184324738
1681483836.0427537,-1.345910266869602,-0.7995495547249681,10.554071130886735,-0.07604349863855094,-0.05326891931143619,0.3283030379057404
1681483836.0527554,0.33743362419042844,-1.4051340893618203,10.457543172694608,-0.05783126673568198,-0.041722955827000044,0.3092748809099671
1681483836.0627975,0.6048633256231479,0.44443296505799634,9.58506149910791,-0.06554145851103983,-0.019478582461076928,0.3102470624685761
1681483836.072688,1.357795704333042,-0.7414973543570593,9.389321332873754,-0.05363481721485018,0.003424460314805927,0.3377681660891052
1681483836.0827365,-0.26361983224172875,-2.9628239232848697,8.609993272239471,-0.020054358745928008,0.015804103523945963,0.3533434260130402
1681483836.09282,-0.3189198754479169,-1.2010507630940752,9.545248072309285,-0.011382098541177482,0.012473279288120401,0.3738744545221802
1681483836.1026795,0.6754579404682142,-1.2888578827083046,8.923256444431148,0.011198967624430855,0.030312078067769706,0.3860053408384796
1681483836.112672,-1.3260827481127369,-0.9679903486389494,10.380119239482097,-0.0023425919600613882,0.02790374440154453,0.3734701860189911
1681483836.1227434,-1.600148721508515,-1.5689845989682536,10.013147718680864,0.012681020458812444,0.014478674360017036,0.360296576046991
1681483836.132738,-2.3166058424108407,-1.3766091655332036,9.82669540198855,0.013791257018512233,-0.005325932633396089,0.3302927303553101
1681483836.1427653,-0.4683299650533501,-2.142802339481797,9.455068617439615,0.03308145282509339,-0.008495376591862145,0.3192013788462158
1681483836.1527789,0.16540726272941983,0.48640535463729395,9.406334802596286,0.033174677193904385,-0.0010913083834234428,0.3190620529890534
1681483836.162782,0.21911802993917748,-0.2523480815235885,10.371801301304103,0.03361705810263441,0.0035120312765394286,0.3040294337511536
1681483836.1726975,-0.09074757675632744,0.19466122925369334,9.925350030118041,0.025252498423469917,0.013889014754410773,0.2898304450750824
1681483836.1828284,-1.1719214904561297,0.6125394270636565,10.164499454468741,0.016659532295058916,-0.0011589579030652202,0.2879014003515717
1681483836.1927547,-0.9489002522403215,-0.06587405826414884,9.705876250071846,0.014954261092217926,-0.008525143197349214,0.2917149651289459
1681483836.2027962,-0.11873969829192027,-0.2905210605576748,9.92410052287302,0.02154263597867132,-0.011216271235171636,0.2988373029470917
1681483836.2127717,0.988835611447949,0.06115344065951348,9.679676389894968,0.03205555101865397,-0.0008875034566557214,0.3090310979128357
1681483836.2227752,0.6125602677601433,1.1123093398838526,9.588127879979076,0.026049495576528695,0.0141779149946061,0.319791375422525
1681483836.232843,0.38455279785463464,0.09119244418632823,10.38385927300677,0.02908714092871414,0.02019310087144458,0.3273968982935425
1681483836.242756,-0.7830175126779234,0.25807376966926693,9.863846407619098,0.03191956312845278,0.01451477877072623,0.3270877886057373
1681483836.2527795,-0.7833957033320027,1.542462528246539,9.63328787601673,0.021463766382656957,0.0005705647550446088,0.3407823729753967
1681483836.2627735,0.13641602182391951,0.7075721027671401,9.463114696847352,0.015657622364356697,0.006771659196858436,0.3647774744272705
1681483836.2727704,-0.8834482652839615,1.2386926326509122,9.980437369296123,0.01200549459258338,-0.009957139108722441,0.373685418391275
1681483836.2827864,1.2729477653153554,1.3424301401464613,9.52107250808461,0.00239550289237661,0.005579037973818268,0.3811798680067536
1681483836.2928033,0.6542032991835047,0.856875245915487,9.91696376848512,-0.005934044142206511,0.021995864042177474,0.3815491783857819
1681483836.3027787,-0.715783727745173,-0.33808805910873146,10.414080662515962,-0.0029460102972029803,0.015797471339624766,0.3652093994856354
1681483836.312722,-0.34043436049894676,0.2902716802460604,10.030074810923562,-0.010151614969534976,0.014342314712773328,0.3580014693975922
1681483836.3227649,-0.2367193432560364,0.7421020946820904,9.2887801177935,-0.016244171382160496,0.016671083681978012,0.3455961036921021
1681483836.332803,0.37670049799928906,-1.551409983386681,9.747806637894998,-0.012206752693612212,0.026039489828493925,0.3418086755514618
1681483836.3427656,-0.5167298843545082,-0.6625048025476581,8.849070922363195,0.009975470859352771,0.025976999204259315,0.3393142211676117
1681483836.3531582,0.2143459994054508,-0.6561227391052289,10.468859397441028,0.007945720617492847,0.02377536587818754,0.330501585030603
1681483836.362703,-0.5171375777697338,1.2837788894753186,9.036795867526829,-0.0014487277033556159,0.030689580325983106,0.3263161468744751
1681483836.3727512,0.03880481539977824,-0.2859720831823237,11.338247642909746,-0.011718241596179037,0.026110806219630835,0.3128508615732666
1681483836.3827431,-0.9565147081377644,-0.6362834975170153,9.14938936172175,-0.0026695304857782855,0.032446640058071484,0.3004744041204926
1681483836.392718,-1.512361077542968,-0.5309622745768195,10.835570074381605,-0.004878861949529602,0.010325432926005582,0.2875318515539642
1681483836.4028008,-1.8862003207983973,-0.39838173053787135,9.489110933778232,-0.008704995676949587,-0.007290539069284648,0.2743190813303467
1681483836.4127965,1.099213910248355,-1.1043388781659933,9.61181954642152,0.013186521821671997,0.007124023192291198,0.2786612797022339
1681483836.4227524,-1.0075237153922951,1.447788797682547,9.622344864382072,0.0013426133420679821,0.0042791314518089265,0.2778491664171692
1681483836.432801,-0.5450473446798281,1.664008083272409,10.046083049127073,-0.018307215407441506,0.004967978617669341,0.2726952421904083
1681483836.442758,-2.042837297424944,1.837542669093024,10.012940271110908,-0.04000512626281517,-0.012447442766977757,0.2769900250673767
1681483836.4528508,-1.0896193425115732,-0.4082992352055428,10.16778832601364,-0.03891663838734284,-0.021908393874196252,0.2792552697897431
1681483836.4628067,-0.8421050750272265,-1.005715885585542,10.11533162993502,-0.026503526626262767,-0.02796742267077931,0.2788381862879273
1681483836.4728043,0.4591652334757145,-1.9157894728927163,9.822188181818387,7.427686072631062e-05,-0.015839381798830245,0.2739658940077301
1681483836.4827764,0.5977536871144228,-0.22722829871957573,9.810407306779425,0.005965235457024606,-0.00386378091641658,0.2763599145651337
1681483836.4927526,-0.019558420616126834,1.2530513819373126,9.27351874936027,0.007645802121585121,0.004483706196482058,0.2991171765566345
1681483836.5027597,-1.9539613279675943,2.805073802138675,10.58650977878951,-0.027396592404629914,-0.019516903884387996,0.3143615710974213
1681483836.512843,-0.5893764697286034,1.951860467537776,10.194796279692541,-0.04283170600603824,-0.03178953188891832,0.3346732247114655
1681483836.522814,0.1596668450763866,0.6854009168951178,9.7876058249545,-0.052025469635597094,-0.03020000471735875,0.356110214018869
1681483836.5328474,0.10410190683117522,-0.8257093217495322,9.374586262191093,-0.031379950216763326,-0.027279301849518055,0.3633204388857361
1681483836.5427818,-0.09217481796393881,-0.10453852639554859,9.86819089471067,-0.04302594613935478,-0.019240690868262668,0.3535963583231445
1681483836.5527897,-0.32078564390675846,-1.7044721304063046,10.015837316273652,-0.0236433971352106,-0.020476588310479313,0.3442192960024353
1681483836.5627823,-0.767519246064941,-2.630395237938195,9.83251639692186,-0.0012304584826162666,-0.02017123011990309,0.3272599268198486
1681483836.572745,-0.7866204753872639,-0.7316907362126261,9.58345451101646,0.009341559281037908,-0.022676035108735077,0.32408574106698
1681483836.5828617,-1.766174577897793,1.4580785549939257,9.542298037396357,-0.00819422875690207,-0.03915988026466637,0.3285634207964417
1681483836.5928116,0.33352874268959826,0.4655100387831666,9.597068164893145,-0.016193424217366095,-0.03995860373124281,0.3542286145925995
1681483836.6027784,2.208339709304404,0.6252093334632608,8.827874649140943,-0.013296203312571139,-0.002145004999841853,0.3767784226179596
1681483836.6128623,0.13577652910202356,-0.7959472605930782,9.882630635752676,-0.0012109338752159602,0.007605596105072006,0.375093607926416
1681483836.62281,-0.697986089594851,0.3741324980907694,9.84600822796823,-0.005464875987496276,0.008494091698750364,0.3565025019884583
1681483836.632807,-1.8020879156745055,-0.2852796170956749,10.167256005967618,-0.006267962717578328,-0.0033298528514954157,0.32961472752099
1681483836.6427777,-1.325553650689025,-0.020394185102401152,9.920051400345173,-0.010357820832655604,-0.015890132102719688,0.319108455205011
1681483836.6528234,-1.46822181065377,0.6136479516229209,9.494662414809028,-0.027021915512230772,-0.023816198956329353,0.3238926518202301
1681483836.6627605,-0.7388431136548044,-1.8032525181227914,10.057716392096637,-0.013638017394159688,-0.031248795589245877,0.3228398847818848
