time,ax,ay,az,wx,wy,wz
1681484463.967561,-0.20477813655857174,0.036910393310977986,9.799074934894993,0.0007183641333250187,-0.0019122698625510005,0.0018107265309904
1681484463.9766831,0.01256365609955414,0.11293719285251863,9.698409624529006,0.00043151625740404443,0.002584144765727934,0.0005519488436643
1681484463.986541,-0.31158908921509143,0.1374834094396954,9.865156195225701,0.0005239168590800024,3.416494233296418e-05,0.0013756194271504
1681484463.996585,-0.10004410521197211,0.09906092654012283,9.75713310384464,0.00045013686980517804,0.002503308809630217,0.0001961934572559
1681484464.006546,-0.37967270111789875,0.3107220462815612,9.974837897574787,-0.003299734829381418,-0.001286069575813492,3.188801524306255e-05
1681484464.01654,-0.0934075988334595,0.08346945450191964,9.741906169287436,-0.0019072336212957264,0.0007628455297045148,0.0008805301581982
1681484464.0265944,-0.22556867896341157,0.05295101693958286,9.800829960180605,0.00020353802265338466,-0.0002619829823724029,0.0019303111726425
1681484464.0366464,-0.10116339947760578,0.017011635881165315,9.714830907650589,0.001517421273205131,0.0024060806336524744,3.152095773334223e-05
1681484464.0465498,-0.32777409367017374,0.09643189187838698,9.862771339219512,0.0030261769032694785,-0.0007604107194488339,0.0015779073833495
1681484464.0565093,-0.16983874434277482,0.25763980312018236,9.83907372788612,0.0004270480275241089,-0.0002761309254068851,0.0019593591528486
1681484464.0664985,-0.2606350517936073,0.08809470258066035,9.830902534412099,0.0006270920713323031,-0.0013400798812821981,0.0010183576919611
1681484464.0765734,-0.24947493722389438,0.16960381596491864,9.851140485644812,-0.0016948794126727582,-0.0016615646548655604,-0.0017282981466028
1681484464.0866609,-0.055589729617803764,0.20839431139292888,9.764623524299935,-0.00219145837888825,0.0005907461425860931,0.0005549334414776
1681484464.0966177,-0.23050333786208224,-0.12832603373843762,9.739915499250861,0.0013471515189894944,0.0009167389228184486,-0.0024584510869804
1681484464.1065185,-0.30973129150074563,0.2733701840161177,9.915495343263325,0.0001685122145152096,-0.002635356502287586,0.0009904183639686
1681484464.1165476,-0.13469954229454698,0.12418015934017344,9.783158528892143,-0.0013614622487413237,-0.00041694826861749526,-0.0016347933601114
1681484464.126597,-0.2105599203859788,0.10392192030923386,9.820903914295656,0.0009720561040611505,-0.0019752303243290984,0.0018114732770722
1681484464.136536,-0.1198395448499409,0.043721730261391215,9.726282629554966,0.0011143535419097998,0.0008902521895378194,-0.0010789886623147
1681484464.146492,-0.04153033649773976,0.311229504425988,9.792434770893752,-0.0017369663609656946,0.003323615654969895,0.0009736342431519
1681484464.1566296,-0.4609016982489736,-0.025026863805364556,9.913139019897221,0.0005626550273098748,-0.001866817699579235,-0.0006606313440475
1681484464.1665995,-0.07751163020077269,0.2703309045963702,9.79664809074954,-0.0014799273994538786,-9.247707854681513e-05,0.0011170777393512
1681484464.1766071,-0.11617594374715677,-0.009419399120338054,9.724963061237737,0.0011162334686968447,0.001660267836576085,0.0006737845210831
1681484464.1865995,-0.28283114312662677,0.3297563183764421,9.928158316917997,-0.0028616475943100644,-0.0003513934266681856,0.0010991979175254
1681484464.1965532,-0.25125341471802093,-0.1972688510976757,9.722670806310855,0.002839545788448206,-0.0005380230254044722,-0.0009359256404909
1681484464.206699,-0.19727144296573848,0.27625174219859333,9.86156565790842,7.797387872096168e-05,-0.000929545267129584,0.0001011880772661
1681484464.2165723,-0.18323036470171053,0.07889729544754988,9.790926652818637,0.0011251705404052722,-0.0007026800507409122,5.649693370873648e-05
1681484464.2265584,-0.1567907233754558,0.22033540404391275,9.82527329069908,-0.0013201361150517086,0.00040408067711940196,-0.0010238732251796
1681484464.2365658,-0.18824710770613456,0.13358193379993258,9.79230442839234,-0.0015611399599564314,0.0006130879154512949,-0.0010342835489187
1681484464.2465303,-0.29138710294208037,-0.08686295862842454,9.783618837089552,0.0019529246290114842,-0.0006359683823543763,-0.0027356112882021
1681484464.2566197,-0.2196525686645872,0.3583939266447964,9.911437541088574,-0.0016185091429177778,-0.0021056242508221555,-0.0001450518652323
1681484464.2665524,-0.024490463845648156,0.18416011386529194,9.732957865611077,-0.001497813397044618,0.0008090439411292058,0.0024563170114074
1681484464.2765608,-0.2799560591525929,0.03696972902224577,9.812293479894345,-0.0012411477594042603,0.00012731952439202186,0.0001432974782314
1681484464.2866795,-0.2649867510243956,0.06786129900750934,9.836938025449129,-0.00023270752357012787,-0.0014593027155711473,0.0001529735705357
1681484464.2965918,-0.1877122718553361,0.05150382184199876,9.7757141620922,0.001751021213760957,-0.0012882890190514151,0.0009122089791585
1681484464.3065536,-0.08032899355771436,0.2215775969518686,9.776958109782475,0.00019719067981331003,0.0009778005970360179,0.0013338963577065
1681484464.316532,-0.26354653876298084,0.12760924409439306,9.849498301990433,-0.0023035980714576783,0.0009252324431634272,-0.0028861465438727
1681484464.326555,-0.25612015273196814,0.1987506905525007,9.877358104319558,-0.0026988449213997006,-0.001067001994257994,-0.0004922375123474
1681484464.3365252,-0.14967203169690532,0.1553730563933671,9.783013515860656,-0.002391514825958429,-0.0005588887532780005,0.0011062932567678
1681484464.346522,-0.2564230931894383,-0.06641350539664613,9.7698256259454,0.0002377948403182288,-0.0010438967614859141,-0.0014410726766559
1681484464.3565302,-0.09186928859448486,0.2504191044573297,9.79622388901295,-0.0009155492449532628,0.00018468613370311852,0.0015093580109773
1681484464.3665214,-0.046194035230768635,0.1270560046625508,9.736977007047477,-0.0011103947269463083,0.0030997245767278997,0.001533593556402
1681484464.3766446,-0.40160969145289643,0.031722189959781086,9.90077403604452,0.00016068649065402495,-0.0009921242785154616,0.0003884100547533
1681484464.3866415,-0.24658184553969226,0.13705290496238537,9.847356791180735,-0.0014475098172055968,-0.0013169634990722134,-0.0018650195601854
1681484464.3965182,-0.12381407351652385,0.005053860072582142,9.719642168061489,0.003476567422146336,-0.0012472895412776641,0.0023713497171651
1681484464.406539,-0.1188176800211811,0.09456261998858363,9.750681612787602,0.0014507630809140028,0.0022969210691203908,-0.0025545659049872
1681484464.4217305,-0.30019104997165963,0.12424174964675024,9.862248048381518,0.0016440796052893147,-0.0011381658663604472,-0.0021678961388293
1681484464.426645,-0.0762104799863832,0.2665657168708916,9.801276640936413,0.0011065399147674412,-0.0005335299181323547,-0.0004367353435132
1681484464.4367254,-0.08655474124501891,0.15790785635802929,9.760638105496463,0.00036781409436579084,0.0018126255671728085,-0.0004129251505706
1681484464.446612,-0.26279765667353344,0.2698271912830767,9.904516880589615,-0.0025781686786505334,0.00029159056844003543,-0.0002996415173161
1681484464.4567492,-0.28985771329867843,-0.05346887312665959,9.807978763221277,0.0012711812856147176,-0.0015691770644394398,-0.0007504294666919
1681484464.4665687,-0.17382306971702802,0.23227911598825132,9.832152963945619,-0.0007743479626305198,-0.0012950205096183096,-0.0002266350242767
1681484464.476544,-0.0528723447068187,0.06294396499386767,9.701451535029403,0.0010014733885503478,0.0015980689210732886,0.0004357433604549
1681484464.48658,-0.21963906821355894,0.19645676585916177,9.850203760946993,0.0003260744727604808,0.0006991599349244543,0.0016475561529172
1681484464.4967656,-0.2596569029080868,0.08545049068787243,9.827231057558212,0.0006203867124624508,-0.0003927273420946346,0.0005635085940834
1681484464.506632,-0.12494019150195637,0.09141202624517966,9.762601089533266,0.0005313661158640742,0.0016736840817411943,-0.0008815294172141
1681484464.5166247,-0.24459150553591083,0.19698225474585473,9.864118708963657,-0.000836967312792555,0.0005698780994605879,-0.0008442865259472
1681484464.5266192,-0.13812467409147738,0.17046284481804366,9.794571189007149,-0.0011767147888276912,0.0013775159436679966,9.373260722572524e-05
1681484464.5365627,-0.24987580948293595,0.06447951184674078,9.803697799741084,-0.0004342374263176955,0.0008958145952411516,-0.0013975116930428
1681484464.5466545,-0.16385695403198416,0.19752028062039112,9.809164172851666,-0.00042049144474815307,0.0007386434698714947,0.0009598950232852
1681484464.5567212,-0.1569709945041793,-0.025464168714752437,9.745296215807686,0.002351137882252175,0.00174187755561482,0.0006287098472479
1681484464.566578,-0.30520336375121976,0.1779678802236146,9.887825797066121,7.834546705948521e-05,0.00028043455252891913,-0.0014421937562051
1681484464.57664,-0.19125957589512205,0.26050817896552503,9.850583787121778,-0.0015157003008494248,-0.0004266348983393502,0.0009494494257036
1681484464.5866053,-0.07309554759720117,0.024226157797073555,9.705556752930997,9.547356821443083e-05,0.002396388311642723,3.449932732696253e-05
1681484464.5965784,-0.37790389273346525,0.13873248172792718,9.92132862067265,-0.0008603987325122183,-0.001048396333862086,-0.0012332066002759
1681484464.6065896,-0.13636109541645056,0.20972050379172552,9.795670134282695,-0.0015913372657365037,-0.00031339907966052954,0.0002595100045677
1681484464.616567,-0.24204619593308357,-0.020069749261539517,9.779113875459275,0.0012335589982225253,-0.0009116447419335426,-9.177928264175934e-05
1681484464.626582,-0.036309837510431674,0.3489159099188156,9.80191648043601,-0.0037233179318175397,0.002449281025665262,-0.0005052806850049
1681484464.6366112,-0.2765978008663003,0.020458255261864053,9.822615252871254,-0.0019672170486066376,0.000882051633285924,-0.000977278923941
1681484464.6466117,-0.17613640981459708,0.16707764197836944,9.81771284585018,-0.0030017565942695506,0.0013659496623143485,-0.0010793567675623
1681484464.6566348,-0.24852344300802703,-0.05341527888251995,9.778701285424567,0.001609821072802248,-0.00014873356881415576,0.0002628595062073
1681484464.6667542,-0.23380205125931336,0.22726544999258022,9.86174307270035,-0.0007389793542064379,-0.0007928087337299632,-0.0002467350609127
1681484464.6766007,-0.11992856014166416,0.06652645497488682,9.756382502861467,-0.00036754706215715905,0.0012087871203945231,-0.0018228988669339
1681484464.6866007,-0.2540718691899532,0.14612855866074625,9.856256722107416,-0.0002781523376958566,-0.000582723722622556,-0.0004531306953627
1681484464.6966214,-0.15567548976900009,0.10135547657007242,9.788019183061317,0.0006352756615018525,-0.00013381857910355982,0.0004871230299126
1681484464.7066064,-0.18611484514342236,0.09957166097102793,9.800196544087179,-0.00023905019057150794,0.0008042013771840856,-0.0018810343503478
1681484464.7165558,-0.19290635660394398,0.15794636618775318,9.814961036723597,-0.0003120429284513575,0.0006328450475113981,-0.0005995212163302
1681484464.7266688,-0.1934624956046815,0.22341841897959225,9.838395196839837,-0.0016918948475763036,0.00023721252945403621,0.0007598235347781
1681484464.7366068,-0.13858172574908525,0.08059712600744594,9.768819438098461,-0.00010604103748711425,0.0009610341233951689,0.0017511386500213
1681484464.746674,-0.26285318511987354,0.09716868476797103,9.823983450996371,-0.0004014636246173189,0.0003336998083063982,0.0004360937705736
1681484464.7566388,-0.15212823716824492,0.20869916256391455,9.819270220613978,-0.0023904033736253925,0.0013581440074519873,0.000252806111845
1681484464.7665532,-0.4528910931054791,0.10434234618866714,9.940234871325748,-0.002376995110632694,-0.003691486490889462,-0.0005697154014829
1681484464.7765987,-0.03663335501615381,0.13429762211316482,9.716876067738395,-0.0014721093113879802,-0.0008543002044074511,0.0015350547032962
1681484464.7866323,-0.08292560800804975,-0.03192866782215308,9.706104100944263,2.5069715617600588e-05,0.002505575452145563,-0.001616502184746
1681484464.7965753,-0.2764934727712744,0.1214768474630024,9.842199066511998,0.001256656714487822,0.00023461614295105737,0.0008343296899933
1681484464.806609,-0.25925240248813813,0.056884762185879276,9.814843367384281,0.0017293913328048226,-0.0003554780155246621,-0.0009001833427224
1681484464.8167186,-0.3075424041062568,0.26287815298981926,9.915257365786594,-0.0005363185246765586,-0.0030324727468298398,0.0003582381137188
1681484464.826615,0.018670588406496887,0.0943761150139487,9.685322133289551,-0.0003977544294791992,0.0017817185273517788,-0.0004121586720917
1681484464.8366692,-0.2007862579656106,0.061160442183603704,9.785097457325026,0.0011147071262947485,0.001536613340325863,2.7431869554171142e-05
1681484464.8466716,-0.2989798728663918,0.24996998796052455,9.921374771805473,-0.0001399429698399691,-0.0016544840632937616,0.0028325732524048
1681484464.8567045,-0.11615165728930316,0.16029790495537402,9.783492954708828,-0.0021832841521791427,0.0006752953528913354,0.0007047064678285
1681484464.86657,-0.29897979478053666,0.04078322750158669,9.832058408112452,-0.003403295422619363,0.000237224751905238,-0.0047975613310459
1681484464.8765717,-0.060487482261726545,0.1177907338605827,9.729715230053444,-0.0005139888260869522,0.0014028582910343363,0.000619373920514
1681484464.8867228,-0.195736274192851,0.3503827593133591,9.893296319118221,-0.004426262966944151,0.0007766373204995026,0.0024600375868853
1681484464.8966837,-0.24296697935779754,-0.13931199180242798,9.732339377050106,0.0005969150761076789,0.0005207106335934868,0.0014538367336594
1681484464.9066353,-0.23452054250946064,0.1694513795551285,9.855021445502464,-0.0006391384632100398,-0.00013494350608637764,0.0007471604581464
1681484464.9166465,-0.13380527754589233,0.08928889369334311,9.759253788633274,-0.0007281927751673897,0.0019460101704167356,-0.0009538079652461
1681484464.9269943,-0.2598370249079666,0.0803325976889663,9.825889073460347,-8.370224927719188e-05,0.0007535429636286187,-0.0014321282546493
1681484464.936666,-0.1528033829243409,0.3035938789235276,9.843357394544476,-0.0030251838936036363,0.001232974664451938,-0.0003581444074857
1681484464.9466124,-0.19021772352935082,-0.04659641767923131,9.743585035686278,0.00011895662092227161,0.0017213566914783358,-0.0009918247855726
1681484464.9566247,-0.13014371803202815,0.2573558273463388,9.830718213058644,-0.0024820293032866195,0.0029700794376016307,-0.0006870941765133
1681484464.966565,-0.33474363898423315,0.019845822446962324,9.849998906223044,0.00036855426621233277,-0.0002943940834828974,0.0003396047937225
1681484464.9766324,-0.17882943305384652,0.0511396953203541,9.764367215803702,0.0019260966982108795,0.00033668481995162474,0.0003217348089915
1681484464.9867008,-0.08464069992458395,0.33026666295230817,9.816401564278328,-0.0021255355723628164,0.0025826520551934925,0.0011021740461241
1681484464.9966545,-0.3167752052878202,-0.0923620691933763,9.792136962445172,0.000919171196963358,0.0010910315473450479,-0.0014086770865592
1681484465.006695,-0.2380603815388645,0.33734481514675396,9.906310255055566,-0.0022339317170612136,-0.0006728752333310724,0.0009941538406078
1681484465.016688,-0.21283425097079564,-0.018945203244830233,9.777162648822475,-0.000670054444520488,-0.00018671976816869238,-0.0014358544762704
1681484465.026641,-0.1220539183195283,0.15436614422243908,9.77051926465124,-0.001644568609441067,0.0018696451083785061,-0.0018061494960907
1681484465.0367198,-0.21251961052386467,0.1735932394240777,9.833628325978342,-0.0015138424487110822,0.000743473899898047,0.0001909697853502
1681484465.0466285,-0.29477190780377105,-0.13960698215352635,9.77221225734055,0.003560397197763766,-0.001084502863933654,-0.0006747664924237
1681484465.056632,-0.15543675519975433,0.29104428284422795,9.83802189440854,-0.0009647187491298798,0.0006157086100190416,-0.0028145837172392
1681484465.0667064,-0.133568143485856,0.2577145284178979,9.822318719821073,-0.002308091429837045,0.0009539492971669983,8.332449537778812e-05
1681484465.076613,-0.25749788065269225,0.08276193427712557,9.827908870245647,-0.00037838021753652893,-0.0008598945507725108,0.0020782102906618
1681484465.086681,-0.16214217407272943,0.08212000255102796,9.790099061052999,-0.0010869378133069154,0.0009125904065932257,-0.0012209250166538
1681484465.096845,-0.2805982287264889,0.120609305868481,9.847158915541756,-0.0010865306844881951,-0.000917260661820464,-0.0012447577941689
1681484465.106684,-0.03893806795516432,0.23227209207612234,9.759820552196057,-0.002279388954180675,0.001726580634832115,0.0005672370275955
1681484465.1166933,-0.3750144842268031,0.0429557423970645,9.884522054030993,-0.001077605530426458,-0.0017174485850188835,-1.2056207609525148e-05
1681484465.1267922,-0.06857119473501984,0.12690437996364617,9.739508496968837,-0.0016341524375911066,0.0013767605913613183,-0.0007888188160482
1681484465.136587,-0.24152763489026446,0.11051937239497177,9.829927175405397,-0.001360747901046456,0.00040782541742489435,-0.0005388092290136
1681484465.146675,-0.1845987461491276,0.07630002942328697,9.788437312324243,-0.00031542885761180604,0.0006179299074939785,-0.0005857655819032
1681484465.1517148,-0.29120230013251247,0.16816719570102875,9.87267958402729,-0.0003645715379183095,-0.0006363602159998524,0.0002688397612896
1681484465.1656206,-0.17398865801044894,0.09469461996252036,9.791648838881674,0.0004806752955383592,-8.23098895684963e-07,-3.924104790126366e-05
1681484465.1756086,-0.026268809215362274,0.21542068504694414,9.746995915600323,-0.0008738528403086183,0.002989083151225746,0.0013331451150829
1681484465.185625,-0.31704865890425943,0.11300320608433333,9.876437387539605,-0.0001075333046220372,8.261113271620985e-05,0.0020364760380711
1681484465.1955948,-0.2437129027360552,0.20724720113916084,9.861383271287163,-0.0034480250974340734,1.7035878599582996e-05,-0.0006099490023676
1681484465.2057436,-0.30769687865966705,-0.14381617668485805,9.775464665838753,0.0010145165767739771,-0.0015226296902701277,-0.0032035138032857
1681484465.215666,-0.15254275319733407,0.35918003232677953,9.867175091309193,-0.002491353527787132,-0.0014398837940101624,-0.0006472058634731
1681484465.225697,-0.15441405413149162,-0.0020799229630379945,9.743450386374208,0.0005287503794833219,-0.0006512786808731827,0.0003798390930991
1681484465.235765,-0.19569935243217365,0.08432042823884528,9.794352083011892,0.00025869079835437713,0.0003199275320374885,-0.0021790380164507
1681484465.24563,-0.1568703818928669,0.1679174613357769,9.805391097698218,8.278012217004819e-06,0.0008004853579269671,-0.0012067437678102
1681484465.2556646,-0.23334032530419163,0.17392615053605062,9.854448210761806,-0.0007404566254710973,-0.00034692536578126524,-0.0005261520895633
1681484465.265876,-0.24898091254104024,-0.039635819968234696,9.773703076049006,0.0014083013381884794,-0.0005286850758401045,-0.0028458696364883
1681484465.2756977,-0.04919133493900062,0.2918316863876014,9.804415428385829,-0.0011968220686085094,0.0017928915793575867,-0.0012630065943572
1681484465.2856283,-0.2169754597212326,0.11861759640498097,9.823184083890922,-8.072358025813847e-05,0.0006626405331452644,0.0004927164368804
1681484465.2956705,-0.22277999378780727,0.15912626133442878,9.840982719047753,-0.00019692473215430584,-0.00013605957047613837,0.0014851309602331
1681484465.3056126,-0.2513287709165039,0.21548660297805292,9.862596287997244,-0.0027185903239443174,-0.0007723498030426552,4.120240514243561e-05
1681484465.3156362,-0.060941767913254175,-0.04651892122343137,9.675404731713304,0.0014269116663640545,0.0016867170579544725,0.0005776333232883
1681484465.325803,-0.34655481916943803,0.09233637421927184,9.87605954529116,0.00139561216391492,-0.0009157562757008305,-0.000668096592975
1681484465.3356175,-0.11374434362328038,0.19650951601291644,9.801692515799873,-0.0009397562563946777,0.0011342690858069833,-0.0019864526152137
1681484465.345661,-0.13129950128403275,0.15448718997337413,9.793066160954725,0.00031154729366941405,0.001292215168852268,0.0014512584435091
1681484465.3557384,-0.1574786011630166,0.2856950635438559,9.85928807525075,-0.0030963865545816697,0.002119191700855404,0.0010585886735011
1681484465.365657,-0.19199478465306935,-0.16153456607570613,9.704548995538689,0.0031915308925421723,0.0021371568350670262,0.0010370040795773
1681484465.375759,-0.3329319131710848,0.3034437116052635,9.93464126962559,-0.0014739731995499165,-0.0001226480724587698,-0.0003439771284807
1681484465.3856704,-0.05966813324470096,0.14407075540890144,9.740861430176441,-0.0011081499100502779,0.0022626546465850756,0.0012069151521668
1681484465.3957283,-0.3602854489979966,0.03689859546874029,9.861346835341507,0.00016178955844698458,-0.0006315140792202025,0.0002226275351371
1681484465.4056203,-0.18513457672108757,0.0569842399435698,9.783139279779196,0.0006211391919108371,0.0002763367765685928,-0.0018456375732544
1681484465.415633,-0.06931087063320328,0.2834212951039576,9.798668764629461,-0.0015965464836560097,0.0021583391686269453,0.0003828189760919
1681484465.4256568,-0.2884089086338043,0.06666191129707154,9.832332092398717,0.00023183090724802945,4.388100492362659e-05,0.001249704680546
1681484465.4367154,-0.224771329060626,0.05601731675421329,9.802198445309466,0.0010387375253882022,-0.00022248768307288797,-4.111254061495346e-05
1681484465.4456377,-0.3287407929966843,0.13603422226141088,9.889356455212656,-0.00029639778474237205,-0.0021205415342085026,-0.0020617034792426
1681484465.4557295,0.0018709152668979262,0.22720400810316926,9.75305202775774,-0.000785917221367824,0.0008865297729422043,0.0013022247836001
1681484465.465637,-0.3108972295651323,-0.006916655525450695,9.827877147202985,0.0019044955068774345,-0.0015576307383521457,0.0013890223013244
1681484465.4756217,-0.027258083519806756,0.24224820593198115,9.755187433678241,0.00026498086764922883,0.0015358606723364333,0.003162626522268
1681484465.4856756,-0.31511576719935586,0.04853198752445497,9.857605328566061,0.000948214017761386,-0.0005730357613111781,0.0014266565881793
1681484465.4956744,-0.2305854888562304,0.03993032149212657,9.797997326787604,0.0013863136349047027,-0.00031226846883278747,-0.0011683846864375
1681484465.505685,-0.1402023970730436,0.22981318881222462,9.81077064879836,-0.0010399710754378962,0.0012106363396740313,-0.0014045627362552
1681484465.5157576,-0.2196006946897733,0.16354012317929698,9.832473991194744,-0.0017250740020137943,0.0005121265254134387,-0.001003361311135
1681484465.525684,-0.13484058302073443,0.13380385547955373,9.782490614955352,-0.0008030542317926153,0.001144691879490617,0.001210203943216
1681484465.5356152,-0.3152630114958571,0.23240184708728973,9.92016324790114,-0.0024131122094793326,-0.001826239449547659,0.0024764423683759
1681484465.5456228,-0.014150342989762225,0.004441817462189661,9.663438270160723,0.0002977670251736646,0.002108434618584062,0.0026291499339517
1681484465.5556312,-0.30545839751592657,0.15596640621970792,9.888032341853817,-0.002663843313975763,0.0011476708992487117,-0.0015647520817342
1681484465.5656955,-0.2624370820595091,0.021541849715579237,9.823717331445183,8.581069306303548e-05,-0.0007857631852742873,-0.0004088074242222
1681484465.5756638,-0.11891461893196054,0.16307648424094845,9.776526312727736,-0.0008537201615467534,0.0011100395603489011,-0.0006684667936984
1681484465.5856526,-0.23254193307869134,0.13408497713150583,9.831444687320252,-0.0006313262151981499,0.00027856420343597984,-3.0299419862380448e-05
1681484465.5957072,-0.08077949811413157,0.16661813594373004,9.760956335118268,-0.0005854860567263651,0.0023092175056386058,0.0016252025775851
1681484465.6056273,-0.3124994401958312,0.19773229019793698,9.890642006221524,-0.002536431546732552,0.00019361670849661774,0.0009173982503365
1681484465.6156948,-0.30156398584608574,-0.00794584127568546,9.820967767185683,-0.000624225446136612,-0.0014495884011275764,-0.0008886191103134
1681484465.6257143,-0.09004271835666128,0.05164551496832586,9.72981419813553,0.0014053064785523955,0.0005087904527937193,-0.0003633439814198
1681484465.6356533,-0.07676383362028628,0.1244049931915703,9.74157915974315,0.0007239016708996793,0.003480094622188438,-0.0014976952265474
1681484465.645647,-0.37373755190898084,0.19532318407728524,9.925125230836231,-0.00020142131213416015,-0.000560382487428611,-0.000273583344509
1681484465.6556623,-0.031209120040506494,0.024675373406894976,9.69160399684163,0.00148760634854869,0.0031190992550188044,-0.0010104528668794
1681484465.6657724,-0.30595535831727605,0.18140226929149356,9.903006254772002,0.0005041379542570156,0.0003631408523239084,-0.0006546676199409
1681484465.6756938,-0.06864096303203888,0.29443663262152436,9.802529149008901,-0.0014650362663057254,0.002063349271602881,0.0021784104133498
1681484465.6857464,-0.19446566926912773,0.006397796651758318,9.766462391859738,0.00019534124846363283,0.0025349679787699682,0.001419219464466
1681484465.695838,-0.3936867312516788,0.023801126126581047,9.872489569559614,0.0006222430479468213,-0.0004717121062302598,-0.0017815728246692
1681484465.7056916,-0.21295672378780597,0.2103345527184236,9.840429976423518,4.967300419450945e-05,-0.0012953811313551839,0.0002539226511966
1681484465.7157326,-0.15852067384242738,0.17880558670475988,9.820810043331793,-0.00044839694513167105,-0.000953761283672515,0.000887230267423
1681484465.7257383,-0.19024574448492082,-0.021480400056164792,9.741713406516185,0.0016470733347076403,5.114150861073842e-06,-0.000632331012142
1681484465.7357037,-0.25241955414855627,0.047500471492613355,9.808472996305465,0.0028511028757160347,-0.0006531272472096088,-0.0014831670600447
1681484465.7457948,-0.04994195062337603,0.36957494738701796,9.82458609629118,-0.0004882973664302641,0.0012072808513695428,0.0018543305882726
1681484465.7558467,-0.3416342509155629,-0.032087225077063006,9.831217973214699,0.00012043580693277575,5.519183232213265e-06,-0.0029606220818582
1681484465.7657893,-0.16438217037382188,0.23095382177200502,9.83418126094325,-0.0008533553900590847,-0.00010960255444423905,-0.0005063975736025
1681484465.775739,-0.16438520047490265,0.029573256524530574,9.768623880696685,0.0003357857025666899,0.0009260231549518734,-0.0020386043510857
1681484465.7858276,-0.14946502758420022,0.24203390504272593,9.819088226185846,-0.0012430017643536716,0.0013790105405018605,-0.0001334941520813
1681484465.7957497,-0.3639351034493581,0.09763575362107532,9.88280783175236,-0.001999586423908776,-0.0012756662211851168,-0.0024558522313359
1681484465.8057232,-0.046929288713602545,0.15085937781805656,9.747987279816305,-0.0009077389727885799,0.0005531120098427742,0.0004435423721101
1681484465.8157687,-0.33500873007432375,0.1573217801404787,9.899120535549127,-0.0009919176034269505,-0.0026908665234549023,0.0013610846468022
1681484465.8257787,-0.14120557671998718,0.052057151082818005,9.76456093439231,-0.0006592698651302288,-0.0009470707562054196,-0.0006036327726665
1681484465.8357253,-0.22192686071493906,0.19539742574550953,9.855691340614152,-0.0027379474295415695,-0.0013307835594200393,-0.0014768522273275
1681484465.8457165,-0.11757107965044253,0.10641003150012734,9.76928310241327,-0.002029404932343989,-8.952531275067201e-05,-0.000582044016895
1681484465.8557737,-0.22310570033375726,0.07473441531049341,9.809148261900452,-0.00020811924858513172,-0.0013791879250449697,0.0012001584068879
1681484465.8658304,-0.12523305906781654,0.16424553627975186,9.777182502923207,-0.0019236090799738855,0.0007680643851282832,-0.000482192034227
1681484465.8757331,-0.23031590393010928,0.04322361165769331,9.803597619096443,0.00011450075414054438,-9.471326045710776e-05,0.00015111581483
1681484465.885811,-0.21256904368760648,0.10598035562478994,9.804577058824808,0.0003979610742287459,-0.00045046120079834126,0.0002718137071009
1681484465.895794,-0.084030962993967,0.22833234490255935,9.786396060798227,-0.0011550938490370473,0.0016315889484695965,0.0015577618064948
1681484465.9057913,-0.2573879792294203,-0.02060024726107332,9.793683395774334,-9.85859583633308e-05,0.0015689945349697313,-0.0018776885739985
1681484465.9158208,-0.19778864904415963,0.13377474831649988,9.80468303831236,0.0005130991502611543,0.0012367179586360224,-0.0005071314557913
1681484465.9377017,-0.21963185744619926,0.13001050120086285,9.832010803211167,0.001243254298351986,-0.00020944571394152075,0.0004528602544691
1681484465.9388795,0.11620433692899523,0.7757819746611214,9.860291190081183,-0.001074234081671208,0.0010124482437381698,-0.0008472618687424
1681484465.9456954,-0.18732270389166872,-0.1200139428271213,9.715813221678355,0.0011992809678946458,0.0019855205917728262,-0.0032858240924302
1681484465.9557436,-0.18189580422992752,0.2667342544326517,9.847433153080107,0.0010577168296446004,0.00034861625026821083,0.0018658505828593
1681484465.9657428,-0.10559005077464832,0.10483869971871908,9.769513086773177,0.0009210040149593044,0.0024165154517768617,0.0001626948319848
1681484465.9757144,-0.3346768116393025,0.116986907153565,9.8830343813247,-0.0005854860205619179,8.559335629355231e-05,-0.0027471624820951
1681484465.9857583,-0.16045233862088903,0.18853697572277586,9.844064694393962,-0.0008190715422883068,-0.0006035848046112097,-0.000775746073899
1681484465.9957647,-0.3581444610155843,0.05089200921171884,9.895026982922417,-0.0007597942181667224,-0.0036132420228386043,-0.0036229842848602
1681484466.0056925,-0.0441196959112382,0.11624655934597013,9.739622293156756,-0.0002148048723989681,-0.0011128360892876349,-0.0027944755315307
1681484466.015829,-0.08906221171647971,-0.034978468245546464,9.691851038594736,0.0024770571789023217,0.0018067147047528085,-0.0035618643782559
1681484466.0257945,-0.22300202523992205,0.28638966643719355,9.845502611353057,0.0005268939984933402,0.0015067861750588415,-8.136616493498367e-05
1681484466.0358064,-0.25781820911293657,0.18972460216913561,9.817659181009365,-0.00037131350062703095,0.0012728430114209658,0.0007642925443601
1681484466.0457606,-0.31423459834250556,0.1685887253888042,9.857219994399415,-0.001319743251343089,0.00011130568982247027,0.0002882109215956
1681484466.055823,-0.34895099164989263,-0.026620153021347747,9.812782016810708,0.0013680711349457245,-0.001984563221141087,-0.0011460231657597
1681484466.0657058,-0.12091118784743056,0.20706745045066993,9.784641430399494,0.0003249676442148659,-0.0004158267885114402,-7.724692518745941e-05
1681484466.0756936,-0.27508866509133084,0.07713961620479165,9.83454775052207,0.0008126118543724638,-0.001638482185023546,-0.0012324648018453
1681484466.0856888,-0.11101690736272543,0.24486750604646454,9.821958624937803,-0.001881505152408925,-0.0003718699106961779,-0.0016970036126199
1681484466.0957332,-0.16432821340112186,0.059206841887596076,9.809548675083175,-0.00017793988312650975,-0.000908686648854657,-0.0009415138087693
1681484466.105687,-0.05689426323413973,0.1539185030788138,9.770591750754098,-0.00047597696150733363,0.0008794585974260895,1.5520020994195518e-05
1681484466.1156902,-0.07834651982949915,0.14662762105621058,9.775298989171823,-0.0007568512281841426,0.0026590236725777677,0.0006514153752018
1681484466.1259472,-0.24992124954832615,0.04581109351412768,9.819460671738938,0.0002791506015863858,0.0016636255943200445,-0.0010100628755513
1681484466.1359198,-0.30846654338613755,0.10852954727776735,9.855741161710059,0.0005388145321090793,-0.00023067882755396926,-0.0014555978163603
1681484466.14582,0.0020129736962619257,0.21532469371452018,9.720044633295311,-0.0010962672328355951,0.004119706769632465,-0.0009668145834926
1681484466.1557074,-0.38688359465961947,0.026458686511464026,9.86286650899135,0.001079745358010868,0.0009357041318029559,-0.0015733139629933
1681484466.165692,-0.23318082771369983,0.2047502884671264,9.83208877438334,-0.0009863292886853241,0.0011968345142921806,-0.0023381344548884
1681484466.175723,-0.23087606631355984,0.022136511254875566,9.787382257193721,0.0026484120052768837,1.895102277250227e-05,-0.0002478589344296
1681484466.1857705,-0.15934779782804664,0.09721520454098248,9.773398681416548,0.004111724705645041,0.0003530821298557551,0.001605101886113
1681484466.1957912,-0.24213400523483614,0.3393683649080843,9.923125614851832,-0.0013495490165792523,-0.0004996471204937553,0.0001619128702681
1681484466.2056994,-0.22729414593800146,0.09574863949862132,9.838222818508166,-0.000805654927136798,-0.0014838692658280161,-0.0001808098790693
1681484466.2158136,-0.09575761590419424,0.04595632108959163,9.74938369758747,7.052183386715024e-05,0.00041193285552206893,-0.000575308924866
1681484466.2257469,-0.1792181958970981,0.25239525593200424,9.857895020577997,-0.00215347574302313,0.00018021506153288258,0.0006618552684325
1681484466.235739,-0.21063647223923312,0.10801830834732193,9.806553080525791,-0.0017231848748007319,-0.0003424429568502015,0.0011107419518761
1681484466.2459035,-0.06612798697173713,0.05436515974953029,9.707680399854233,-0.0013789820765123704,0.0032539308589287935,-0.000949755780724
1681484466.2558246,-0.41135379272760697,0.19824796620306562,9.94269007815213,-0.0014467786730059495,-0.0018206386143494301,0.0015510708577007
1681484466.265754,-0.10059951950718678,-0.04103123598769641,9.696377825148817,0.0011873492869827918,0.0011238353027029058,-0.000398011067276
1681484466.2756958,-0.28234481272833395,0.1546326324123933,9.847337042883515,-0.00015597877812607296,0.00025584305663760716,-0.0017934881656888
1681484466.2857168,-0.19251859533330293,0.22543453803063782,9.831194639145641,-0.001030296051246265,-6.490873720094353e-05,0.0006421121611733
1681484466.2957804,-0.1929161552943273,0.047870539899346934,9.788976867515396,-0.00017944053529384511,0.000297936446445976,-0.0003179027739438
1681484466.3056934,-0.23715714957856898,0.21059179157820662,9.85503921504523,-0.0017440577804213016,-0.0008077364271306689,0.0004811753711205
1681484466.315766,-0.26615966042401895,-0.06492318580420348,9.796195583511441,0.0002877074027851503,-0.001467115131004538,-0.0029740363865617
1681484466.3257723,0.09786058876671266,0.1988467456460729,9.699085741725547,0.00036815122908531923,0.0031302791402588654,0.0002487086417626
1681484466.3357344,-0.4010905027966316,0.05034248778339085,9.90056371577428,0.001795722059125652,-0.0012592415896156056,-0.000176709149358
1681484466.3457034,-0.16577693898247325,0.1908046818047354,9.817628005780458,0.0005045265015291482,-0.0008036339215506545,-0.0001022114924613
1681484466.3557134,-0.16492412405539666,0.07496206157498847,9.767749767463291,0.001331932264506486,5.689368560153113e-05,-0.0007742531638119
1681484466.3656952,-0.31274885270552555,0.07465507427029006,9.850352838518909,0.001429153523820538,-0.0013583132235740784,-0.0023805929854038
1681484466.3758152,-0.03735431404272537,0.2561448016773004,9.764167399578623,-0.0001850464379052975,0.0013656116160324693,-3.476464594637436e-05
1681484466.3857627,-0.25747519401487134,-0.0008516918264184798,9.800140671646165,0.0014838654074328579,0.0008570945939547176,-0.0019428986165199
1681484466.395745,-0.3039125732517118,0.28828594581228967,9.92534758907399,-0.0005944291680888516,-0.002264688067586447,0.0005553071928683
1681484466.4057512,-0.06491497149685727,0.0989123078797199,9.720829996166785,-0.0005780510561070131,0.0011063212879905125,-0.0004419572691891
1681484466.4158757,-0.21159147738867487,0.11600352596822598,9.81318385835542,8.619911227611471e-05,0.0006182965173603614,7.693271213288027e-05
1681484466.4258175,-0.16460151933422595,0.03852340345259386,9.772579859540752,0.0017770904189662326,0.0012225477473178019,-0.0003920382627743
1681484466.4357915,-0.29976521441221754,0.24828709551385253,9.908424284671588,-0.0008149699447196553,-0.0010416832401947949,-0.0006833546835455
1681484466.4457505,-0.17699589587953227,0.02744334658395709,9.77974617045894,0.0007056980453878059,-0.0007335945540681524,-0.0014172343112054
1681484466.4557648,-0.03134700005732089,0.25264071458082166,9.769441287890093,-0.0008600660883540871,0.0018957100195464809,0.0008466216345791
1681484466.4657247,-0.20680686383463504,0.008749515234474457,9.780898458899728,0.0020166119726648182,0.001289247377397587,0.0016471710510326
1681484466.4756997,-0.27514173243649287,0.26458818316523947,9.909539370705643,-0.002435459345889802,0.0003866114611139988,-0.0010648134670678
1681484466.4856992,-0.23501161003083681,0.04969259230900257,9.7998863128409,-0.00037128841015795925,-0.0005927876086781226,-0.000304495570575
1681484466.495781,-0.15602896032279012,0.18463447435770997,9.807310568976154,-0.0004819253126949431,-0.00036219126863426613,0.0018665950588424
1681484466.5057588,-0.20979871099059894,-0.028695783101725963,9.767116134095707,0.0010510282798390515,0.0004014957969838295,-0.0012473680585149
1681484466.515843,-0.1737660672357324,0.1488705988097852,9.808642206549944,0.00013312827666862406,0.0011029562112308195,-0.0021753406658295
1681484466.5257232,-0.3094051810639004,0.3098855911153398,9.936345635805743,-0.0028675967421310012,-0.001983799986109831,-0.0004628245992112
1681484466.5357037,-0.06998206249900848,0.18688348843060287,9.759461101492333,-0.002604220985727078,-0.0003834174344450773,0.0026090586284648
1681484466.5457325,-0.14396377751185602,-0.1848197615538895,9.687658214793856,0.002175335695360596,0.0017105767343588208,-0.0005734204355153
1681484466.5557432,-0.2844697573856813,0.21643800565972035,9.892316787997514,0.0007235757902413696,-0.0004992777049748261,0.0002580265241217
1681484466.5657182,-0.05910252128841916,0.16047880661705255,9.749324231284756,0.0008211865983672348,0.0019374307473249972,0.0016494311817463
1681484466.575758,-0.358279309364818,0.18709662918750866,9.923843188997271,-0.0007613240063160091,-0.001603455885320358,0.001229582146649
1681484466.5857327,-0.1268618863272087,0.14996618437162834,9.779965277265315,-0.0009431254048382723,-0.00026346764294767576,0.001630787558994
1681484466.5957358,-0.215119035327282,0.136366320770184,9.825446999666669,-0.002200399790115726,7.033237738809543e-05,-0.0003026117378372
1681484466.6057634,-0.23384102634648407,0.019378049943255655,9.791155707886018,0.0005451281034821484,-0.001071470253700501,0.0007430638029713
1681484466.6157196,-0.056625150737802964,0.23478070000929133,9.767346892233167,0.0004963091576802696,0.0006198086765015974,0.0048460951034453
1681484466.6257582,-0.3757983278470157,0.029364277131667425,9.87135964700281,0.00022997808494991815,-0.0015520384570299655,0.000635794941942
1681484466.6357164,-0.08584497820203588,0.1805453544495467,9.772329636137165,-0.00013585573039555675,7.367294865545746e-06,0.0022491904633593
1681484466.6457195,-0.18006741516945718,0.11937394513879586,9.805795208038203,-0.0007147539185763155,0.0007755193376842273,0.0008853870636325
1681484466.65579,-0.32552731762544823,0.18107458241827906,9.90684894114425,-0.0025535679055132343,-0.0017278809133873141,8.813916380354938e-06
1681484466.6657956,-0.014989586047388445,0.17558855078147936,9.72377306014683,-0.0016457179359042236,0.0010202672757441747,0.003810836696672
1681484466.6758883,-0.24391682761135663,0.0032950317402822625,9.794524165823823,-0.001498941067996109,0.0015820363199656512,-0.0011672715231302
1681484466.6857798,-0.18230903557996853,0.1569077935624097,9.806898481802563,-0.0019810208583485433,0.0018394372335257462,-0.0007280656177077
1681484466.695743,-0.19360405077504556,0.08793690090142003,9.804510204100445,0.0001863909997417793,0.0010455999204877359,0.0016945039638325
1681484466.7057242,-0.23311348338662335,0.1150570989689663,9.817945673342756,0.0003163986703014909,0.00037057789622178686,0.0012444790441317
1681484466.7157907,-0.24920926594865558,0.17989574093320884,9.852634213395644,-0.0017258297320831457,-6.784179842983079e-06,-0.0006594888440791
1681484466.725784,-0.09762779855241857,-0.006579732343574579,9.704674440777694,0.001325940499446242,0.0018498947496399891,-4.000775921081585e-05
1681484466.7358017,-0.3879057049560702,0.2552900901594347,9.96303733664828,-0.0011558277834126007,-0.0024945428208993916,0.00078925297889
1681484466.745768,-0.08359135963695669,0.015173303266613283,9.711399840105138,0.0010093030784824057,0.00012732433201219573,0.0006901688716847
1681484466.7557633,-0.17170751800973713,0.1804407219922021,9.824080642628441,-0.00031431796051091255,0.000715172560086786,0.0003358999925207
1681484466.7657402,-0.28523345906479425,0.2769307333576891,9.931226534431788,-0.0024883632246706245,-0.0021641122343121744,0.0024727135856177
1681484466.7758086,-0.09359089782052886,0.08216259348936705,9.723922175640755,-0.002423556899058892,0.0009025434771097266,0.001212079510466
1681484466.7857764,-0.3385831487891899,-0.054051355551417934,9.822175977223722,0.0005063899553997642,-0.0015032368571936757,1.1782972748229084e-05
1681484466.7957144,-0.1106056326057535,0.2661173968391418,9.796878939409318,-0.0020230835543761567,0.00020777557082966053,0.0009524162701804
1681484466.8057165,-0.231186172361221,0.10129542248981466,9.820826219705276,-0.0013841892964540985,-0.0006646730324397292,0.0011535945482559
1681484466.81575,-0.058410697637483806,0.02749971573639154,9.70542127953521,-0.001662472492010676,0.0035885156578351974,-0.0031904371030155
1681484466.825833,-0.4200885211385643,0.07720229902110232,9.913232688366385,0.0006714203861541325,-0.001968525497692347,-0.0007705278735134
1681484466.8357563,-0.07501205759085763,0.25981248431573445,9.797185867758461,-0.001491846385937981,-7.8688413796398e-05,0.000625350275683
1681484466.8457246,-0.10608413157066544,-0.006503056375344765,9.719447109465804,0.0015561720204367731,0.0015995535242160218,0.0014616527401325
1681484466.8557398,-0.2658612845108706,0.19053790219236205,9.881058131599874,3.328163597864299e-05,3.306630956479935e-05,0.0009621027234483
1681484466.8657265,-0.2734046442922292,0.10224503934990643,9.85075713460586,-0.00042977692473666033,-0.001206338885089908,-0.0009802593890104
1681484466.8757737,-0.08783568002436788,0.1929766034963875,9.770787967662212,-0.0005281367468286004,0.000512884072879425,0.0015518247560489
1681484466.885811,-0.3796271171798699,0.23353083341002967,9.94894479065212,-0.003539262289493139,-0.0030753285387625155,0.0002188986359637
1681484466.8958368,0.05789363683154004,0.1353569556846135,9.680480952056888,-0.003301615039505817,0.002086810932988877,0.0009654971031945
1681484466.905851,-0.3925751519206681,-0.056736275587057454,9.857295292022703,-0.001043689336802301,-0.0012298167115460015,-0.0018754461820695
1681484466.9158666,0.06322315139221066,0.2326969576258487,9.711074931153794,-0.001933319763413921,0.003011427890674411,0.0012109394261155
1681484466.9258597,-0.38743719155711803,0.15176264865077538,9.911924285794894,-0.003189088906324309,-0.0004631364735417026,-8.917483906184715e-05
1681484466.935939,-0.17122531650689923,-0.07735010345971949,9.72535320767356,0.001517049780898057,-0.00017815033700231263,0.0005370344693314
1681484466.945743,-0.2051193942283274,0.12154158128463965,9.807965173361653,0.0013766202308897579,-6.192095384046548e-05,0.0002371736295994
1681484466.9558735,-0.13221630772853782,0.2604404273520135,9.830767396126847,-0.0020596095079932573,0.0015481398127395818,-0.0009910508565131
1681484466.965968,-0.10300004487369159,0.09217547124367333,9.73658616273886,-0.001157338146623806,0.003325859352163817,-0.0005637411999974
1681484466.9758196,-0.35228908626230443,0.01387717703956705,9.85329484550305,0.0010502903299213727,0.00022344694219388623,-0.0011065236798945
1681484466.9857466,-0.06447396287340584,0.38044188618244784,9.8219329194692,-0.0034885925480183633,0.0024627094574109923,0.0006067131721887
1681484466.9957716,-0.2659146475969034,-0.06507885389027375,9.781856372713015,0.000734007870746972,0.0008217095640547871,0.0011073975434068
1681484467.005761,-0.20274354891626423,0.09179275473770207,9.79265099609537,0.0017145094480334844,0.0008034498615381007,0.0016218544729294
1681484467.015741,-0.14467098301666298,0.1323300206265168,9.784656162822145,0.0009701910188800842,0.0023662195066567163,0.0006294674781624
1681484467.0257847,-0.2573330542163934,0.019154278916312044,9.806508141057693,0.0030775825925485768,0.0011037260793014417,0.0002762783511083
1681484467.0357974,-0.1550458628831744,0.2697279283547317,9.844132677753095,-0.000123912550587539,0.0019318349488670222,-3.667502137755436e-05
1681484467.0457716,-0.18725088043109847,0.2118347815040405,9.840372011595688,-0.0012780239004598778,0.0017127987866172526,0.001180772811082
1681484467.055783,-0.42371416551799396,0.09895843686658144,9.9151553310092,-0.0018796502948582395,-0.0023067967753614593,-0.000889361607236
1681484467.065782,-0.07840943646165452,-0.006641208442952531,9.70812136504405,0.0011918341648750493,0.0001232393370706092,-0.0008032925001803
1681484467.0757966,-0.25173057424173,0.3538948589701743,9.915395442693073,-0.0030512572131520745,-0.0013944735835729075,0.0006771208095837
1681484467.085795,-0.025870558187057132,0.12025363482593701,9.719125792037282,-0.002520420439218581,0.00202012425601936,0.0012228643713992
1681484467.0957804,-0.39059747418688046,-0.10578601122658685,9.84035327110326,0.0006565184259380868,-0.0010532232534037139,-0.0017774717457119
1681484467.1057727,-0.06626128831704028,0.3250774104356234,9.798938189187544,-0.0034580791812899086,0.0016807382756102974,-0.0011765935964409
1681484467.1157422,-0.3346294072690782,0.05375745925923574,9.858258996232884,-0.0018461239046382023,-0.0013635331302831511,-0.0013162791769478
1681484467.1257727,-0.10518762939283528,-0.008616373712186168,9.716760625614171,0.0015099822389928674,0.00024839270586623206,-0.0003164162666994
1681484467.1357777,-0.14806304121833874,0.11294947116268224,9.786235423110835,0.0012096986126384208,0.0016833839765575183,-0.0014090447261456
1681484467.146212,-0.19032429827099065,0.12746343273827007,9.821100800953523,0.0013397376863750318,0.0014579842351347837,-0.0016716748982194
1681484467.1557748,-0.31808540258380963,0.2766150615864205,9.919828605123808,-0.0011498796861106582,-0.0012778615966497976,2.103038738319454e-06
1681484467.165844,-0.18344025116197818,0.17958585916610834,9.823739880912614,-0.0008838870854020497,-0.0017595434584406432,0.0024969272740658
1681484467.175863,-0.1117668947629767,-0.06635583956135074,9.693751093095424,0.002531835182293076,0.000514006287419608,0.0011319568107377
1681484467.185782,-0.19019838821313081,0.1857129664194183,9.829274648534776,0.001008939810256596,0.0007174007682702084,0.0003839503001895
1681484467.1958215,-0.21157750852767648,0.194374557740233,9.8368660157749,-0.000884638334233746,0.0006227912978689381,-0.000435611353581
1681484467.2057931,-0.23618803594232843,0.11930887710930303,9.832987081480388,-0.0009878330952206467,-2.1688970631987802e-05,-0.0009489650878581
1681484467.215776,-0.09162127258189871,0.12252382413270974,9.7440867155674,-0.00030012374737448203,0.0018837863854970196,9.262782582158762e-05
1681484467.2260218,-0.26916894391597695,0.10174947093487394,9.844269861394594,0.0010323952005518496,-0.00034727817281305577,0.0018017708166975
1681484467.2358248,-0.07442186439792597,0.20360766736254615,9.774333796096426,0.00030261549894848843,0.0016226700478755125,0.0032158705831047
1681484467.2457929,-0.35905864037336355,0.09323531780903452,9.90484112739426,-0.0005281196076745367,-0.0012517875712771077,0.0004021958407487
1681484467.255811,-0.17641198523267912,-0.034266284212302246,9.734075383974496,0.001946944118111644,-0.00018859700571182398,-0.0009396735153618
1681484467.2657988,-0.17158523383740662,0.2903963818388945,9.850444325306773,1.5393138474143932e-05,-0.0007555780433369852,0.0020048211986672
1681484467.2757983,-0.2292238214434319,0.055228710062230825,9.805287527233572,0.0006490653665176992,-0.0009526303651969222,0.0004748416791212
1681484467.2858748,-0.029847290671246775,0.28755043792334056,9.783579454478575,-0.0020409649607745924,0.0020991095988671022,0.0020230691257406
1681484467.2958815,-0.3926336475900162,0.051962156406194705,9.893943343700702,-0.0023784887785302665,-0.000861396027956379,-0.0015446399379048
1681484467.3059573,-0.008996162397864615,0.11550492447909848,9.702186726266797,-0.0005751006591256123,0.0020674406048907397,0.0016997117887025
1681484467.3158543,-0.31735719750082675,0.1858956594510995,9.886985980286754,-0.0013096889688391465,-0.0004866139701969935,0.002864613426524
1681484467.3258662,-0.16420154647898919,-0.02937099805044958,9.736858258727262,-0.00015708174807662793,0.0015473900243211246,-0.0008633057627353
1681484467.3359022,-0.26791304665520776,0.14316897091687722,9.86052535192492,-0.0006331833119788536,0.00011799138095834143,-0.0006714388768646
1681484467.345763,-0.1763076097721065,0.15347287221650802,9.804364671978904,-0.0008000712015824397,9.713676301554929e-05,0.0004033112159472
1681484467.355792,-0.06729571711526537,0.09757668261950327,9.731355575115039,3.6277632528989024e-05,0.0026690742821352527,0.0008965569973465
1681484467.3658204,-0.42530647847395137,0.07653212774970945,9.916755034944961,-5.31542005646938e-05,-0.0013628038035139423,-0.0011918575077775
1681484467.3758566,-0.25136660960023466,0.11379006292582095,9.836780445500398,-6.319589588651988e-05,-0.0023496350928716566,-0.0019823573570225
1681484467.3858414,-0.10044910500306112,0.26557362090719866,9.804387030894821,-0.001941871272451628,-0.0009850647283749568,0.0001064111670952
1681484467.3959122,-0.0461083686842782,0.05718034501588499,9.726005309876578,0.0015647258003469344,0.0007918931479066014,0.0036596360110219
1681484467.405819,-0.3714011308569044,-0.0884023161560528,9.821734781372852,0.0033510185447643715,-0.0010435178338825664,-0.0011374678037587
1681484467.4158337,-0.16864795421187895,0.37326321187095546,9.870268206953984,-0.001431121255217521,-0.0008859555171225751,-0.0001979380653697
1681484467.4258988,-0.111232674364846,0.049157801002990435,9.732818204890648,-0.00020254603754115653,0.0012083896506695567,-0.0010350365232202
1681484467.4357882,-0.19803990905229932,0.1465216838659407,9.812699857016238,4.3346798078056936e-05,0.0007971175557247275,0.0003545023460414
1681484467.4458528,-0.23345949878860905,0.07620433367433466,9.812316120798393,0.0007619467822708362,0.00010123733031496095,-1.5412228507152024e-05
1681484467.4559886,-0.12155423330000045,0.03633301874825267,9.746217125245836,0.0017416796950648081,0.0022667698070792434,-0.0018158333882216
1681484467.465768,-0.16308085215457552,0.2906399158363027,9.851118345938009,-0.00105264465832566,0.00248280641199712,-0.0002791936316985
1681484467.475797,-0.2892521701305563,0.09110435362496049,9.850954404520808,-0.0004908687088346782,0.00041379121700336124,-0.0005719640798393
1681484467.4857924,-0.20963938727109852,0.03337443830539687,9.785592518538111,0.0023012408059702454,-0.0004243966968988795,0.0011401784973226
1681484467.4958384,-0.13127238473620276,0.13386234692922133,9.774101180073103,0.0013367722806331191,0.0013983795824902031,-0.0003063485532525
1681484467.5058277,-0.2920711289085574,0.09765749576711585,9.84517011742349,0.0010022245654942685,8.18555153213401e-05,-0.0020706618710878
1681484467.5158105,-0.08037708938274,0.25268019361222105,9.7861541826245,0.0002716668632529887,0.0013048840768391096,0.0016676966584295
1681484467.525838,-0.20999294771247431,0.17670721262241193,9.852153110859215,-0.001593920840807915,0.0012545846805068427,-6.570970113312286e-05
1681484467.535807,-0.27358692746183266,0.010166744906657029,9.799174264570482,0.0002601319668582635,0.00012061402751435682,-0.0010108114260706
1681484467.545888,-0.16483960999549274,0.22750145416466336,9.819416466439359,-0.002014130366862478,0.0009845037440939822,-0.0013740262988481
1681484467.5558972,-0.23541699497777485,0.04799288310980084,9.801444259246605,0.0014678906357494341,-0.0010625248382521322,0.0020454124856282
1681484467.5658672,-0.22600551963925083,0.16148793301266862,9.834791306242835,-0.0011670024119245614,-0.000407253732336923,-0.0015837526920709
1681484467.5758126,-0.2331957814981258,-0.004123919469119749,9.787384266554591,0.0007064266468220238,-0.0008054841565768962,-0.0028466314583543
1681484467.585839,-0.09103010846524943,0.34965136209647946,9.831998606725515,-0.001902010682473729,3.0076401656524638e-05,0.0012209939264234
1681484467.595957,-0.2596220762189454,-0.04969077578119475,9.770433019129399,2.6956303379043564e-05,-2.3241978861951203e-06,-0.0017353710758957
1681484467.6058178,-0.18889447173221882,0.09645773891294553,9.799721255575767,0.0011553368377792664,-6.748782323367154e-05,-0.0013248333747956
1681484467.6158223,-0.058601591604348385,0.37073896073307516,9.81079456925404,-0.0029410166017598605,0.002218677853209475,0.0006804855034228
1681484467.625894,-0.3538917857600877,0.049763281349939355,9.865511543608951,-0.0012318214389318925,-0.0013635376701883982,0.0008358181762982
1681484467.6363003,-0.16444112623818552,-0.011513064280985606,9.751446798210923,0.0014466632625067925,-0.0006348840364730675,0.0005612635828096
1681484467.64582,-0.2020919110278824,0.12581352556350014,9.810790869492537,-0.0006335620650456809,0.0007196397329956045,-0.0030507755040649
1681484467.6558754,-0.13988503629203686,0.19760193570268833,9.80723963875179,-0.0014054401325504738,0.0014758790659189056,-0.0021492443087968
1681484467.6657906,-0.18097204148486748,0.1250545492417154,9.804120581992654,-0.00025765506473810927,0.0009863612713211227,0.0002312046668034
1681484467.6758494,-0.09224084672553148,0.01349818952168676,9.725088942614342,0.0014198440482946198,0.0034580888508345497,-0.0010648418724063
1681484467.685797,-0.22432294900533523,0.2031796238397835,9.859440421873048,0.0010692577730678423,0.0018424576905816002,0.0012433696934262
1681484467.6958213,-0.22606610866018675,0.13142596286463465,9.830385476274383,-0.0012426594107710284,0.0024518780820567037,-0.0029937916010144
1681484467.7058456,-0.25095516045943395,0.11702640631714335,9.821352255118724,0.0001275087244959828,0.0005583255067704156,-0.0004360073985058
1681484467.7158904,-0.1663256657532893,0.01865790974208192,9.755322272355047,0.00257430244782889,0.0009073854140969953,0.0003857926890727
1681484467.7258558,-0.12147696253180104,0.29772664192220977,9.82046278009732,-0.0015633963523503463,0.003037527790469191,-0.0004426648415151
1681484467.7358434,-0.22662652493527602,0.0695963445167585,9.805765300876221,0.00023369566610506842,0.0020111999479925156,0.0005914493190597
1681484467.7458344,-0.12537012498844113,0.25597322364972974,9.820258691146702,-0.0013636953937138012,0.0027886640272943406,0.0028925513575326
1681484467.755869,-0.4617039491713129,0.027628899372224798,9.91797548980186,-0.001300734172052472,-0.0016105280923030933,-0.0007113013457033
1681484467.765835,-0.03300087957834191,0.13397828363457878,9.735318075205058,-0.001826034893704626,0.001957934006915237,-0.0012216451618347
1681484467.7758248,-0.22853340347512616,0.08597061272538414,9.827085302488298,-0.0008898603399938642,0.0009189381257326197,-0.0007981050334397
1681484467.7858138,-0.17020107169962637,0.06645719912822962,9.787452241017164,0.0013296787067000368,0.0005795782183602851,0.0013607318137896
1681484467.7958136,-0.23425093215302975,0.054639409383764326,9.797467446983264,0.0015338086552294673,0.0009785343007703375,-0.0010104600846294
1681484467.805867,-0.1960308265340551,0.2830042833496033,9.86808517429803,-0.0015253795719775887,0.0007054922063838207,-0.0004814234602723
1681484467.8158133,-0.1661667057549797,0.14530661355594587,9.800359684466157,-0.0019258457942964824,0.0013484643748647046,-0.0004523891297627
1681484467.8260236,-0.3046591837294311,0.0019656838131379604,9.824476613698856,0.0016508057552034375,-0.0015412435393755235,0.0011651268828667
1681484467.8358784,-0.07919470576440527,0.18605990231591601,9.760988580780147,0.000325713597518857,0.0010016374408886046,0.0009032378980431
1681484467.8458824,-0.2823731799104207,0.22756443482668512,9.889341501951758,-0.0024790650222826695,-0.0003193564282833645,-0.0003611088072407
1681484467.8558507,-0.12735187936515802,-0.13328389861639264,9.689738874816545,0.0026309193742800876,0.0012717324597033763,-0.0008722210809115
1681484467.865833,-0.25588039667251783,0.26481947261596595,9.892141767403926,-0.00041079463181808507,-3.957418794609514e-05,-0.0007262036710504
1681484467.875824,-0.1313870535007746,0.03235720066211735,9.753050016983757,0.0015956611143382198,0.0013041397381493383,-0.0006460996850851
1681484467.8858483,-0.2316670316451191,0.22839173422945486,9.862027126201804,-0.0005221830906042488,0.0005888881598393539,-0.0006438549648497
1681484467.895822,-0.2740827406144302,0.05112909504848328,9.8129757583776,0.0006598722334365409,-0.0005700752699106836,-0.0013796228490296
1681484467.9058208,-0.1590181682728989,0.15802707221394016,9.804044132354365,6.8437414408032005e-06,0.00015523923022372902,-0.0009787885978344
1681484467.9158547,-0.2392424578251752,0.22701090831697063,9.872313174372238,-0.0005840005034441043,-0.0018061136517352342,0.0020115223556299
1681484467.9258862,-0.1846710791401942,0.08254860176884242,9.796038308308313,-0.0018040481797662932,-0.0003424190734565422,-0.0015803906175765
1681484467.935923,-0.07633419078973457,0.12889124738691782,9.745202649505694,0.0012250117867028366,0.0001407254721101694,0.004352862709808
1681484467.9458516,-0.2767489313550094,0.09197770809710945,9.85026585709454,-0.00018167494091180943,-0.0004523385389951615,0.0009192529792439
1681484467.9559867,-0.12832358787539141,0.08869258842380873,9.774247409350657,0.0007425865392586066,0.0006812612531230598,0.0009118128178183
1681484467.9658322,-0.20947929559141779,0.23294150855107842,9.857703294774668,-0.0009259907107754075,-0.00018784536857346023,0.0023244469735313
1681484467.9758792,-0.22027098651554888,0.19133730333274532,9.851050432816043,-0.003257279654011268,-0.0001971732789226382,0.0009144557948697
1681484467.9858932,-0.243537902005241,-0.10365073372188731,9.762460646388345,-0.00011236863237632202,1.4122478179133354e-06,-0.0024271572514895
1681484467.9958732,-0.11631176627762285,0.32119782460995855,9.823859364257025,-0.003138823412432158,0.001234457494099376,-0.0003871921257573
1681484468.005871,-0.174449733437519,-0.06710801227091219,9.72663813264005,0.001681719112748327,0.0012788061298371755,0.0008618482930127
1681484468.01585,-0.19335899769619994,0.22254755310516683,9.8381437163385,-0.000625365125408454,0.0016222682808416978,0.0002151745098185
1681484468.026494,-0.31070563524769457,0.04049673401157305,9.848325976541329,0.0012272423711199628,-0.0009373682956598703,0.0001842790475588
1681484468.035892,-0.11305833281474438,0.14527675193764342,9.770931502869773,0.0009370371549422537,0.0006343154279431636,0.0003019645769622
1681484468.04593,-0.22634658634064986,0.17814723692643164,9.85588062138704,-0.0008227991754826504,0.00023683089794603978,-0.0008614358998361
1681484468.0559285,-0.25106786712713636,0.13588099042481214,9.846174544284116,-0.0004253016662636795,-0.0012909028465745056,-0.0001130114582825
1681484468.065934,0.004579151715910224,0.19949849129798447,9.747769775742542,-0.0017869348527801382,0.002581160043613801,-3.861733106127205e-06
1681484468.0759115,-0.36868959410392843,-0.07434474989749518,9.823796447026199,0.002103793440526495,-0.0006896172845827269,-0.0003100781509179
1681484468.0859592,-0.3178090977589562,0.1623797560430124,9.888261722414429,0.0009023912956201966,-0.0031971278080146245,-0.0008491359225932
1681484468.09586,-0.0612992033679749,0.11690912344376897,9.719965953952103,0.0008163326435449421,-7.385454543990413e-05,-0.0009657356462899
1681484468.105922,-0.2020096665436267,0.20133202063491065,9.842826289812448,-0.0012910509088476547,0.00016196226343885583,-0.0019406385294619
1681484468.1159785,-0.2089669667373652,0.24031501240895706,9.860787627402704,-0.002093486613733726,-0.0011664817041691176,0.0010995715816047
1681484468.1258683,-0.1709223598183343,0.001400212446920215,9.751600099142776,-0.0003008693564879439,0.00011726024323965934,-0.0001443116966161
1681484468.1359217,-0.2961475420536931,0.18753769651688723,9.88270331847528,-0.0007188501357697234,-0.00243307553556835,0.0012262292107574
1681484468.1460197,0.0014802084115276685,-0.012640191060981298,9.657693516663594,0.0017279017311381346,0.00217064610494664,0.0004636580083992
1681484468.155935,-0.32880007737764766,0.2967978089650221,9.947459662210717,-0.002305460549107926,-0.00036627390344177166,-0.0003789865917984
1681484468.1659524,-0.18122533588138331,-0.02676886184200836,9.745453101189616,0.0005004018386527334,0.000318772867785634,-0.0011345157440278
1681484468.175893,-0.15504713910663503,0.2660429321516671,9.844874988171554,-0.0016457045854768144,0.0006175633945144835,0.0005452458240565
1681484468.1858246,-0.15629025206017672,-0.03559154946111625,9.734425432213166,0.00026346857920303297,0.002301795254851137,-0.002084787939069
1681484468.1958652,-0.3369861705812286,0.1504388615262964,9.891386496090407,0.0004363554218407789,-0.0010617882800221445,-0.0007668046786907
1681484468.205993,-0.18801076441646553,0.3039953409111029,9.854461214293666,-0.003513578975736947,-0.0007056547807738927,-0.0008513531688127
1681484468.215869,-0.12288519008678978,-0.015086809055683466,9.726608776970902,-0.0004398420648438364,0.000686478178473303,-0.000628223181096
1681484468.2259693,-0.09241494337884627,0.14212388195599923,9.757506233769174,-0.0012426486453996485,0.0031988309175583003,-0.0009198831434819
1681484468.2358823,-0.3782520273760011,0.05416728896637291,9.873494859089412,0.00020017087500228946,-0.00041210543824736007,-0.0010387464466962
1681484468.2459486,-0.188224237715432,0.09900875937598333,9.793912060663038,-0.0002665790617708657,0.00024278538782297735,-0.0025381839408997
1681484468.2559583,-0.08089643507587044,0.202617235594249,9.7909263955926,-0.0005556862234039306,0.0015965749057217304,-5.152938361202759e-05
1681484468.2660065,-0.15561270844782757,-0.01407915468478168,9.739092086591079,0.0023545028063578395,0.002422842470314946,-0.0001774686429176
1681484468.2759526,-0.4118057764812889,0.24974287793765232,9.973696232023345,-0.000832844687495197,-0.0018109573859045381,-0.0011419353581491
1681484468.285933,-0.025051477733629434,0.05650557769898614,9.695616660624548,0.0011482510025096577,0.0015496584646402967,-0.0004873597103629
1681484468.2959356,-0.16021660839239082,0.2355649582713742,9.828868479651357,-0.00023573516503317104,0.001622281654783884,0.0013975707220619
1681484468.3059275,-0.3482380729262066,0.10446352742778102,9.877806767836056,-0.000637275343391918,-0.0010431749220538196,6.803869796062427e-05
1681484468.3158562,-0.060414246323623376,0.13712039714777793,9.73464171817043,-4.085685941953895e-05,0.0014293105046354873,0.0011509487190291
1681484468.325926,-0.26334849372772373,0.14241830748527967,9.851149513230512,-0.00010419868123485722,-0.00014537639187106884,0.0012407570280142
1681484468.3358686,-0.2787508789856482,0.10858182068279923,9.843036711508196,-0.0011700021911279267,-0.000861003761123104,-0.0009892000857267
1681484468.345934,-0.13486026121665504,0.01492758031981294,9.729567935758814,0.00024261785025645906,0.001178606204693001,-0.0030150103888932
1681484468.3559086,-0.20437689651001692,0.1585488860940009,9.826544260953435,-0.00014292281363892547,0.0008313860068972076,-0.0020758716895702
1681484468.3658488,-0.25385826189960414,0.16100031077744903,9.841455348071063,-0.0009069811078053549,-0.0003357399250557925,-0.0018601741216603
1681484468.3759463,-0.10507925491506744,0.1997728160168308,9.787064829606187,-0.0015305786717489686,0.0009655137301308582,-3.14307439598946e-05
1681484468.385909,-0.4104268354569684,0.179065239718062,9.941016680909565,-0.002780056254623181,-0.0033465103119871844,8.10682500254603e-05
1681484468.3959773,0.033914257661728855,-0.03947288603835664,9.629235380897317,0.0006531823322987315,0.0016591445969565115,4.755018339569288e-05
1681484468.405885,-0.18326771349078758,0.18587370152822966,9.820819725147686,-0.0010679191888385029,0.0024265651981673834,-0.0003976294578511
1681484468.4158907,-0.18209978441937738,0.04768731322405294,9.783593989043792,0.0012939105395248613,0.001992944880784418,0.0014046730971553
1681484468.4259503,-0.23032676505045524,0.21675502855407797,9.863683134813012,-0.000700241970833165,0.0011815699651300134,0.0017868981481537
1681484468.4359665,-0.2905807793817893,0.003664291288620298,9.825349702612028,0.00013534676285739385,0.00037245100397379985,-0.0013647053896907
1681484468.4458578,-0.1888828614509438,0.16494679942922402,9.827189002211668,-0.0003142763542387589,0.00013848295366276165,-0.000339876282354
1681484468.4559305,-0.18835796783377148,0.06922934465867885,9.792387491023442,-0.00024015290848160338,0.0008820599414959987,-0.0020393573253873
1681484468.4660366,-0.17412695516480386,0.37643627990219464,9.888558048387756,-0.003689406086133875,-3.101693224060886e-05,0.0016516546416336
1681484468.4759507,-0.2107530630708424,0.04106202063822006,9.78110458175114,-0.002600139935472279,5.727626962136362e-05,0.0004163650988143
1681484468.4859967,-0.3618569641761837,0.0443456329922168,9.87578693174937,-0.0017187206174169268,-0.002982545585738789,-0.0011326265561852
1681484468.4959044,-0.027477499908996835,0.041378872657227665,9.69535404780623,-0.0008104957305755052,0.0010433912048106754,-0.0025992521591011
1681484468.5059204,-0.12348604397539621,-0.025278108182367663,9.721399416870431,0.004054361850682689,0.0015451476319649656,0.000652488375223
1681484468.5159278,-0.37966649794787166,0.26434667070244416,9.958615930170046,0.0015900867543552424,-0.0026711040499680224,0.0015670856551391
1681484468.5258894,-0.0019032892685378914,0.19553870069016072,9.722233239863238,-0.001362956234252866,0.00257670525582082,-0.0015196620992842
1681484468.5358622,-0.24758983171280993,0.04224720109093093,9.823791167464265,0.0007566950268282828,0.000988997277569882,-0.001302493274537
1681484468.5458827,-0.24502888905099618,0.19478642006177563,9.847703899430881,0.00040618434650183805,-0.0007738316272918884,0.0010351267369937
1681484468.5559013,-0.18360556206130724,0.10379730017117123,9.79770628336824,0.0009645963894627279,-0.0004195480531911434,0.0013167618267711
1681484468.5658784,-0.23585851182513604,0.09102962321498873,9.823710193535854,0.001535691830714466,-0.001230550617619265,0.0013454467948999
1681484468.5759852,-0.21294185346525454,-0.022914633375168893,9.769295802423132,0.00512016738610518,-0.0017818900509029576,0.0016654245660415
1681484468.585985,-0.13679385173351002,0.3285700525792978,9.833503174174616,0.00031490827448572633,-9.434054887387523e-05,0.0008112286409836
1681484468.595917,-0.2931598054410456,0.1493279551877714,9.876192566545292,-0.0017488896079170038,-0.0012428413246267892,-0.0019417575135353
1681484468.6060054,-0.13710736967738812,0.09499196967836353,9.767273281286085,-0.0011643835780701264,3.7530453012414e-05,-0.0018985497340086
1681484468.6158645,-0.09720291859117211,0.04471243349558159,9.728001373960893,0.0015587333848575192,0.0016893642265123486,0.0002401400084149
1681484468.6258874,-0.18172303119156083,0.12745850107631634,9.804253342397281,0.001300614076311621,0.001951595107582409,6.917689056212622e-05
1681484468.6358683,-0.23592379888432094,0.14429131248762125,9.848300589185682,0.0009996274595524106,0.0009140935101814422,0.0005135812639732
1681484468.6458733,-0.28590976835849646,0.1280553220554128,9.864058345055112,0.00032310579482894156,-0.0007157085879429806,-0.0003633496857706
1681484468.655903,-0.1556900163209254,0.2887974857663182,9.847507044759091,-0.001355869143358604,-0.0008516825302731185,0.0028817537200179
1681484468.6659937,-0.2726452312916409,0.08779153949138228,9.845502314086685,-0.0017071717574868024,-0.0019055773884175604,0.0008488546550747
1681484468.6758988,-0.17094593040084563,0.1312199884657083,9.80993861146094,-0.0023542593475658997,-0.0013978134067356971,0.0002513278700884
1681484468.6859734,-0.07308236219042781,0.1091011760632156,9.73340128319789,-0.0025740342441259835,0.0018480354925655086,-0.0011158562305841
1681484468.6960351,-0.14032603055529902,0.014385863553537735,9.75137973309995,0.000976865562766532,0.0022391950414320707,0.0012001413229394
1681484468.7060213,-0.3178221739341464,0.24106628235197808,9.913899123194438,-0.002309547184395304,0.00033258134889733516,5.825302238413868e-06
1681484468.7158918,-0.24325508862530773,0.052206512550773576,9.826195093858406,-0.0017652621985771572,-0.00012488530016789245,-0.0020315416663411
1681484468.7260077,-0.23073316192162105,-0.04361848556882006,9.770755270406141,0.0014544786867183106,-0.000634128829541435,-0.003056740159494
1681484468.7360048,0.10095127665320988,0.2598369920916777,9.684299827912845,0.0002300104599891093,0.0048487463408119795,7.438461356873232e-05
1681484468.7459044,-0.3752236079323291,0.15159339236473257,9.921024794133489,-0.00028711363062657876,0.001015059665456374,3.1906176033267555e-05
1681484468.7559347,-0.2136716503890623,0.12719670292693452,9.816319199047996,0.0004486522296259859,0.00017648643166629868,0.0018457430083312
1681484468.7659185,-0.37317653380160887,0.21814552699167172,9.946193011313522,-0.002761431633515104,-0.003095442460254196,-0.0003339157014611
1681484468.776083,0.028954820806490415,0.020412775062955937,9.642218225962537,0.000467268741958032,0.0013775279895371145,0.0012292202696211
1681484468.7859766,-0.3484251568537375,0.11153963339268534,9.89730493146116,0.00022661957020006247,-0.0014019111295587574,5.57419803466888e-05
1681484468.7959652,-0.0560811203106134,0.1766120951185098,9.734173519002603,0.00017407922326016155,0.0010172895441941318,0.0019768937450375
1681484468.8060305,-0.355744547938424,0.11095682224284897,9.892160155866673,-0.00035154654159645746,-0.0018917897531976753,0.0006573832320522
1681484468.8159058,-0.1617316959812668,0.013526738697065459,9.749070906135858,0.0008387004141874881,-0.00045495156720364304,-0.0011240546632084
1681484468.8263311,-0.18484801012969157,0.10332311074566093,9.810100069626362,0.002340731148507498,-0.0010148728577525886,0.0004796776880052
1681484468.836064,-0.27418386615103674,0.19280450542942804,9.87154079211314,0.00012120474073798561,-0.0019946022072186596,-0.0010320392943445
1681484468.8458922,-0.1764368790005968,0.057066643471540925,9.776238691688018,0.0007656818650764405,-0.0011761509079050588,-0.0022837338078293
1681484468.8559003,-0.08922099583021793,0.4000159826685932,9.841866283491877,-0.002988671243316119,-0.000226949509993706,0.0014866303536532
1681484468.8660245,-0.19559980447898676,-0.013019436434452844,9.770065331815488,-0.0013480633751327556,0.0005504966189354252,-0.0009735631796989
1681484468.87597,-0.29503022591555983,-0.15471821032038566,9.771103562319603,0.003745541573873642,-0.0011757917755537489,-0.0020777198992196
1681484468.885961,-0.08639697296851484,0.40489586926622056,9.840807107541053,-0.000939408129218367,0.0004920136724511088,0.000213698130707
1681484468.8959453,-0.09251602084953703,0.23422319070442976,9.781305666366041,-0.0028460124045922392,0.0025766803656402035,0.0010045598569799
1681484468.9059682,-0.3266951776784431,-0.13912846382462454,9.793557325162068,0.002118693990569439,0.00015488604218609394,1.0290295491764126e-05
1681484468.9159644,-0.13131525573656078,0.2119456655869825,9.808734582374322,0.001293540349329447,0.000936076296834464,0.0017649200413383
1681484468.9260297,-0.32266790211807816,0.1487893829343356,9.890697939549693,-0.0012132090106111448,-0.0004989247508773043,-0.0016552859492126
1681484468.9359093,-0.11949487866699636,0.009821142941658836,9.732447256293156,0.0023705275577007067,0.00042382682579752414,0.0006446870934691
1681484468.9459326,-0.21216272760179195,0.18915495613813102,9.84485249215609,0.0007183666210420615,0.00022120064267711228,-5.079014631842655e-05
1681484468.955934,-0.12968731051618143,0.23598424764365813,9.811566339085095,-0.0008205698520385189,0.0012352194140626647,0.0012284842337489
1681484468.965962,-0.2891561702913794,-0.1283370694155343,9.779554135392452,0.003509717222833966,-0.00013383097495017112,-0.0005604259244624
1681484468.97599,-0.08135109747008058,0.34838312517368497,9.82628400551584,-0.0011647468531538097,0.0021985753123146792,-0.0003093527670476
1681484468.9859142,-0.22953345753610405,0.11681358574277786,9.828181326487874,-0.0013499146000886901,0.0017306797564508888,-0.0009128302376243
1681484468.995921,-0.3759191528701077,0.015425533988970683,9.871584834514733,0.001102437718584924,-0.0023060498867640412,0.0001171940198641
1681484469.0059614,-0.035050011264649454,0.10796719434178398,9.716956058812865,0.0008647630065185799,0.0016524554683513058,-0.0011862462892655
1681484469.015927,-0.26517975599522375,0.2172512451261745,9.896268906274567,-0.0006186490728546768,-0.0001688548857182599,-0.0001230810343745
1681484469.0259418,-0.20182342770049627,0.04431882735004123,9.780974507384444,0.0009739034983453753,-0.0003957060541683103,-8.209946504717154e-05
1681484469.0359352,-0.04815925784261183,0.29626005294631663,9.792238340226216,-0.0021274025908751028,0.002563651672733125,0.0007464204059455
1681484469.0459416,-0.342181009742414,-0.05951684208639125,9.830757647338153,0.0009928884246269845,-0.00010067407160646493,-0.0006371778476509
1681484469.056029,-0.10290235872955553,0.18393532200668894,9.792446058378893,0.0005350769425732673,0.0012016898107714445,0.0009848446893979
1681484469.066067,-0.3453632011128206,0.18240531623484896,9.898334162588608,-0.0006588738858572412,-0.0018765216428826255,0.0010895137052525
1681484469.075979,0.0411496271250569,-0.031239574580399887,9.63387103944056,0.00286709034677085,0.0028859081248221413,0.0013897758358747
1681484469.085958,-0.30690738608068685,0.22585256785597074,9.899539703254266,0.000531329938527586,0.0006980375373938594,0.001199784684601
1681484469.0960455,-0.32020350238228107,0.08200990526496274,9.870817904125479,0.0003607440036939174,-0.0012312927399118288,-0.0008360850665244
1681484469.105963,-0.09339924198747947,0.09282339670450679,9.739958098318171,0.0009131775159182515,0.000842202162937501,-0.0008707423734936
1681484469.115958,-0.200525409268863,0.25079485584574746,9.854875021058758,-0.002329337796097893,0.0013003756271752773,-0.0018009615636888
1681484469.1260154,-0.2237661440568177,-0.022654215136311905,9.776907544168477,0.0014876102771130297,0.0003225012433915833,-0.0009162169921669
1681484469.1359563,-0.2865105985234043,0.09776303745358741,9.840128699238326,0.0011836470363308332,-0.0009779772188111488,-0.0026141747407141
1681484469.145956,-0.05449306206004081,0.24128553317923299,9.771339363954205,-7.697214778040697e-05,0.0014058303697103438,-0.000633446969417
1681484469.156014,-0.3317907666280245,0.1440291362937709,9.893022566263173,-0.0012407727259688235,-0.001079685998227843,-0.0020844379946116
1681484469.166021,-0.21909918780615606,0.19679771451143563,9.831065823484973,-0.002548340328758086,-0.0013568386097429636,-0.001623243097541
1681484469.175928,-0.2065788924305384,0.016030637279038838,9.773740331462035,1.353375341006312e-05,-0.0015892966782935657,-0.0009567914571139
1681484469.185986,-0.14032284988107557,0.16789723205818796,9.793559897020819,4.6689303590965206e-05,-0.0011947840403369473,0.001040711820266
1681484469.1959834,-0.20017020335241448,0.13176011503104218,9.806121460129834,0.0010823188848681452,-0.0017591688987761477,0.0029394971166279
1681484469.2060509,-0.1872696387881148,0.1295105926022567,9.808848033153724,-0.0005843753544458477,-0.0008159221199619489,-0.000250471876328
1681484469.2159855,-0.02055069194944748,0.13888130409679672,9.721179433993255,0.0004963231577286157,0.0021877759125862686,0.0017448154062971
1681484469.2297156,-0.2723645782967295,0.05463078275508918,9.831137732359668,0.0010707791067629065,0.0010020261496859367,-0.0009321749716523
1681484469.2360356,-0.05800494313959992,0.21459001257083035,9.773462984520135,0.0007235451909672266,0.002257821286377383,0.0006879224052194
1681484469.2459269,-0.1519280560456012,0.26090734963988615,9.823729667769205,-0.0027085614012638164,0.003667828503350425,-0.0003152833127874
1681484469.256008,-0.26888975826402656,-0.05211041031859544,9.794676189415682,0.001754731664149634,0.0014963649068280025,0.0013599732224487
1681484469.2661057,-0.24786338338523514,0.18021479878053762,9.853675441879021,-0.0005296039989452026,0.0011204831076187787,-0.0003503024385768
1681484469.275995,-0.3269505135976963,0.0873474834259531,9.882891322375311,-0.00016638140277928568,-0.0015926409238995996,-0.0014254257589105
1681484469.2859657,-0.15303133083694392,0.21697377951678765,9.807881276177886,-0.0018140939988483644,-0.0007842498217993807,-0.00080703269164
1681484469.2959476,-0.08702128441966892,0.0455675206448913,9.719597853183084,0.000228858759065251,0.0013406379025448873,0.0003638127778198
1681484469.3060057,-0.3098103026673147,0.062498201694490184,9.861581046516593,0.0016016231074011105,-0.0012022233352351021,0.0006219846505213
1681484469.316053,-0.05815788069864451,0.1103959272606965,9.730671397586349,0.0013806983271030505,0.0021061897452057036,-0.0003630054456639
1681484469.3376698,-0.23561367821183116,0.16240803760349604,9.843501792978422,-0.0004052083670940917,0.0002390676459010546,0.0003355161712046
1681484469.3387203,-1.3661442639290136,0.35112293097971775,10.523615780437265,-0.0030509140957896974,-0.0010152405436767795,-0.0036375017411533
1681484469.3461072,-0.16482830796930625,-0.01900431329172978,9.746279271068833,0.0008770528968259411,-0.0016533857509064061,-0.0002519742160562
1681484469.3561394,-0.0131927921795336,0.19330950897184032,9.741314285648087,-0.00012728157415610263,0.0016770369578742183,0.0008350875537384
1681484469.3660583,-0.19245617101726079,0.11747397307564088,9.814648003988292,0.00024190722046871674,0.0017604830432517296,0.0008712151280146
1681484469.3760345,-0.16669178113251992,0.13647103882309164,9.78984713143206,-0.00045848928839845076,0.0027014964990008153,0.0005705839098904
1681484469.3859687,-0.3028039846053783,-0.00023638909922234656,9.822835992404706,0.0016839429665413224,0.0008068158130425092,-5.1927174766710224e-05
1681484469.39598,-0.20899078977442986,0.2200628519146601,9.847327427284617,-0.000179063019823822,0.0006123504829777541,9.182138043293531e-06
1681484469.406008,-0.2953589379232488,0.15217731054588662,9.871489743356685,-0.0021359705080341413,-0.0006017207645281575,-0.002475212565017
1681484469.4159598,-0.18618154013061264,0.0688790435577338,9.778068202765418,-0.00026550858581419557,-0.0006266674462626797,-0.0011762122198465
1681484469.4259803,0.04117441724765676,0.09330463870610953,9.68693288743127,0.0016407168150318076,0.003430914375535474,0.0008909397252377
1681484469.4360898,-0.3698992620130471,0.06666299797042201,9.87868487862747,0.0024621548940619627,0.00012435633694933437,0.0002338079462301
1681484469.4459727,-0.1722368925622695,0.26385465238181516,9.849014596199249,-7.514499486979536e-05,0.00034748960343133206,0.0009960145358003
1681484469.4559588,-0.212048487810337,0.10562040036163801,9.808439630921464,-0.00022748541836827845,0.00040336203440143585,-0.0001577097031745
1681484469.46606,-0.19770486830211983,0.08669532343092327,9.79854699609084,-4.45793878215545e-05,0.0007833332826390495,-0.0011452978983048
1681484469.4759429,-0.17118154923647652,0.11959104069968483,9.785275966063532,0.0011057750967450024,0.0007710491636503252,0.0006864198326606
1681484469.4859807,-0.2632231458852347,0.16840948151617194,9.851432183366827,0.00045387066422645063,-0.000833065479142871,0.0010660379444256
1681484469.4960809,-0.15992151691480716,0.0700747977723991,9.766906635973971,-0.00030795179238707663,0.0012430364333868432,-0.0022893268655512
1681484469.5059676,-0.25789874120589845,0.19639937240413172,9.866247670100917,-0.0020555046940702987,9.67546161528212e-05,-0.0028943151741746
1681484469.515978,-0.14280885494568765,0.027559077982495794,9.742190028013264,0.0006088460307978427,0.0008663952532100635,-0.0014492813538286
1681484469.5259955,-0.0786541027665783,0.1608486502473901,9.762945875850129,0.000627807231761544,0.0026880869395278268,0.0004085284850102
1681484469.536214,-0.26320873166541436,0.11867300961008428,9.852851664582055,0.00028773633008584415,0.001319404369741734,-0.000813361959857
1681484469.5460174,-0.21211066701687695,0.18407365953577817,9.839446219322928,-0.0009554252683099875,0.0009275263757027254,-0.0009299456182393
1681484469.5560334,-0.07047111257935348,0.04303743823463698,9.71649209053024,0.0013434843700110652,0.00322302515867996,1.8868707726547295e-05
1681484469.5660696,-0.35399676103627886,0.13489876898579534,9.906233405648015,0.0012581264060575208,-0.00022841706456801437,-0.0001253214472431
1681484469.5760128,-0.10099719448708197,0.2641196536302328,9.797243923411058,-0.000973293898842906,0.0012836494124903637,0.0015972493525136
1681484469.5860698,-0.3524118417476492,0.017841051898711716,9.855252209266272,-0.0003608435569144948,-0.0009813162087723346,-0.0012004210188511
1681484469.596034,-0.11005205112804804,0.14509421691610147,9.775330663741835,0.00019756489574025005,0.0002543550428312864,0.0009163013269666
1681484469.6060104,-0.3946492051750597,0.11711173478807432,9.912838925808238,-0.000439431678379346,-0.003478749927465065,-0.0006017824675414
1681484469.6160808,0.09242724317443682,0.1347291057792619,9.659803500055736,-0.000985592176495317,0.00297380264523363,-0.0015435344580087
1681484469.6259997,-0.3554894037297071,0.1437552935064894,9.902810290159747,-0.0010020005244517577,-0.0007108815668676675,-0.00059841061416
1681484469.6359742,-0.23904515924734926,-0.0007207399206365986,9.791227125988172,0.001185144037391576,-0.0014667513091053427,-0.0013900459784541
1681484469.6459997,-0.14929378462295012,0.22814337480154448,9.813864389418404,-0.0001488961815427136,-0.0008427449171729548,8.703686357552725e-05
1681484469.6560924,-0.15179385683013064,0.13413674835656794,9.78910031990504,-0.0005329733013405257,0.00014818139945350914,-3.142131431882662e-05
1681484469.6661377,-0.13614733771523344,0.21787071607988762,9.808649076486695,-0.0029767761242163768,0.0016904260060591114,-0.0011676494072649
1681484469.675978,-0.29747606186910325,0.029514531499186664,9.837553517834065,-0.000634671399021988,-0.0005808556206859917,-0.0006472133140537
1681484469.6859782,-0.22504487018503289,0.07863946639138203,9.821570615555512,-0.0007937369214717769,-0.0005357813107375799,-0.0026849515310946
1681484469.6960156,-0.0467586672506743,0.20347542496295346,9.749959739416756,-0.00027294816342805783,0.001478480926732545,0.0014750766322744
1681484469.7060392,-0.27895056272812896,0.09799824744024822,9.85125174185462,8.394360416369691e-05,-0.00018598144045666357,0.0010477921419319
1681484469.716005,-0.14151578336652365,0.0434727824105738,9.75284868602519,0.001313273854268869,0.0013082461213634019,0.0002312071115251
1681484469.72611,-0.1482532424778354,0.19050356613354377,9.808918804315685,0.0008372019082609529,0.001785441972443625,0.0022343122941915
1681484469.7359805,-0.3067061485037327,0.12187438269140388,9.870323817135018,-0.00041598214710988153,9.936713564333763e-05,-0.0001480414106968
1681484469.746063,-0.17565914996563653,0.08182783505967474,9.791342786630535,0.0013401147992968812,-9.396273822937721e-05,0.0016900149308152
1681484469.7561483,-0.35989629349754515,0.17318695884584825,9.913335284521265,-2.2590875486925227e-05,-0.003357320190094037,0.0010228361893918
1681484469.7660396,0.029280047566266582,0.016422165183239863,9.640529522208421,0.0021660093771648996,0.001467676140617843,0.0009896770311992
1681484469.775983,-0.19651866773223356,0.19767510226146687,9.847242781560134,-0.000271459359676102,0.0018853021890507516,-0.0007984279695424
1681484469.786045,-0.2667333253208083,0.28488963839057097,9.918260756780846,-0.0024324799310747433,-0.0006214704793679058,0.0011047957482755
1681484469.7960355,-0.14995403655948863,0.024642417052899143,9.733475809619877,-0.0005229113034494791,0.0005911128547070836,0.0009233606356669
1681484469.806007,-0.10628037200692557,0.11763736301179012,9.759704407170984,-0.0002558118706192815,0.0024377450867077138,0.0012228936207488
1681484469.8159857,-0.25592748451680875,0.01810304099311771,9.811287680725565,0.000528005636459271,0.0020816080171196967,-0.0014198347966644
1681484469.8259866,-0.3816469195363593,0.1961601265450336,9.933249748784215,-0.0014810107708147073,-0.0014924351219917197,-0.0025120971299234
1681484469.8361032,-0.046274730850216585,0.2185009609510283,9.768396183477991,-0.0018722198096720979,0.00048419251130702687,0.0004878776340287
1681484469.846076,-0.28721565374457125,0.042221150128160086,9.82424148382256,-0.0015175152075909033,-0.00047356797298073346,-0.0021835367701474
1681484469.8561532,-0.3753722254734368,0.08263330208344345,9.89124360249972,-0.0004901110944578232,-0.004197386849446476,-0.0022878265048835
1681484469.866061,0.1183879328334639,0.17599091490557914,9.650091480492666,-4.493988497906845e-05,0.001403974794480923,0.0010057053546428
1681484469.876076,-0.3916251001789228,-0.0097307186498208,9.86537716933265,0.0009690590940872796,-0.0013996598407881066,-0.0019689516670528
1681484469.8859992,-0.021281267650662298,0.41178944620168845,9.820975472872455,-0.0026351604158197264,0.0004361260928527523,0.0027528559981387
1681484469.896057,-0.17184860482291692,-0.028998691910092654,9.7429283565796,-0.0007099357855450024,0.0018115260749351236,0.0002945405390586
1681484469.9060504,-0.23550607535781096,0.16373312006093035,9.839598719869851,-0.0011595788745335468,0.0009658772319242347,0.0009975033131435
1681484469.9161122,-0.2669035319737425,0.08906193499437094,9.837496544396277,-0.0008172061463844469,-0.0004556873987673935,0.0004327602178331
1681484469.9262078,-0.18566827022761595,0.12126186160143713,9.789580831943002,-0.0011048087517879686,0.00010943080933585794,0.0001738376409288
1681484469.9360793,-0.2191468149477858,0.08002892085870436,9.799476759333233,-9.934342811341776e-05,-0.00018076884871384333,0.0002446097746964
1681484469.946098,-0.19554552856296936,0.039447849076448785,9.779037022559248,0.0016981067255756224,-0.00014797605287174598,0.0002602616983007
1681484469.956041,-0.34789905119173514,0.24079094338703322,9.938810961908402,0.0003365438115022583,-0.004211527720461605,0.0028359185630928
1681484469.9659913,-0.1063403939380703,0.19712389078015377,9.787363486592499,-0.001980976899602572,-0.00174054743280051,0.0010142504720956
1681484469.9761558,-0.2515762129974545,-0.08503134782856671,9.771764161667084,0.0009675892486798811,-0.0018876835021437919,-0.0017681564244899
1681484469.986033,-0.16143810805109873,0.14239413719065033,9.798151357432584,0.002108640376438241,-0.002131322079529023,0.0011621541012086
1681484469.99599,0.10343066894958047,0.3343699633626731,9.744641204553147,-0.0018830331574834743,0.0036845917063392055,0.0013651826844092
1681484470.0060103,-0.3855309629167478,0.09271860287214014,9.900825649657728,-0.0014933442555186665,-7.422563640887817e-05,0.0012608708016582
1681484470.0160286,-0.1290082829262164,0.10690017339131239,9.756233189899886,-0.0002174552027441952,0.0008246912296217971,0.0030009675497662
1681484470.0263698,-0.26760567290004256,0.18133856463199896,9.870986623913128,-0.0019422452743833474,-0.0002545210991671324,0.0018546806200415
1681484470.0360596,-0.06250250391031995,0.06911967946006252,9.722818239604125,-0.0015417761307896754,0.0030248460283418452,0.0002900740324061
1681484470.046054,-0.34216198481512394,0.11419790878528875,9.883773847097475,-0.0011368400443531193,-6.78939087766493e-05,0.0003925055457752
1681484470.0561118,-0.18810026674696084,0.08713032287281489,9.79278344236061,0.00021022120304879018,-0.00022172980597914192,0.0014013210925863
1681484470.0660837,-0.17106369791328735,0.09674042958239235,9.78309230556282,2.3597630408611666e-05,0.0007777497190567695,0.0002859649207916
1681484470.076046,-0.21117303661948494,0.16136371284952322,9.825919683934218,-0.0011826617080676093,0.0008794627757713588,-0.0004497612867031
1681484470.0859995,-0.1803173892179685,0.24793657082313555,9.856763401987473,-0.0026862010870672614,0.00048120546248300666,0.0008898415795069
1681484470.095991,-0.24119090476151975,-0.03355116512118387,9.788543298621132,0.0017599499362424614,-0.0012506524456804159,0.0030773233116146
1681484470.1061003,-0.21262863903712456,0.09721043848007971,9.800862449782207,0.0014027017240593207,-0.0009533942617574785,0.0016557464655729
1681484470.1160295,-0.1451860061525357,0.34313955549699027,9.854193480733974,-0.003550820406854408,0.0004111842415023581,0.001243760601525
1681484470.1261218,-0.21000080484886455,0.03818361484622668,9.792231815605987,-0.0010686625514693977,-9.216386076439788e-08,0.0022570189280908
1681484470.1360133,-0.29602163234158485,0.03815578644071182,9.838997191028641,-0.0004022076651627976,-0.001508455198525866,0.0003243385540794
1681484470.146041,-0.17356899585378033,0.0819717453075236,9.777728935061312,0.0005216670917247101,-0.0011347997271615254,0.0003683018690448
1681484470.1560724,-0.13432113142617902,0.08093917468628578,9.76957802847541,0.0012682160802768086,0.00040149870161756,0.0002423953224446
1681484470.1660872,-0.18518565259908154,0.14287168667288258,9.813498684598937,0.0022382728963950987,-0.000326799613274638,0.0026984832907568
1681484470.1760983,-0.2380344111488158,0.09129710407591597,9.81861511059799,0.0001863907782905402,0.0003832484276925162,-0.0021660241804543
1681484470.1861317,-0.17094132044216914,0.2903268434977469,9.85376406411936,-0.0024228174676514803,0.0003906832369565722,-0.0003335489931974
1681484470.1960132,-0.2865705771852373,0.0803015432060462,9.833055119379933,-0.0020618318597747346,-0.0010465401364524634,-0.001557682644901
1681484470.2060175,-0.1327375721227768,0.10251982310900101,9.76198988081815,-0.0012135829996819932,0.00012806279295208954,-0.0003242305287617
1681484470.2161078,-0.10498720253195147,0.09379162332652848,9.74882640074193,-0.0007389802697022608,0.002008963356883772,-0.0003462090430307
1681484470.2261217,-0.28267405036150334,0.23518779966115005,9.89898693765514,-0.003642815287643287,0.0004115690992702827,-0.0011974407866123
1681484470.2416897,-0.24893427123968015,-0.021752679642601597,9.789537860673281,0.0011270238324181513,-0.0009947359949271637,-0.0016355400479856
1681484470.2460642,-0.22032762322274593,0.24179637025511952,9.864953618292517,-0.0004614512155388588,-0.0009832011233887974,-0.0026793663896146
1681484470.256183,-0.08125444247878262,0.18653650336109598,9.769479631399618,-9.300632751998403e-05,0.0003772862904870869,0.0007944774074953
1681484470.266121,-0.21808749568275346,0.17530923152791816,9.853156240816707,-0.0016609866526096906,4.535992826960222e-05,-0.0001293978461522
1681484470.2760568,-0.154767929745069,0.05392575193876224,9.761186419574836,0.000128260890727313,0.0007531679702636422,0.0004647815326702
1681484470.2860727,-0.30429686958940644,0.14871801023196687,9.883802804577593,-0.002078581283899194,-0.000675494165835858,-0.0021336127578738
1681484470.2960591,-0.06699673953510053,0.03997277648123959,9.715842520489973,0.0002683570218546552,0.0016699390014116337,-0.0012466399970922
1681484470.3060212,-0.22342707408005633,0.17290262418230365,9.839220983027472,0.0007317741123908598,0.0002442886305411758,0.0014460247726187
1681484470.316086,-0.20258455475361223,-0.11005409345292055,9.7383297674518,0.0039522830374641715,0.001120862407464175,-0.0018262723501298
1681484470.3261037,-0.34418549336116133,0.3262558415476251,9.949660368075646,0.00043002631862996184,-0.0022207425814406686,-0.0005220503121141
1681484470.336028,-0.048883765911832355,0.07722042286910911,9.713247626093693,0.0016623432563750444,0.0008988364796947627,0.0001485109055888
1681484470.3460176,-0.11622282536837265,0.1756839669133576,9.78915591407784,0.0007828044955830959,0.002453019670348056,0.0001995447051253
1681484470.3560314,-0.20470595446563475,0.1670116696357853,9.826530641795847,0.00010927719180391089,0.0019478626978435987,0.0007840375142645
1681484470.3660426,-0.2916123720457435,0.11029476234950657,9.855322081518091,-0.0004826976980142072,0.00024056710245196227,-0.0006863391067359
1681484470.3761358,-0.17515054149925338,0.18607094685981215,9.830420182517866,-0.0018353184828982906,0.0006604067565877313,-0.0006893035064909
1681484470.386106,-0.34274129955135796,-0.01582767895049986,9.848192345328357,0.0017953484805842879,-0.0027940540340363335,0.0004122628557037
1681484470.3961177,-0.04458735915057599,0.25453774616813146,9.765578395326067,-0.00011722629860767101,-0.0001505917164435397,0.00195041851434
1681484470.406091,-0.15668884112582718,0.027421199309173014,9.751774127978432,0.0006561454880457268,0.001645366851481263,3.7102141092369137e-05
1681484470.416085,-0.2810408377515107,0.22278175317670737,9.885478993113018,-0.0014426663821573088,-5.744213781338604e-05,0.0001909861999105
1681484470.426092,-0.1298676223795267,-0.13529309826098246,9.680403553962497,0.0029333942184945807,0.0020119430895496416,-0.0018046931404147
1681484470.4360845,-0.2954003584121687,0.2854038283670352,9.929644858917259,0.0003279494685742084,-0.0007525889490447872,-1.950550763790888e-05
1681484470.4461472,-0.27304900195180465,0.08048813642674928,9.83952564736006,0.00018826761865238083,-0.0017416793015922007,-0.0022289741359177
1681484470.456117,0.07708698739749333,0.4183893901492422,9.772176229942257,-0.0037691166176528016,0.002524551325937602,0.0021009041770834
1681484470.4661715,-0.31579797920545727,-0.01729667252702842,9.834049740976278,-0.0009576415586922981,7.925751259285799e-05,0.0016695359623067
1681484470.4761944,-0.136120145205146,0.032613873581275224,9.753846769527383,0.00044825657567328314,0.0016085010598662372,0.0007091624971021
1681484470.4861083,-0.1922163748417082,0.1625764587495251,9.820008155338666,-0.0005553141632704249,0.0017403743718591316,0.000393634075905
1681484470.4960644,-0.33428863443686224,-0.03358887367724283,9.832923497657227,0.0012983610935339183,-0.00028692985968916437,-0.0020963803439859
1681484470.5060575,-0.06136734493678244,0.26318029108172,9.782250619216768,-6.321847826292199e-05,0.0017075938215446035,0.0005672426737386
1681484470.5161376,-0.20238685642317675,0.1853460483641296,9.843394668688894,-0.0009725576758896364,0.0011692774143453946,0.0009721745696392
1681484470.5261805,-0.19935772644575106,0.11015312971817756,9.802672941480868,-0.00016341777276900011,0.0010664634118780208,0.0018058826931759
1681484470.536136,-0.13564978136567357,0.18551561090448634,9.798917953565589,-0.001567451094930229,0.002641529420981673,0.0016039726138355
1681484470.5460613,-0.36053517663603407,0.06115961456492405,9.874334316216709,-0.000871956484145748,-0.0004169600081859946,0.0007769406616229
1681484470.5560803,-0.09211093127267513,0.007426444512333805,9.720929620902718,0.00045943456531215694,0.0024332794302878405,-0.0013576245441559
1681484470.566115,-0.2900841370065041,0.25328644524090776,9.90965635819824,-0.0017716307528122634,2.70976795458135e-05,-0.0003357852151144
1681484470.5761695,-0.23655570948780522,0.123722194699947,9.82447378488472,-0.0019772628483062924,-0.0006199845103938958,-0.0004937369416925
1681484470.5860884,-0.21539861656053258,0.08438432966016127,9.806205617414506,-0.0008704809794038271,-0.0012555178445985628,0.0002908146666836
1681484470.596067,-0.11230626852788,-0.07796132008282697,9.694735338037408,0.0022837300666647266,0.0013350577481890961,-0.0021254105999592
1681484470.6061263,-0.25666192184624925,0.3171320658094381,9.916680043328363,-0.0015253878030816101,-0.00020681834921833334,-0.0013546354643527
1681484470.6160576,-0.3369968108113123,0.014968376647427672,9.853035149787038,-0.00040406533731438465,-0.0023954245881957887,-0.0038025423459235
1681484470.6261635,-0.006512039938333989,0.15580879624649763,9.71706646755653,-0.0003899195013043908,0.0010459795349597738,-0.002400707923201
1681484470.636128,-0.1612306125793771,0.3025218407940116,9.845624891654785,-0.002013399687133633,0.00043650911934497717,0.0016002607695067
1681484470.646169,-0.23156366753755703,0.0583395428951562,9.805009751149218,-0.0006566554780658285,-0.00024410049549613376,0.0016468121134916
1681484470.6560614,-0.1816653702081447,0.09480477895064826,9.797245124461961,-0.0019865621064034554,0.0010918049835303147,-0.0019823529332402
1681484470.666072,-0.09148561370373844,0.017384518238209662,9.71364418121432,-0.00026363201757045136,0.003558681657138299,-0.0030008552170816
1681484470.676156,-0.27040679485670915,0.2426763321327503,9.904092292486123,-0.0003698038227021385,0.00022939036697735817,0.0014490041353805
1681484470.6861234,-0.18282203224473065,0.12612288761556734,9.811219649238545,-0.002084539739826259,0.001770161926099955,-0.0017551286186549
1681484470.6961057,-0.24654127316770916,0.06609254959894438,9.814100283094467,0.00025977179974964845,-0.00010699224669828029,0.0005869769916411
1681484470.7061496,-0.13838651428593068,0.18822728206138892,9.807895654265849,0.0004918623287857603,0.00013588414170383382,0.0033891425660353
1681484470.7160668,-0.16582093475715848,-0.052130178503977435,9.724149020238658,0.0017621969895504608,0.002520447229688619,-0.0008275138720396
1681484470.7261808,-0.2993308738540713,0.30123027626606935,9.921832135988964,-0.0009692043144868427,-0.00033462133892785476,0.0009237190202351
1681484470.7361646,-0.21631133282582474,0.03934213808624438,9.791219030729675,0.0007243240582142343,-0.0006121550467709273,0.0007710050518166
1681484470.7461605,-0.20057349043729703,0.2435822137887801,9.854879894188556,-0.0013897903573828769,-0.001004802936385945,0.0017578347429175
1681484470.7561784,-0.22464890233871537,-0.10483179979237564,9.745579318803163,0.0018974038323423886,-0.000547705343057385,-0.0013643519527736
1681484470.7662315,-0.08199618696435026,0.4644923514121223,9.851669000695171,-0.005494687138493607,0.001994058190728513,-0.0013438286300275
1681484470.7761955,-0.1255052276059409,-0.060617639247602564,9.709522445460465,-0.0007151422914695343,0.00276222317208834,4.719895836974102e-05
1681484470.786157,-0.3600371803402263,0.0018305367335436256,9.848872725243147,-0.0003343915667848537,0.0007904075383651343,-0.0035939298144999
1681484470.7961187,-0.1360592875105416,0.32128092110264217,9.839438704070407,-0.002211578216170597,0.0008138846916475838,0.0005485870602082
1681484470.8061347,-0.1095239293455816,-0.09092605651352532,9.699201412463262,0.002342214153847499,0.002629969509623732,0.0004927419318359
1681484470.8160622,-0.45975584496972033,0.2569224582825436,9.996249765922892,-0.0015383903437695436,-0.002072469711262911,-0.0015275131485882
1681484470.8261068,0.02171911017735369,0.16103970108116403,9.710378719517273,-0.0019959154415706694,0.0022998907583044537,-0.0010871731251004
1681484470.836182,-0.19316482062157148,0.2337895634755844,9.852054456275248,-0.0029376551558194966,0.0014903877997290093,0.0017839200695984
1681484470.8461185,-0.2874447902658414,-0.006996857220958874,9.822426431433195,-0.0020845402770713595,0.0005687534765338994,-0.001529374163923
1681484470.85612,-0.05909733456185653,0.11883642334402614,9.73433562020036,-0.001175959243683431,0.0027119202856915017,0.0001280126121368
1681484470.8661132,-0.39196493668796417,0.001979762958466193,9.878190842469914,0.002182781960203371,-0.0019275456585616556,0.0015253982488015
1681484470.8762205,-0.1993821289228769,0.26017633240876825,9.855379440062181,-0.0015350607116929168,-0.0016917474204373932,0.0001693628687884
1681484470.8861847,-0.08094839736396034,0.05237501458779414,9.713691786544416,-0.0003251122685131551,0.0011275458693392724,-0.0003454906440797
1681484470.896105,-0.17841938756306688,0.13849450903179011,9.81056358912465,-0.0009912016082115937,0.001505292496197729,-0.0008033092639866
1681484470.9061036,-0.4261577486874221,0.09479436418016995,9.92138248625789,-0.0010105594855267356,-0.0030890865434448126,-0.001791627848846
1681484470.9160645,0.11648587634081027,0.2496616419941012,9.676893628237917,-0.0031131251213916936,0.0033999608965537232,-0.0009281239512834
1681484470.9260974,-0.33483501164075175,0.009744184957370143,9.850497686095238,0.00040022386960702225,-0.0002865725196325335,0.0008745709742892
1681484470.9360895,-0.19486587536572053,0.2170242494245996,9.837610017356557,-0.0014154866159429885,-0.0002072175949702663,0.001070137975645
1681484470.9460747,-0.17709658078694612,0.10960601998832353,9.796362698059356,-0.0018096276118121939,0.0005769538028169708,-1.727266176526827e-05
1681484470.9561443,-0.2215002481674252,0.07133182902536078,9.799996339276563,-0.0007240768711180232,-2.2819361998038065e-05,-0.000194228956801
1681484470.9662092,-0.27636272304131476,0.05708236291638868,9.825922041000718,0.0004925982228147771,-0.001411949673661255,-0.0007902719120952
1681484470.976087,-0.18787831646086028,-0.003773312041270331,9.759818098562693,0.002584345120470418,-0.0010185953479160518,-0.0015193112235042
1681484470.9861667,-0.14162942146168886,0.32931820527631905,9.854289796222607,-0.0005527064351879451,-0.0006270590146033629,0.0005944182008046
1681484470.9961915,-0.10806192170305841,0.06567279935517462,9.733928944898281,0.0009672153020191102,0.001278800741377456,0.0012996024266125
1681484471.0060816,-0.26576536387868743,0.09987354254140803,9.825872268738367,0.0004247943166049902,0.00047973733867715185,-0.000343224852671
1681484471.0162225,-0.2538891644959636,0.16873372163114703,9.868020960023257,-0.0013588753408296547,-0.00034542804312695107,-0.0023683039512011
1681484471.0261252,-0.16257175579337732,0.09133389648291627,9.785582630065049,-1.5880345486102746e-05,-0.00011147974108461519,-0.0010774866718325
1681484471.0360887,-0.15349666509370644,0.07931993962459757,9.76333762424939,0.0008908281469003784,0.0008254450493769844,-0.0011721134691957
1681484471.0460684,-0.3054129565540964,0.16996664938941536,9.896183290647535,-2.930567792393446e-05,-0.0016369792272238112,-0.0009064993395928
1681484471.056224,-0.18155165785960686,0.24481092554919173,9.855015460782266,-0.0028616504938377943,-0.001276772766284738,-0.001603493936685
1681484471.0661216,-0.056895225507329894,0.003835214564688832,9.68917753299783,0.0006885615074434489,0.0010098375348543437,0.0003735169262167
1681484471.0761366,-0.3031802124649175,0.07276756790968583,9.864938595704881,0.0013360111682093109,-0.001237999865441659,-0.0004013652255285
1681484471.086159,-0.15526037964226683,0.2618718467363108,9.816735018477655,-0.001804414118107145,0.0001571129015213664,-0.0006371606181833
1681484471.0961907,-0.16332389090659305,0.006450601330523687,9.747659964225841,0.00011001197332793225,0.0012799183821074558,-0.0011575985740396
1681484471.1062653,-0.2579919888408818,0.2293458584201997,9.878579550075447,0.0002422715736088383,-0.0015635978837889302,0.0032725303858991
1681484471.116217,-0.21774073284957568,-0.03033052451441652,9.75915706584691,0.0009575132065124503,-0.0003722444521922388,-0.00119745079833
1681484471.1337063,-0.20602032595213673,0.11686994600460242,9.80940474789452,0.0008353346666283316,-0.00043076175282777125,-0.0022617746185037
1681484471.1361375,-0.053091461114231506,0.26524619753913437,9.779492973522999,0.0005265062405676182,5.0940629910084505e-05,-0.0014962200115892
1681484471.1460936,-0.19428811223136908,0.0392069733938628,9.779558400271585,0.0020728718314600458,0.00021409475327428866,-0.0016847183037075
1681484471.1561098,-0.1324942154637197,0.4105450330837367,9.873007945385996,-0.003163395856374221,0.0010452084907800231,2.3686206574389515e-05
1681484471.1661582,-0.11920947880303745,-0.15856378901592533,9.683712894156127,0.0030402882406629383,0.002421754177034671,0.0003868695307996
1681484471.1761467,-0.195480306616654,0.1547455707091788,9.82540337900698,0.002220793454137609,0.002536463935269973,-0.0001521041890132
1681484471.1862,-0.3076778552013163,0.33245270487277095,9.941039851081113,-0.003100808146515829,0.0007673327342408528,-0.00195478881183
1681484471.196099,-0.20670413560996792,0.17395236094357364,9.832193786322973,-0.002200408268322688,-0.0005514389461311636,0.0017079107597477
1681484471.206088,-0.11236684314770712,0.04805667026756898,9.741642691717999,-0.001772368842407221,0.002007488193703898,-0.0008040287106755
1681484471.216096,-0.35470505066739594,0.018896912611635765,9.86331965132966,0.00036744008845037736,-0.0011843544136283014,-0.0010592364746603
1681484471.2262435,-0.08334435326609577,0.15498725039915076,9.747347444742154,0.00013830654145159278,0.0013242503430640892,-0.0008387137244913
1681484471.2361236,-0.22731569492757006,0.1803027062246956,9.835723533775065,-0.00046107582978621064,0.0002983084609619344,0.000506133477344
1681484471.246124,-0.23879790090932304,0.1884069008243114,9.859250972949102,-0.0019109617410985858,-0.0005398889632262725,0.0002625104930725
1681484471.2561855,-0.16138915061546297,0.06363261437950977,9.779586435294492,-0.0010489165976688565,0.00040783672227625824,-0.0005574270657721
1681484471.2661407,-0.12374678598535326,0.10280862719623313,9.774106181270618,8.877324810710645e-05,0.0012255388662778999,0.0010958646558232
1681484471.276181,-0.35604849686432216,0.024678481528149027,9.860284664332992,0.0006829741991338,-0.001156816928935809,-0.0015889694954726
1681484471.2861056,-0.11912733311957277,0.0820019234309372,9.76235729737932,0.0011962951502406357,0.000580702669254445,-0.0022733085829291
1681484471.2961855,-0.19651488736548955,0.21153906328342084,9.855505973766636,0.0003231058444492152,-0.00020795734102676118,-0.0002009308704633
1681484471.3061976,-0.1476053645940669,0.24755556111521557,9.828777072964979,-0.0021523602054787606,0.0006454858948129997,0.0002669510391082
1681484471.316147,-0.18961657618095645,-0.02880924157629593,9.757271142120029,-0.0002688008818649858,0.0017470864754511744,-0.0024055326397988
1681484471.326193,-0.1974165796459434,0.13110504779388335,9.80207913723414,0.0014108846569108931,0.0006760594944571054,0.000731886884338
1681484471.336121,-0.3223828045629209,0.1142365574429535,9.878193208321205,0.0017498985327127831,-0.002176377274429077,0.0010641764052219
1681484471.3461652,-0.1217802145177287,0.13561753349956074,9.782803312528422,0.00044083465877828705,0.0001511400013921832,-0.0011609382967922
1681484471.3562016,-0.1949507600211273,0.19412161830702226,9.829756741278777,-0.00013025986409998108,-0.00032716853211649775,0.0007236906636048
1681484471.3662024,-0.240723830400904,0.033500117021951874,9.797574431332636,0.0012585215713466808,-0.0010375710128984565,0.0001425425248693
1681484471.376222,-0.16670362512305376,0.16951412436571775,9.812340476269638,-0.0004990899218981607,0.00013663611623915837,-0.0012075027957085
1681484471.3862426,-0.13423494170494027,0.23415759453015475,9.8128489321782,-0.0012836242442001613,0.0004443346311577715,0.0015939122491058
1681484471.3962643,-0.07224326153681364,0.016922217064215858,9.708031019196232,0.000812619930118097,0.0030833351426777086,0.0015268312377397
1681484471.4061954,-0.37647197206677946,0.03462134916286234,9.87934134783636,0.002258772114010009,-0.00028023063617945945,0.0006730312557433
1681484471.4162717,-0.2141239347608294,0.21569975472845018,9.852427056320638,-0.00011312974288824636,-0.00037633731274125604,0.0002584012650426
1681484471.4262652,-0.12520146365973156,0.18437247074114066,9.786949952236398,-0.001969455749815866,0.001640884413580301,-0.0009612741454962
1681484471.4361928,-0.3467520041852743,0.0868584859164927,9.900405393458025,-0.0006298035769127918,-0.002166723183842572,-0.0001063079148057
1681484471.446144,0.007336267435431812,0.20173680810363748,9.724526956831285,-0.0019299414032041492,0.0021825652437283747,0.0002237581607427
1681484471.4561396,-0.32704912579638684,0.10044934877408933,9.875154517194416,-0.002030900014019462,-6.0842444064896994e-05,-0.0008260554208878
1681484471.46618,-0.06619459494801198,0.07368186201384574,9.713013264553151,0.00039795610185345886,0.0019936898896550695,0.0019213835726499
1681484471.476186,-0.2913611702746431,0.03429381484705031,9.834473047093995,0.001790868105224062,0.00028266751895192045,0.0012187763309579
1681484471.4861646,-0.3146171998753224,0.24147189893283078,9.905759745100246,-0.0010850498431734144,-0.0020285116107123307,0.0005895772442694
1681484471.4966571,0.019968436478946305,-0.10079367888712716,9.610055057961336,0.0029143854640280758,0.0035016903547586496,-0.0007128110195968
1681484471.5065925,-0.3310831262260144,0.31331413720506596,9.950875736648124,0.00011933781919431292,-1.0149041430816286e-05,0.0015987519541763
1681484471.516363,-0.17037427233018887,0.1705649865238756,9.81122727573925,-0.0007292845530502348,0.0003921848319369344,0.0016729067388464
1681484471.5337708,-0.20460698897732288,0.14056604311512347,9.820333564402251,-0.0025751607246049094,0.0008124033896163453,-0.0005943179171059
1681484471.536183,-0.7818172154088949,-0.1906072084730793,10.014562523904194,-0.0012441184827258116,-0.001986422386074701,-0.0010625899344209
1681484471.5462658,-0.13442013832599203,0.23992264934398744,9.820970485584827,-0.003166748254555908,-0.0010219388648021442,0.0004852847155656
1681484471.556156,-0.02877302007943254,-0.14830303942814596,9.625014268366376,0.0025571602204897265,0.002425826965613702,0.0005936853081461
1681484471.5667045,-0.28045214656480294,0.2425999195236103,9.890699010257835,-1.9242241934664217e-05,0.0005452935862282032,0.000664097252908
1681484471.576255,-0.17071369715490559,0.07804321324019321,9.785007304295247,0.0008271402488704881,0.000951721976945473,0.0004178404301878
1681484471.5861332,-0.30998577988545606,0.31172949642166503,9.950351158795305,-0.0027711184121178727,-0.0018321978008486854,0.0008198083337869
1681484471.5962029,-0.0022087249154058575,0.00206423685084478,9.665406131484453,2.4692724048612312e-05,0.00238856827382167,0.0009144146420534
1681484471.6061473,-0.3235330173746863,0.25956517153343683,9.927512367975993,-0.003675230923959258,0.0002446715840985934,-0.0003834778949144
1681484471.6166675,-0.18283890023069832,-0.019248049454383572,9.763989612779657,0.00013684205861647994,-2.2069574690899823e-05,0.0011014243605554
1681484471.6261706,-0.10041424326032511,0.18841006140120667,9.793847244463006,-0.0013123221667980872,0.0019042716320259972,0.0008086229168351
1681484471.6361666,-0.258456493067942,0.10149486422383683,9.851572008522218,-0.0007855398602590966,0.00040037636319415414,0.0008849800174597
1681484471.6463754,-0.1602946882078102,-0.052180962023154115,9.711600304577239,0.0019964705082381002,0.002160611351215171,-0.001196328321797
1681484471.6562395,-0.25840897259990175,0.31049761088146843,9.9209701665651,-0.0009080849947260415,0.0001936256860733082,0.000467022760446
1681484471.6662118,-0.22932770129713215,0.037226587120601215,9.799435700985763,0.00048142560631525,-0.00022546380625341865,-0.0002862410660359
1681484471.6810496,-0.09471306714148539,0.17159790682671305,9.778110480210604,0.0002988948748059767,0.0018822990230805163,0.0024443976540591
1681484471.6862888,-0.22606670953816646,-0.04058547380441597,9.774945861303614,0.0012182818689778756,0.0020514368600571555,0.0010049630032394
1681484471.6965318,-0.21578370393639154,0.24168173529349027,9.863861682290414,-0.002713381093130263,0.0025200735345200986,-0.0015971618745002
1681484471.709124,-0.30031800536719067,0.13957349784034653,9.858743851724755,-0.0014266711241957511,-0.0009664323695551363,0.0014348446343742
1681484471.7162273,-0.17222775432749576,-0.11892005204937965,9.706857806580423,0.0017327611006639839,-0.00018374549986727588,0.0008376746514354
1681484471.726178,-0.3095762046494257,0.15548896016652256,9.89008317291176,6.383456066997929e-05,-0.001968529118140192,-0.0013837001792613
1681484471.7361608,-0.023927372296985626,0.19006535770413258,9.744466294130255,-0.00022747765051229867,0.0008541189009085356,0.0007214562461253
1681484471.7461648,-0.2742444714250388,0.10560470731858604,9.851587896065439,-0.00047745598082756934,-0.0005823533522773678,0.0001891076058622
1681484471.7563365,-0.19644027923049923,0.016845458523213914,9.774902758343162,0.0018329789308085289,-0.0006490352727783029,0.0001213182654705
1681484471.7661946,-0.10253992511074046,0.1293089898061121,9.772651533425245,0.0026294306375899963,0.0004886720112311228,0.0019951361423831
1681484471.7762508,-0.14870424482156996,0.35052692123603396,9.860929170560038,-0.0028750801212946383,0.0019530650627272114,0.0009088212350856
1681484471.7863145,-0.2786106684533879,0.17807003272807054,9.882012667176578,-0.004525345672838463,0.0003362977325771952,0.0003418067895349
1681484471.7973857,-0.17276460928543924,-0.17566919701446204,9.683701811512721,0.0009567964514922738,0.0019914634161589096,-0.0026249534025314
1681484471.8061917,-0.361925554279335,0.31164880389677235,9.974003037611297,-0.0016922898675665087,-0.0017941901048938369,-0.0009601323440197
1681484471.8174047,-0.06262941662535937,0.05035846733120764,9.724153164066816,0.00020240334252822736,0.0011782128470230922,-0.0015401730820063
1681484471.8262763,-0.3189734004233764,0.15256391715516962,9.880135445803957,-0.0004904996369427437,-0.0008498398241146224,-0.0020352634641799
1681484471.8361783,-0.10040814978746469,0.22111438681920037,9.784529818016354,-0.002547598999065417,0.0012765737026212932,-0.0022207738406482
1681484471.8462594,-0.23609652382062582,0.016497564494415647,9.781710997970084,0.000154394259315991,0.000493152090003067,-0.0015185473061624
1681484471.8562586,-0.1329977387339064,0.11803710603747224,9.772105543542784,0.0011423065667137667,0.0012124963937898152,0.0004528802779045
1681484471.8661726,-0.18356893052868434,0.06828516355865523,9.785506566530938,0.0025389231642884004,0.001158832403644275,0.0011260235583417
1681484471.876239,-0.32848746938175816,0.20487736212169708,9.900886999463136,-0.00011722116872027726,-0.0010308783378285263,-0.0006572802125934
1681484471.886157,-0.17055400150102987,0.15561533467556796,9.81412216892765,-0.001118204086325429,-0.0003491289460569796,-0.0010245798661831
1681484471.8961632,-0.15885301595722215,-0.008686633177499722,9.751095719998776,0.0017759641174320702,0.00029496419701679393,-0.0005619090556625
1681484471.9061975,-0.2369331106331291,0.19419412211133052,9.850955110261484,-3.525844768335856e-05,-3.995305462223251e-05,-0.0013703024055335
1681484471.916195,-0.27757644057979164,0.24865836894604668,9.899302379080629,-0.0005672338303275027,-0.0031222574473337957,0.002135945596407
1681484471.9262822,-0.06637123006472694,0.05340181456859327,9.71987528632835,1.3154485395380953e-05,0.00022640672717060535,0.0003835653147202
1681484471.9361882,-0.11765418951515674,0.19266630850528738,9.795272671492105,-0.0007598358988570396,0.0014807169043870273,0.0014739681860614
1681484471.9461749,-0.3729257118755888,0.09811406577401241,9.884508043836455,-0.0017380976758358526,-0.0010450142948865318,-0.0014730973675373
1681484471.9562013,0.003725903793265929,0.3505952327509605,9.782332458678825,-0.004523885521561657,0.001976894861973014,0.0023427267401952
1681484471.966215,-0.350564437792278,-0.2615234250831916,9.761869729506241,0.0012898120433301554,0.00014221832131987424,-0.0019149414769831
1681484471.9762094,-0.24324683261597685,0.22442039463588528,9.872107273962214,-0.0006529228370619729,-0.0009138806729023939,-0.001439210497168
1681484471.9862075,-0.12545008269697577,0.05173518010885219,9.74864964895546,0.000981770913655693,0.0005877508149011453,-0.00118065555985
1681484471.996176,-0.2913585603483246,0.16589615930614499,9.867223416155467,-0.000284101139594756,-0.0012048473928765262,-0.002040095864189
1681484472.0062466,-0.08586207135320019,0.1441856836522179,9.751714033199724,-0.00037091962629768027,0.0010269587187748813,-0.0014586050569537
1681484472.0161853,-0.12349428299786716,0.2327816285111182,9.799112234269831,-0.0025245448220032906,0.002598270207285575,-0.0012917106545988
1681484472.026285,-0.16657769906848072,0.023808661354749426,9.771509444606137,1.3927186642785317e-05,0.0027510366629895262,-7.313152714555544e-05
1681484472.0362148,-0.21464408687548864,0.12594750980815622,9.823157594598475,-0.0002856388024041228,0.002498862120195988,-0.000782409919751
1681484472.046349,-0.23529273441934387,0.10155072362754232,9.826927368294841,0.0008543360233673326,0.0011305350521161322,0.0004670199664782
1681484472.0562143,-0.2364328638899284,0.15264835308277674,9.83570973690341,0.00028435734706552584,0.00032104053062258415,0.0005620201077785
1681484472.0661948,-0.002126477891856389,0.3129395357599487,9.770479493615984,-0.0031980334770875547,0.00398001025679482,0.0008901901269804
1681484472.0761924,-0.29942161868876355,-0.07598909383936282,9.79198268543457,0.0013591010706103068,0.0016245154730687489,0.0017313793610323
1681484472.0862432,-0.31258156976763857,0.19071385804334567,9.896911948607567,-0.001549227605741978,0.0001373723340674215,-0.0012857331934842
1681484472.096181,-0.24816298171616846,-0.039881384259880984,9.784637735343994,0.0017189889404091664,-0.000799877818135709,-0.0017934688407454
1681484472.1062682,-0.12028477432845168,0.1680743470620483,9.778575882839737,0.001770753440341618,0.00035530364147680685,-0.0001770893617991
1681484472.1163402,-0.16593861949215477,0.21622947324603708,9.82481241318132,0.00047173965353269757,0.00046334688442946104,0.0010951226827696
1681484472.126273,-0.30578464515834264,0.13628520246255552,9.874785794634839,-6.432021175540104e-05,-0.0017222913929080214,0.0009494415094617
1681484472.136186,-0.09437652219477323,0.1482696116896203,9.775252524936777,-0.00019992831283470753,-8.948681404217918e-05,0.0017756875854924
1681484472.1462572,-0.2276326131778646,0.14416683077552941,9.83084503885355,-0.0019679579948015968,0.0001660503702916359,-0.0008051719091359
1681484472.156222,-0.28130503194488493,-0.06637928117962304,9.787568968861644,0.0018307298814486267,-0.0013866409534069543,-0.0011631727724794
1681484472.166257,-0.10462019047849613,0.253937264250928,9.813565508409464,-0.0005411585001353473,6.361018662334144e-05,4.456389756018835e-05
1681484472.1764045,-0.15190897533315198,0.13025212706089104,9.782189375985826,0.0005004304412912814,0.0006831295421167165,0.0016136520385284
1681484472.1862447,-0.26703621546701767,0.16389552509261887,9.853376093616074,-0.0014944554115955378,2.9003262604380536e-06,-0.0004069360479239
1681484472.196257,-0.17736054469630141,0.08859862439154058,9.791114978973912,-0.0009170240146993709,0.00042271448473332263,-0.0006222722626749
1681484472.2062824,-0.20199859605993498,0.09104272526344302,9.804149022408202,-0.0007199707287278537,0.0005587085926228899,-0.001455233436403
1681484472.216256,-0.18825310912065968,0.2541432638256839,9.850569528195859,-0.001854327614338561,-0.0002522952377470192,0.0012385278346723
1681484472.226333,-0.2817201043989914,-0.022467748164366724,9.802120252445555,0.00021806128675692875,-0.0011783891650590439,-0.0009016466833177
1681484472.2362638,-0.21924954542225086,0.07794393167478099,9.806350739338711,0.0008111184593997258,-0.0013680122598938515,-0.0013717925216529
1681484472.246242,-0.05294755003841551,0.37635018448258845,9.820306161802037,-0.004263115580447205,0.0015935631822364185,-0.0009087424300137
1681484472.2562027,-0.26530902351052205,-0.056771295189347926,9.7871166268168,2.172478768430602e-05,-0.00027091775870377897,0.0001384371385451
1681484472.266234,-0.27255022095492815,0.21283603363299006,9.89769407173519,-0.001604728375278734,-0.0021667208814495666,0.0003839419182863
1681484472.2762454,-0.16051919174829213,0.058671011337276764,9.770349279497992,-0.0002695975855775282,-0.0012961145801885648,0.0005303384346429
1681484472.2862177,-0.17431807352353682,0.1269686106412747,9.796749952637935,-0.0005858656272446326,-0.0007075230447348399,0.000287825470465
1681484472.2962472,-0.07923775331338563,0.08700866375002139,9.739072828191876,0.0005496193736388575,0.0014415906283409357,0.0009132826776717
1681484472.3062816,-0.1618508330529134,0.11720245591206827,9.787527882921722,-0.00028152209604548307,0.0028613077314522135,-0.0009627456351641
1681484472.3163335,-0.3017786994902539,0.09406492785473822,9.868809882347147,0.0011020648247888857,6.88264610221949e-05,0.0002066073898699
1681484472.326306,-0.0951327754026256,0.24828068722079838,9.794639921738444,-0.0019746448016674015,0.0025014555625888155,-0.0006300418212536
1681484472.3363223,-0.3096386444880145,-0.06210259007722341,9.810694656028964,0.001114712574469278,0.0005363808114416987,-0.0021250282920423
1681484472.3462176,-0.09346389589623927,0.18791094800888258,9.777718842818407,0.0004177080613986772,0.002035781531489816,-0.00091843191008
1681484472.356248,-0.15184915636296142,0.32155458389791813,9.844600845538672,-0.002121045494600394,0.002210877408546208,0.0021876937203582
1681484472.366227,-0.20244066687182366,-0.031272571835063274,9.776647074881984,0.00020429181077040933,0.0023706813033745103,0.0001660096418585
1681484472.3763187,-0.16827441345329852,0.20755314417306372,9.806242429151895,-0.0014579779600336514,0.0030114338086494686,0.0006145350594546
1681484472.3862484,-0.25624076688801833,0.0565454032898498,9.812072471063606,0.000905749042800691,0.0013290899018248948,0.0024373297306251
1681484472.396206,-0.3545844874103281,0.1368716655113341,9.898624484226001,-0.0011681249420515353,-0.0009902815740471102,-0.0011356058571014
1681484472.4062734,-0.22368422526147316,-0.030403093851751377,9.773384788884739,0.0025117205349218835,-0.0016135006816766055,-0.0003447172970968
1681484472.4162214,-0.03698167264310662,0.27788733900837836,9.793582652979273,-3.862660003259612e-05,0.0010001542742016697,0.0012437432410901
