time,ax,ay,az,wx,wy,wz
1681484120.9756863,-0.08136581591265869,0.8353942798252164,9.733085010562725,0.0007250761013769834,0.0006600312429078659,-0.0014168678357723
1681484120.985778,-0.02999282493708498,0.916466465601862,9.741879250646278,0.0008405337049468065,0.001964627978980278,-0.0002784295979413
1681484120.995664,-0.19743312747332656,0.9581364795101232,9.849985925529793,-0.00022675150744877234,0.00019511598035780117,0.0002114586491611
1681484121.0057125,-0.13714227959136674,0.8938518716334446,9.787130264975525,-0.00035377569255973164,-0.00015840870168672464,0.0002047559205916
1681484121.0157278,-0.15895536376487243,0.8418430713612475,9.764836623210897,0.0012022804237011265,-0.0012227213496026439,0.0012389154394863
1681484121.0257947,0.00233360243505744,1.0130507539647693,9.750449635390353,-0.0020283126023782592,0.0017511670529024462,0.0003489361802589
1681484121.0357156,-0.23709794494483274,0.8527209443109421,9.81610554394559,-0.0016378849370540433,-0.0004471164029669259,-0.0005846256430718
1681484121.045741,-0.058778717183224596,0.7240478603122308,9.68636579004907,0.003170719375724641,-7.532968283355494e-05,0.0020346049528111
1681484121.0557082,-0.16055074232407887,1.070545953413355,9.867096790974617,-0.0016870760219374098,-0.0004821404323176099,5.202681818122584e-05
1681484121.065746,-0.0924430812747155,0.7960630161484349,9.715088526269948,0.0008681114780709932,-0.00019677315540593508,0.0008779357845437
1681484121.0757043,-0.03274402210272657,0.885209204837532,9.724371785822843,0.0019346748140759563,0.0009748217157383723,0.0027815257158603
1681484121.0857236,-0.31210175550685426,0.8802992276182423,9.879952541687356,0.0005611648678809707,-0.0020698509651756215,-5.265418845151943e-05
1681484121.0956843,0.06750675973416478,0.8260995383662392,9.642248818819274,0.001826261058694556,0.0018990757299914916,-0.0001193125539917
1681484121.1057265,-0.29608045001433414,0.9719619741590211,9.901581985438657,6.64373960574903e-05,-0.001954741920977986,-0.0002210452261838
1681484121.1157525,-0.07364958609942432,0.9113951802640814,9.752924852323735,-0.0002833684710863674,-0.0007913452318680688,-0.0002944370539385
1681484121.125806,-0.0378895030752297,0.8730907860444417,9.727936283833746,0.00031339812376207654,0.0006995443046792254,3.078893818969446e-05
1681484121.135712,-0.14234904342342297,0.9034784733078437,9.779630942593618,0.00011075849724558076,0.0003765457312565436,-5.638250554834885e-05
1681484121.145713,-0.04277550060939363,0.820383920284656,9.702773794477604,0.002598142590081542,0.0014661857742189208,0.0013126609951963
1681484121.1557262,-0.20494934497945444,1.0126070157902625,9.850454202785357,-0.001885993494985382,0.0009692259701107237,-0.0018400580197099
1681484121.1657493,-0.08976114711841533,0.8018532886279207,9.736602412867965,0.000766018342659138,0.0009155939494383793,-0.0005440369754556
1681484121.1756952,-0.16565179761583926,0.9798536375134422,9.831018375270535,-0.000483043844236959,-0.0005875653974787836,0.0008373103296857
1681484121.1857164,0.00584792458580467,0.7716838676873523,9.658241234001336,0.002230092728674169,0.002002993075979055,0.0013599775152637
1681484121.1956768,-0.23502603439626288,0.9510238888083077,9.852144716069175,0.0010569880144005194,-0.0003763379330190183,0.0012087087339263
1681484121.2056825,-0.03546653606385067,0.9620112615945241,9.758203962248793,-2.965930791156164e-05,0.001111902762403078,0.0015514434958699
1681484121.2157035,-0.24379490325362893,0.6877090897638506,9.749898932442278,0.0019234720427398872,0.0001444786928676891,-0.002357499678013
1681484121.2258618,-0.06660753737410059,1.1381835430308902,9.827747816560098,-0.0014564636593162943,6.137526115223024e-05,0.0009468227467973
1681484121.235721,-0.10477646587050148,0.7579628397289824,9.719118789440543,0.0015837492303237713,0.0001768577818264155,0.0009140571888078
1681484121.2457528,-0.1745041641160343,0.9339303078859509,9.821121823278352,-0.0005642740743718441,-0.0004564463375644315,-0.0015848875086281
1681484121.255772,-0.10040671825179831,0.9171590468888161,9.770461619891536,0.0007399628637730465,-0.0012402477389516638,0.0019578948518269
1681484121.2657502,-0.0990591168728112,0.9702399886203997,9.805672968388752,-0.0020089326236406905,-0.00038752741113027,0.000197308716039
1681484121.275741,-0.1071406090711379,0.7902340642328464,9.72205149206069,-0.0009319462508939235,0.0006764143978732223,-0.0018028048838946
1681484121.2857895,-0.17174669406010806,1.0325150170986397,9.843471333993936,-0.0024771888039035574,-0.001442150770192404,0.0007840351277504
1681484121.2956991,-0.03600028398560888,0.7725208498950947,9.680260800901788,0.0005242654607002067,0.00023311430447869628,0.0018598986749079
1681484121.3057704,-0.14296676850606896,0.7556396411650049,9.73995815933885,0.0015062719078897133,0.0008407150176312208,-0.0019141752313349
1681484121.3156924,-0.09446453694303143,0.9493777857704071,9.765303761169362,0.0008915480613184959,0.001175632816722975,-0.0010231048840556
1681484121.3257945,-0.182040787562872,0.9852829425086458,9.841700980548023,0.0001800583783129484,-0.0008494523607675159,0.0014065298415029
1681484121.3357458,-0.1967246592936405,0.9262644902398924,9.832047043238905,-0.0014147440752562694,-0.0019566098062476275,-0.0001118875847656
1681484121.3456883,0.043277367117613603,0.8564214741760695,9.669350159599393,-0.0004733666676399334,0.0013618809040375373,0.0004755819641527
1681484121.355813,-0.2308364118862964,0.8286747423354925,9.81814829003427,-0.0003578703872125186,-0.000294002992989442,-0.0018605387344483
1681484121.3658,0.012511435555400088,1.1103775593652976,9.78073960088821,-0.002808756418980369,0.0009762896986806719,0.0022033828386578
1681484121.3757968,-0.16387870494026646,0.7008076841577974,9.733774231254811,0.00044940174193773867,0.00038435833080202874,0.0010123854986399
1681484121.3857718,-0.2335056649631182,0.869096965585827,9.821196342724196,-9.374779211398575e-05,-0.001371741988604314,-0.0007273119449142
1681484121.395825,-0.05460019213787626,0.8220800064778885,9.707298614584777,0.0012455073863396132,0.0002345958570993139,-0.0007567347533527
1681484121.405713,-0.16938734540891068,1.1160449095679963,9.86562963795055,-0.003437945960982135,-0.0008219010996855059,-0.0006308287888291
1681484121.415756,-0.03814513312576086,0.7351287872984494,9.68304815436496,0.0004713765707477284,0.0005009606739484208,0.0005210207269069
1681484121.4258883,-0.1585877133117905,0.8958798158688699,9.79874201548404,0.0012406494684894848,-0.0008535517895043385,0.0019634534215096
1681484121.4357054,0.008304567840724409,0.9061709096664881,9.70432014938038,0.0009496958417863054,0.0018498893274587055,0.0019165773369845
1681484121.4457247,-0.23522381077693147,1.0082156262216313,9.866489233021571,-0.002929825266723389,0.0006026518408716977,-0.0005645172245327
1681484121.4558103,0.019766590858713212,0.7756774512290329,9.671234903033316,0.00012977835027656246,0.0030617294409327855,0.0005802794435534
1681484121.4657364,-0.2248695536026441,0.9308052083607198,9.847824353316845,-0.0009449874549218336,0.0008284094670739515,0.0001090076944332
1681484121.4757168,-0.10831073606597873,0.7634472844757421,9.728352741664485,0.001778929528353967,0.0010545508967448524,-0.0001283008645746
1681484121.485711,-0.1799192051065051,0.9986227804429162,9.83770360596892,0.0017852952304746395,-0.001707772491850011,0.0042247085325893
1681484121.4957397,-0.16029515814556972,0.899394641395364,9.778347607390405,-2.520265676817282e-05,-0.0013817979950437778,0.0012157985143371
1681484121.505756,0.18325376739077082,0.8337514767541611,9.591753014085574,0.0005585167721306581,0.005474593188709081,0.0002170110779356
1681484121.5157502,-0.3152406984919709,0.9422151069854382,9.900061343706344,-0.0009438921261083242,0.001528024343138968,-0.0005298636428538
1681484121.5257614,-0.2906851536678175,0.9289876073772078,9.880117509280158,-0.0013726408563256953,-0.002478529595600093,0.0003075718373533
1681484121.535768,0.029995248837944553,0.8428670609942157,9.674663787189985,-0.0008112607587495768,0.0010925310414464774,-0.0007656842976335
1681484121.5457342,-0.08479343468285777,1.030228429525889,9.798505055604954,-0.002718232972209627,0.0012620294836728724,0.000862648182689
1681484121.555842,-0.08218236454185882,0.6733117621354285,9.683476646420829,0.002054260280698894,0.0019690920020144463,0.001323436339177
1681484121.5657594,-0.09517468020619942,0.9357101383690972,9.777129632973882,0.000121203607679873,0.0029510892276368465,-0.000160686210123
1681484121.5757802,-0.19593230073855472,0.874012716064639,9.81724489897166,0.001261486680514963,0.0006254067914890817,0.0012929207401125
1681484121.5857477,-0.13183407995010302,0.9382643408488002,9.790119666678422,-0.0003567689031066236,0.000860835489061411,0.0001101446064662
1681484121.5957346,-0.04205364782808898,0.8397908300821613,9.716471878017645,0.0013412620001804155,0.002170627849495696,0.0007345063454944
1681484121.605733,-0.2900041523967856,0.9164910984468256,9.864761184568714,0.00034769330616326574,-0.0009839413567584558,-0.000236321244714
1681484121.6157663,-0.052000690803192404,0.9341198348939981,9.744779204236044,0.0010279312584882659,-0.00043632077186464037,0.0029029896209489
1681484121.625815,-0.09575018883723008,0.7598501264681248,9.718223581229784,0.0029173961683808176,0.0005292861230381591,0.001254904603726
1681484121.6358285,-0.20228546048171203,1.0814770597336592,9.874200790249901,-0.0016591031921644023,-0.0008233726420625959,5.458361144015369e-06
1681484121.6457677,-0.03823436567162366,0.8575851785888808,9.712969244858984,-0.0017951020083866371,0.0013234899099828922,-0.0014016027602825
1681484121.6558423,-0.2585367931361063,0.7322907149530095,9.787212103966183,0.0022952824982566825,-0.001939102989508917,-0.0004572201327878
1681484121.6657498,0.011200242579264233,1.1136282716558736,9.772973630273219,-0.0007844286513123558,0.0001660586331671219,0.0020379715092953
1681484121.6757357,-0.2930700994322587,0.6320142405845085,9.765962823821038,0.0032686982400521787,-0.002358193487755315,-0.000690428544161
1681484121.6857853,-0.03850591724846407,1.045761817136641,9.795150696298442,0.0004426769191114529,-0.0011165425800544768,0.0001935826108332
1681484121.695763,-0.010272116184131432,0.9684819035787658,9.745646868419982,-0.0012333477854167476,0.0012672441737540665,-0.0001033325720105
1681484121.7057338,-0.15161643903639108,0.776589926140367,9.737209196821544,0.0003092994755955083,0.001275115614756121,-0.0018061311024699
1681484121.7158551,-0.00502427489779016,0.9761273939681073,9.730323159492212,-0.00025396109012044494,0.0030263418901004986,0.0007877780549701
1681484121.7257514,-0.22366370432085833,0.9390995881132627,9.858076966925797,-0.0013745257514820844,0.0008611897177289272,7.995543596411663e-05
1681484121.7357464,-0.2027613842264127,0.7694488081187509,9.76339022892053,0.001159801229990578,-0.0007622748247338776,0.0002814899158206
1681484121.7458327,-0.06940023491088458,0.8897591451235518,9.73559808056327,0.0005573902812369276,0.0008016027723207835,-0.0010819595813277
1681484121.755811,-0.20034378189834706,0.97410562992003,9.850716695378926,-0.0009520491591446361,-0.001208191682056885,-0.000642003728402
1681484121.7657485,0.04541887522785515,0.9034143084080156,9.703421662536535,0.0007735074858888463,0.0008168628333616457,0.0024849910947036
1681484121.7757862,-0.2419698885487307,0.7632542185544499,9.796579773152917,0.0018288702696320517,-0.0009503945632289653,-0.000336149362241
1681484121.7857432,-0.03492982503605107,0.780894687157757,9.685050930749357,0.0029065737866721987,0.001650231300235944,-0.0023783757391843
1681484121.795761,-0.0751796522125149,1.0950244689654105,9.8231829524661,0.0006412452293295933,0.0011297864018024735,0.0010481432214387
1681484121.805781,-0.2722871578389471,0.9291070914815872,9.873449986898533,-0.0008574438317375994,-0.001776296709959254,-0.0003056097816202
1681484121.815758,0.005863562592571974,0.9911167895858259,9.732044520517299,-0.0025427707409411233,0.0007755033110065455,0.000608170866641
1681484121.8257828,0.015997756704743318,0.7903912547383686,9.651498552198584,0.00017000760280074748,0.003537822113491096,0.0016814437799861
1681484121.8358202,-0.26888276750347223,0.9831856184316238,9.882083103541637,-0.002981606167475626,0.0011532565945003665,-0.0003931454889002
1681484121.8457856,-0.15070074083075952,0.7348114352201459,9.72436851947302,0.0009612475243154424,0.0003057504757974959,0.0006741253851454
1681484121.8558156,-0.22344233303125988,0.9872558779817667,9.862473178852342,-0.001431503590559967,-0.00166529611477668,-0.0002985301002386
1681484121.8657992,-0.21529120113587352,0.8554005041770167,9.816137778682908,-1.7261815748838566e-06,-0.004294226104596597,0.0008890961722012
1681484121.875793,0.05835752545362837,0.7862869927985036,9.64447926259878,0.0014630456603571208,0.00016681268190011885,-0.000290327593078
1681484121.8858356,-0.14599477987076562,0.9138096279297052,9.79035232527841,0.001660485301349262,-0.0007808853957009017,0.0010828248883139
1681484121.8957615,-0.10266242063092301,0.9219934246626037,9.771570964538393,0.0010521557943560303,-0.00044415720497138685,0.0011722314480234
1681484121.905739,-0.10019218332839494,1.0239251592715628,9.809656153955144,-0.002580756392177182,0.0006991482632667401,-0.0003555276238817
1681484121.9158392,-0.16359528807687648,0.8604327794074232,9.789101822012608,-0.0020074391727407533,-0.00024036458695424583,-0.0003309333737466
1681484121.925821,0.03885895921060419,0.8020444712407401,9.651205884568679,-0.0002118656274175303,0.0032118614586686416,-0.0006233707576516
1681484121.93579,-0.2994470002327117,0.8775518302930179,9.860955373171075,0.0003376368228032687,-0.0006095346326633192,-0.0004382230149108
1681484121.9457648,0.040637975982757917,0.9968170879668965,9.719488379775921,-0.0010530314094458878,0.0023256094049234877,0.0011729633220479
1681484121.955807,-0.28521824294361786,0.7136465185603281,9.80125456725086,0.0016403812355167808,-0.0005786172034181334,-0.0006773835088584
1681484121.965846,-0.09909444164442509,1.0255926433203415,9.80742627006268,-0.0006570208543010384,-0.0005980085463409384,0.0004133704310756
1681484121.9758277,0.001503229090471991,0.8151173677721517,9.688128996251784,0.0005689870243834446,0.002062227768751021,-0.0003585083217818
1681484121.9857757,-0.16387447298496569,0.8051644325312131,9.774133776804284,0.0019119296498296093,0.001127192315017073,-0.0009277416433665
1681484121.9957678,-0.1822278883409253,0.9539676035423899,9.824263442821426,0.0009504542889055443,-0.0002564019124798027,3.588498244831142e-06
1681484122.0058465,-0.17049026110210597,0.7579204480997351,9.754264108940728,0.0030943524369328643,-0.0009962141384747638,-0.0009463524952057
1681484122.015784,-0.1286595053720173,1.0829561015919968,9.847014031244152,-0.0002442606407004097,-0.001765500290207259,0.0005009220872547
1681484122.0257845,-0.04192520596585449,0.814147564343442,9.70708268194602,0.000557784855644766,0.0003467338848837206,-0.000607371799973
1681484122.0357797,-0.17554617292695313,0.9037267877958192,9.806646505629756,0.0002255017751460592,-0.0008848313221440064,-0.0006736645049873
1681484122.045784,-0.1943188401240743,0.8735207644103269,9.809336737513965,-0.0007594713897728547,-0.0016306801563863696,-0.0029803619294885
1681484122.055768,0.08923926246384825,0.8641690833352318,9.64160511056723,0.0024971789823699433,0.0012374610638797167,0.0017880267073873
1681484122.06575,-0.011550180886544028,1.0545415836484098,9.767695462129542,-0.0005527327696561209,0.003325108913559471,0.0024335953017238
1681484122.0757403,-0.4453433545181092,0.8139258947515823,9.929028102202082,-0.001071656406900687,-0.0023023336543524092,-0.001839304579747
1681484122.0857887,-0.07425047491116746,0.8988800474344881,9.744859572855859,-0.00036420927130608453,-0.0018251077125510308,-0.0001744787482071
1681484122.095806,0.11226673683752997,1.010496524106408,9.69912778924026,-0.0020874952747279444,0.002597193361155589,0.0014560869745277
1681484122.1058617,-0.234517838910818,0.7212936318045751,9.779929861193429,0.00044455553485064307,0.0007617311565003117,-0.0002430237404528
1681484122.115934,-0.0636290709847176,0.9774580131439119,9.770111588272561,-0.0012027711013101454,0.001718389715722732,6.581144002343136e-05
1681484122.1258185,-0.17094640192819938,0.9080195931032197,9.807558925455252,-0.0010448244462976282,0.000339283242570708,0.0008678564877722
1681484122.1357827,-0.14067553589579193,0.7657611483258696,9.738241382282855,-0.00010236989622814257,0.001164450583086688,-0.0021768158807877
1681484122.1458886,-0.15956822681680702,0.9206849613163481,9.801896304449023,-0.0005016716635808567,0.000158228823280851,-0.0015580568037453
1681484122.1558006,-0.18430605984660206,0.8722759397258716,9.804660068429696,-0.0012344232064620017,-0.0007049082149672032,-0.0035201616160098
1681484122.165879,0.022099636714683204,0.8895792518826188,9.687324475533638,0.0005514767322397178,0.001152529992188486,1.9629598270008144e-05
1681484122.1759045,-0.14625509092074576,0.8239443496180198,9.774064459395587,0.0012298318087679565,0.0007692078024546436,-0.0012592610477927
1681484122.1857862,-0.23121248772730912,0.8673852619876099,9.823103444803985,0.0010041085848100022,-0.001085228046226029,-0.0025385425000909
1681484122.1958213,0.06201113546861366,0.9282378378617194,9.684919836300887,0.001979366284138488,0.001729196612232057,0.0008995252970148
1681484122.2057943,-0.2064541868357244,1.041461984655413,9.87072856157839,-0.0013614757541372713,2.843611911520651e-07,0.0004297646187719
1681484122.215783,-0.23363379142029453,0.8213667597658674,9.815210399825506,-0.0008011712900871028,-0.001981211086601933,-0.0014325082342598
1681484122.2259786,-0.07814110528212591,0.8171732501371377,9.725319460364046,0.0013032280643022866,-0.0014697134455571846,-0.0001361137296531
1681484122.2358696,-0.06182408908372592,0.9142053744283404,9.748285280266456,0.0006229958470687507,-0.000186341596022735,-0.0008114927954498
1681484122.2457469,-0.08329063379265868,0.9457438755373664,9.770312527226736,1.1293157034155117e-05,0.000278563813208387,6.468232781703192e-05
1681484122.2558055,-0.14619249079343818,0.8963314673080873,9.775837601822357,-0.0012005710445452033,0.0004968616775859793,-0.0020661850034717
1681484122.2657688,-0.07320133616940908,0.9769692700024535,9.786386059422593,-0.000970684368626933,0.00023869454765250723,0.0012690843828263
1681484122.2757902,-0.1733502403904463,0.7937475181309132,9.757994846379916,0.00117992396123077,-0.000672127402726186,0.0013573554565904
1681484122.2857814,-0.16729624988043962,0.8278214811547515,9.774643312855002,0.0012231443159144131,-0.0011117037434305416,-0.0004017109790343
1681484122.2958095,-0.1924180284838343,0.9911308959934446,9.85087591251423,-0.000527738090637644,-0.002719548979273186,0.0001853856916081
1681484122.3057506,-0.08477332747570111,0.8801023184467902,9.762764219347423,-0.0012042460193448094,-0.001541241016482672,-0.0014369825407389
1681484122.315775,-0.0036439055242478815,0.9364469085307424,9.722142460305193,-0.000509140847419853,-3.696884118346945e-05,0.0012638527219191
1681484122.325812,-0.19978795752101824,0.8850185251633905,9.814732032893204,-0.0017191073384571333,-0.0010781790488297832,-0.0008308673318002
1681484122.3358595,-0.09632760917405633,0.7756941922933228,9.731361250815212,0.001222764713061657,-0.001078200578969234,-0.0003723055164787
1681484122.3458662,-0.04966573640537139,0.9352030051364727,9.756813685676235,0.0003599972399533049,0.0002450364273477643,-0.0001629299990359
1681484122.3558097,-0.27433983271907436,0.754032399019768,9.79841195212545,0.00166684549131758,-0.001992415754995332,-0.0026216136797789
1681484122.366891,0.016672582201820708,0.9187500563287805,9.70307079590623,0.0013766094187990553,0.0011171156140539363,-0.0023590053937855
1681484122.3758514,-0.11391513237623228,1.1687974359540931,9.863623020105779,-0.0019452175280234812,-0.00010253659704173923,0.001297380029015
1681484122.3857658,-0.14107680960562471,0.7948477546291653,9.745855112876786,-0.00026585525083756167,-0.0002612284596802998,0.0006149097421679
1681484122.3958004,-0.030634965704169362,0.9512199566429419,9.741134894736215,-0.0009274804318779266,0.0014181285557144853,0.001425547539426
1681484122.405812,-0.19679139399985687,0.8451072734409927,9.796847079672862,-0.0015127650862921847,0.00041563950892667065,-0.001376263568503
1681484122.4158,0.034044646338007196,0.9441428899384,9.701010265160964,-0.00022262750307639446,0.002347955899685097,0.0028903256129946
1681484122.4259615,-0.23861411465685642,0.8265381865318151,9.810638499147931,-0.001004962655879373,0.0011104275205269633,-0.0011516062117639
1681484122.435911,-0.16841474246205274,0.9160848371966053,9.811697618072085,-0.0010392309683898155,-0.00029067497359071406,-0.0001536271342534
1681484122.4458344,-0.11436781274877915,0.8274970466780701,9.749271674049504,0.0007105383016890779,-0.000403906466224437,0.0003697881434586
1681484122.4558556,-0.0787728366392335,0.8512455010597958,9.737228140223237,0.00038491369711003215,0.001177852443833005,-0.0016325679648194
1681484122.46591,-0.15720811031580784,1.0033361759273267,9.82417711626932,-0.0018461223364663315,0.00041453198028397015,-0.0015196888748083
1681484122.4759142,-0.20953828200949876,0.8135513366354233,9.783992878655203,-0.00015373126876786232,-0.0014313600347942654,-0.0014831770717624
1681484122.485854,-0.08752883683743946,0.8310567744546439,9.744649950361833,0.0016366388406646995,-0.0010643996084676245,-0.0003849704557556
1681484122.4958663,-0.034552716918001644,1.052463331066099,9.787710205716532,-0.0010209777667998738,6.324232153139845e-05,0.0011863800423693
1681484122.5058167,-0.1466998200694462,0.7262107533124086,9.727116901648486,0.0007857620007886835,0.0008396122824102815,-0.0020590992684934
1681484122.5158007,-0.17410982403392342,1.0117494871227664,9.834439670425711,-0.0011510054144156904,-0.0006117915686324738,-0.0006449869874391
1681484122.5258894,-0.04038380667905168,0.8816866017419497,9.732333191428314,-0.0009434932456693334,0.0011394651573649651,-0.0006870934780213
1681484122.5358274,-0.1444194138326059,0.8394284878999773,9.780961825027829,0.0005987736930738756,0.0001522754698853966,-0.0002620267955112
1681484122.545901,-0.1897016173729632,0.8207674043129682,9.799193539550425,0.0012309537662135899,-0.0008777521159189403,-0.0015345830510828
1681484122.5558195,-0.007271390601233917,0.8423820119884283,9.692729292075823,0.0028265160597672908,0.001151756977875922,-0.0001588336931068
1681484122.5657997,-0.2402647403318153,1.0577559270889882,9.892666236825894,-0.0007862890989286071,-0.001549434381899883,-0.0001387153792652
1681484122.5758722,-0.00248368416975065,0.8757389947334558,9.706627208787511,-0.0002643784825710265,0.0007766329976111914,0.0003794745967265
1681484122.5858054,-0.09835982503726677,0.9648834335217855,9.78724555461442,-0.0019254712553921673,0.001117497774337064,0.0003928792389583
1681484122.595861,-0.11720415927012091,0.8083584910519144,9.744249402839563,0.000867371339382551,0.0004938827418664721,0.0020111605368096
1681484122.6058984,-0.24437454568502454,0.8339980310923232,9.818066870841404,0.0014399476225436963,-0.0017356910393478968,0.000545618062048
1681484122.615802,-0.07977557145112388,1.004894045713351,9.77619739581367,0.0006077103670367213,-0.0016220739891364836,0.0034554500557955
1681484122.625853,-0.058484130970311736,0.8623468982190222,9.723740320101138,0.0017897565703599188,-0.0007697168651837423,0.0046471564524349
1681484122.6358442,-0.09081968307729722,0.8198363783597499,9.73074302622847,0.0006904018771389153,0.0015075391175819821,-8.321647006010098e-05
1681484122.6457884,-0.07807545083519224,0.8291049063349761,9.731197434626406,0.002591443202872846,0.0018740941010842315,0.001256051818515
1681484122.6558886,-0.208142747776131,0.9587362344176277,9.847845976035504,0.0008043964832288783,5.058059623445315e-05,9.000009917731005e-05
1681484122.6658273,-0.042003945358476784,0.8961904260244824,9.731759807483991,0.00040693857429925705,0.001737010892667863,-0.0003827308577943
1681484122.675773,-0.18468729925345118,0.8353193892300809,9.796858362058494,0.0015055156430443663,0.00015043106334107376,-0.0001774425658855
1681484122.6858313,-0.22770990149915948,0.8030092060432249,9.80820591907993,0.0021779256623815804,-0.0015203954743129447,-0.0024055708240244
1681484122.6957922,0.06094231393726937,1.114411625922743,9.746719300279208,0.0003961288741080832,0.00040410828161636,0.0031682170188527
1681484122.7057898,-0.18008748377159925,0.8295371918324437,9.793897478550646,-0.000543766450582578,0.00031581338064750865,-0.0010253363329443
1681484122.7158651,-0.19524710112837443,0.866221747650865,9.796629574228751,0.0008222962026852718,-0.0017226517030230544,0.0005958990619059
1681484122.7259803,0.06659402824438783,0.9786656145537238,9.70938311068178,-0.0009502193317833962,0.002253337183309013,9.412585818285662e-05
1681484122.7358203,-0.2192185140040671,0.9057320304835895,9.817764153282761,-0.0012381749385808238,0.0002770759694486961,0.0003392405301805
1681484122.74585,-0.017527683085933443,0.8189717784191817,9.691031077251557,0.0005719364953278016,0.002248130938342462,0.0007668684661861
1681484122.7559023,-0.18186103928632405,0.9178554719689722,9.814821296225055,0.00044419996340235794,0.0006887073166341139,0.0013409603084678
1681484122.7658384,-0.2592136841279137,0.7648666968297837,9.799499745120075,0.0028048938741461697,-0.00204378830817544,0.0009222393232871
1681484122.775837,0.10135035679029974,0.9687149921141649,9.677598076415801,0.001161653061742051,0.0025230565989293914,0.0010637979099069
1681484122.7858455,-0.2642322571823349,0.7771183837674732,9.824882314020247,0.0020780754291583126,0.00027709897208612425,-0.0022639997809651
1681484122.7958567,-0.08257530314163321,0.9610056073772388,9.762684687716279,0.0014254205606773153,0.000568023553236551,-0.0001670419046181
1681484122.8058493,-0.07872155774714434,0.8666875077272755,9.742197005438925,0.002280001542433181,0.0013253743118254884,0.0005206731107559
1681484122.815891,-0.16757794691778424,0.8685438431663782,9.787047869940226,0.0025400116008006826,0.0006499982642928474,-7.238355870281738e-05
1681484122.82594,-0.14153098313774382,0.9112632093239651,9.78182157614884,0.0018277511901672234,0.0004894216940511261,-0.0007023459806564
1681484122.8359156,-0.18375082470350493,0.8699925700247356,9.804029803063909,0.0007507734446332753,0.0001556144318297977,-0.0038431535981122
1681484122.845822,0.07877361948154495,1.1814602155665865,9.762386194036239,-0.002550239474007284,0.0027465571820784315,0.0011029056000065
1681484122.855898,-0.31558997031457037,0.7758489607097704,9.839967160367998,-0.000265866825415533,-0.001361296614925387,0.0005281102453831
1681484122.8658764,-0.053055262703770735,0.8190369600140673,9.719181066756022,0.001354256966697608,-1.9073422662266252e-05,0.0007948443485897
1681484122.875859,-0.17217489874682307,0.6709044586153177,9.714307559410898,0.005991882366046489,-0.000845708970719788,0.0007374602678705
1681484122.885867,-0.06166484726768516,1.3364763206414005,9.903185158212558,-0.0027606975100838457,-0.00020313428832005048,0.0019858130795423
1681484122.8958955,-0.2813649449909608,0.6834898172735384,9.794869643018217,0.0003041197169310524,-0.0028141712409209315,-0.0004721299087155
1681484122.905882,0.10473128368837477,0.9124872196787233,9.658185393816956,7.940034130687397e-06,0.0020600032129768466,-0.0003253433428231
1681484122.9158118,-0.21863111418237377,0.8925202103385771,9.822313044181486,0.0006714263622013845,-0.0003599494250580256,0.0009647089132581
1681484122.9258854,-0.05451361803731887,0.8858854782073518,9.740879596266907,0.00010331417402776238,0.0013965227446442545,-0.0001819223438847
1681484122.9358382,-0.17824639531274303,0.8981026320359491,9.809887279395364,-0.000494587135528019,0.00031692783860974105,-0.0010272010735694
1681484122.9458675,-0.07644420868449366,0.9083435703308919,9.754157141127124,0.0002732008400552566,0.0006134615867788206,0.0008116032072816
1681484122.955847,0.017842633517436604,0.9484988786899283,9.719861467646597,-0.0008761193481123598,0.003527764313322461,0.0006689417601105
1681484122.9658546,-0.24772985251772137,0.9459698937689114,9.86545526188377,-0.0015656118608648765,0.0003646166286118294,0.0017548508726999
1681484122.975869,-0.1749220833825982,0.7159725006131383,9.753615080942136,0.0006040088799496874,2.448661783825151e-05,-0.0009683386928859
1681484122.9859045,-0.030501991991383863,1.0116549814437712,9.765789350696833,-0.0004659077575336326,0.0010087229378736816,0.0018010491581175
1681484122.995896,-0.18078640742229124,0.9915414935273127,9.841681888830871,-0.0037449039817606094,0.00063991911194757,-0.0008707391138646
1681484123.00586,0.009313944640542025,0.9404561549795004,9.711859054578312,-0.003038942168934196,0.002315935609822632,0.0028452542569961
1681484123.0158844,-0.2837534493480736,0.623661560385014,9.770707098642037,6.078703555161838e-06,0.00046783671904183287,-0.0020497702102634
1681484123.0259235,-0.08865338732779646,0.8907391581370618,9.760651197540405,0.0008424353141239407,0.000573988989968472,-0.0006822105537626
1681484123.036019,-0.2120675317325964,1.0370731343797965,9.872583422539561,-0.0013778575239259444,-0.0018497074864783746,0.000676001883718
1681484123.045848,0.04890376025506281,0.8951119077080444,9.675797700062352,-0.001370046547893385,0.0016479766285882663,0.0008857316529851
1681484123.0558524,-0.22063346177332205,0.739620251849746,9.76924979064677,0.0004777181500166327,0.00020478264974932797,-0.0013669496442649
1681484123.0659747,-0.00571694270039238,0.9878510186422798,9.749926605018244,-0.0001433267723238436,0.0020368999581295115,0.0007963439525578
1681484123.075863,-0.2571118244276135,1.0901651058029078,9.922155383277383,-0.003728141620481552,-0.0012722807356823319,0.0018930724723272
1681484123.0858848,-0.094371024770827,0.6824645074922242,9.685352736711408,-0.0003917741482522411,-8.16787654107608e-05,0.0003783421084758
1681484123.0958955,-0.09974605283967047,0.8037097893734347,9.729284434366887,0.0009336790498814161,0.0007177940523468241,-0.0005678469355676
1681484123.1058643,-0.22716771612866152,0.9455698864017418,9.850939877739139,0.00048776856668256694,-0.0020072653516022766,0.0003340246581014
1681484123.115888,-0.11197028507612972,0.7871774809411465,9.742227248799956,0.002904362962506649,-0.0021737750642712404,0.0009214937995661
1681484123.125966,-0.04056110134464367,1.0071734031195134,9.762581331367755,0.001135588857352854,-0.0010826518337129104,0.0027316255687278
1681484123.1309018,-0.11720284812386919,0.8032336275678961,9.73545959504673,0.0006639604388319764,-6.191644210451532e-05,-0.0001372268929604
1681484123.1448483,-0.030390914431948468,0.8852111745925098,9.731142238860668,0.0010387215055901225,0.002173258032950637,-6.866653389220518e-05
1681484123.1549404,-0.28595089943268487,0.9951015765847843,9.90163308174415,0.0006118151548983616,-0.0026249292279281913,0.0031760410598021
1681484123.164844,0.0018422038558948048,0.7283409482730476,9.644864476559604,0.0026916477668380867,0.0007926647122499321,0.0006838589284111
1681484123.1749685,-0.18289088738818612,0.9577816418913675,9.823963875227715,0.0004326329098100166,4.090025779309461e-05,-0.0010163888841394
1681484123.18494,-0.1874094627745977,0.9443455506598573,9.833446734110984,0.0013818226863725627,-0.002814920307702934,0.0026854330167647
1681484123.194888,-0.18003526960711322,0.9639652233223193,9.831157907853964,-0.001231825840217049,-0.003466850193311783,0.000591821266013
1681484123.2048862,0.10364123366042374,0.8864506611343607,9.65400229736997,0.00019532792458100558,0.0003392865334263816,0.0030389559647541
1681484123.21486,-0.15217070539814168,0.8418573737529754,9.769716742787283,0.00044267961816319107,0.00023535275462204514,0.0013800894117106
1681484123.2249546,-0.20994183967537813,0.7956867849134236,9.791185433181175,0.0007693794807866537,-0.0007495985814520016,-0.0014358691446009
1681484123.2348912,0.034158769773809314,0.9311659578225625,9.703859759690392,0.0007384497812645577,0.0019307298946817002,5.811681645760116e-06
1681484123.24485,-0.12625851089406004,0.8806735366759435,9.763003504785855,0.0019842108692687253,0.0011733791216035417,0.0018665981729522
1681484123.2548769,-0.3341182497017743,0.9772126474506887,9.913270008788933,-0.00029565400476161006,-0.0029769619067133305,0.0007627974223818
1681484123.2648823,0.07232065853463797,0.9260013729015588,9.680464071781234,-0.000573954094985193,0.0008045746473308045,0.0014940699771127
1681484123.2748897,-0.11797079718691621,0.9368108394417366,9.79509151941855,-0.002634427600859167,0.0013208885942819577,-0.0004508979659054
1681484123.2848718,-0.05461027261037927,0.6834492928475603,9.665224070490567,0.0016198518548100993,0.0026694724337406476,-0.0009843541815403
1681484123.2948663,-0.26089031035072274,1.1398554652504722,9.943022909957735,-0.0034088656344835977,-0.00047543237736912843,-0.0007642197928849
1681484123.3048406,-0.00041967047794917977,0.7699889695680403,9.650579177141624,-0.0008161073052305435,0.002246270197829793,-0.000801060119969
1681484123.3148887,-0.13990813201106747,0.775967125008078,9.746255245838181,0.0008163263789454637,0.0021553346055179353,-0.00218617474134
1681484123.3249888,-0.17057889731926587,0.9358840443140154,9.81742335016206,0.0014034372837821356,-9.3959659814433e-05,0.0006696696469102
1681484123.3349793,-0.13925644784689037,0.8984732460309478,9.77915802324257,0.001169126687427709,-0.00023886999965299613,0.0001850327203523
1681484123.3449166,-0.19598436324119936,0.9068474384338359,9.81072610575687,-0.0010649718057143388,-0.0004284751598514224,-0.0033037175930563
1681484123.35486,-0.05274573591694485,0.9347611009608844,9.743651907535282,-0.0009692097056141171,0.0006112098444051695,-0.0014805819414082
1681484123.3648863,0.0015015318378526561,0.8296411364011685,9.69294213078408,0.0022836810255557195,0.0020045238468318185,0.0019198972400285
1681484123.3748724,-0.33836007049896794,0.9520531179005904,9.912175929709703,-0.0002412691215172965,-0.0018731644451663732,-0.0001729900290716
1681484123.3848906,0.03432243823034409,0.9009068783849219,9.697803563587032,-0.00018464582367171874,0.0010914158156278694,8.666421813035923e-05
1681484123.394892,-0.148068138677198,0.9260225844027913,9.79237723919682,-0.0012158093918564988,0.0008656707318035551,-0.000589092033309
1681484123.404884,-0.06896028542122354,0.8503663942060298,9.731948016371575,-0.000592580731432494,0.0020533044788069487,-0.0010141397401217
1681484123.4148898,-0.21886154746743147,0.9358094005042898,9.849711480563608,-0.00019097518268105973,-0.0009582361294207694,0.0014866294437037
1681484123.424965,-0.13026354421655142,0.7915034126885708,9.737116706636673,0.0004803171114867228,-0.00022993543812162496,-0.0011158571619067
1681484123.435023,-0.14567736107426135,1.0167910736681234,9.840671884339395,-0.002208213166147489,-0.0008777587973354097,-0.0011456722899798
1681484123.4448917,0.07986647710646246,0.7202221602893676,9.60628148312152,0.0021972886539813976,0.002742478945661601,0.0003463450080257
1681484123.4549272,-0.341693330687646,0.9068964743698579,9.886180641635564,0.0005663712469042123,-0.0009053103174474274,-0.0020609565585378
1681484123.4649982,-0.0846128164272939,1.0045426305976521,9.790996127835278,-0.0002017841063889001,-0.0011798867399108993,0.0007732353947598
1681484123.4748638,-0.032884772892389544,0.8470727404493663,9.727528934695144,0.0002806324791198368,0.0006883282999665057,-0.0004199916770208
1681484123.4849646,-0.18660630326793273,0.8564294518681392,9.79301687598821,0.001094232962731646,-0.0007567004510394428,-0.0001976073294404
1681484123.4949665,-0.10976193877649781,0.8887039046740651,9.777122033702293,0.0016675579868205062,-0.0011277104857975169,0.0003220988397028
1681484123.5048862,-0.06683637558463404,0.9510286083945251,9.75398115517838,-0.001394279338492735,0.0013007925469825583,-0.0025217731058124
1681484123.5148792,-0.20669899884144366,0.8384203662122979,9.824953194718459,-0.0012020243971086232,-0.0002400173946999166,-0.0043740088626269
1681484123.5249946,-0.10236455319920557,0.8253711001272397,9.73935516358601,0.0022736734923501966,-0.0012394794025249913,-0.0003558932844076
1681484123.5349095,0.040296170257272446,0.9945756444703981,9.716565359895851,-0.000367955682253114,0.0024928832764930338,-0.0013732577248934
1681484123.5449324,-0.23272625907659422,0.8525883519794549,9.812207720393127,0.0014101442081142892,-0.0004467397438389951,0.0001302548876505
1681484123.5549786,-0.11979516844301706,0.9206706884849641,9.787168836831768,0.000725824435508528,-0.0003990663422409912,5.46316110071035e-05
1681484123.5648997,-0.05509313973306771,1.0183183947583614,9.783264765674087,-0.00040815445593686176,-0.00016847260131169154,0.0023687833996031
1681484123.5749185,-0.09041925291410678,0.8730769650659975,9.742055058858968,0.00039909644123722486,0.000131778159971007,0.0033112883061643
1681484123.5848982,-0.3378483681212279,0.8881488874281614,9.884568616682902,-0.0005571612141687261,-0.0038620948351928085,0.0018196550623055
1681484123.5949135,0.05812656706483133,0.7400230696479737,9.624657412948508,0.0010998141458920113,0.0009543387856222521,-0.0014593361451748
1681484123.604997,-0.14268105704220094,1.0461460731755483,9.843671450345457,-0.002669810932801422,0.000728940104792025,-0.0020855502265963
1681484123.6149073,-0.097413548208509,0.9395708771393996,9.779502910973576,-0.0025081208713112267,0.0005072880893983415,0.0001730895560708
1681484123.6249633,-0.08540209773735179,0.6750621889494544,9.683485400906251,0.002078835323934477,0.0010910607016500389,5.100267614075718e-06
1681484123.6349275,-0.24519176604185858,0.840095138750799,9.826642666753097,0.0016854662038778918,-0.000707128306792274,-0.0026700294151428
1681484123.6449366,-0.0070760355311557145,0.9350618068201616,9.7301873234052,0.002248700714311774,0.0005386043264295601,0.000345569216321
1681484123.6549177,-0.10424334085608289,1.0453676320557235,9.802423343984335,-0.00047935859823964905,0.0007933990274530098,0.0009639462182771
1681484123.665032,-0.006938178082065339,0.9593574979103306,9.738222389180514,-0.0011073960540792347,0.0026981396874934333,0.0020361104939606
1681484123.6748836,-0.1554268236420913,0.8613292518129239,9.778363424568967,-0.0012601448903750633,0.002512249158911926,0.000652174926969
1681484123.68492,-0.22568898016072866,0.7154795336096541,9.767106990247605,0.0013550243130857613,0.0009699831209618021,-0.0015066317323121
1681484123.6949315,-0.1906817536569768,0.9657297742076082,9.824479373432146,0.0008163311387105593,-0.0009544997842413828,0.0005374173593249
1681484123.704921,-0.1481768834105259,0.8672610872184733,9.7819573413746,0.00030745922227184237,-0.0008896630390102783,-0.001660866899741
1681484123.714955,-0.04663469014231055,1.0427414830919441,9.784185516284337,-0.001888233811256958,5.540596752256131e-05,6.393563994283396e-05
1681484123.7250764,-0.0999252288234398,0.6761765098859116,9.688363240931986,0.000997380669023599,0.0015626667780145654,-0.0028734554111484
1681484123.7349968,-0.08389283850474598,1.0059758876406333,9.787084175014007,0.0003238557086414154,0.0011834355606449697,0.0005709486390937
1681484123.7449486,-0.15372632225145072,0.9578580964619454,9.811451465424161,-0.0014557203388225748,0.0008477861406085518,-0.0001223186304319
1681484123.7549236,-0.21453708701597826,0.7989357081804476,9.797784422363312,0.00011001157927326713,-0.0010722231020542713,-0.0005388141184571
1681484123.7649,-0.13056524606225275,0.8448581922781433,9.766489957170869,0.0004203506896313826,-0.0010353411478871456,-0.0016522915143046
1681484123.774933,0.001530745544025539,1.038201134924263,9.762972653100192,-0.0014173506619079299,0.0005180959555350741,0.0012012688926428
1681484123.784999,-0.16358865192413702,0.9140560301290781,9.811549561026055,-0.0016565107002588248,-0.0007503670734661286,0.0019418625702623
1681484123.7949026,-0.02984722321348586,0.8334317194012945,9.703149263713913,-0.0015726930490341773,0.0017221224063032402,3.862450425589996e-05
1681484123.804947,-0.0743059297669132,0.8252879522542201,9.728399144622598,0.0004408246044002057,0.0020536643832482016,0.0012962591531927
1681484123.814922,-0.19656306514606775,0.8619082713615797,9.795612751383345,0.001444415972035936,0.0003337040080217556,0.0017060420464499
1681484123.8249447,-0.08492169942666676,0.8326582310476452,9.73728548379419,0.002435319626355265,0.0012296550195712336,0.0009211112588186
1681484123.8349843,-0.20544437315496442,0.962751154150607,9.850384902921917,-0.00011312204406040363,-0.00011892173215662022,-0.0008241655345532
1681484123.844948,0.0006445758838440676,0.7932343176865502,9.6767817577954,0.0018918209569473332,0.00245896258860374,-0.0011669213458422
1681484123.85496,-0.27263647692177007,0.9442894947686067,9.871160895957273,0.0008152195098979228,-0.0008308369130881544,-0.0012600321828845
1681484123.8649025,-0.04905587505219913,1.0154398036808536,9.78097811195181,-0.0008063970830275667,-0.00014202642527146896,0.0005899443599868
1681484123.874886,-0.08931443467242456,0.9641569042036907,9.782263775109435,-0.00192806642530885,0.000386601864486474,0.0010872753587559
1681484123.884937,-0.18810968739400616,0.6963417697124883,9.740348281070478,0.001727920251808558,-0.0007727104164421767,0.0002997623483192
1681484123.8949823,-0.08605266075075245,1.0333620556354717,9.797064333126572,-7.066569666920144e-05,-0.0008975028680939313,0.0024302359629895
1681484123.904915,-0.15597605236168552,0.6845318876381906,9.725825594745023,0.0023586064884541114,-0.0004884639708118156,-0.0011251680593464
1681484123.9149623,0.1197920626044355,1.1067556673283205,9.716295030292136,-0.0011852843053394447,0.003838072258546578,0.0010049465595752
1681484123.9258826,-0.3541280385682623,0.8607124739411715,9.886395467790381,-0.0017965812580710287,-0.0007973147176504965,-0.0011713674798134
1681484123.9349506,0.014150074798678303,0.8177081500379191,9.675381629458167,-0.000459588604176604,0.002056622202724312,-0.0016400297212872
1681484123.9449291,-0.06945331033132085,0.9759960575472081,9.771915292276256,-0.0009077435099797186,0.002317782024218348,0.0008872516296345
1681484123.955027,-0.14363567313700826,0.8317512493904424,9.768433566325406,0.000839049385905634,0.001403233246319327,0.0018435150810059
1681484123.9649506,-0.22478428282310098,0.7823337187117637,9.794486126822191,0.002315380047993881,-0.00012450252486407527,0.0002669516211848
1681484123.9749703,-0.14138891210761545,0.9686147574356769,9.816898393157647,0.0007857910663425258,-0.0006814441190611458,0.0007188513950918
1681484123.984957,-0.01724973214920584,0.9109654405507467,9.71927846498341,0.0005562853665492517,0.0013782809672217237,0.0009788721759345
1681484123.9949455,-0.1868401564029214,0.8068075991472952,9.789250530555735,0.0011325998989857589,0.000582549545729583,-0.0015304922166738
1681484124.0049658,-0.22867647435479843,0.8951970855291461,9.830871623454312,0.0007574618048079647,-0.0015367674416170965,-0.001851607816619
1681484124.0150042,-0.06376647271145192,0.9081376526651737,9.734093035252048,0.0022785113651030285,-0.0012838113919770176,0.0014605452357013
1681484124.0250225,-0.023464346132971457,1.0127161856028313,9.772381458643519,-9.786791985411442e-05,0.0006957960369689364,0.001491829413268
1681484124.0349767,-0.21246482508875478,0.7483350469016816,9.774143840751622,0.002268826249186389,-0.0008226301994055185,0.000473702904443
1681484124.044959,-0.13822368337648164,0.9765620778336828,9.811772645872905,-0.0004767186849227251,-0.0006184852901717141,-0.0011892491060767
1681484124.0549884,0.019519489630402127,0.8865934146505258,9.697500463274032,0.0012071320842642697,0.0012583129798685083,0.0015507172534366
1681484124.065125,-0.2044425324456516,0.8846983492637613,9.806833468908405,-0.00015523715794328342,0.0005643052443917489,-0.0015319753478739
1681484124.074939,-0.07239213932447863,0.9997591210773737,9.77822413319372,-0.002750990378175616,0.0018312388531939582,-0.0020449711050364
1681484124.084963,-0.23056638973086446,0.857822775491718,9.814678899302846,-0.0007698907391770983,-0.0012417292305407794,0.0002267347841065
1681484124.0949278,-0.03253180550902057,0.8576784948422944,9.715260435232503,-0.000496824285477563,0.0007214936605957873,-0.0006271149072322
1681484124.1049695,-0.14617066034453594,0.7940351038535339,9.755466746131948,0.0017327516540738574,0.00021747967395486937,-0.0004322667413849
1681484124.114915,-0.1413884792039886,0.8684476560438439,9.77868907694743,0.0010294059968738662,0.0003135961180307506,-0.0024685126304153
1681484124.1251757,-0.0005689296225195034,1.0882492570240938,9.782671000525058,-0.0007542397027474817,0.0013063665811798226,0.0019705577829394
1681484124.1349163,-0.2524630694561417,0.7750892191987586,9.817669274178167,0.0005197960988735763,-0.0008844631344518915,0.0001198191853713
1681484124.1449585,-0.06923371402822731,0.9576040269161227,9.766170125936865,-0.0007926125372751112,2.1516590837050033e-06,0.0007072968251545
1681484124.15501,-0.15065397961906038,0.8722708107119663,9.780782845846346,-0.00149709275994698,0.00014108635400892922,-0.001314415600476
1681484124.1649797,-0.11489705010512691,0.9137054151110412,9.767767772025888,-0.0018491244974026928,0.00025510863965550525,-0.0011016894172403
1681484124.17493,-0.15119499930871103,0.823977213789416,9.754212264792045,5.936324346475474e-05,-0.00046277814185543236,-0.0003346710040692
1681484124.185042,-0.09122424417119394,0.9675066047991042,9.785636273712953,-0.0008235494374673639,-0.0004672363976018266,0.0006275779410738
1681484124.194907,-0.05960823966657133,0.7914802310614166,9.703785531401847,0.0009642347886991338,0.0010776294694152878,-0.0004117883549529
1681484124.2049074,-0.15062592406652792,1.0736141765191567,9.857236161419028,-0.0021966681765572533,1.2581190853479749e-05,0.0010276778444189
1681484124.2149808,-0.11317235869000995,0.6470972501061716,9.681761709969175,0.0019555203130285238,0.0008224783526041392,-0.0010141497518393
1681484124.2249887,-0.16592092182025708,1.0152166354534837,9.842155640051956,-0.00033886928226027304,-0.0004474946817525442,-0.0002869814674827
1681484124.234943,-0.17269289927535642,0.8468424979925724,9.791543659585091,0.0006859698615049066,-0.001575513066049424,-0.0006185215938362
1681484124.2458684,-0.06410890115903944,0.8719977349372104,9.715885478162999,0.00118774186722593,-2.7275673193736567e-05,-0.0002456348197061
1681484124.2549536,0.029302162260509818,0.9419641878438241,9.703318070645151,0.000758572681456614,0.002527529602967824,0.000647325181077
1681484124.264969,-0.2718727417959803,0.8547366868328141,9.839039444881474,0.0008196742024729704,-0.00010775037092198181,-0.0004244617925483
1681484124.2750018,-0.10667409678800918,0.7066849312408854,9.693905999624041,0.00470704667931941,0.0004928098026354601,-0.000832693655369
1681484124.2849555,-0.22178108541632938,1.0116513931839493,9.877666890575329,0.002795575540392554,-0.002136906475006603,5.436358648190079e-06
1681484124.2950273,-0.05942189225224778,1.0358363883970192,9.786887918463094,0.00025679995061775654,-0.0010726052532856487,0.000979238243914
1681484124.3049755,-0.13732869418372043,0.9509012076367152,9.795909092843827,-0.0010176220909258631,-0.0011996366686824176,0.0003541385481607
1681484124.3149855,-0.1973288452102356,0.9424829498622951,9.817809804347437,-0.0018442585129434762,-0.0028372721118714557,0.0007005891489338
1681484124.3251665,0.08918759826483062,0.8095659817724186,9.620919565062056,0.0002668550533013724,0.0016178042581908416,0.0010578813922133
1681484124.3350134,-0.2707865721296677,0.7708985886252978,9.820711470007138,0.0013382506892091457,-0.0006825465031415332,-0.0013721529434893
1681484124.3450253,-0.12024045801840091,1.00246736479009,9.803370468957636,0.00046057083691516883,-0.0014492386339679303,0.0013249523722574
1681484124.3550165,-0.03856676105757121,0.881512500010367,9.73753116890204,0.0002087187980288214,0.0003731967223939861,0.0004174658056821
1681484124.3649957,-0.18425872061621976,0.7674728841650365,9.763638271430889,0.001467897270091067,-5.2992704182384994e-05,-0.0018709744367275
1681484124.3749914,-0.09735804556706075,1.0326263695943803,9.806080133541847,9.511822577128786e-05,-0.0005048656782766244,0.0006238600431483
1681484124.385004,-0.03145243386216046,0.8871685062577916,9.726591061453043,0.0006587525391950069,0.00088206395663682,0.001652787886584
1681484124.394981,-0.07228340210709215,0.9859874243958417,9.788372341491772,-0.0015205226501688422,0.0019057707417231248,0.0012277158344172
1681484124.4049854,-0.10177422158992808,0.8648411490859248,9.761169869619513,-0.0017042109271748916,0.0027737470613506438,-0.0001629582879591
1681484124.4150906,-0.1650698964859992,0.8534877786749238,9.772793841831966,-0.00048118955029120364,0.0018137639515886067,0.0005348317750271
1681484124.4250474,-0.1851974018756491,0.729559093092913,9.759272581217953,0.001923125930721122,0.000981517661573297,-0.0011255494359407
1681484124.4349866,-0.16892042617038447,1.0406429581328083,9.83275092149286,-0.001734358468372358,0.0005322519159525442,-0.0020948713685843
1681484124.4451656,-0.2214536748070726,0.7296009026957564,9.772433807523205,0.0013971142032532208,-0.0013728763996926437,-0.0030429509974542
1681484124.4549844,-0.003308156280696925,1.0464701733434718,9.76399541413451,-0.00032731746771217567,8.63530692653034e-05,-0.0005198027979109
1681484124.4650135,0.007960435873659867,0.9264881926508898,9.725649956349887,0.000830501117907965,0.001493737754453349,0.0026280616835233
1681484124.475029,-0.15728193363895207,0.8478255121572954,9.763637677627,0.00019456688256179813,0.0019318506951419953,-0.0003789917140725
1681484124.4849632,-0.19088994083696315,0.8187269850115269,9.774112250160723,0.0019789691981774225,0.00045441554238686557,3.5976521345624504e-05
1681484124.4949512,-0.1447352758078123,1.0374590473830796,9.845352820563381,-0.0012676021382182746,-9.39602220865354e-06,-0.0004218284779686
1681484124.505,-0.1747360003358963,0.8885683997570931,9.800920921891176,-0.002018997110442344,-0.000682193709495027,-0.0020095519762012
1681484124.5150037,-0.15584132338453308,0.8118265443057773,9.766675787858036,0.0011676355698348518,-0.002449848713244595,0.0010273043258589
1681484124.5251858,-0.029655285034777403,0.9685052206684169,9.752445096014783,-0.0007765992415971054,-0.0003398344880211175,0.0003738841001417
1681484124.535015,-0.04611161764346077,0.9502553333750194,9.751978224837055,-0.0017660476908521977,0.0011178567565730086,0.0003422021359678
1681484124.544976,-0.1448686393277191,0.896170133000129,9.782865605970624,-0.0012780260797378652,0.00020889862745577465,0.0012049989850733
1681484124.555016,-0.11587635630250406,0.8280056041935714,9.749814471492355,0.0010223375914951264,-0.00033833075069679305,0.0026355043478783
1681484124.565023,-0.19951875456113813,0.9883091861885851,9.854912793212703,-0.0011055336258034363,-0.0020020579930325948,0.002116574086855
1681484124.5750177,-0.005957960258004138,0.6740555232681937,9.633021227558318,0.0026409995722476887,0.0008224412888674047,0.0007948561065372
1681484124.585012,-0.14903681724263348,0.9832816817461886,9.812231150042393,0.00038568720845798135,0.0005017194744623063,0.000134002995352
1681484124.5949547,-0.10926120090333981,0.9801426191565212,9.792049367897201,-0.0005043078157957695,0.0002953297438177671,0.0020741134608637
1681484124.6049862,-0.19015717034579163,0.8029362613905056,9.778113680841596,0.00018006163155507118,-0.0003864012213801528,9.840546649189563e-07
1681484124.6150594,-0.13550519140541475,0.9548993617360245,9.804651479718213,-0.0017049109225723356,-0.00023515140454885065,-0.0008927197236094
1681484124.6250913,-0.03946172612110919,0.7653627853423703,9.683633915158579,0.0009500715645893739,0.0016114816923935805,-0.0010432070161673
1681484124.6349664,-0.16392394585436704,0.793679853633284,9.756710821842386,0.0025944099118585784,0.0011793486558797142,-0.0020035961683366
1681484124.6450336,-0.05001327039233152,1.1509311966794151,9.825972558978279,-0.00013101779813329398,0.0008399623552472655,0.003335121665756
1681484124.655023,-0.1966686328102658,0.7379821750182455,9.751615345409379,0.0014209529820566442,0.0004894129311642531,-0.0001744849182191
1681484124.6650136,-0.04248894527854232,0.8774320831406077,9.721639280319126,0.002085907517971672,0.00189459093663667,0.0004852324450861
1681484124.6750002,-0.24323113226879978,0.9527998299112397,9.870370503965457,0.00037526101452054763,-0.0007563234270235649,-0.0002813966752487
1681484124.6850076,-0.08597309957511334,0.9121030842959733,9.762543763470537,-0.0006726505096849488,0.00023685178547560695,-0.0012190402525935
1681484124.695021,-0.11833747095601704,0.9303089957536852,9.794728007386556,-0.0001604398270350517,-0.0006821892433076892,0.0012303272338126
1681484124.7049637,-0.18815847357397666,0.872370206070966,9.80199945711631,-0.0015864852488592022,-0.001037602718558817,-0.002389167905179
1681484124.7150178,0.03598646899895272,0.918388558426186,9.7000716445903,-0.00024910268990545814,0.0009494913974396875,0.0015723107313046
1681484124.7251308,-0.20149244958192875,0.7755619606722394,9.768898554795527,0.0012346887225452691,-4.554751545345135e-05,-0.0004721316549453
1681484124.735004,-0.15376149194761718,0.9635678633227716,9.815825839079855,0.0005581731859025563,-0.0013963226344458474,0.000863386314037
1681484124.7450457,0.0484019401712301,0.8633450001736725,9.6713906430763,0.002403299810227804,0.0015861577655872313,0.0030799241463195
1681484124.7550285,-0.17164025096769114,1.0141935564422466,9.836545978603988,-0.00030459780069360065,0.000746450123226113,0.0027878858341377
1681484124.764984,-0.16468221040515002,0.8524772665976055,9.785719856174085,-0.00038582105487830086,0.0003709501916629927,0.0008715768304195
1681484124.7749984,-0.1697890304463871,0.8817573894504716,9.811922979172005,-0.0002192899003870001,-0.0008453526907626178,0.0008905851241674
1681484124.7849789,-0.00895459773464765,0.7122244431048294,9.662277386338198,0.0028547959279944177,0.001931854029008338,-0.0004762539214912
1681484124.7950015,-0.10962966612363179,1.1896126439928896,9.880239722384744,-0.00234568091163365,0.0014009926479708072,0.0014274089476625
1681484124.8050177,-0.1469423529747548,0.6872135420337737,9.711148818616412,0.0017606800340721584,0.000965151564565966,0.0013491734094226
1681484124.8150122,-0.11486780425297533,1.0137496763712497,9.81283623871844,7.75796711798853e-05,0.00048384261854342715,0.0031522113090854
1681484124.825125,-0.19313539412431927,0.8844015032897418,9.807292417960085,-0.0006730390183561592,-0.00047543256818814353,0.0011707147018991
1681484124.8349986,-0.08210708149285005,0.9867416645884788,9.787106648085599,-0.0017936034674370222,-0.0002720387659460123,0.0023508891422774
1681484124.845119,-0.13929457382647203,0.7774917880956432,9.742675654627797,-0.0003664368279073185,-0.00010030189003917958,0.0006368802819874
1681484124.8550253,-0.11576803010399615,0.906414916401289,9.776408474564516,-0.0015831297801298949,0.0005743490289467961,-0.0010499216190997
1681484124.8650377,-0.16695966032815052,0.7028330126641738,9.733570094510437,0.00233775065293537,-0.0004769273841768071,-0.001257794680399
1681484124.875073,-0.09404775629757332,0.8783700105105309,9.7515710345408,0.0023712770641091305,0.00023908549093345631,-0.0017513816751066
1681484124.8849938,-0.05490529320509603,0.9359865142762915,9.74957075070395,0.0014511148572143174,0.001957561792193366,-0.0021119990892234
1681484124.8950386,-0.14272341402146024,1.088219636658005,9.838280656515414,-0.0014504958936919388,0.0007099459896462008,0.0005280990695122
1681484124.9050622,-0.07857694822976008,0.9017890721775512,9.757043158311633,-0.001481807857901717,0.0015533420840754615,0.0004662506940316
1681484124.9150088,-0.15753767410087027,0.7358703107135641,9.742347540242612,0.0015759154932139063,0.0007598747731453434,0.0004778518300976
1681484124.925073,-0.1286027688489844,0.8766961984829438,9.768400322200645,0.0010778391987278685,0.0011894341146351844,-0.0010562241117927
1681484124.9350543,-0.11485232169654225,0.9808230420833376,9.80917655297706,-0.0003109443985482443,0.0011241982679404759,-0.000752283031446
1681484124.9450605,-0.2033755529031193,0.7530135034075529,9.767562562349259,0.0024815433911232402,-0.000574137987287307,-0.0009511953725937
1681484124.9550486,-0.050797191613481105,1.1295814323700633,9.817720852096965,-0.002032037584973515,0.0008455338374667819,-0.0002404230221632
1681484124.9650145,-0.09251119180361574,0.6074387418619408,9.667472558328688,0.0033227060596906738,0.0016938022356580498,-0.0012864831409875
1681484124.9749982,-0.07874746595536741,1.164607806505272,9.838370525529937,-0.0004934831155752864,0.0014922646141194954,0.0024544667062822
1681484124.985013,-0.2733469972353507,0.683555082723091,9.781290804856813,0.0023995743836456563,-0.0008192533424592915,-0.0004918715025756
1681484124.9950602,0.09234634371703844,0.9363005204012632,9.676680578063607,0.0025199056858891743,0.002952956375312205,0.001921347338381
1681484125.0050428,-0.24127898365886494,1.0539318992758833,9.900049034180796,-0.0013387561542675247,0.0006637508238114703,0.0007363494910773
1681484125.015018,-0.21724197282725857,0.8214601697166383,9.794619479789478,-0.0018573061783856081,-4.740323149696154e-05,-0.0026376412756267
1681484125.025151,-0.05849640944833533,0.8504633760955579,9.723879952436466,-0.00037055655933290385,0.0006224043005173877,-0.0009858543093774
1681484125.035039,-0.11611855305890414,0.9923723809635558,9.81642782453148,-0.001591328827036879,-4.9642007248169374e-05,0.0008961720700849
1681484125.0451164,-0.0360781939972236,0.7155561607690573,9.675628829121068,0.002237913488061298,0.001484808010182018,0.001424783309218
1681484125.0550458,-0.1375308266756575,0.8625578221189671,9.771863217862563,0.0006099223641029582,0.0025934738317131907,-0.0027877639553967
1681484125.0650408,-0.22337503214787752,0.9902327732726096,9.864248112604152,0.0009951526713539533,-0.0012733990604330116,0.0020670263871092
1681484125.0751104,-0.17906122247936446,0.796581014583199,9.768159538966927,9.102851443430778e-05,-0.0007745450417710901,-0.0031707182101431
1681484125.0851145,0.010655165501051264,1.0351374072849804,9.754551905757214,-0.0011599323741271158,0.0008798195326317886,-3.1810723570337715e-05
1681484125.095004,-0.10658731426962229,0.7309419860483859,9.710289980001136,0.0021064223162010854,0.0010709169660575292,-0.0001118910772252
1681484125.105044,-0.05212012028924645,1.0860295901527321,9.811073338268935,-0.0019854725632752735,0.002534972436333096,-0.0003782357129726
1681484125.1150408,-0.12058194040124685,0.8633700425890455,9.75356734590561,-8.891665132003376e-05,0.0018666561985164539,0.0017880122427836
1681484125.1251028,-0.0793953575189852,0.9008141418842035,9.749230894636169,-0.0011186018339578634,0.003188011141055715,0.0005519482615877
1681484125.1350906,-0.29430869797303494,0.7928790180168983,9.823505252487005,-0.000603398007146956,0.0005810350323791526,-0.002303125806478
1681484125.145076,-0.19559647245779238,0.8249737219357371,9.790924334892221,0.00127566857484009,-0.001284935074451914,-0.0014325086999211
1681484125.1550603,-0.04253723959204091,1.0974647181508628,9.790872590889563,-0.001954167717920068,-0.00021020461175245086,8.516956181342321e-05
1681484125.165084,-0.10348475081752126,0.9103774145826798,9.768190938580863,-0.0021650137783112713,4.7218092723914065e-05,0.0005742980825256
1681484125.17503,-0.07579764271540168,0.8956377063138534,9.737179265863224,-0.0017753578615715606,0.0006246392393897982,0.0015518246541855
1681484125.1850653,-0.19661137995201955,0.7200302767047324,9.755535956862797,0.0009150484323158033,-0.00043222418340354136,-0.0003700682468238
1681484125.1950922,-0.0600910535195276,0.9981602304490211,9.77778181867405,-0.001175581891862274,0.0007628484025306763,7.697601863259989e-05
1681484125.2050142,-0.20718373829442946,0.7805936423141855,9.787715480203271,0.0010756161661135955,-0.0011925461940157187,-0.0001796953187782
1681484125.215011,-0.04358420612187302,1.0988065841537504,9.789646452567785,-0.0029898161839520526,0.0005173276326841117,0.0002505968982827
1681484125.2250676,-0.13351438724386822,0.6644107151547215,9.711610010352501,0.00119482233233871,0.0006425361978735082,-0.0013401103246483
1681484125.2350826,-0.06392695025544891,0.8795098139640436,9.735962468995151,0.00039017301853588957,0.002352405522422722,-0.0030832027591291
1681484125.2450874,-0.10026692695215444,0.9455066839383046,9.765557425356922,0.0007790568787846792,0.0017854441464570682,3.5980246635922966e-05
1681484125.2550528,-0.1374392301540555,1.0952541531962434,9.846805156411449,-0.0029745282484142125,0.0010277075781349183,0.0014482597721748
1681484125.2650397,-0.22343612905013202,0.7769396475120285,9.795877538317841,-0.0019727809809441006,-0.00039832646611257796,-0.001381476879445
1681484125.275015,-0.08119022326132465,0.8571964513807512,9.741448486383927,-0.0002543260560130063,-0.0003502618194822596,0.00089914467712
1681484125.285041,-0.10834498796734766,0.8133495705321165,9.732491502395865,0.00036107680533248445,0.0006663725837361714,-0.0008901152800295
1681484125.2950728,-0.23536479057597545,0.9727374653810326,9.871902323311291,-0.0020472730938090686,-0.001610166217222755,-0.0019860963843289
1681484125.3050833,-0.10553313699108038,0.8517947740977551,9.744103133106814,0.0001349855284466286,-0.0019316493702869805,0.0003835695056718
1681484125.3150363,0.00909702959555625,0.8526797475187282,9.696484712168614,-0.0007926504242462273,0.0017604709847344228,-0.0025326020590487
1681484125.325093,-0.08514428516984222,1.0107070325602578,9.788801255640756,-0.001799948153585658,0.0013704441545370762,0.0004584616940941
1681484125.3351202,-0.2147947892020021,0.7726813216770958,9.788792140638206,0.0003137822450361042,-0.0005980080657035428,-0.0005529781378332
1681484125.3451338,-0.21743243725944397,0.9746306667695644,9.853037395567771,-0.0012128240476809,-0.00287042627665942,-5.862210350965542e-05
1681484125.35508,0.17912209543147833,0.6794594927256655,9.558851085748916,0.0035205281863677227,0.0029603984352799856,0.0002483483363416
1681484125.3651726,-0.17382422268480474,1.0936466473489963,9.859334759782357,-0.0003400069106465652,0.0017198772318208874,0.0012377557973617
1681484125.375037,-0.1570529123350544,0.925829377832689,9.795883834775246,-0.00010828650739914975,0.0005635496007102133,0.0027196987025913
1681484125.3851116,-0.17474430626067414,0.9164519417129916,9.802439084214305,-0.0007423315454402178,-0.0004057715697104409,0.0023125222610783
1681484125.395015,-0.049494089158680386,0.7667472985081,9.692734089390282,0.0009876751654062765,0.0016785409756716477,0.0003496732056614
1681484125.405038,-0.2623590060409115,1.073456810711977,9.917707368349829,-0.0023393605416799027,-0.0016947341088768232,0.001174449538254
1681484125.4150827,-0.026794198584350625,0.6819678755564595,9.648154872654926,0.001596411698801754,0.0006253937104040918,0.000424188208441
1681484125.4252825,-0.15496178217016338,1.0330939203479874,9.84408009508932,-0.001629684685166288,-7.980101154744042e-05,-0.0001986834726754
1681484125.4351182,-0.03551710585417849,0.8640161685579474,9.714018387283918,-0.0014084389973326008,0.001894948139507524,-0.0007135490927371
1681484125.445081,-0.05550010801688318,0.8753630900021626,9.725472678583202,0.0003853242026677907,0.00239676580076891,0.0018613763927955
1681484125.4551232,-0.31870667784836865,0.7697860294513331,9.8453347131862,0.0020304140636307018,-0.0013017067151048476,0.0001686242135714
1681484125.465075,-0.11150949949737013,0.9388095293711066,9.777052906274687,0.0005838693959312838,-0.0008594925763875565,-0.0004590950015458
1681484125.475073,-0.03662571127472313,0.8787008005292571,9.723125214358738,-0.0002811464373837956,0.001506428731288787,-0.0027497683226588
1681484125.4850917,-0.13015586846889948,0.9901093582267364,9.823850188763442,-0.0014680228970771322,0.0005043087545076995,-0.0009594005573067
1681484125.4950802,-0.14810944818869712,0.8730699971561627,9.78407726650445,-0.0012575349898355874,0.00013774098051697116,-0.0017998269799623
1681484125.5050535,-0.21500497230144816,0.8527135227458021,9.807312250675697,-0.00042454817374337257,-0.0019029659123969006,-0.0016396343748543
1681484125.5150454,0.1326600942142815,0.9835014935159387,9.66062935088385,-0.0007743400024746822,0.002237687705476751,0.0014274044147409
1681484125.5250947,-0.3153980414279889,0.783118965710319,9.836857967633497,0.0019510581800741983,-0.002010254841250205,0.002544615995745
1681484125.535137,-0.1485445462211371,0.8849213141574913,9.782506000676833,-0.0007550197256699112,-0.0007972856439107449,-0.0026443412102285
1681484125.5450995,-0.05634304934660485,1.0488963223638132,9.784124310231423,-0.000998994759352047,-0.001399680982990925,0.0029968608828734
1681484125.5550704,-0.23962000946884876,0.7392787198476899,9.798107017587109,-0.0005653705723072745,-0.0023716057137921306,-0.0018948183901134
1681484125.5651348,0.0768736337200156,0.941996504550548,9.687252050595987,-0.000334019288143391,0.001027346246884343,0.0005467405385811
1681484125.5750384,-0.2957469100261994,0.8402813499559425,9.848515090491057,0.0002832483765644541,-0.002268040362504084,-0.0004766022361341
1681484125.585085,0.06244390463528349,0.8094504797344189,9.64722694479346,0.002061332952769607,0.0015395751297634047,-0.0005540770984712
1681484125.595163,-0.07694258429814095,0.9770874171679121,9.784718056796292,0.0009355415498809586,0.0018692654560639893,0.0010168606491301
1681484125.6050937,-0.212889159950819,1.008779996625536,9.871632983737708,-0.002851977267788748,0.0006369165691217738,-0.0013207499909672
1681484125.6150625,-0.19737764128774063,0.7354768125711986,9.761910213874627,0.0017998137084164064,-0.0018295534155419548,0.0016162704519469
1681484125.6252816,-0.060779109439324124,0.9014690748147574,9.741358441104722,3.215450136781911e-05,0.000494262600629797,-0.0015520912169936
1681484125.6350548,-0.13023957246443532,0.9595034184088156,9.809237589201146,-0.0005340916727506257,-0.00031302164965881364,0.0002576432848822
1681484125.6450813,-0.09384229233108615,0.8794695515374926,9.754022207833403,-0.0010224513989023024,0.0007006148076417704,-0.0011788287706199
1681484125.6550975,-0.08715399623305195,0.9691077097297094,9.782862428318657,-0.0017936381226774114,0.0008548395467547945,0.0002542957623031
1681484125.665091,-0.26294322690322725,0.77105282172643,9.817186179562793,0.00031751764571589933,-0.0019074448108325319,-0.0006613766349378
1681484125.6751676,-0.04654883572625251,0.8777877261701527,9.725307418542869,6.346461217989278e-05,-0.000221005742863231,-0.0015517238102379
1681484125.6850402,-0.09898537596924546,1.0509895418411197,9.810585281885391,-0.0026519171872400158,-6.529732729559077e-05,-0.0002173282013732
1681484125.6950843,-0.06538958469499095,0.7693624364680457,9.710394617498496,0.0010312928169097853,0.00032848168457834945,0.0014601668477066
1681484125.7050984,-0.24908731932317996,1.0466104502511175,9.89952870064363,-0.0027156068849201057,-0.0021563039885738045,0.0004279023228686
1681484125.7151084,-0.040569220871245815,0.7436748445059297,9.669297804930261,-0.000873837240802823,0.00023349895600123887,-0.0017662830691311
1681484125.725121,-0.16307190906009017,0.7534291116829503,9.74207915423711,0.00241672674825969,-0.0010688844177681308,-0.0005496167618307
1681484125.7350652,-0.16102345544492583,0.9774471073806419,9.827983898209595,0.0013576222579838933,-0.0025474414434844017,0.0006879215321045
1681484125.7451503,-0.11052952897148507,0.8062033002123773,9.743706987812962,0.0006393953241810908,-0.0008196501000563796,-0.0039437233976546
1681484125.7550993,0.07140545622550397,0.9802436276528256,9.690931087271764,0.0010841747910295286,0.0019210480841164233,0.0003411035245757
1681484125.7650695,-0.09520390963235732,0.9414395198046239,9.791264297050251,-0.0005784109301641159,0.002742468786125815,-0.0012134644243392
1681484125.7751477,-0.22614561573550357,0.8943764524860638,9.821523900599633,-0.0005310955502653323,0.0004219832564548543,-0.0007958582177284
1681484125.7851343,-0.1172557578276196,0.8812235413347893,9.762627398151428,0.0005842523467520342,-0.0002243519999006258,0.0015749292756904
1681484125.7951915,0.003785945133572286,0.899251868851821,9.699199941712333,-0.0007274328141424567,0.0031079086587536514,-0.000577211616886
1681484125.8050928,-0.20708168771336236,0.9394286842413143,9.834044467051049,-0.0009725429748743121,0.0007237352558238364,0.0008153323392857
1681484125.8151016,-0.20456522285931822,0.756374262949536,9.782113463170528,0.001802418783048838,-0.0011899466903037034,0.0007512457628276
1681484125.8251195,-0.15214867623233327,0.849327543013745,9.778131470968049,0.0011970676363295552,-0.0009813190596343934,-0.0016694299451533
1681484125.8350863,-0.08132687161503915,0.967558605019432,9.781143861111538,0.0005481042209552939,-0.0009246972422951893,8.069502250368315e-05
1681484125.845133,-0.07885704199429301,0.9879197499553861,9.778530878321567,-0.0016177777350847825,0.0001429582249661176,-0.0003074759192291
1681484125.855251,-0.04522138450266236,0.825397525351002,9.715624991496291,0.0005991537306022507,0.001139479495465536,0.0011413055431571
1681484125.8651166,-0.1512685322115779,0.7770878751918383,9.756971110654742,0.0016556483068258852,0.0013015151974848306,-0.0012969207059118
1681484125.8750956,-0.20050513192412697,1.077366226032172,9.884871870534207,-0.0013186201043916483,-0.001106499505595046,0.0004670092562686
1681484125.8850634,0.009958502164154306,0.8373092490256241,9.685637251762072,0.0003245832945001211,0.001187167372132197,0.00168851998346
1681484125.8950858,-0.09999489038749042,0.8566095024013695,9.739200222075597,-0.0005757848271473489,0.002970459353328818,-0.0016202621668103
1681484125.9050803,-0.36642905177049573,0.9512132264254568,9.931270176557316,-0.0021761827243366146,-0.0022114382796684516,-0.0017096691339734
1681484125.9151511,-0.01956760082392852,0.8569044848326165,9.715750149608809,-0.0002468533245078454,-0.0008010286778567826,0.0003429669846322
1681484125.9251776,0.054908398068587404,0.8270733872431305,9.657305445464184,0.0018996230187427563,0.0023185536239900164,0.0017481489299338
1681484125.935089,-0.2726499458608787,1.0060854703054052,9.878969576847629,-0.0018845066748516002,0.00019325103168210252,-0.0006904301739755
1681484125.945147,-0.12625503334338367,0.8676314617881102,9.769341244645503,-0.00022488400438950854,-0.000560741108880273,0.0014098900242483
1681484125.9551992,-0.20421126217708666,0.8440670086381318,9.80384841780791,-0.0007136253696974072,-0.0013702516547406216,-0.0015494797884944
1681484125.9651425,-0.07263898168521171,0.9039963084008106,9.74589281662592,-0.00010232189355450206,-0.0007149703631446497,-3.776094349955601e-05
1681484125.9751253,-0.056397371452822725,0.8604935195391524,9.746310581485211,0.00014095362164022696,0.0007650861389323855,-0.0010372533037785
1681484125.985144,-0.04767508613601888,0.9975638943723582,9.774135597758631,-0.0008302616085893684,0.0015954477424572867,0.0010079107556034
1681484125.9950857,-0.12038282627211983,0.8624429473186013,9.7552674665377,-0.0006983792490291361,0.00195606830050484,0.0001034450211104
1681484126.0051074,-0.15379711076590238,0.9063920287473086,9.80450254148667,-4.716150842921293e-06,0.0006693448603911268,0.001516423085874
1681484126.0151408,-0.11302082689658478,0.8082101989314711,9.729947299040612,0.000799193315253169,0.0015366006287188343,-3.663823413585705e-05
1681484126.0252318,-0.24439543323047971,0.7824643008440687,9.8118313519242,0.0030183493761464053,-0.001201488371188333,-3.777526258414072e-05
1681484126.0351336,0.03686201023597908,0.9605230167762645,9.703725070908488,0.0008833635987527198,0.0024478054620953476,-0.0010424803517285
1681484126.0451589,-0.18938289634388836,0.9501073422868506,9.816826892258119,-0.000306075258001662,0.0010869600462070463,-0.0010264467022839
1681484126.0551448,-0.20571372904090685,0.897733170914437,9.81587620360256,0.00025977484476829036,-0.0011228888063867769,0.0004476401914384
1681484126.065141,-0.08454367898204004,0.9270449346487353,9.764996312282232,-4.9786864278711364e-05,-0.0006915111394061496,0.0014091377629906
1681484126.075143,-0.05979552580905227,0.8006921493091953,9.715890726569775,0.0010726362457641788,0.0008395920888989498,-0.0001010928576338
1681484126.0852523,-0.11997324519758702,0.9184226673277971,9.778499571685092,0.0010197322515192195,0.0005259248336882464,0.000678230364016
1681484126.0951052,-0.22187226445267552,0.8488668073678111,9.808027182233285,0.000528380560801034,-0.0008829918548349456,-0.0017141453030977
1681484126.1051536,0.01597679455168297,0.862730227211882,9.68805778224217,0.0021950555139701056,0.0012739727637058932,0.0006003815756652
1681484126.1151886,-0.21240287063291013,1.0905786981032635,9.894260604901463,-0.0028072442892484234,-0.00021241341147764124,-0.0007299101020667
1681484126.125144,-0.13565728360958437,0.7188637595388988,9.720972752482465,0.0023962333081765795,-0.0015378694751045654,0.002185099113873
1681484126.1351616,-0.09099566637484108,0.9547714425255647,9.791344041251989,-0.0003250887573605819,-0.0004061477645772384,-0.0002404237206551
1681484126.1452086,-0.09183985490916685,0.8131929986361267,9.7259735565108,0.0014529817233705138,0.00019140026965644492,-9.921845453714411e-05
1681484126.1550937,-0.051049371984792195,0.9692134757087861,9.768566615275546,-0.00031094992384735136,0.0016818830731720772,-0.0003219923277843
1681484126.1651125,-0.16040975682025924,0.9424867563987284,9.82368642705715,-0.0008771970292016473,0.0004111799275004642,0.0009196231217596
1681484126.175218,-0.10947197016843718,0.8460507785479512,9.760943638495682,-0.0011804284956211473,0.0013335770660653874,-0.0015487186651203
1681484126.185079,-0.1023728229114477,0.8144409557035711,9.740768772814492,0.0007302858701729055,0.0014684313586950013,-0.0017089084762606
1681484126.1951542,-0.1328331924108518,1.0339968001230697,9.808502544005457,-0.0008652654565582809,0.00044173222905297116,0.0012563932646539
1681484126.2051446,0.008559107047520912,0.8189607954439276,9.677758058428365,0.0011325938758088084,0.0028523717185420915,0.0020163730910521
1681484126.215151,-0.3798608362740465,0.8678962217847458,9.906372784863127,-0.00023903130147191127,-0.00166380460965868,-0.0012503413058344
1681484126.2253337,-0.02830820339812698,0.952106978590506,9.733873432784488,-0.0012631298395003579,0.00010012927066390275,-0.000599527269927
1681484126.235144,-0.1418821348356174,0.8085051120078657,9.763025807348257,0.0014462845897289394,-0.0011273613031319435,0.0012791311560672
1681484126.2451117,-0.053997204820474765,1.02837250898141,9.798563444573277,-0.0018580469328536694,0.00048047005258531505,0.0004409375792842
1681484126.2551618,-0.14786989324466432,0.7588897960775075,9.740629710474842,-0.00037016307456902274,0.0006220364291446336,-0.0017931165679815
1681484126.2651594,-0.11957533747494453,1.085161715335559,9.840186959623013,-0.003507220371189019,-9.133797912186845e-05,0.0006812034949202
1681484126.2752132,-0.20680728234924883,0.5401779833574871,9.696281316492882,0.002739695411178991,-0.0009675309845751265,-0.0019305893260512
1681484126.2852356,0.04480323064178893,1.0639798664325608,9.745614742756088,0.00034880039426297196,0.0016125846454400437,0.0002524167025935
1681484126.295179,-0.18662223280544132,0.9150326456938495,9.819296062270421,0.0006900474200312551,-0.00034541899725142543,0.0018610093061819
1681484126.3051636,-0.15548372166908964,0.8152462232202045,9.772733150231941,0.001580008113173439,-0.0005271986950329536,4.008574937547165e-05
1681484126.3151538,-0.027897333001076056,1.0581558429628322,9.779335101897612,-0.0017578536965243117,0.001430422604197209,0.000424556080858
1681484126.3252451,-0.14847354073672256,0.7713967689743557,9.759166936448272,0.0006084725958996888,0.0009006737437311411,-0.0003771493251893
1681484126.3351388,-0.21563541016101084,0.8314413197674597,9.812640114277327,0.0019018878423273748,-0.0012212322291875331,-0.0003160375676575
1681484126.3452904,-0.06866683146842459,0.9968710183697713,9.768358725837404,0.0008010578289710262,-0.0007030465713289964,0.0019321749528412
1681484126.3551493,-0.10485946913356928,0.8370606983831267,9.744093612891142,0.0004992897203802423,0.0006268876673004131,-0.0007824488024685
1681484126.365092,-0.13934894913202772,1.0134182751902616,9.822528525812574,-0.00019806393575572579,-0.0011150635938395642,0.0032710412011023
1681484126.3751268,-0.15144837843203215,0.8848330381334817,9.798142849629688,-0.000958018128870083,-0.0013426768895621558,0.00141881537597
1681484126.385115,-0.12647831105300092,0.837398491159239,9.75294453148102,-0.0008224184583794273,-0.0008129450805289892,-0.0005291223100844
1681484126.3951733,-0.16862086016940248,0.8093250385009059,9.77406086947541,0.0016880604725643639,-0.0023127293207697024,0.0008324661717292
1681484126.405172,-0.10374114456401058,0.870378152775762,9.769340515131665,0.0008725960803331945,-0.0013128528874611699,-0.0013103047426316
1681484126.4151626,-0.028583882097242275,0.9950766224039506,9.754813301702207,-0.0003709045514609222,-1.4617663892769854e-05,0.0006667036173407
1681484126.4252603,-0.16583786849441567,0.9790171982300396,9.812863240241672,-0.0013681728083060128,-0.001238749188913261,0.0022916639532435
1681484126.435143,0.015463473365034997,0.8717877289242859,9.696248960013632,-0.0005486113655185991,0.0013030136670724678,0.0027968215249952
1681484126.44525,-0.2779087822959389,0.7919621552088276,9.841202860436335,-0.00021034989208291663,-0.0010685055885753887,-0.0009512030560049
1681484126.455227,-0.13853057326189686,1.044053853711144,9.850184695977214,-0.0028121091663988788,-0.0018366660642783483,-0.0001927088055286
1681484126.4651682,-0.08737797834401995,0.8618398029454251,9.735754086349665,-0.00107312718401126,-0.0017044095623253432,0.0018278637394782
1681484126.475168,-0.058071082531192086,0.7314556211702772,9.692828187740014,0.0016701678052163731,5.5043198877685e-06,0.0004856348928537
1681484126.4851236,-0.12566259206098543,0.7706767946931485,9.718812054514986,0.0030812884123646205,0.0008076050916158248,-0.0015032799023661
1681484126.4951286,-0.17584574754177235,1.0349531320360794,9.860090994497261,-0.0004919461742411732,-0.0003163357656190606,-0.0022978801320764
1681484126.5051675,-0.04511603312194367,0.7689123896229092,9.68323901779205,0.0037846516947526105,0.00034300784414041625,0.0009893074707601
1681484126.515236,-0.1481745301659763,1.0166630798927907,9.83216345476331,-5.388373289147341e-05,0.0004856944374637864,-0.0012015360448036
1681484126.5252025,-0.1422771186664045,1.0151070891267624,9.827077663244276,-0.002697733716740351,0.00010981936766233073,-0.0010160107671741
1681484126.5351653,-0.05465174403875108,0.7462931874173824,9.696710716275826,0.0008904765855585825,0.0009960558935336857,2.6704390208074627e-05
1681484126.545136,-0.235168085988949,0.9559650178596789,9.845218247163979,-0.0014479006114793361,-0.0004001827125857934,-0.002250208290619
1681484126.5552187,-0.02639282604225641,0.9132671265758534,9.723075601801405,0.0006714295675707211,1.1465277337424228e-05,0.0022216126631487
1681484126.5651414,-0.2166885762889343,0.8136088757384738,9.79791205078031,0.0005354603853301723,-0.0008930658359223311,-0.0008524796034667
1681484126.5752363,-0.1271334113170174,0.9995783981260323,9.820811477685645,-0.0002602710793514789,-0.0020892322360295352,0.0018502138514545
1681484126.585166,-0.10187869849992948,0.811645053191351,9.736896299042227,0.0003059803479517672,-0.0012216042200729727,-7.165817483251375e-05
1681484126.595147,-0.11963985226222587,0.8286979128363894,9.74175014207696,0.0023340195336022346,-0.0015267125412696634,0.0013651845616063
1681484126.605126,-0.27819714145407026,1.0058352299905564,9.899529149771464,-0.0018155499655311022,-0.004001802847060547,-0.0011933478567275
1681484126.6151664,0.06907728817411707,0.6166813218059618,9.582895547733495,0.0034892303251467453,0.0002658821423333136,-0.002384705938724
1681484126.625223,0.02793248895069503,1.067398705240635,9.754572480237366,0.0011400498565619704,0.002352814500253347,0.0006033800851095
1681484126.6352303,-0.2863599920577308,1.1250685145821802,9.947120784188233,-0.0035701920030431606,-0.0014864856728642932,0.0010176174942411
1681484126.645175,-0.07088237358759245,0.6748333911495206,9.680026926642732,0.0012831159957749398,-0.0009716403524789109,0.0014423064927054
1681484126.6551828,-0.14938669012058706,0.9255822377767513,9.802287390388905,-7.996717642141468e-05,-0.0012439652514980627,0.000685690898123
1681484126.6651783,0.00396571602815272,0.9848098165599146,9.735407970632721,-0.0019839539102433387,0.0013447461481210878,0.0011155719362672
1681484126.6751974,-0.19790468454330828,0.635882818550751,9.72688241292798,0.002538556352883559,0.00032028329349215553,-0.0007760783232275
1681484126.6852777,-0.12363883954110515,1.0889504882798018,9.844267102833713,-0.0022816220995763524,0.0005233288591358268,-0.0017599477473173
1681484126.695204,-0.07614276791127637,0.732665241380541,9.708793515067711,0.0019488174213661278,0.0007084560463455127,-0.0005578249733421
1681484126.7052176,-0.22707759881339848,0.9236248745538822,9.83875574515761,0.0012153136176347547,-0.0016738637927059816,-0.0004054484929416
1681484126.7152474,-0.033525104058800895,1.0778720588053257,9.776696576180907,-0.0022022688857447296,0.00013215519474592786,0.000700223139162
1681484126.725245,-0.16798515916215334,0.7727374156229042,9.757509350902277,-0.00048639325827380485,-0.0004560625424151914,-0.0007589759811285
1681484126.7352889,-0.10821485788786098,0.9809399335849524,9.793367579475124,-0.0005277477417522865,-0.0013199606737907682,0.0030099003302406
1681484126.745254,-0.09839890739921128,0.8985801653548415,9.773415021912795,-0.0017239345817450858,-0.000498903405145667,0.0011349593365106
1681484126.7552795,-0.13163063099291067,0.9014435567888441,9.785580215825963,-0.0016937603613620738,-0.0009410979028494207,0.0012530543859124
1681484126.7651727,-0.09352534820845113,0.8030388059082725,9.721601960929458,-0.0009677197937633274,0.0005620592994832113,-0.0008327413856509
1681484126.775289,-0.0985815154524314,0.894637507782374,9.771001040945272,0.000136480300205933,0.00030613222493500945,0.0012329120614107
1681484126.7852058,-0.2734523688042182,0.7751036122197026,9.823928968998555,0.000548484405462909,-0.0017915882062607877,-0.002623855373216
1681484126.795262,-0.12700022471037933,0.9604077020237266,9.81353222253439,0.0021410382048734026,-0.0037645112629057266,0.0022096933058005
1681484126.8052416,0.043065738169827936,1.0217905397622784,9.722430605973665,-0.0022287231539465007,0.0007214960497659268,-0.0003126836422357
1681484126.8152175,-0.1759228305985574,0.8141466288660644,9.772249056087347,-0.0009170356235748233,-0.00035733254921352896,-0.0006781276355955
1681484126.8291335,-0.08206567077524854,0.8147602019581992,9.735840979681413,0.0034869894192769767,-0.0005573616176005298,0.0025423743023079
1681484126.8372366,-0.036493990794193146,0.9529151807693765,9.752106872229703,0.0015993768956882707,0.0013778974691209575,0.0010138703178622
1681484126.8452044,-0.36881512588107673,1.0877394695167966,9.972898008806682,-0.0016274413792743427,-0.002946801765183908,0.001144272183907
1681484126.855223,-0.0011795048083262166,0.7742050791239232,9.674732640343272,0.0001349990755278537,0.00022379096538405684,-0.0007768706459078
1681484126.8652918,-0.0405571276748558,0.9725680074482554,9.745792459019107,0.0005354419526403355,0.0007010089329797686,0.0029286987806212
1681484126.875203,-0.12688073322653448,0.8771758697509626,9.76862807644797,-0.000548588420470417,0.0012713624366043428,0.0005489818827722
1681484126.885163,-0.2302353970321191,0.8853889809368143,9.831280379496038,-0.0007944992674485842,-0.0009932497553810438,3.0047372589656887e-05
1681484126.895191,-0.17583495683781172,0.8580279431357237,9.790288098175921,-0.001177796486783557,-0.0014537049770816542,-0.0019037614151362
1681484126.9052355,0.06463363749207386,0.8673951062187094,9.654808929252551,-4.156761374093312e-05,0.0022336011438514685,-0.0009873211424324
1681484126.915221,-0.29027897730894403,0.8276888496611874,9.835369776153078,0.0006371613119084021,-0.0009504160609488922,-0.0020251986611161
1681484126.9251847,-0.0579096609598847,1.069969725493628,9.823261517216954,-0.001353642813411933,-0.0009187445018264882,0.0008037837065298
1681484126.9351654,-0.15482686685448152,0.9277739003684077,9.813659516701408,-0.0025591454178403522,-0.0015319502162619543,-9.289686973129793e-05
1681484126.9453547,0.0012402907992001679,0.8182524784329054,9.668505793057614,-0.0006767575839271856,0.0009908433132384713,0.0009300946217503
1681484126.9552312,-0.15731829498163982,0.9609007656473091,9.810255327398668,-0.0015414113454175133,-0.00013308907596538212,0.0021258981974337
1681484126.9652348,-0.3075281085184148,0.7951986831396665,9.848426268646111,-0.00048378643009872887,-0.0036359782505179347,-0.0001111417117986
1681484126.9753897,0.08630358216576688,0.7293024333541085,9.608774334339305,0.0028551972470720077,0.000821717753958366,-0.00055406219731
1681484126.9852035,-0.08589002317130852,1.025435749791515,9.79351271509098,-1.4055713745976738e-05,0.0015351127783524063,-0.000600630188686
1681484126.9952133,-0.10908642263342229,0.893794442711495,9.760734063506902,0.00013794698011764978,0.001658034955869436,0.0003660350298982
1681484127.0053022,-0.14102512886312374,0.8896973388353945,9.784352674682872,0.0009426411990214924,0.0008373458595567127,0.0019683095702443
1681484127.015152,-0.13136618768488903,0.8588079913930257,9.772949579669797,0.00085504819784883,0.0009755736877990054,0.0005079838988844
1681484127.0252342,-0.1707462382883395,0.7622734524754908,9.75492864469614,0.0039876790042904465,-0.0005041087775581699,0.0015163958192228
1681484127.035196,-0.10666453917089834,1.145462080792807,9.847230825398162,-0.001759701719754845,0.0001317864012448411,0.0007944619824651
1681484127.0453038,-0.2421893998963404,0.8200328654650034,9.811336428666749,-0.0010235808969972179,-0.001895893931497296,-0.0009050082921508
1681484127.055254,-0.13884331502809066,0.9175018809119527,9.791058891097359,-0.001250091571167155,-0.0025813543839771228,-0.0005201837088439
1681484127.065292,-0.01851320835673969,0.913917335884412,9.73283521303676,-0.003478188272618831,0.000530409556273168,-0.0032888094469431
1681484127.0751903,0.07212757681934119,0.892759505428927,9.667603361358092,-0.0028307756414577244,0.004033249820663251,-0.0016482211689922
1681484127.085197,-0.33188257157726975,0.8103984543238031,9.85326209682865,0.00017409380478674511,-0.0010338654222403966,0.0007519944879699
1681484127.0952582,0.01719575969229469,0.8183696851676802,9.685549200125207,0.000879654798665014,0.002331554974522104,-0.0009050471748683
1681484127.1051817,-0.13260443786967255,0.948558725889277,9.797131413120168,-0.0001731053146206569,0.0018934673550536705,-0.0008830390911075
1681484127.115218,-0.16960180757395238,0.8287843882079017,9.758332114830399,0.0026443301950083197,4.015047487645533e-05,0.0021069018362563
1681484127.1253428,-0.2237369055923015,1.0017223355991993,9.862693007143491,-0.0005884733518226559,-0.0017085004348861954,0.0003500451526146
1681484127.1352336,-0.13706300613623262,0.8039501165248819,9.747484847911092,0.00028773200082113327,-0.0012607254627737383,-0.0016474504995617
1681484127.1452172,-0.07098477926859331,0.8858416058601795,9.74682956948864,0.0011665332718240077,-0.0006218449832099057,-0.0001547206233713
1681484127.1552207,-0.017723267850556185,0.879723106682843,9.713853373742186,0.0012592425721129907,0.0017109649932435607,-0.0004549737827379
1681484127.1651845,-0.19078738215738855,0.8375466901663933,9.801533830495876,0.0009750218971274656,0.0009655026838380538,-0.0029103376477483
1681484127.1751778,-0.1052851632005205,0.9579214777242799,9.777435878248566,0.0003283037674158916,0.0008090443631128749,-0.0013889283913645
1681484127.1851764,-0.18358409779702795,0.9279600871260604,9.818401828668957,0.0007131475335990127,-0.0012432196604441606,0.0008283737075057
1681484127.1951575,-0.03451613947242507,0.9278909462436342,9.739353622946398,-0.00016193199884272314,0.0007505560045422432,0.0005057579797234
1681484127.2052712,-0.0927762133032588,0.9165756284724763,9.760603493288212,-0.001131251778133794,0.0018364837034430938,-0.0004017077194053
1681484127.2152383,-0.16839002518573568,0.8145203582480213,9.770106970058064,0.0011441504586634926,0.000558327040367345,0.0003224549541723
1681484127.2252743,-0.17894738740983324,0.8922822270448887,9.802929113354914,0.0005477362318962426,-0.00013493593282560068,-0.0007671727839383
1681484127.2353394,-0.007563863795411698,0.9730707662653784,9.721437599539337,-0.00014108506191784487,0.0018111508644500962,0.0015257600858116
1681484127.2451663,-0.2757985750254966,0.7839634715753073,9.808249951861804,0.0014183474242433166,-0.0009332674662877375,0.0004968505777891
1681484127.255261,-0.08175176932177808,1.0327317821651696,9.802612655427321,-0.0014978031965456552,-0.00038080539827331554,0.0009602501482244
1681484127.2652657,-0.18283588828004646,0.6808830246806533,9.738674063482357,0.0024435379816468445,-0.0015401070848935746,9.670655303711612e-05
1681484127.275242,-0.12038368880297871,1.0075199744571444,9.825024803737017,0.0014265460397421617,-0.0024937932967929698,0.0022905343171682
1681484127.2852497,-0.0075443955448703665,1.0728014180661838,9.768204637760432,-0.0026038567543707294,0.00011129133927178508,0.0021936802036602
1681484127.2952418,-0.13478493719610704,0.7398237614403486,9.74104937078663,-0.0003310638096571219,0.00022157481073123387,0.0004253068432685
1681484127.3052418,-0.2666170523636987,0.6247098018504336,9.759050888722863,0.002603346915490357,-0.00102633202695111,-0.0047420586965504
1681484127.3152652,0.013738123459253062,1.1489090906406652,9.787158025215126,0.0009731671772458247,-0.0007488629943410477,0.0028310825542088
1681484127.3252475,-0.026404761288529425,0.8389330830935541,9.709625135409334,0.001366156064060609,0.0018029697027721356,0.001217302949541
1681484127.3352098,-0.16709677093060132,0.8715645723616251,9.793628695061406,0.001388174715987118,0.0010668228287302138,0.000412985329191
1681484127.3452842,-0.061987651318645615,1.0397412087518858,9.80639530271583,-0.0008376961651192442,0.001605507869180059,0.0017451717244934
1681484127.3553336,-0.1910235146291169,0.8872353143423912,9.806536906711179,-0.0022797491093363128,0.0009241484469719858,-0.0009176821954075
1681484127.3651965,-0.22316319125036668,0.83225342310245,9.802166160981859,-0.0010664275352918115,-0.0011799020146282774,-0.0009847295045379
1681484127.3752322,-0.05029177352046514,0.9394262806129274,9.751477988468812,-0.0019485778332368373,0.00019587276754173979,-0.0007902490946922
1681484127.3852406,-0.098360093795742,0.8608194132360129,9.754579353489586,-0.000126152339642037,7.722969422546948e-06,0.0009360318613711
1681484127.3952692,-0.14378357489815,0.8141884555853358,9.756206627572373,0.0005682354758167639,0.0001649451011546396,-0.0008901006116989
1681484127.4052696,-0.13887077469250214,0.9838397004602597,9.818644239673203,-0.0008198155474636587,-0.0005849597520770288,-0.0001688898814368
1681484127.415249,-0.061987318921938386,0.7895502083075172,9.715729041816088,0.0006196045082944593,0.0010586372577969262,-0.0016892016905817
1681484127.4252784,-0.22385078434615818,0.8684211823967724,9.825198172553401,0.0014172218431400126,-0.0013426680837202094,-0.0005540954920921
1681484127.435239,-0.02978620123844972,0.8661134937735308,9.71053728468497,0.0022528037028785677,0.00043316418637043746,-4.243226115754071e-06
1681484127.4452505,-0.1393391350963971,0.924693537401975,9.789907674435765,0.0027929719830620896,-0.0008915360852651916,0.0023255890660461
1681484127.4552248,-0.08780542133930935,0.9974037312131214,9.781428285714389,-0.0001742251423418278,0.0004126882071639935,0.0006085943855818
1681484127.4651868,-0.21767154352297693,0.9019329963336481,9.828361544425084,-0.0011040488888602064,-0.0011813754667729223,-0.0003257212269577
1681484127.4752195,-0.18888582664325385,0.8400376906860776,9.798441491065581,0.0005641330163212574,-0.0031315684858037114,0.0005735551781494
1681484127.4852328,0.09932675618955346,0.9878045333848507,9.693782406424413,-0.0005985419139496629,0.0008597056188732132,0.0020662842394326
1681484127.4953034,-0.12718072953521375,0.7865818883880243,9.755632793713962,0.0014317629925842377,0.0007840773688622243,0.0010801926214721
1681484127.5052593,-0.32409317790524766,0.9089639844518295,9.88193436649259,1.764387499674098e-05,-0.002847320274470318,-0.0008960678282651
1681484127.5152636,-0.05223906938851131,0.8301788645644589,9.7011976750733,0.0015025358625884618,-0.0015114323554171923,0.0003057109384339
1681484127.527335,-0.008712779235568733,1.1174044828046137,9.7961140993887,-0.004345064930833134,0.0012232784223337552,0.0003917546669494
1681484127.5352137,-0.19520613074508167,0.8296893063599317,9.791212276692086,-0.001672910282606955,-0.0011083663505141535,0.0035958827898379
1681484127.5452497,-0.15172692693132359,0.6614627673275645,9.713138928265458,0.0006062197553697151,-7.533055078215941e-05,-0.0012320934369686
1681484127.5553503,-0.17585532707654056,0.9264463176346257,9.808431066756519,0.0004862848151964945,-0.001685770081573013,-9.959598942582888e-05
1681484127.5653205,0.0043933595419088775,0.9048636993494847,9.71728141044669,0.00016590195528474864,0.0008723862072633067,-0.0001539661356705
1681484127.5752778,-0.20593676590654653,0.9782072868454065,9.852614267693731,-0.0014888747896282186,-0.001101666742464824,-6.757327760492844e-05
1681484127.5852602,-0.07849795135411436,0.8306314285021846,9.727976644344018,0.00015993483393775753,-0.0005234942860788002,0.0006644493510488
1681484127.5952616,-0.07510588375311802,0.876223706050362,9.762001854880706,-0.0006681941398444666,0.0007364118293426432,-0.0015014195855233
1681484127.6052709,-0.15914913481335594,0.8949486382050256,9.790051088716845,0.0007313847036152727,-0.0011597589066950987,0.0013078181323603
1681484127.6152658,-0.07257166872266532,0.8797402644735355,9.747066224986519,0.0017085508056216279,-0.0008483513231980075,0.0030035681516405
1681484127.6253223,-0.09710938660072865,0.8954095527415297,9.823935869935513,0.0003003720231597678,5.693076230386841e-05,-0.0056048331357065
1681484127.635329,0.24668949876628884,0.9948884608758884,9.579704730193907,-0.0017802466249851358,0.009976066660462251,-0.0159684431313995
1681484127.645246,-0.07930138913241966,1.0788656550987816,9.686645661684215,-0.005712463675554919,0.016831585958997555,-0.0290155888109925
1681484127.655279,0.03996034198108759,1.2399789032198612,9.500458931415203,-0.012690577684630201,0.029945174163154415,-0.0437425423919681
1681484127.6653285,-1.1753459759541836,0.689376514150246,9.640300642619271,-0.014155648138974651,0.026583587519404074,-0.0695813384413245
1681484127.6752317,-0.5392197827860511,0.5393104683623703,9.974831251799346,-0.017823435751904253,0.027973956708829194,-0.0858985420822623
1681484127.6852026,-0.6265371251919938,0.199601340664708,9.678754065400453,-0.012828130394269053,0.031734173683472845,-0.0956962045788291
1681484127.6953175,-0.3951223210655815,0.5631561696368143,9.702820759660781,-0.009341845499652066,0.034225437294135325,-0.091788404858065
1681484127.7052653,-0.7605356194538178,0.9622578499636141,9.732968242702224,-0.012769278382680197,0.03213207582171234,-0.0791411113500121
1681484127.7152796,-0.862630617058554,0.39159550756649913,9.85934539582712,-0.00986855236597001,0.02622035328917398,-0.0670274880289558
1681484127.7253938,-0.7231703050226786,0.36624005980591773,9.698353851821468,-0.001950497182117659,0.02165230226451962,-0.0466590684413436
1681484127.7352526,-0.9538779599097348,0.4296095795962176,9.86936766317302,0.006996292573948115,0.013456664065920144,-0.0303458173334125
1681484127.745305,-1.0316419826723395,0.6549579145940428,9.979313309999636,0.013531824221810816,0.0033936101389627884,-0.0180551756679538
1681484127.755309,-0.6738758675948816,1.0834404357680927,9.922106135495174,0.014738472462838156,0.0021009133929544943,-0.0103103120386127
1681484127.7652705,-0.6683069250282707,0.9556212391482108,10.063588930998023,0.014540331095059342,-0.0015232958991126771,-0.0123744003980878
1681484127.775248,-0.35388580261597224,1.090041181657152,9.780152064608952,0.014138692921611448,0.0015318527535356215,-0.0145373393356326
1681484127.7852235,-0.5445091228124781,1.1080246100010376,9.879426684154394,0.01293625185341633,-0.001533559517851517,-0.0198909074574235
1681484127.7953117,0.04236772719971497,1.31159844585147,9.637913834165646,0.00807354675682446,0.006833484478722929,-0.0238813955842975
1681484127.8052597,-0.3409044922672281,1.3138196648768041,9.787536390726169,0.002665607780892598,0.007714438885248161,-0.0346985508262637
1681484127.8153105,-1.3379094145041097,1.4596938493763707,9.323593299071229,-0.0031845850995513066,0.0025461604920981483,-0.0560823988675597
1681484127.8252952,-3.3405089911265025,1.6920728624412267,9.70105022026579,-0.017262319321156357,-0.0380709609952214,-0.0993340101599219
1681484127.8353062,-2.0916690736435513,0.652430665214485,9.944921103963933,-0.02158445691631607,-0.07109520902438567,-0.1452471178531173
1681484127.8453434,-0.5332627501565953,-1.1329029462913005,10.644861493679759,-0.014065709790843439,-0.08908320776431819,-0.1914644849061492
1681484127.8552816,1.6664926605454966,-1.456327532712921,10.476601223115544,0.009373865388080571,-0.08529497981716798,-0.2156908225774291
1681484127.8652792,1.8592623930384247,1.157820771498879,10.152754743072975,-0.003323062800481112,-0.07491255494195118,-0.2311158042907241
1681484127.8752892,1.8838576875280537,1.2660839556609595,9.856144833068466,-0.020317500691127414,-0.06544048321021996,-0.2360455852508071
1681484127.8852751,1.1900152130579253,0.9268519489794026,9.882367081888217,-0.031618267720218717,-0.06747525930826648,-0.2352503251790527
1681484127.895271,1.949764446300115,-0.03072387634664301,9.408558524774993,-0.027647071385199874,-0.05891033326227845,-0.2257004540919784
1681484127.9052396,1.9212530817897377,-0.5231560687682149,9.102933698036901,-0.012158311745084764,-0.04382837243170126,-0.2238623809575561
1681484127.9153054,2.024993548647714,-0.03684762950162818,9.022013046157246,0.000730625912853506,-0.02599230020645155,-0.2223970156669143
1681484127.925338,1.3500355663111119,1.8756800362284243,9.310259719620294,-0.005070670766749263,-0.007346017624272957,-0.2202390593051437
1681484127.9352949,0.4099500380521706,2.892858031422033,9.863989060346725,-0.025979410773943536,-0.002385874919273967,-0.2241212439298156
1681484127.9452956,0.7837675051302933,2.9156473760561576,9.874698236348383,-0.052935326004889406,0.012911923469706167,-0.2274681341409209
1681484127.9553397,0.1193863834819554,0.8290100973562892,9.841232123907886,-0.04498519045767064,0.019565034573731335,-0.227658779597235
1681484127.965235,-0.3423887122071565,1.0682692287901592,10.137971136577027,-0.03935345509003322,0.020335087511838233,-0.231103495931578
1681484127.9752932,-0.672586095075866,2.7800067658493903,10.131805542776197,-0.049770906765364296,0.020883741112450827,-0.2303236287593368
1681484127.9853687,-1.1825300469681517,2.9605882825627634,10.34378784101233,-0.0709235994110239,0.013437547724935007,-0.2238581788300994
1681484127.9952905,-1.3592850008378254,1.7617021877463936,9.920031582301034,-0.07497017101166197,0.0012138569489457713,-0.2112925213336471
1681484128.0053003,-1.1165117963265074,0.76763446715673,9.804051718520288,-0.07218485843808262,-0.01093071008985977,-0.1977228533982757
1681484128.0153236,-1.0470506408971947,-0.5465875375851401,9.478333138016044,-0.045410874086416496,-0.020334312043354976,-0.1880665284156326
1681484128.0253797,-0.8818864935395385,0.1885499613795865,9.218649171814814,-0.036345054291276054,-0.025206736728794955,-0.1833078872918609
1681484128.035277,-1.0363619732871705,-0.9135311669223624,8.951135828770528,-0.017814927576349036,-0.03786182466426059,-0.1756388109683517
1681484128.0453336,0.38591660674526085,-0.2535398804858723,9.438114916773785,-0.0020506742222726106,-0.035677175743825305,-0.16708238539691
1681484128.055312,1.1575813730727949,0.9139841880531491,9.210004433706533,-0.005214614105444153,-0.012967441951090222,-0.1604689371346954
1681484128.065288,1.0666042525027906,2.5098430999831405,9.85383158977908,-0.02581272103506511,0.00893482522790298,-0.1648684453725341
1681484128.0753107,0.22287124551384702,2.220292230103635,9.809817487919197,-0.05080544473603094,0.02182700608517225,-0.1640625756740096
1681484128.0852418,-0.3732712635132283,1.238882361684135,10.161338071147988,-0.05834814902797164,0.0207966694935639,-0.1726262879132751
1681484128.0952249,-1.187986106305186,0.2407734947274068,9.969114055731508,-0.05680047679745056,0.015039494489188563,-0.1903243821620467
1681484128.105301,-1.4983790623338622,-0.2984182095163612,10.102945485475525,-0.04098377534956186,-0.0038643837339744666,-0.2020533394574645
1681484128.1153178,-1.7394197816926729,0.016042733340168678,10.047226294975156,-0.03502800400420421,-0.0209872477870582,-0.2154215734958175
1681484128.1253276,-1.2712848731902044,0.29133613292464167,10.363921832368495,-0.031553349415146974,-0.04202990217084533,-0.2199531656264785
1681484128.1352854,0.271769065053976,0.20020236267814628,9.768528508718793,-0.031551933793287405,-0.04484198970295696,-0.221206040358496
1681484128.1453772,-0.03326670653224332,-1.1569894350651941,10.243151509368804,-0.02749152216103204,-0.05178839736269605,-0.2353999328374389
1681484128.1554737,2.454600235419304,-2.2383758451021176,9.192282417775333,-0.0021608139907359964,-0.031184487112001044,-0.2471795540809158
1681484128.1653297,3.194482407136586,-1.5004512306857014,8.340231653778824,0.010840610766638089,0.0067081851629285025,-0.2544926714658264
1681484128.1753118,2.026502756705134,-0.20276908239371477,8.787143800752583,0.010443236639506186,0.027141513154305116,-0.2637589287518981
1681484128.1853335,1.6018120295057479,-0.46900680997094635,8.714424053570113,0.010180066880903872,0.04341817935057293,-0.2748803508042816
1681484128.1952896,2.1926087793435873,-0.8833433601179204,8.91041666784465,0.020062732624822128,0.06533894245430137,-0.2917674195527557
1681484128.2053225,3.236040703810432,-1.2818472153236056,8.782667996478214,0.028386817943619243,0.10094338931778137,-0.3225834083318237
1681484128.215393,6.129563711964773,-0.7976342015531475,7.403139673625175,0.04239996327398863,0.184393892897639,-0.3663177203893188
1681484128.225337,2.1681159678133977,2.7185988148607465,8.567873038554861,0.010639320490630051,0.23686820305875722,-0.4054113340138915
1681484128.2353227,-3.181080168737799,2.2495307048604403,11.058807414954506,-0.018893120083103707,0.21988445171522064,-0.429749788021994
1681484128.2453668,-8.974912816600709,-2.5396713722985615,12.615702708851828,0.023032309263666614,0.12477988350248341,-0.4185985636472228
1681484128.2553377,-10.2198735265734,-6.645042644205265,12.752768577437905,0.14774277539579644,-0.003455098677601533,-0.3555690657853607
1681484128.265328,-6.9633051368363335,2.1854563482740392,12.019048542415463,0.1894636958714269,-0.10216468766553283,-0.2846370053052429
1681484128.2753894,1.2886730642413238,10.27825845127911,10.395034879921004,0.09361583638579594,-0.08269646314789503,-0.2186205696820739
1681484128.285342,4.1236187620491425,7.177394788952989,8.929493979251998,0.010056980424803252,-0.016570553425969532,-0.1765217494725707
1681484128.2952905,3.3221385797976075,2.2198597887344347,7.306812639356729,-0.003060948520914574,0.04860516019484997,-0.1392630648374084
1681484128.3052611,-1.1278528423821517,-2.4407516131281595,8.183882256702837,0.04789836271685801,0.06736503779921271,-0.1195830565452102
1681484128.3153174,-4.6277856127895705,2.9914230182660444,10.141834617540255,0.06796548402678597,0.024042481311453062,-0.0719413172959808
1681484128.325343,-3.8692733922610785,7.072100339684588,11.438109492972018,0.01059047100762518,-0.011359213609445222,-0.0372247633099082
1681484128.335364,-2.004679521219432,6.217891012644753,11.135598504217372,-0.04531705741051602,-0.02977136060217743,-0.0174989711999419
1681484128.345315,-0.1938921151571319,1.040301382219981,9.510454426918624,-0.05222961831616223,-0.019328226085434726,-0.0236526776611331
1681484128.3553057,-0.5902325053258288,-0.524611115190805,9.050775369157474,-0.03257658770059335,-0.01123500125001288,-0.0407082114874843
1681484128.3653266,-1.2509933310167876,-0.9629962793736208,9.646511735073293,-0.017368270724478104,-0.017555863971122035,-0.0685917895793441
1681484128.375348,-1.1111800274990433,-0.7104870596033542,9.778339870817359,-0.0011921685321605168,-0.025585771829067332,-0.0951372545718673
1681484128.3853574,-1.0840230451717594,0.8270214032317079,10.577663138076087,-0.01803913281770366,-0.03556481498645994,-0.1192556780337814
1681484128.3953192,-0.6262433362806489,-0.7149512290566579,10.276995204758947,-0.014991158492734608,-0.046273235817739386,-0.1433555197476867
1681484128.405319,0.2479767439881605,-0.8111621628761735,10.061896280829313,-0.012958784210779792,-0.04496361952138403,-0.1501036596059325
1681484128.4153526,0.2233545591539264,-1.06011987307654,9.555567815098083,0.002061141883456188,-0.04394255582494575,-0.1503852617501739
1681484128.4253273,-0.5600772384702004,-0.7958415551476751,9.646138281508408,0.012802209832536488,-0.052941811679421656,-0.1547475468873504
1681484128.4353552,-0.496587035297756,1.0783100404342234,9.469909721648232,0.007924586318412375,-0.06579814789466869,-0.1473892044782165
1681484128.445399,1.1707175241930712,2.1164783110284033,9.667742586434295,-0.018692326113963084,-0.05979510692413891,-0.1579122107982162
1681484128.4553616,1.6660062991898372,-0.41337918225741727,9.406978957202515,-0.019477901938263664,-0.04518839476002618,-0.1716504406690124
1681484128.4653633,2.3106501118074685,-3.999882787038495,9.185297227434274,0.03336671907184838,-0.026149059501084596,-0.1913057428359512
1681484128.4753811,1.5335934728318465,-2.52459682822099,9.010752605154918,0.08882017507053667,-0.007544621212986352,-0.1922333550214294
1681484128.4853098,1.2331604004238512,3.034095658068055,10.138429343490388,0.06815199524507891,-0.004349252657816634,-0.1841886651277068
1681484128.495433,2.330770012392636,1.2936270192687087,9.484937934041067,0.06932250246532928,0.024234320598988418,-0.1825976085423949
1681484128.5053475,-1.221860584054594,2.0594976779717187,10.495997099068727,0.054470270671885056,0.0068461171214182995,-0.1719775807618621
1681484128.5153415,-0.16424247433594696,1.65222355500664,10.07404572683018,0.0662110742787467,-0.0071504532937518624,-0.1533342313527587
1681484128.5253592,-0.6640639200939064,2.650667900580079,9.684583912406488,0.051799901692796455,-0.008997114676417447,-0.1472160380839828
1681484128.535309,-0.809387116047793,3.2442576188162535,10.462656445059778,0.02944020754555051,-0.025570599392307672,-0.1495263886212829
1681484128.5455554,0.15067623930268384,1.973198652577173,9.691903962456633,0.012511347440605758,-0.025876902292640835,-0.1573277425527099
1681484128.55536,-0.10025477601635314,-0.1510884182681569,9.224062543319171,0.024971148378164023,-0.021449566600669157,-0.1723891806363586
1681484128.5653346,-1.344389759175793,-1.02327454691668,9.594929087230033,0.05606960913109029,-0.04249787531604012,-0.1870394062757018
1681484128.5753863,0.0081761191953175,1.6126082050435684,9.25084284082437,0.06319097869536436,-0.037003589670398886,-0.2185107630252364
1681484128.5853283,1.0210695034798312,5.627211261779515,10.894747130951089,-0.008406880147704288,-0.025053730112363067,-0.2125066977500442
1681484128.5953348,1.9284681937633126,2.3251597282491416,10.757115465485175,-0.03030018531756924,-0.008584111229270018,-0.183300749635649
1681484128.605385,0.7119103563233908,-0.6062241700302771,10.1186759276489,-0.020993764820045807,0.0030259185170908027,-0.144696162319136
1681484128.615347,0.06453171335754944,-2.372688881242446,9.962548778519352,0.029369667208656226,-0.00307010124267377,-0.1265750688075546
1681484128.6253643,0.7585941401213249,0.617746692454212,8.778866177232437,0.037774350625129724,0.008125145653341177,-0.1065723162650588
1681484128.63533,0.5223001904196832,1.897782214477655,9.354274783905781,0.028322807795625644,0.022457702815660955,-0.1088900354265693
1681484128.6453726,-1.085900101155746,1.3559238405982112,9.80706136667874,0.012192544245836146,0.01459796803502966,-0.1213294800877097
1681484128.6553907,-0.32350425884120276,0.4867019187031405,9.504277528683588,0.020300600857273567,0.019337767666848017,-0.1247810286044601
1681484128.665346,-1.8738983273292005,0.45910343590036684,10.312197759761629,0.02178662403966225,-5.047986218877797e-05,-0.1353892844676498
1681484128.6754303,-0.0004245379007892346,0.4206250821737565,9.736404729983564,0.03382677028896926,0.001846527882234082,-0.1324631583451751
1681484128.6853411,0.5811015242204514,1.6629968434235642,9.658875720472828,0.02630092583625436,0.015867580681317023,-0.1274159413337234
1681484128.695314,-0.382498790687361,1.269787397191156,10.082142913249584,0.022770678334144888,0.020216789994958295,-0.125745282745314
1681484128.7053924,0.5620781203320684,2.5425134344489746,9.737507439229157,0.0009832982007219916,0.03488179378819728,-0.1224739265203002
1681484128.715333,-0.15567661536151958,0.21553696456940513,9.760205355673166,0.013034911850627178,0.04922843279772477,-0.1173885923385146
1681484128.7253656,-2.4956299075645005,1.0910353899184067,10.321312495935922,0.005908254831400917,0.0247333263224226,-0.111015715873194
1681484128.735499,0.0040922321347449135,-0.04840895053842208,9.344776133625368,0.03351614476046622,0.03821427894888289,-0.1026846554636481
1681484128.7454247,-2.384571901442371,2.341457020932764,9.956468321247835,0.019957660284564468,0.025527444621159304,-0.1075254839419845
1681484128.7553766,-1.6558802476432661,3.093409950561854,9.975208696277821,-0.011942069395834247,0.014623606632079527,-0.1205342125653747
1681484128.7653785,-1.5405258656313663,1.9081417215080254,9.559668967250708,-0.03189292305023644,0.012866370578487715,-0.1270600270986083
1681484128.7753596,-2.8232117944340933,0.4234155340486905,9.489596687005289,-0.025304565356117116,-0.01001935639872113,-0.1287231158971313
1681484128.7853663,-1.8003578195973828,1.5197864846898541,9.729322303999531,-0.03371468913537583,-0.022778140360148073,-0.120594077980471
1681484128.7953372,-2.1725385617725386,1.2944332497431719,9.972873872250528,-0.03440361061271774,-0.03828959534002059,-0.1129792940377715
1681484128.8053682,-1.5762816142937626,2.1436882104562978,10.487289298373835,-0.05273446585787285,-0.054452911177872675,-0.1041476887225631
1681484128.8153572,0.1279625533341152,1.7085016378447369,9.826365086632645,-0.06562508399467265,-0.0446852714745868,-0.0954491880297187
1681484128.8254108,-0.8320715121767375,0.8438304287030052,10.32220432732727,-0.06987878014280555,-0.05189384614957087,-0.0974054646253112
1681484128.8354244,-0.03502002070202866,-0.6796351242014871,9.761546917237816,-0.059344659413197665,-0.048386423852708665,-0.0959319707512382
1681484128.8454242,1.0269175552809018,-0.27501552520743894,9.234988604980531,-0.043589065479610084,-0.027387501776608186,-0.090150141394091
1681484128.8554046,-0.33394840914451124,0.7845764820028371,9.757824340753121,-0.04503067612072337,-0.028216036241464484,-0.0933380883693221
1681484128.8653736,0.8839896115372214,-0.1250438697226038,9.740185458288426,-0.04251632070939696,-0.012971969373360457,-0.0996574026107314
1681484128.875398,-0.43231830297211304,-0.48309111242405284,9.912918554812773,-0.03283598425551164,-0.008100859796544697,-0.1134363871573928
1681484128.8853433,0.5179556737270896,-0.5660290880278311,9.89614737390443,-0.02305379030144379,0.002856708502626316,-0.1343188744544509
1681484128.8953695,-0.48338021588035385,-1.1670828224008511,9.957323265812454,-0.005275910751928667,0.004501241307926826,-0.1558607828378204
1681484128.9054253,0.09508960528337315,-0.2701582246445741,10.137422465161228,0.007603636030846224,0.006061366525994704,-0.1648936879395965
1681484128.9153414,-0.25747629378393233,0.31422419651328953,9.587925617434177,0.016741833994733366,0.009799241821062413,-0.1651139718055251
1681484128.9253745,-0.47824701671275516,2.2067350249556665,10.058633894135617,-0.003991363699587062,0.009978085488341757,-0.1553446364163879
1681484128.9353278,-1.030129226635318,1.6351583605130304,10.147855589172014,-0.023567411021056632,0.0035756010886325478,-0.1661646526813033
1681484128.9453342,-1.9864586239544602,-1.1119775585015068,9.634731746906507,-0.004837531697355264,-0.013722954037385852,-0.1807480913161758
1681484128.955381,-1.5588245374144736,0.9569416793943589,9.45355795635234,-0.0016442679996475447,-0.026699882559802785,-0.1722246420144561
1681484128.9653385,-0.7345743433951755,1.417441325022167,9.480227024258182,-0.007836033748815625,-0.028441813068808514,-0.161861882781935
1681484128.975339,-1.2551219506439235,1.3835856955766366,10.017815775899265,-0.015343118126036788,-0.038629652589672166,-0.1709842395543578
1681484128.985375,-0.2546497297122676,0.3070458988321743,9.943254149952796,-0.0214697060241993,-0.035588647321252775,-0.18276842055316
1681484128.995393,0.834988308893126,0.33025305631247076,9.26604028921204,-0.004957536104023171,-0.01960147548533802,-0.1821522873401168
1681484129.005432,0.12781747384714956,0.27086324248152244,9.50421754577075,0.0002513607222133761,-0.012583612649828458,-0.1826613110064986
1681484129.0153887,-0.23513095439339005,1.487333819308058,9.670842779779116,0.002995631636111585,-0.007610981240819962,-0.1721804898738387
1681484129.0254114,-0.9927266370371138,1.435531570419946,10.243161284526689,-0.00549979850787914,-0.01545213217451669,-0.1650175761937621
1681484129.0353508,-1.024921437543895,1.6152792444415276,9.69519092834745,-0.01361603377515841,-0.025188003397676934,-0.1662241679191116
1681484129.0453606,-0.34085543820215225,1.4034649959678487,9.479865389424674,-0.020196093661407,-0.02606392415195017,-0.1804576229810241
1681484129.0553856,-0.5580810048420776,0.8441358242299795,9.240990221327783,-0.018541517905729353,-0.027885387414308245,-0.1774103355168823
1681484129.0653548,-0.9995150659431611,1.2512314167344554,9.568974560145787,-0.016153501744394286,-0.038705281858447224,-0.1681359421967986
1681484129.0754344,-1.2995969618141268,0.758759302712813,9.717878138408127,-0.007257921527923845,-0.05503477397865805,-0.1572662156581405
1681484129.0853264,-0.5126255897693527,2.4489090629603005,9.963311965246055,-0.019306205804943827,-0.06600753676531147,-0.148307920670462
1681484129.0953965,0.1974748013299743,2.4001184169103267,9.938463975222302,-0.04326433333296203,-0.06476108840416206,-0.1498524111270431
1681484129.1054664,0.7603298854690048,1.6240954194423938,10.0931032663551,-0.0550359721904444,-0.055994542993473416,-0.1555515688418868
1681484129.1153972,0.27098059932407437,0.5419675680609912,9.639998431171032,-0.058082857821022064,-0.050191483841498796,-0.1656946253537658
1681484129.1254356,0.6025635304165349,-0.3259909497084916,9.464811995990264,-0.04322312757970956,-0.04241875658726263,-0.1776732665061477
1681484129.1354167,-0.016367836517346742,-0.10117293350907411,9.597193946999415,-0.03405793209751811,-0.043020429979732266,-0.1828684967517379
1681484129.145391,-0.9654116174477809,-1.1348071387627414,9.66719519688806,-0.005008920152224481,-0.05743514763868241,-0.1863275480031493
1681484129.155372,-0.08217346277710397,0.8731228129704852,9.250541712653524,0.00511768663206702,-0.061028859888987055,-0.1817266505717757
1681484129.1654656,0.30888728318347386,3.0787037670667705,9.858616567522265,-0.018968820940058383,-0.05486089732757749,-0.1715536725282195
1681484129.1753967,-0.04957607465581735,3.0770048206212723,10.460751241976206,-0.05133689084435759,-0.06103150191548725,-0.1732405286788467
1681484129.185361,0.34482475524158673,0.953304550219085,10.330033536320771,-0.06030265686322412,-0.061747958635993964,-0.1799861204385284
1681484129.1953647,1.1811103124807858,-0.12114330852911497,9.802085680753507,-0.05174990478626401,-0.04757426061195535,-0.1691618722438339
1681484129.2054083,-0.07662948073269894,-0.9018399656118726,9.757981728159734,-0.025435471178570524,-0.05036071165279252,-0.1658682536839965
1681484129.2154896,0.2589898908209142,0.8352216037264756,9.689520268031156,-0.024541209836769145,-0.048888150453576466,-0.162911624884558
1681484129.2255564,-0.039370457879597205,2.0077705303280093,9.336849276148548,-0.034819023423138654,-0.04316495836177604,-0.1539231848477844
1681484129.2354147,-0.6948069438988481,1.9119916318806878,9.48035636780247,-0.05208644745719921,-0.0504025838559904,-0.1585154694079879
1681484129.245407,-0.10786645410829225,0.9044919676496268,9.78281903947253,-0.05227313361310477,-0.052952865935650656,-0.1567625564097884
1681484129.2553663,0.3105710945553778,-0.9651743810127363,9.767631362135328,-0.028965957506858514,-0.0472617675059529,-0.1547478747128967
1681484129.2653782,0.32749686905797337,0.42909597696963325,10.048179080328492,-0.016384096638528363,-0.046292406132611506,-0.1456273954867843
1681484129.2754183,0.537493493797669,1.8047078585761112,9.987268543326934,-0.027527257081757486,-0.03982780533659386,-0.1451730292796615
1681484129.2854354,0.08230138255321559,2.381142536823702,10.01363379488702,-0.047311549265525076,-0.033518866373975255,-0.1471372854470733
1681484129.2954187,-0.5531192238873707,1.4246571434784339,10.17836831380744,-0.06663068853843898,-0.03919016547899361,-0.1623087090014938
1681484129.305449,-0.28587745898753053,-0.34511818977942127,9.716298332540651,-0.05455979608516884,-0.03711245336666029,-0.1726639133452895
1681484129.31541,-0.4922841125213252,-0.726335310724996,9.656777079836889,-0.03951516401745365,-0.04226385662781833,-0.1843693119048599
1681484129.325486,0.46217798740721533,0.6170720179562685,9.487182927147062,-0.037645341077463375,-0.03633045514782396,-0.1892783206462386
1681484129.3355134,0.012616985829256801,0.3217789387265648,9.668080245307296,-0.0358113011846967,-0.03258905555259905,-0.1977404963731292
1681484129.3453958,-0.38544531538075694,0.1295485491299196,9.825688835663474,-0.029849634351397335,-0.037158521791083574,-0.1965780716895583
1681484129.3553717,0.2173178744962433,1.3151239386368934,9.64876917240686,-0.03539467470403048,-0.03303733725511035,-0.1957556169986251
1681484129.3654685,-0.37180932919450976,0.24246398018032525,10.21508246621851,-0.03467821205762655,-0.04002466120108589,-0.1947113436221603
1681484129.3754065,0.3652719838808551,0.6842497747049254,9.919816609350853,-0.03389427018969253,-0.036926037156360135,-0.1903347682713989
1681484129.3854113,0.10735636472943974,0.9609332957185981,9.988850151917159,-0.039911934278520494,-0.03214764374801482,-0.1843817245721343
1681484129.395442,-0.542112756223548,0.46654557474293235,10.158695717798567,-0.04266051539673647,-0.04390389050058162,-0.1867381047963622
1681484129.4054103,0.2778486555248329,-0.5382760441091798,9.86065407749035,-0.03304133537932448,-0.04106009012007678,-0.1932289016007903
1681484129.4153843,0.31366819688355296,0.5618078261707562,9.59349427544789,-0.04113600171119478,-0.032008010077284765,-0.204074532961798
1681484129.425419,0.517568299603913,-0.7411775498665183,9.760092675741639,-0.02970137297603636,-0.027485732494507448,-0.221324802613211
1681484129.4353588,1.0784445978921002,-0.8312967448504506,9.086396435326293,-0.018743207049801824,-0.007504928689241246,-0.2291394185781005
1681484129.445456,-0.03429934569280837,-0.7041236567200708,9.59097845645704,0.002068076768719814,-0.008767358048638964,-0.2269648474215987
1681484129.455417,0.01983092374555153,0.12831979173684707,9.256636041726182,0.015185044672439354,-0.00360541886091194,-0.2230298381804946
1681484129.46542,-0.8506321309776128,0.6627653116853184,9.658800541580574,0.012832533259576112,-0.00785372764985697,-0.2236634206532958
1681484129.4754276,-0.6674692283492903,2.031249264024719,9.746157519038082,0.0001714346214996668,-0.014449119965428912,-0.2196688961743835
1681484129.485423,-0.4462919747205628,2.460920418732747,9.856758141886345,-0.019262976082434807,-0.017420043983287854,-0.2065475892781738
1681484129.496333,-0.3794993061933982,1.3455874018951688,9.939106731522807,-0.025764154759241303,-0.019016747665030358,-0.1916026335715774
1681484129.5054245,-1.5030334667554648,-0.17469495381058447,10.102603223628126,-0.008534692842588055,-0.03423638477275156,-0.1807419818400863
1681484129.515391,-0.5025801307782248,1.783403420411179,10.116306267234457,-0.011638166733389074,-0.044338538381954964,-0.1721825760364059
1681484129.525422,-0.6875519755493471,2.079975578965566,10.281280959300956,-0.01971593479026812,-0.05296979666828362,-0.1708067220210555
1681484129.5353732,0.11401991427332084,3.0208287332024715,10.142714291940361,-0.057395458064386735,-0.052251135418803864,-0.1855386060237411
