time,ax,ay,az,wx,wy,wz
1681483598.7498682,0.5577692472550911,0.09224225159031726,9.805968264070598,-0.0010299193702398306,-0.0005328007739076047,0.0001924637431752
1681483598.759827,0.5343250098907399,-0.03506555302904886,9.771124575695799,-0.0008362058998904144,-0.0001260029830602847,-0.0002314734778824
1681483598.7699063,0.569758632039856,-0.030384705828354827,9.767016997707701,-0.001057115807960911,0.001106704885803078,-0.000925855016661
1681483598.7798111,0.43336457188148925,-0.06311818969998678,9.82707238827506,0.0008617904126996611,-0.0014015512632343915,0.0008764359477449
1681483598.7897956,0.5593950833998999,-0.0783697863067324,9.752431789393142,0.00224535435185858,-0.0005566500058992693,0.0008290898363579
1681483598.7998185,0.49679361442076286,0.16424967971609325,9.86926590221061,-0.00201452299209312,-0.000742909992306366,-0.0001636617857489
1681483598.8100264,0.5104733774503012,-0.05405465545794938,9.790744673108325,-0.0006361584872020487,-0.0014477354792192657,0.0006674369756605
1681483598.819837,0.5104777238878672,-0.1549326361565123,9.756685062871107,0.0018914603241569038,-0.0013221773211905443,-0.0005693573079529
1681483598.8298602,0.6713831509652322,0.1715692823281339,9.786455665591825,-0.0014792070879955277,0.0014900196064834151,0.000464017498913
1681483598.8397822,0.522717369978185,-0.12302877408236908,9.770095262469214,0.00042218000312454107,0.0016546785250564733,-0.0005924657493356
1681483598.849815,0.3580275355489788,0.05971579602583718,9.913294001004413,0.0009452357056257672,-0.0032269415418277408,0.0031905786559459
1681483598.8598473,0.6950719726850749,-0.03999393109862288,9.697099712659773,-5.798277462329316e-05,0.001428934437700832,-0.0001323751680079
1681483598.8739831,0.5072142829240336,0.07317408861444862,9.819930209242102,-0.0017302707586350882,0.0005691353275528789,0.0021594033419627
1681483598.879823,0.4481905497750567,-0.11944543413252111,9.811317223012816,-0.001822666310583269,0.0004264594907397831,-0.0003480688942122
1681483598.8897767,0.5301652319328565,0.05047679884567812,9.817822457254435,-0.0033500340301020055,0.0005058022584447712,-0.0005660005885634
1681483598.899798,0.47377797464613275,-0.28643964524332943,9.745846702809837,0.0022908019487517754,-0.0006393323542286812,-0.0009079831692848
1681483598.9097867,0.6278245249841136,0.07222285262591652,9.779554502336312,0.0006483179369882528,0.0014326632320462046,-0.0009355566039208
1681483598.919936,0.623153684296042,0.23609377359418124,9.814461395394437,-0.004003442265136378,0.0031380901838085158,0.0007303928100977
1681483598.9298315,0.4215022349471565,-0.2597814762019766,9.762283947108195,0.0013792039157640588,0.0009170982655554627,0.0012649732193917
1681483598.9398456,0.3773560437600999,0.012105124250128304,9.87073651057322,0.0005946852613879311,-0.001981570569271537,0.0008473675657537
1681483598.949802,0.7559406497482546,0.02843112795549096,9.68840575590382,-0.0009505793239550104,0.0033746421116141894,-0.0006312129593912
1681483598.9598408,0.34086909300890506,-0.01007260395217143,9.899467305932907,-0.0002844909596712722,-0.0009403516080962177,0.0006938846159268
1681483598.96984,0.5347086385364863,0.04643075780387704,9.824140051423809,-0.0025479830482443297,-0.00021690833398767414,-0.0013732744886997
1681483598.981391,0.6479547250173969,0.00821410819169233,9.740615246821006,-0.0008414271630252659,0.0014408483982724413,0.0024686275242369
1681483598.9898136,0.46824047200889424,0.09584743745662452,9.857912595517249,-0.0032691832360287427,0.0008992012775810982,0.0015898398301455
1681483598.9998393,0.5036669602452686,-0.1336531175515886,9.749252460008254,-0.0012869724189137474,0.0011946052944182307,0.0003764827229555
1681483599.010012,0.47381164109557,-0.04515880260750912,9.81628593280935,-0.0010425953192842157,0.0004246014767159971,-0.0002504612825337
1681483599.0198622,0.4975380518470454,0.009366882359930568,9.820533812172274,-0.0008239137917897048,-0.0004851226814448365,0.0004632879240911
1681483599.0298803,0.4909826395299315,0.06351974253651041,9.852481892227736,-0.003152592114290107,-0.0009481900701058955,-0.0011821677948806
1681483599.0399354,0.5368899874682007,-0.20739686646408656,9.70910194055682,0.0016131873364982191,-0.0009377499286831507,1.73767289620133e-05
1681483599.0498724,0.5678677576515874,0.13300422706729811,9.816964023889955,-0.0021072798510432503,0.00028153376701058676,-0.0009273607324335
1681483599.0598278,0.5314709381209388,0.007126839226593136,9.795144043253266,-0.002331158912472758,0.000522568768464543,-0.0007783472578499
1681483599.0698495,0.42574853992479506,-0.1263400079287696,9.816153896366943,0.0003164034643763699,-0.0017431558063449337,-0.0005138635210219
1681483599.0798686,0.5991211272624185,-0.032062173048331005,9.747408983432617,0.00026947430588161357,0.00020479583416358873,-0.0013654590624842
1681483599.0898318,0.4085291146732645,0.0476991604154178,9.875930750518766,-0.0007341425563732723,-0.002311652474629433,-0.0007798383052918
1681483599.0999098,0.5853191842299026,0.019212950093311743,9.77269730665721,-0.00016005824595208105,-0.0018560223945785625,0.0016188839322662
1681483599.1098666,0.5931195070785443,-0.01407777084138135,9.768507739188912,-0.00178243584214476,0.0006417562310373015,-0.0014325205742839
1681483599.119807,0.4526633406445678,-0.05028278578274729,9.819632181779069,0.00014988706107850588,-0.001654851661385851,0.0006108139601078
1681483599.130006,0.48085118113647396,0.04915494471222868,9.839654619432798,-0.0016270776720885562,-0.0020352059259547695,-0.0006304562597993
1681483599.1398473,0.7162574593016678,-0.07379924884464074,9.679620637022111,0.0011508697487267255,0.0009416643193542341,0.0021839968936059
1681483599.1498733,0.46925983185659176,-0.041412355415324745,9.81614779749452,0.0013829616108228572,2.4116505075385643e-05,0.0013730037931476
1681483599.1598823,0.55969568714821,0.012539438097440783,9.78220260220827,0.00029850847352366083,0.0011435897883513649,0.0009666136425461
1681483599.1698613,0.48532512796019533,-0.06642193759066443,9.799657861428171,0.0006144275003173612,0.0008462980253526232,-0.0007902632973614
1681483599.1798298,0.5726215401088831,-0.044341322553723736,9.757529013004136,0.0023384826424004954,0.0012892428764055108,0.0011461321224
1681483599.189871,0.373053119039928,0.027376302695998674,9.889611276344372,0.0009925473897568358,-0.001571786321935711,0.0001500057947363
1681483599.199871,0.5833677059883275,0.019082367226565904,9.788818698792097,0.0007653033975820229,-0.0007369585658702101,0.0011308639328003
1681483599.2099054,0.5705672899573885,-0.012906822890704304,9.789485530092819,0.0008129882303399799,-1.7231305931002687e-05,0.0006655605935033
1681483599.2198403,0.5377233793775148,-0.07539486417376921,9.75040066756214,0.0006363960605659633,0.001307134654359793,-0.0018866059876505
1681483599.2298744,0.5316599264816966,0.03919053090355178,9.812707299639287,0.0008427773840935058,0.0005143831819473754,0.0009833429317463
1681483599.2397904,0.5619456329105781,0.11948183162923558,9.809726101134043,-0.0026526707701277847,0.0019627532703315295,-0.0006151867605272
1681483599.249936,0.46489587755300804,-0.059172512387318674,9.806753258368865,-9.558090030243733e-06,-0.0002545356447975463,0.0020916259341415
1681483599.2598712,0.4026224521601946,-0.15928962933770693,9.809276912585942,0.0009422506438243928,-0.0014946723059399713,-0.0016143024008247
1681483599.27002,0.7085876912950982,0.08131223379013788,9.727101413395067,3.4007850275615285e-05,0.0017601176459534815,9.598151841277796e-05
1681483599.280236,0.4624197954613113,0.18018811442860022,9.883894451308816,-0.003523252250209831,0.00038212425636103485,0.0014162119583001
1681483599.289837,0.4471744234603026,-0.3948721889325476,9.705501184121315,0.003015002485827414,-0.0004307240710852932,-0.0013695505953851
1681483599.2998743,0.473313657955451,0.10949940687276133,9.854806014769547,-0.0005560576250681466,-0.0006598798787634617,-0.0034061821683767
1681483599.3099334,0.6717025534721933,0.07994783100638456,9.736741203234992,0.00017296560120392605,0.0010146846319978263,0.0012023819395348
1681483599.31989,0.4229742030510862,0.00043739942407601735,9.849195050405289,-0.0014304011548067063,-5.7472722496144524e-05,-0.0013896727509323
1681483599.32996,0.5031325044133241,-0.048188903167416676,9.793254504910289,-0.00042642928777638435,-0.0004597673009126244,-0.001414615199295
1681483599.3398588,0.5442434626453749,0.11822142576738306,9.83982632360836,-0.002158678129582112,-0.0009533969019023085,0.0004174625460531
1681483599.3499162,0.47112145857530907,-0.06833347350935089,9.799722357466322,-0.0019724124363413704,-0.0013974432986927296,-0.0014522532041642
1681483599.35986,0.6438576715156475,-0.14165008384396996,9.682354935031684,0.0016887950374856252,0.0006764295013180561,0.000649173623557
1681483599.3699224,0.5199434153586159,0.0002271129819011939,9.801998682266154,0.0006810658295296311,0.0010266402040245484,-0.0009321831207249
1681483599.379866,0.4569715866259798,0.1822877675917636,9.904239324709112,-0.0021959316481269552,-0.0013356166748249106,0.0012772708392244
1681483599.3898396,0.52731529374493,-0.3568149001635252,9.661537685956345,0.003630803002796526,-8.688454529685126e-05,-0.0016221127047661
1681483599.3999722,0.38999067064010384,0.15674262429881183,9.916667076754592,-0.0010596910274549489,-0.002031510256591547,-0.0037932281888548
1681483599.409956,0.7318276810087798,0.10291642972460024,9.7384746461882,-0.0017067925037906697,0.0010441057119585087,-0.0005920978769186
1681483599.419871,0.458281517971203,-0.18123131581331284,9.785188194560462,0.0014697382030864324,-0.0002940201457618405,-0.0015930808189783
1681483599.4298716,0.4580840617576134,0.06305268203324907,9.8528405801421,-0.0005787705891316439,-0.001444041352358412,-0.0023522852029178
1681483599.4398975,0.6142752106675634,-0.04530890387523004,9.725364186423429,0.0008118785370299245,0.0001228462420202318,-0.0008729563600841
1681483599.4498513,0.5665657249940359,0.1706925761820069,9.835108735370081,-0.002068518612746269,0.0006104919043835712,0.0009088408510674
1681483599.4598694,0.33945500546625845,-0.2807139634599183,9.801426434569597,0.0010439510212129693,-0.0016082867836027877,-0.0040599575772408
1681483599.4698584,0.5970075670675694,-0.012371237975132121,9.759103232437523,0.0015897215121134047,-0.0004158350739055853,-0.0031167061574283
1681483599.4799085,0.5361318642992722,0.17009163792958923,9.84036643995521,-0.001542532975945114,-0.0006054526291592925,-0.0013859411742064
1681483599.4898367,0.6332630443443027,-0.09991216711346439,9.712496303881741,-1.3280438005051708e-05,0.0017295526777240547,-0.0018281405832145
1681483599.4999428,0.4335936230888086,-0.02039492684864065,9.837154305417975,0.0009068529087504751,-0.0005633378926817607,-0.0006013962015036
1681483599.5098617,0.6404138942120284,0.07938945799070807,9.761970908683175,-0.002066658602982092,0.0025249199906895144,-0.0020985857158425
1681483599.519905,0.4407904823340288,-0.09348104321524194,9.808088633084042,0.0007392232453066668,0.00013178115800382273,-0.0001815671607378
1681483599.530037,0.5278866168144062,0.06790082093904,9.822244564364956,0.0003905450219915773,-0.0006959781074129661,0.0024123620783452
1681483599.539899,0.5287376848926935,-0.14888438284873345,9.749229242539695,0.0012082423846273116,0.0004946307999339013,-0.0010260774328831
1681483599.5498698,0.581402313053276,-0.02515359338476419,9.756183087489932,0.0015092145894384562,0.0017426112991603658,-0.0011762143153223
1681483599.559916,0.46458504419415025,0.1361201072629623,9.887966912045702,-0.0010396144367161438,-7.273140589362636e-05,-0.0002012967638198
1681483599.5699463,0.5228519500504397,-0.09907750380222669,9.757100236754235,0.0011348415305733786,-0.00022768933029279905,0.0003373804461684
1681483599.5799017,0.5306052366225318,0.08009968690858969,9.822365236029329,-0.0014672709973961127,0.00036089136643902784,-0.0007213426328722
1681483599.5899274,0.4687988475841428,-0.1338711826661101,9.794339366819369,0.0005153601393206393,-0.0006825512478924974,-0.0016765086952123
1681483599.5999427,0.5466889618664499,-0.024229736000629037,9.777327743918262,0.0006736540407175868,-3.586406434057448e-05,-0.0017916378605637
1681483599.6098971,0.4335937682008606,0.05749064175475489,9.87944875438078,0.0002858593786215158,-0.002589916205781089,-0.0002333413617212
1681483599.6199462,0.5672799382282179,-0.02076362133367652,9.77020829223735,0.0009295776702312295,-0.002108239438779005,0.0007613025914419
1681483599.6299677,0.6023778453110531,0.05986431118748654,9.776181085813166,-0.0006030020177180749,-0.00045643642861480663,0.000864883880737
1681483599.639997,0.48528838158844323,-0.08506431456943266,9.790941064898336,0.0016705455241009329,-0.0017747985249890966,0.0019705467234838
1681483599.649891,0.6004385050628993,0.052218594402077184,9.791059376829406,-0.0006112031360960135,0.0002979429841364454,-0.0001767104299265
1681483599.65994,0.45553766014706837,-0.15147129373451687,9.781994183734572,0.0017204662133148139,-0.0007857353316740829,-0.0011210704728487
1681483599.6698573,0.5890370289671795,0.18526376397671682,9.8298558221795,-0.0014765855169062757,5.876785379410728e-05,0.0007959704922054
1681483599.6798823,0.518472979207106,-0.10369741282928091,9.76418040278642,-3.862034777468297e-05,0.00037690319556566636,-0.0001767375546965
1681483599.6899188,0.571087271095535,-0.12253336312505302,9.732237195926425,0.0021276380131400718,0.0016215391428568249,-0.000389411583868
1681483599.699858,0.36903429245697156,0.1532727789171359,9.942553285201248,-0.0021404424525091285,-0.0011847411063379163,-0.0017659149638835
1681483599.709898,0.5281131296005566,-0.04885946473052807,9.77367865490117,-0.0007203392756005383,-0.0014231680824701603,-0.000345845943642
1681483599.7199273,0.5435164653935144,-0.05922659362564328,9.770165344225788,0.0011195760807507784,-0.0014466201016343325,0.000950558805513
1681483599.7299929,0.5103665375243613,-0.019461670433222205,9.807886281311047,0.0007135184445532954,-0.0015986104912892665,-0.0002888460916924
1681483599.7399044,0.6938407337490369,0.17377069614918497,9.771681356742125,-0.0027003461842104158,0.0018174798606960258,-0.0001085258595172
1681483599.7499125,0.3160267982431312,-0.17870048549902975,9.838274007643403,0.0002456182848488357,-0.0018720386939354175,-0.0012726965400848
1681483599.7599733,0.6890760365147146,0.028743787717369056,9.711545892971145,0.0007753629893920682,0.0007881832252612898,0.0015667331640965
1681483599.7699168,0.4811816018121991,-0.04932225709553744,9.812933356111845,0.0017651652565292865,-0.0002530347656936826,0.0017634362989578
1681483599.7799551,0.6980539016141948,0.103607309900003,9.740390224878364,-0.0014359768588062323,0.003866016858485376,0.0007892445969868
1681483599.7898986,0.42444514115526755,-0.05519287725249982,9.832030914439988,-0.0006503309580680971,0.0019236428027553803,0.0005806153599646
1681483599.7998748,0.42512013908555246,0.05748556076453569,9.86527653139967,-0.0016241066445884863,-0.0003431892653960237,0.0010932197288152
1681483599.809916,0.42544167024605634,-0.1484214399579541,9.808345707279845,0.0005082562371654511,-0.0020840126365719736,-0.0002813966752487
1681483599.819941,0.6560202500041282,0.11139177065291851,9.771175363463573,-0.001619662277481954,0.00038845648044927945,0.0004524938954513
1681483599.8299472,0.4161453729246155,-0.02365373364482604,9.85159041429815,-0.0013406097309453932,-0.0019420731266031367,0.0002338103909518
1681483599.8399196,0.592640911653068,-0.11469710931543259,9.726874936867828,-0.00010935530399008283,-0.00012115165765084507,-0.0012141882948104
1681483599.849908,0.5389200897261072,-0.012879334435284478,9.801179407663907,0.00026983475843553637,-0.00020161796962094898,-0.0009284699376199
1681483599.8599,0.5718804055922475,0.13567874487283849,9.817963546519248,-0.0016889259573275993,0.00012433065335295564,0.0011818897869911
1681483599.870721,0.5661559832294959,-0.16317018766691735,9.730589698784597,0.0008226465629998874,0.001542562086754254,-0.0004881529643658
1681483599.8801315,0.4244204139077981,0.12716691570011024,9.910321169362234,-0.0011912226483031484,-0.0010435440897966354,0.0011062730587095
1681483599.8898933,0.5525394437006298,-0.1435152705674901,9.733150152385782,-6.135534398323824e-05,0.0008213318976588773,-0.0017372472252223
1681483599.8999994,0.5411367275403258,0.03788261672779007,9.810889112962773,-0.0011282617180882824,0.0008857921883437393,-0.0013684306799892
1681483599.9098718,0.5549628484530114,0.08743994411864868,9.815134931361762,-0.0019277301994473257,0.0006428885665670819,0.0011312243546366
1681483599.9198885,0.44403173742699825,-0.20727728480604346,9.791102415743655,0.0018720726149695798,-0.0009205917187462576,0.0001280052779715
1681483599.929935,0.6036723481523392,0.06661899317245953,9.782547772434095,0.001564736282819907,2.975976776724331e-07,0.0028124673950027
1681483599.939973,0.46195434867640706,0.05672742434508692,9.851567865229761,-0.0016114357420275501,-0.00024334877422119445,-4.669663435702604e-05
1681483599.949905,0.6382529161558408,-0.0918952691031702,9.706988438507395,8.31697000660955e-06,0.002285739973580874,-0.0003100993385065
1681483599.9599798,0.44697726157728374,0.12305396906896625,9.89312767164217,-0.0015835112911010297,-0.0003182353006083202,0.0020405871287461
1681483599.9699552,0.4160718373627879,-0.3311646552924648,9.74784308466158,0.0030939734389161277,-0.0013661257454396715,-0.0015707211609456
1681483599.9801226,0.5349695607907686,0.14336846764860864,9.8436202178665,0.0009012861338124605,-0.0017815179268082866,0.000333671454015
1681483599.9899385,0.6198195975968162,-0.03736568505301203,9.745524784526621,0.0007157442214113395,0.0004950120337933034,-0.0009765310719135
1681483599.9999368,0.5647218477380218,0.151330322918673,9.851298981755106,-0.0009092170358332504,5.802371922101358e-05,0.001645327701723
1681483600.009933,0.5238527698495637,-0.07452086077013045,9.7625821309267,-0.00019024366437872824,0.000546782084426779,0.0007758276729386
1681483600.0199225,0.38783114754780673,-0.11485713653919306,9.831872193747804,0.00018601368110517948,-0.001229438300044023,-0.0023783620021763
1681483600.0299523,0.6075188242981091,-0.10667144664436923,9.71711712443564,0.0013274536947771448,0.0012247821940067878,-0.0042022599413517
1681483600.039892,0.4529909038385194,0.08876342934362576,9.861857641360361,0.0019339230666703114,-0.0019443008920840346,0.0007281561225194
1681483600.049908,0.677634417354507,0.012670480946880246,9.705776232914737,0.0013285399996818585,0.001782465372321059,0.0001756611705299
1681483600.0598917,0.43928831197332324,0.12855730035803833,9.896811909711605,-0.0018170747169698799,5.691734364224838e-05,-0.0007101579144123
1681483600.0699031,0.5541126602038079,-0.015687423723392623,9.773873916368855,-0.0008585618608940935,6.287266820849951e-05,0.0008432778372902
1681483600.079878,0.5062434214799526,-0.060632597122197165,9.787020299706688,-2.929809191920339e-05,-0.0001964035898096092,0.0007408459746752
1681483600.089913,0.5845992586895497,-0.024041427205784945,9.748997808584354,0.0007868953816173974,0.0008980839762814151,0.0019686808187056
1681483600.0999017,0.48652636526967125,0.08520371553031442,9.83284226361661,-0.0008581826120131524,7.77632366144843e-05,0.002848975007097
1681483600.109922,0.47576474799427493,-0.014240247294400044,9.821809985798797,-0.00113385860232279,-0.0006773495310503989,0.0022398904507521
1681483600.119875,0.41530689288943495,-0.21050620570097872,9.774348891347168,0.0008837846376288567,-0.0013117714176392244,-0.0022081078536335
1681483600.129963,0.5922695337163486,0.12976450504668266,9.811714529890292,-0.0016084493949128224,-0.0002664417244415356,-0.0010063343256238
1681483600.139966,0.5613204525994081,-0.013389498213675351,9.770011518287447,-0.0005076399001551472,-0.00014834954560478006,0.0008708357886884
1681483600.1499186,0.5059420133292026,-0.03856977428767352,9.804993676108356,0.0002538222511467224,-0.0009303016747149405,0.0014292588853517
1681483600.1599517,0.6274431842041377,-0.09964839255243818,9.712629250064383,0.0010715142018170667,0.0016856031843987841,-0.0001797062618184
1681483600.1699069,0.4783373617312422,-0.01322230234978484,9.817086999324337,0.0008692146841418022,0.0008794677549484104,-0.0005671319126609
1681483600.1799948,0.4097850437621155,0.010217919667492643,9.869851061796014,0.0005723347617272116,-0.001616118100521208,-0.0003525450633365
1681483600.1899197,0.6843013726115804,-0.0035874893961482697,9.711842718922547,0.0002489686809822605,0.0017392523997483743,-0.0007876586209509
1681483600.1999838,0.5416648483421793,0.032883109026720286,9.794355828338247,-0.00015596675108902336,0.0017995952072850571,-1.46782299030332e-05
1681483600.2099562,0.4423314475476357,-0.10463299104175179,9.811792544346638,0.0010510300644106588,0.0004309176741045686,-0.0013177816330913
1681483600.219988,0.6202545323001855,0.11943963744882655,9.784069416657278,-0.0008868821295832866,0.002029085119960077,-0.0001528620527583
1681483600.2299492,0.35096965452841716,-0.1029239388337254,9.857157857371602,0.0012991348471079636,-0.0018001502347330675,0.000620126661985
1681483600.2399385,0.5390078769541143,0.07770027201843434,9.821419766730955,-0.0008168305823591509,-0.0012100652606777567,-9.997329148386996e-05
1681483600.2500372,0.5787649270808225,-0.13984371363066542,9.729484834527677,0.001402337975726934,0.0003001890893630961,-0.0011758036020669
1681483600.2599342,0.5965965236355659,0.09575475600900518,9.801936751052034,0.00012529175388868754,0.0010467185095982046,0.0014124898184913
1681483600.269935,0.3654911251753496,-0.024938412772175192,9.879158376484419,-0.00013286876218355777,-0.0019826847100582715,0.0001622857485439
1681483600.279967,0.564316907300646,-0.025275998949521636,9.772186030827367,-0.0006547782053231481,-0.0007551993764251215,-0.0009809990919653
1681483600.2899497,0.5674535090658128,0.023319733784097234,9.787003677095917,-0.0014519996669287113,0.00015338877921694391,-0.0008785575668785
1681483600.2999072,0.4306226708938595,-0.07524808531367717,9.823033277335401,0.0010204867868052545,-0.0026945818752523655,0.0011707130720846
1681483600.309899,0.7197121374122204,0.09824410778705418,9.718025009925954,-0.0017503977508716874,0.001975058668635348,0.0001276307698812
1681483600.3199325,0.45664151116338425,-0.07371942434950314,9.810743188279112,-0.0016077350015632104,0.0014404801222032812,-0.0019212609663132
1681483600.3299828,0.4039567700370463,0.07232257303866554,9.894420025579683,-0.002709274075396245,-0.0015166486937025737,-0.0006926702375981
1681483600.339913,0.5110229614560985,-0.12783142091732594,9.767225886150348,-0.0010921198790988364,-0.0012324234955319036,-0.0021291407797012
1681483600.349945,0.4341823313047491,-0.09896416703486534,9.823353489559928,0.000979500029550622,-0.003327903919327636,-0.0014760943635824
1681483600.359913,0.7364138301112143,0.08640919516461955,9.714953025620348,-0.001070165848547746,0.001095520598375084,-0.00132111995886
1681483600.370042,0.3306455410532021,-0.05690469030762676,9.889366321768481,-0.0011014408364052237,-0.002574275937951925,-0.0025597803800824
1681483600.3799143,0.5371660236834161,-0.05321461808546693,9.77595220327363,-0.00019803291595310655,-0.0024293507258797776,-0.0021112561266395
1681483600.3900273,0.7356061166137179,0.03123772805355745,9.715139529760874,0.0003365248719518992,0.001083226915049279,0.0003601093736019
1681483600.3999517,0.323118821408721,-0.11279244398564443,9.870247110137885,0.0010908860886384415,-0.002317207511107268,-0.0021760882850263
1681483600.4099329,0.6258919900346999,0.14007630916904235,9.789842848914287,-0.0005720794492861955,-0.0010416847493465553,0.0007631732110407
1681483600.4199915,0.6290963882539676,0.11782826010898198,9.777043806429436,-0.002605352581810119,0.0006842391205627899,0.0020066650427419
1681483600.429942,0.5656156892957639,-0.18443678308107228,9.71058352058865,-0.000297561363069229,0.0024008669302731573,-0.0004575885872814
1681483600.4399333,0.5493343483491911,-0.05508929694276579,9.77717035559465,0.0013635641792203975,0.002422481281579118,0.0010332809138585
1681483600.449974,0.452585514773397,-0.032656993832249966,9.83180726392908,0.0010603603402224437,0.001332071708491866,-0.0004371110157567
1681483600.459949,0.4342408527144537,0.1721386013221557,9.907927714613285,-0.002116958422572646,-0.000846106626161742,0.0007352326024797
1681483600.469947,0.4263331339461689,-0.2249361194872094,9.769071005423799,0.002081442953317083,-0.002654013733565568,1.739046596998888e-05
1681483600.4799292,0.6627790032004712,0.0023825542769239493,9.724032595220095,0.0008412780502820426,0.0007416067940629586,-0.0014939860015634
1681483600.489953,0.5811049161621727,0.1386217135027447,9.822987065175687,-0.0020443100012825263,0.0015585839375206337,-0.0006546583067152
1681483600.499989,0.45564169617012285,-0.1419895825927935,9.792625207874039,0.0011225620202020244,-0.0003070556249486619,-3.997621065860075e-05
1681483600.5100276,0.5171776771153994,0.04872973509117983,9.821214804791415,8.356571297860686e-05,-0.0005342915441692582,0.0004215680487927
1681483600.5200026,0.5069018755772726,-0.010798079201158156,9.80532700626224,0.00010219887800920907,-0.0008926664004982433,0.0005895794561606
1681483600.5299575,0.6549873077924837,0.031106863477384623,9.739485682399506,-0.0005754160987165433,0.00182529324219314,0.000906204218651
1681483600.539944,0.3859585043281629,-0.16633999266846436,9.826163327758234,0.001652637375864809,-0.0006419641026063875,-0.0007560290436718
1681483600.5499763,0.5255687799553497,0.04069963076760734,9.812321789505162,0.000962364794353631,-0.0009347666504321953,3.972067092622238e-05
1681483600.5599406,0.5979265725165913,-0.06401032296125506,9.74958838020692,0.0012086018787202146,0.000931990824968991,-0.0011341064277563
1681483600.570007,0.4101763219894865,0.08850001184189246,9.898840283060077,-0.00035527406473722094,-0.0019387329355814579,-0.0002065143821287
1681483600.5799403,0.6819799470775252,0.07025250997501603,9.738805821713537,-0.0019076056721678795,0.0011968451081185725,0.0001734740758788
1681483600.590001,0.44242087855097056,0.0928402070521758,9.873447339582912,-0.0040541109664603186,-0.0005983825228584884,0.0003262037603657
1681483600.599959,0.49445194726177505,-0.1698314633317774,9.76160941163693,-0.0011055406635617898,-0.0011485989697016651,0.0001172102015938
1681483600.6100264,0.5993154580022774,-0.123012425923357,9.72166299396169,0.0022993716361550793,-0.0003346169728350733,0.0022182824282448
1681483600.6200864,0.4845941269311744,-0.11036922172410728,9.78122704957363,0.003553669017183611,-0.0006181068391743433,0.0005079574143987
1681483600.6300218,0.6026466089256083,0.14219716001312518,9.800665096242394,0.001092390129494076,0.0008146217532775662,0.0017816797731451
1681483600.6399703,0.5078188668114476,0.06442849803048752,9.834737058503771,-0.0015712036689520367,0.000990466315239868,-0.0001375972100991
1681483600.650019,0.36687449597792055,-0.03128022085898925,9.878295362828906,-0.002045798809321129,-0.0019614544746113455,-0.0017469252965871
1681483600.6599538,0.6040520280593668,-0.11722364325281605,9.712480669016502,0.00014205797073452508,-0.00030038343791197636,-0.0013207732740316
1681483600.6699257,0.6935731370965547,0.1607773581890356,9.769369648816966,-0.0013342859073199056,0.0019303518654616313,0.0025788886664908
1681483600.680092,0.43120992183707035,-0.07502027629825775,9.834457432400418,-0.0007691439817082566,0.00018766628878014125,0.0013506471255336
1681483600.6899755,0.5672453985404355,-0.14198870735501432,9.73674932429222,0.0005537180615959317,0.001728441950320682,-0.0013430996372822
1681483600.6999123,0.4939494740833763,0.16191572640702195,9.861038771903026,-0.002633293958171363,0.001105195685992321,-0.0008711090817574
1681483600.70993,0.4755327172485117,-0.07122059212839561,9.79393701700563,-0.0008231703797077085,-0.00027612877145348995,0.0002516964409973
1681483600.719922,0.6129343413035718,0.03716354817842065,9.766655610255098,-0.0006961228465318776,0.0009755600255709542,0.0022708175779793
1681483600.7300491,0.31322294588102223,-0.11174524285036871,9.882464631315985,-0.0007557528805499343,-0.0023216906177219044,-0.0018054135184261
1681483600.7399294,0.7111301020329501,0.10215968106495375,9.731565980188787,-0.0012329413263244028,0.0006220343725156708,0.0013163839426364
1681483600.75003,0.46674216158611553,-0.13735496946586315,9.782857376815452,0.0011493684243373662,-0.00040612347929141026,0.0005810036632705
1681483600.7601457,0.5812136834178455,0.08965900635977173,9.817236874577798,-0.0010962442960483355,0.000663756123951262,0.0004636645276572
1681483600.769968,0.4849535833386926,-0.0353589421525618,9.809155032065092,-0.00164234119785825,0.00042981133353347346,-0.0010789842385325
1681483600.7800317,0.5371673889968763,0.09654094207588933,9.823677684814253,-0.0022074918598273038,-0.0004817851167417644,0.0021720904583584
1681483600.7899525,0.5472083537474446,-0.2538837060231527,9.691749543448967,-0.00023199654577665498,0.001929602514675728,-0.002843288941634
1681483600.7999675,0.5116218323655877,0.09168087522283529,9.835483194565297,-0.0005694692649227585,0.0004197440223267488,0.0003455639776315
1681483600.8138783,0.461760767464624,-0.0878654858871786,9.80743979440472,0.0010312861235955708,-0.0012730190431468505,-0.0005283823742989
1681483600.8199594,0.6572237825277787,0.2261626398146927,9.809102906882341,-0.0005806488700133614,-0.0005585111861220813,0.0020085430547137
1681483600.8299935,0.4581720955384055,-0.11868745003936161,9.800020142228266,-7.809518647806803e-05,-0.0008829592380681985,-0.0012764120514962
1681483600.8400106,0.6394384401859817,-0.006151535227427245,9.736182306684425,0.00027764902790874144,0.0011994574459438497,-0.0002922010648522
1681483600.8501637,0.6979755312743312,0.04809000093006752,9.716712428700918,-0.00026437420349615455,0.004450513358656081,0.0009378759964842
1681483600.8600576,0.24256084086054977,0.034200136054132003,9.963219135659218,-0.0008477486276194934,-0.0016932373279750672,0.0017406851653017
1681483600.8699949,0.683635072567501,-0.1054035644877654,9.670219712851429,-4.493581676947288e-05,0.0024153892478824793,-0.0003309437347102
1681483600.8800046,0.32742538595675236,-0.1262760341087162,9.874814468880652,0.0016272762121233965,-0.0013992757571291794,-0.0013688416260752
1681483600.8899453,0.6758665280643636,0.24790707002253468,9.804777441856475,-0.0028199387507080523,0.0013052390887901087,0.0007389930502053
1681483600.899936,0.389237810262453,-0.21195518039376568,9.80722533943186,0.000511966583163462,-0.0010148545438945734,-0.0008767002768341
1681483600.9100313,0.584496769877295,-0.06605970485515175,9.74654454745426,0.002282235674046586,-0.00021205566597895593,0.000215557050566
1681483600.9199736,0.4622303645904409,0.09831295610382187,9.860628868505009,0.000285855037387989,-0.0017874777761165838,0.0011454003647908
1681483600.9300735,0.5912187232198117,-0.06680877825551698,9.742787853269222,0.0006125856166092179,8.560235625031179e-05,-0.0003678089746732
1681483600.940091,0.5551347567080409,0.030560954062929323,9.790423577307786,-0.0008477387025946527,0.0010429757361148037,-0.0010175313841078
1681483600.9576814,0.553860314839906,-0.05364250502582447,9.77040847434811,0.0007757127372697363,0.002134519438203317,-0.0015710797201368
1681483600.9608276,0.4794227647049996,0.7947498932626003,10.11807755941595,-0.003170469399259031,0.0008377305243120114,0.0009837452048909
1681483600.96997,0.542522231615766,-0.24131142358789942,9.7122494213518,0.0009537951935697544,0.001228515805994616,0.0006536450778607
1681483600.9800029,0.32696495670942355,-0.08055364654850056,9.868728668835992,0.001941006119773152,-0.0024252514213709106,-0.0004449320299077
1681483600.9902017,0.5944499109395054,0.14038327944546858,9.813537460419695,-0.0006972425864891367,-0.0014458715991783016,0.0009159123833764
1681483601.000046,0.5575436763035561,-0.16048850571669127,9.727819868832935,0.002044926584217117,-0.0005823383934208382,0.0001745790901135
1681483601.010007,0.5074085803324402,0.19402760015224835,9.871408106692568,-0.0014840295857723512,-0.0013203282898198105,0.0015100929081622
1681483601.020007,0.5499627054313155,-0.19380926584827296,9.718043683913384,0.002056843620831011,-0.0003439020875665721,0.0006935125525582
1681483601.0299895,0.41995121600943014,0.019094836169928374,9.860992499539465,0.00019382293251494798,-0.001819888657109152,-0.0015349609352174
1681483601.0400927,0.6503841060603687,0.13171884226618005,9.783040402932505,-0.0011994195835432035,-0.00034654252953398494,0.0017090277356568
1681483601.050064,0.4501463702040203,-0.12161920999755772,9.8004852369595,0.0003100831357603666,-0.0014268725649715798,0.0001898638397928
1681483601.069373,0.5734328563804851,-0.020979931261901022,9.767139461699543,0.0009243795472988473,0.0005475277719328597,0.0006830795860391
1681483601.0703356,-0.19744725703570976,-0.6656412832599173,9.953708631009691,0.0012060027137510635,-0.0002675672099521501,-0.0012451289262149
1681483601.0799794,0.598200865277189,0.2526729187798061,9.847451136207013,-0.001654657403383668,-0.0002765149156103707,0.0030426814878832
1681483601.0850644,0.7895501105446094,-0.19885108717734185,9.603025677951518,-0.0005199471136343842,0.0030721589953249624,0.0014668959980066
1681483601.0990033,0.4047380422473534,-0.057845524307736366,9.850569673447056,0.0010931168719598876,-0.0007063925039960127,0.0019701692468028
1681483601.1089733,0.4602142017840004,-0.03734559045489908,9.827661583363655,0.0002657417690546451,-0.001451452526374464,-0.0002098686567965
1681483601.1189828,0.5118118868560807,-0.04232700761147173,9.790317176766838,0.0012183009014616899,-0.0017867295888918534,0.0004200792132418
1681483601.1290169,0.4976698467426706,-0.05685296980112227,9.801752445213863,0.0005387993648894605,-0.0012271872885553253,-0.0028876096516374
1681483601.1390834,0.6381921527809183,0.24083711415022657,9.823795262958052,-0.0025043956408869975,-0.00047917866705489827,0.0017869038234006
1681483601.149009,0.5721144298250513,-0.13321489896990887,9.722099022114357,-0.0009028831408103057,0.00107280282505079,-0.0001986789324778
1681483601.1590064,0.5250108710931701,-0.1430822269919245,9.758204714707778,0.002276276946954187,0.0007125659104879821,0.0004141253844376
1681483601.1689742,0.5304533623397286,-0.04639987686878553,9.785193673441622,0.0020173505406623593,0.0013659867296915136,-0.0010309352114323
1681483601.1789908,0.37576412093139916,0.12023353466943129,9.921702952192666,-0.0007013574852367479,-0.002097415861113349,-0.0008353474590454
1681483601.1890705,0.6513000894779546,0.14288953158519443,9.777374820448545,-0.002997998552469206,-8.668012350657388e-06,0.0012690809340223
1681483601.1990452,0.5223558920983108,-0.19056682502209255,9.728507972764877,5.340460702367187e-06,0.00048792161972700983,-0.0001964690204236
1681483601.2089846,0.6503533526919729,-0.102494609012362,9.706833405329139,0.0020665511833184874,0.002932076317156251,0.000273273671652
1681483601.2189765,0.4041011334188886,0.13349091472192512,9.921767439766274,-0.0017500159939103492,0.0007568815242970852,-0.0015398042782667
1681483601.229024,0.5141353939398007,-0.08478732486832768,9.770068347111843,0.00037487672789475636,0.0002964452401202026,-0.0005235502071205
1681483601.239035,0.5810646064086545,-0.06571461276260632,9.745148822754164,0.0013140168451607971,0.001736287100904002,-0.0008446455507997
1681483601.2490022,0.49838691285544073,0.06678441114672036,9.83111813513399,0.00024636902360534237,0.0011200951754047701,-0.0003290921490166
1681483601.2589812,0.5021870915091506,0.036119821636899085,9.835423446911491,-0.0008794234072617091,0.0007650824999477162,-0.0004941117990288
1681483601.26901,0.6534153655597865,-0.0030126040756660467,9.736927246369037,-0.00023717512653320463,0.002682864581188751,0.0015637589709026
1681483601.279101,0.361131844977495,0.16942722458735873,9.950638021275354,-0.0030151219566056987,-0.0013721081253011808,0.0031130883103709
1681483601.289025,0.5165481747080001,-0.2903803769338371,9.720051533233764,0.0019242510898555532,-0.0009068329190604409,0.001063440136519
1681483601.299006,0.48548038484542755,-0.011000012099530847,9.812363539820621,0.0010722551484726975,-0.0012398522674509475,-0.0003693267976391
1681483601.309052,0.5102418181663424,-0.000626154198892227,9.810147797803623,0.00036222145641345117,-0.0014603962849099822,-0.0009359277359667
1681483601.3189683,0.5341292618917616,-0.10033954837216408,9.758917192788235,0.0018918006232686235,-0.0010215350427067716,-0.001492145009664
1681483601.3290126,0.7319410025940879,0.16686390423943426,9.743710501345557,-0.0010734808697681296,0.0028203241770062503,0.0004655170446735
1681483601.3390214,0.5121461804596398,0.006591522001145052,9.804002933897053,-0.0007959839323215609,0.0021542430080019465,0.0015551700085292
1681483601.356702,0.4722383439147879,-0.05937463760987642,9.785524717941506,0.0004672635935660561,0.0009047907461227884,0.0012392618041726
1681483601.3589897,0.3952290510446506,-0.047771197262275314,9.860309165522178,-0.00011016870336682426,0.0007364119131293459,-0.0001793064916033
1681483601.3690383,0.38965004346557325,-0.05186660873557833,9.860345884963142,-0.0002017821068156739,-0.001516648559105479,-0.0023839459795031
1681483601.3789964,0.551659296134231,-0.09050177078310925,9.76881534655908,0.0018791475407969561,-0.001409756454955229,-0.0015617955982211
1681483601.3890448,0.46995905497303614,0.13660559723680293,9.880091708649624,-0.0009323164780600847,-0.0028726459217406045,-0.0005034261889282
1681483601.3990078,0.7025765304062128,0.08529254117340099,9.724318783887677,-0.001540665764426165,4.274765489943377e-05,0.001907572466322
1681483601.409057,0.6365418053339474,-0.03107187151047575,9.726027549163007,-0.0015697280078895515,0.002642994385349585,0.0007016789709691
1681483601.418999,0.4548947642783068,-0.06551038096729311,9.819021800113056,-0.0002446399635968449,0.0011018508930460689,0.0007445392507601
1681483601.4290347,0.5871414236585246,-0.1579649442473036,9.711440908543038,0.00274898867699136,0.0026936926109144793,0.0003765308024835
1681483601.4390233,0.2547011347953726,0.20676011243676687,10.01823971398424,-0.0023661733088429725,-0.002795184235704483,-0.0003231165505472
1681483601.449057,0.6503429648097897,-0.10959370444341753,9.699103312308768,-0.0012608965442520283,0.0003914271873261778,-0.0017592336557332
1681483601.4590416,0.44226112437730936,0.025293951535320724,9.84577004910933,-0.0005821326905195282,-0.0021577761324075634,0.0013934949197814
1681483601.469047,0.7321509284879087,-0.0613333111183586,9.663990436535533,-0.0007643361341937293,0.0031187049177736157,-0.0006375641136888
1681483601.479071,0.3900284928549066,-0.16086225569494172,9.81660449557125,0.0023314005645675554,0.00017428023508535596,-0.0007574947125736
1681483601.4891388,0.7094898690097945,0.27305528827074355,9.807257517893003,-0.0016610129857513537,0.0027741271555907616,0.0030616760446232
1681483601.4991028,0.33430110574133387,-0.02841487610340926,9.893812575547344,-0.0005843806771852425,-0.0017055365626918052,0.0043387131259318
1681483601.5090227,0.5130253580263399,-0.07210413954582126,9.781012459549911,-0.0010403545047952241,-0.000988036223722974,0.0012564091698972
1681483601.519,0.4790363616045961,-0.25043448905262855,9.745232782525887,0.00322548717642613,-0.001647037867228149,5.202355855221468e-05
1681483601.52905,0.5075285502848008,0.1671434309302062,9.870042035122367,-0.001500793668909733,-0.001588921415578856,-0.001354281794605
1681483601.5390294,0.5020858355302509,-0.08366967528035629,9.77786203835329,0.000264257043636119,-0.0022106717863138894,-0.0005551984108511
1681483601.5497253,0.6566402853970239,-0.024720525185346707,9.731326112469706,0.00043337957512948485,0.0005758505496515447,-0.0007440631784025
1681483601.5595942,0.5272189096128785,0.023889595240643956,9.811077391924966,0.0004724788262407602,0.00018058966932542672,0.0004826500040021
1681483601.5725355,0.4552510600596924,-0.026105433676477892,9.835735472338877,2.6949651997985047e-05,-0.0011370476810269817,-0.0009742991573635
1681483601.57907,0.679067934700342,-0.20830438393380574,9.647607750716498,0.00302615743695378,0.0007844750835188498,-0.00029371411479
1681483601.5890744,0.4306549691582539,0.09254841030434058,9.886471027815697,0.00015509012295345317,-0.000797666584507341,-0.0013222403399172
1681483601.5990033,0.63138593247806,0.1356231354996396,9.794572205816985,-0.0006108070685425447,-6.15516031516219e-05,0.0032334048260476
1681483601.6090262,0.4866718622024179,-0.14168091541843317,9.76495813284997,0.00034655360108425083,0.00033183775110416696,0.0001008136855911
1681483601.6189878,0.576742684338389,-0.023661275026293303,9.763725466010886,0.0004277767101655408,0.001463953688343566,-0.000210990551253
1681483601.6290538,0.400463653870654,0.04582438997808409,9.889624863709473,-0.0017198639993659265,-0.0007417896442522663,-0.0021537176839533
1681483601.639024,0.3764467276670109,0.018894244401642567,9.897941139660508,-0.0011681187566472025,-0.004560591181355267,0.0001168283593382
1681483601.6525428,0.6857217248275269,-0.11750672226978946,9.688122981825794,0.0021686203266159196,-0.00010663071768191105,2.3338939669379768e-05
1681483601.6622612,0.5035728500919354,0.12054554726501117,9.844950323008172,-0.0012497442739490654,-1.5363540633398704e-05,-0.0012875949073109
1681483601.6695275,0.5568153347435854,-0.12208715696473604,9.744098481693866,0.0008476337611004129,7.739220732318634e-05,-0.0004196037811685
1681483601.6825008,0.5934782092391943,0.03363296391988057,9.770111991079814,0.0012112229680680798,0.0010642151216251523,0.0022328473819893
1681483601.689016,0.22901819837476506,-0.23425707650731378,9.873932150138637,0.0022930476207731116,-0.001699945051714023,-0.0015546963590655
1681483601.6990478,0.7008387014849338,0.21019800013390869,9.77611709316925,-0.00148439374226627,0.0013812609066093792,0.0003187642392244
1681483601.7090557,0.687532572288183,-0.0682359118736087,9.689599007621908,0.000304104070802096,0.004485909315951352,0.0012411545426825
1681483601.719067,0.24174314607830538,-0.0628648494350173,9.93268802299729,-0.00011574715800444842,-0.0003577076085654365,-0.0018422885372761
1681483601.7290702,0.5928443026525255,0.19171965595312937,9.82961508116904,-0.002178802226370509,-0.0002657149436706851,0.002303223121586
1681483601.7390497,0.4833093617861205,-0.20459442141579423,9.75622579020467,0.0018672400572230343,-0.001124373958460901,0.0020208404708195
1681483601.7497835,0.5235621832785791,0.14384095971096783,9.841002501503132,-0.00294433285199634,-0.00022174423046828498,-8.618575925861877e-05
1681483601.759284,0.5260024236697997,-0.02032631474809008,9.78974250966933,-0.0022164244401237584,-0.000469480040927925,0.0010466692579452
1681483601.7694738,0.5233928053051388,-0.07915581626632105,9.775674512882066,-0.0001883823616929862,-0.0008118256945523705,0.0019195068994544
1681483601.7792523,0.5143372428844194,0.0918305781669042,9.839380452389621,-0.003106412266759798,-0.0006792507053299766,0.0006406200077858
1681483601.789295,0.5851253088597868,-0.18581364237295336,9.71036275118985,0.001215310533613825,0.0001902773952720977,0.0017954680038623
1681483601.7991235,0.4607654380830725,0.011507945505706534,9.836530220831602,0.0007854170723894764,-0.0012700336425775448,0.0019738930237021
1681483601.8090425,0.601302489098339,-0.13935339009588557,9.701178186194799,0.0020255648364276026,0.0013544336949507445,-0.0006304446182671
1681483601.819039,0.40176206890472244,0.03250116613144633,9.889103219929998,0.002116095600397209,-0.0018631032464555728,0.0010418431734673
1681483601.8290896,0.5069945048209179,0.027349168304716072,9.82450935633707,0.00023630711617668557,-0.0015066000267269528,-0.0014049443456802
1681483601.8390727,0.6055905787686889,0.16427622257193275,9.804563213580032,-0.002090505685032162,-0.000595395566617645,0.0008488573908347
1681483601.8491113,0.5286682894207706,-0.07131038543813431,9.773533248116868,-0.00032621363870685385,-0.0005857030346584442,0.0014419221402444
1681483601.8596468,0.5049295677735814,-0.07434040018268313,9.782892885425658,0.0003670783437220273,-0.000641954359021414,-4.226345894089165e-06
1681483601.8695765,0.5594242118893951,-0.12406564334455156,9.74589451728029,0.002710642161159331,-2.3545759665976106e-05,-5.6015680869272175e-05
1681483601.8790383,0.5233385269545968,0.0149789850822624,9.808568178967048,0.0014287829485182413,0.0002744560183086154,-0.0013945142313364
1681483601.889457,0.47677512938036004,0.2009768573632778,9.902401809259274,-0.0014247942186365076,-0.001997222111015428,0.0019556393631741
1681483601.8997946,0.6524445242475105,-0.042552749816727305,9.7176861151152,-0.001734369516291673,0.00133951580434477,-0.000291838198294
1681483601.90905,0.5234517165123821,-0.04768907691264936,9.774674732950556,-0.0005594142030233666,0.0011677849020795923,0.0006186322967063
1681483601.9190862,0.5179859181171867,0.0629525264775332,9.8270304331771,-0.0005977743494770635,-3.212864371416669e-05,0.0034144705819439
1681483601.9291122,0.4842937552346808,-0.20084640443866325,9.754383230615415,0.001451130690162126,0.0003780352132223192,2.4841825019808386e-06
1681483601.939071,0.5899078277834046,0.049864749702916634,9.773907995681615,0.0010085661711472947,0.0013112155333153141,0.0012601543090081
1681483601.949632,0.46289672347826627,-0.1093997977027376,9.804947052546634,0.0029460875957931665,-6.230491780085732e-05,0.0006316733156804
1681483601.9590976,0.5424659279717482,0.10889812937950506,9.837889958513744,-0.00040520051760521974,0.0008235771024541419,-0.0011571960098568
1681483601.969067,0.48365385711411807,-0.12524561673351567,9.776758410907107,0.00202855441049915,-0.00014795678237824195,-0.0010066791478071
1681483601.9791756,0.525656947189281,0.08251270104487435,9.81534729258341,0.0013144082336100104,-0.0008960174584596816,0.0016941283352447
1681483601.9890935,0.5659924018702214,0.007183026009063114,9.780343313767048,0.00033391103158326264,0.0002811707426983952,0.000306822937588
1681483602.0054195,0.49068995037430446,-0.06814615289601508,9.7959064453471,0.001270831300588219,-6.227874601422295e-05,-0.0016601025167379
1681483602.009084,0.5772641565465088,0.21736278353403046,9.84142922122474,-0.00035565855623648397,0.00035382022275633104,-0.0014537433202836
1681483602.0190663,0.610176398032011,0.11214654541889608,9.787457047934913,-0.0026552611076996724,0.00195530896928831,-0.0010793656151268
1681483602.0291088,0.38068915178259116,-0.21023923798345742,9.80555248407857,0.001542388860281645,-0.0009254699881226214,-0.0013911714817855
1681483602.0390656,0.548976306130211,0.07876309208012693,9.821373852148595,0.0008759436574569621,-0.00098244087489961,0.000325088617998
1681483602.0491197,0.5789861414077562,0.06039361325400201,9.795958079111657,-0.0007326133462028305,0.0001682986014556946,-0.0001610608346286
1681483602.0597432,0.49853108814697744,-0.1565961635581108,9.767726968990576,0.002015505789314114,-0.00020049237419221492,-0.0009236282243851
1681483602.0690684,0.5322062646551161,0.07769164816451915,9.826270741835836,0.000858426288219294,-0.0004974055051773145,0.0001768112374942
1681483602.0791056,0.5405870505116089,0.17447207514123808,9.851721501094048,-0.0026981059678133036,-0.0003897660439072299,0.0012578867131619
1681483602.0890512,0.7005013494500452,-0.1169394484447052,9.66599889335715,0.0006405011188390156,0.002527532083622131,0.0033134840155493
1681483602.099053,0.26770801862765514,-0.07386971587382178,9.90885556398271,-0.0001369633067577071,-0.00185677194246527,-0.0002400436246294
1681483602.1090991,0.6395818045969445,0.012365925285806824,9.74972438338958,0.00013721082333097598,8.037870346343764e-05,0.0012012654874947
1681483602.119141,0.5769218164644482,-0.0321406358075054,9.764023853173851,0.0002627417098331985,0.0013261219331469883,0.000926340460452
1681483602.1292477,0.4012410201342556,-0.03786182052322243,9.858660714072089,-0.00040108163277257367,-0.0004355743835447606,-0.0017633151769164
1681483602.1390927,0.584629954988237,0.029994915752543563,9.780435836093893,0.00018415726975304564,-4.7026332998440976e-05,0.001004587825761
1681483602.149116,0.4899794270963126,-0.015493622720345601,9.813288107181405,-0.0009937994376157649,-8.240947209952866e-05,-0.0014012071810189
1681483602.1590364,0.5805773650688226,0.021100645815401015,9.782455605747318,-0.0014735895336353804,0.0007255905178043086,-0.0007869345176491
1681483602.1690335,0.5965591098580866,0.03038112190640812,9.773366293162013,-0.0006223763179348095,0.001066831929052411,0.0023795874981682
1681483602.1793864,0.3424069341340962,-0.025419955307880392,9.885539273586987,-0.002108382258160875,-0.001885466872440679,-0.0007690391543779
1681483602.1890554,0.5849121511308696,-0.09229618207109067,9.740533517836907,0.00041326619367910896,-0.0011951694500453545,0.0007538647001151
1681483602.199145,0.5336243948653498,0.007825188141692791,9.790139209728956,0.0006319404998777791,-0.0012823492774915544,0.0011860004120048
1681483602.2090857,0.5761068174094316,0.009429839500292218,9.777033866711873,-0.0009311989730669398,0.0006734462748108806,-0.0009180428500745
1681483602.21911,0.47750008655592885,-0.12161313280258132,9.782391401301046,0.0018355690619379222,-0.0006076644037414117,-0.000341373849054
1681483602.2291353,0.5493816066986648,0.09258924756461569,9.819488623081668,-0.00024872044967231557,-5.596782914871362e-05,-0.0003581334644455
1681483602.2391455,0.49904521997365076,-0.08669672612284093,9.789994978945504,0.0013579886386129426,-0.000669137733996965,-0.0004564810119095
1681483602.2493052,0.5700237588567202,0.2997104017913714,9.875228100927364,-0.004704545103157275,-0.00012937602103192363,0.0008976280183073
1681483602.259249,0.5669791088799898,-0.2551642498282831,9.695965526389214,0.00011374875613758172,0.0007218843408116799,-0.0002757889491963
1681483602.2691076,0.4291639684919272,0.11795649759382527,9.896861852897722,-0.0031626487723150853,-0.001122153528527353,-0.000636412067664
1681483602.279109,0.5859020895120033,-0.15943139510087606,9.720186520642727,0.0004322651643721533,-0.00027017684992782306,0.000101186214621
1681483602.2891312,0.5453976386789461,-0.15229894583118464,9.738310929207191,0.0022568851712286213,0.0007162995312317771,-0.0020140360615674
1681483602.2990797,0.46388382828359154,0.3430152634306047,9.944967091118318,-0.0034446485514187156,-0.001575890298722586,0.0013920042506892
1681483602.3091466,0.5884988031453521,-0.17395302536359192,9.700874769141501,-0.0007806967355599078,0.00029606405673695326,-2.99473799291758e-05
1681483602.3191235,0.4417338792850569,0.04326337852763323,9.849503357824952,-0.0009639805089881883,-0.0019972204516474717,0.0018908186134889
1681483602.329185,0.4795346058453598,-0.07305175093686792,9.802000597998257,-0.00046031858706309424,-0.0025057191745052267,0.0004815439420294
1681483602.339188,0.6507570946539869,0.0565998440673976,9.751936990783914,-0.0018066314269660853,-0.0001263777379553599,0.000847000333621
1681483602.3491714,0.6235739983269507,-0.04391441581710576,9.739522399786628,-0.0026489526531228184,0.002691804931633554,-0.0019938966765526
1681483602.3591015,0.5246327578024226,-0.15074105032206403,9.755198860709307,0.0013233440442739863,0.0018226991922485663,-0.0001558527623761
1681483602.369099,0.29991369620172625,0.004959069873380079,9.929632471097893,-0.00015633687344866146,-0.0022002507333994782,-0.0021231793839011
1681483602.3791115,0.599598525493815,-0.11877816585070528,9.713696053699122,0.0019588815521825054,-0.0005298187806292721,-0.0023954971733961
1681483602.3891163,0.6430559784014084,0.12981381339278653,9.779764426376703,-9.301610945482359e-05,0.0013216587898260547,-0.0005354497156563
1681483602.399116,0.5404378323497125,0.08298267132697129,9.83716339217931,-0.0009766489906038822,0.0009554415494046708,0.0007713552291047
1681483602.409096,0.43352438744313715,-0.021300913540759133,9.821812304047281,-0.0010992111327109912,-0.000534670122186725,0.0005147007719155
1681483602.4191067,0.49522390772877123,-0.11037818911289518,9.789180896413592,0.0008319874892765064,-0.0011750522951880274,3.153190077359396e-05
1681483602.4291391,0.5436640617428068,0.01852074040092528,9.789023722386025,-0.0004211932245303327,-0.0003584608113189037,-0.0013125466688994
1681483602.4390829,0.5243134699811326,0.09218033210538008,9.837384547450496,-0.0010574830827358925,-0.0013668979432841276,0.0018576629768599
1681483602.44911,0.5070636201255204,-0.08699155306482767,9.79405714871362,-0.00025617833031271834,-0.0014726947599186877,0.0004286494764041
1681483602.4592452,0.5440335000289647,-0.010667337001617453,9.78870527183702,0.00018899512660508543,-0.0013795571301974182,0.0012970168568667
1681483602.4707465,0.5301385172786923,0.0004954931977317066,9.794777074840564,-0.0013793511441937269,-0.0005730470599884354,-0.0006740440189365
1681483602.479167,0.5417715108280395,-0.20678896067164101,9.72140377716661,0.0009594102644475558,0.0005225644617692252,-0.0026756364427033
1681483602.4892287,0.6280868396245479,0.05429479190777721,9.759802615970187,0.0012193972502219104,0.0016543206843689217,0.0005612466443803
1681483602.4990838,0.4864832148883596,0.06895835247587521,9.858076832216003,-0.0010954874910276192,0.0010627342512649167,-0.0005585576913777
1681483602.5090826,0.5160187973023393,0.018339327757858747,9.812682181339147,-0.001181535903204521,0.00039292868990707024,0.0005024074303459
1681483602.5190744,0.4284882252271608,-0.024127336028291046,9.845304766636389,-0.00208902231640501,-0.0009042238746547805,-0.0017390989273313
1681483602.5291436,0.5160702310659692,0.050741799893881695,9.830748590940118,-0.0017522491349779685,-0.002005417534485481,0.0009490669431638
1681483602.5391002,0.6285279645540286,-0.09720365401651979,9.709277795376831,-8.481486992402318e-05,6.564362496711986e-07,0.0009110669448513
1681483602.549101,0.504470269792904,0.013349441488577108,9.80693112412863,-0.0016829864473225469,0.0002558357449566418,-0.0010860543738577
1681483602.5591424,0.5187407227398567,-0.09017257930316923,9.769063055919714,0.00045086035832326107,0.00010273593416430678,-0.0003410020185161
1681483602.5691354,0.52376430022953,0.19788746611948496,9.880426146004856,-0.002860902808718112,-0.0006874233407634132,0.0020349934889476
1681483602.5793705,0.5759630473115336,-0.37225824181601946,9.64194196068992,0.003191227479036321,0.0015362209429890753,-0.0012063607614014
1681483602.589101,0.477495328608996,0.26032542276642684,9.927393029306492,-0.0016829655918830868,8.103008840820867e-06,-6.570225055252594e-05
1681483602.5991664,0.6195689833023407,0.016275515215783125,9.748999868433271,-0.0007691699631577349,0.00107464836272172,0.0029409866506707
1681483602.6091263,0.36842149531670754,-0.08124736990521093,9.848911580696933,-0.000135474782702874,-0.0017174498539363476,0.001687421357516
1681483602.6191351,0.616195821097851,0.036537126951330365,9.773450082968534,-0.0011707352344726436,0.0003035217514041997,0.0016218626947615
1681483602.6292455,0.4457796167611903,-0.11299947746098503,9.79604562828914,-0.0013190005204054272,0.0002644074396495126,-0.0026134236290577
1681483602.6391103,0.5555786423414114,-0.1770399126753174,9.71849945733672,0.0035540590991900984,0.00013739705196783432,-0.0001655095297369
1681483602.6491418,0.6661717881121966,0.07572495458564156,9.741884575009106,0.0024576939528307747,0.002896706189365987,0.001006467845897
1681483602.65914,0.5136613286977514,0.20136586510574547,9.874910739490021,-0.0024250544191184087,0.002903027623046066,0.0001787013566594
1681483602.6694686,0.35908467997439275,-0.15723983571972244,9.83959797022524,2.5831870358508217e-05,-0.00016437886905119122,-0.0011959560255978
1681483602.6791365,0.5123882623868095,0.14298299858741942,9.855166133317816,-0.0013800915539225877,-0.001622827115974775,0.0018830005679287
1681483602.689102,0.574902483866276,-0.0551990495932769,9.754112328431665,-0.000250962159872877,-0.0006199720132582089,0.0017768211796887
1681483602.699168,0.521667782679903,-0.07631864728841996,9.779174669329949,-0.00015523517939992592,0.00010385587104587803,-0.0002735650673035
1681483602.7091572,0.49082202908634925,-0.00033399196199265996,9.821141578235125,0.0006133030242167568,-0.0012517762187141618,0.0015238714400279
1681483602.719131,0.5135012251732145,0.08699146621852887,9.833343217292303,-0.0016613554375744675,-0.0014533252620042491,0.0011163299164276
1681483602.7292097,0.6752866193114153,-0.14162682205078916,9.666143538619101,0.00045796403180638494,0.0020290807723882245,7.439590585494953e-05
1681483602.739171,0.39367010473102454,-0.13474182059661152,9.826370357425736,0.002601131385933363,-0.00044486823394756944,-0.0004959485999766
1681483602.7491324,0.6019947813658898,0.2823507358990915,9.868001706219578,-0.0027279009397012523,0.0004376250432719499,0.0011792780092459
1681483602.7591765,0.4590824600288644,-0.1520239561826132,9.781738620534906,-0.0005705873145859931,-0.00044786945548155107,3.963006335148392e-06
1681483602.7691092,0.41371989052245817,-0.11268402641676678,9.838606629047979,0.0010305435807022145,-0.002659563246645236,-0.0008685041725162
1681483602.7791116,0.6564058293167107,0.1973535016260586,9.80273243504506,-0.002360969777527416,-0.0006013615218241213,0.0011886088719133
1681483602.7895167,0.5232135775499414,-0.17717411798903274,9.747092450515936,-0.00023906293567003048,0.00034266049374164035,-0.00191827188651
1681483602.799146,0.6027707974240301,0.0022767080053073705,9.75221654146866,0.001264112558513024,0.0009710983713331021,0.001107028448629
1681483602.809172,0.31133379145545814,-0.2397694323103169,9.831088039252501,0.004574418770576728,-0.002443855692666844,-0.0018437725997987
1681483602.819121,0.6128429420784787,0.2532790863752636,9.839851060220195,-0.0005605225074252238,-0.0007455417768716295,-0.0015610454178873
1681483602.8291574,0.6271799142101787,0.0891298517521492,9.77025737719599,-0.001046311434878471,0.0005974479517849593,0.0013093052071294
1681483602.8391175,0.35404922609863704,-0.06082859095919499,9.870429647886676,-0.00028782625643507785,-0.002849566445582549,0.0010511476971682
1681483602.8491442,0.6647900436747978,-0.020246403576654314,9.721816412788735,-0.00013101796638327615,4.013964357750288e-06,0.0005065094988335
1681483602.8591256,0.5588452783129578,0.012319882583950042,9.799962427705351,-0.0013629714521500031,0.0009192958951423026,-0.0007340319029513
1681483602.869149,0.47508383996474496,-0.0053111718019258,9.846202257995804,-0.0014575881721283915,-0.00031189999389209463,-0.0005078923463348
1681483602.8791485,0.4574854942110141,-0.02091726558885838,9.825397765529726,-0.0003530299192599402,-0.002204716161284053,0.0013104208006065
1681483602.8891647,0.6167884975064877,0.027242027298880957,9.745423275516286,-0.001440079419602049,-5.03851505547968e-05,0.0012482095003601
1681483602.8993075,0.5672707538243417,-0.08222433728038946,9.759817543071762,-0.0007326521075111704,0.0012892370551800846,-0.0003570190205696
1681483602.909157,0.5609277140053576,-0.045009084368667754,9.755720967797279,0.0004378542510694463,0.0017966172492954971,0.0008391857223127
1681483602.9191525,0.4417402877688349,-0.06442029580466993,9.82387984607672,0.0017469021686778749,-4.552147620085127e-05,0.000957243256877
1681483602.929176,0.6496295449643947,0.35925428134681836,9.85890743301586,-0.004961207149953936,0.0018972053182342238,0.0030627986375715
1681483602.9391332,0.34029532322985856,-0.21018341761931109,9.824087094590315,-0.0024354763436166115,-0.0008852333804752841,0.0002997530350934
1681483602.9491577,0.4655322078212219,-0.060147613416192854,9.809534348504993,-0.0010720095231326779,-0.002412215487321322,0.0009501890122432
1681483602.959164,0.7454995354170405,-0.12924826650119398,9.637411559944438,0.0015200380602368268,0.0023170471337853405,0.0008358299342457
1681483602.9692338,0.3697575572812002,0.13916250419331128,9.933442582620875,-0.0015022770060947178,-0.0012480711524202243,0.0011230391351513
1681483602.979137,0.529941719657284,0.014866615485206389,9.80615267381455,-0.0018856128774495174,-0.0012014937008813162,0.0012847074354307
1681483602.9892046,0.4641175502535399,-0.13970905995372132,9.781262963310086,0.001074502003624584,-0.0023514874139759297,0.0016766150179559
1681483602.9992845,0.5545641488994589,-0.09496622412344462,9.746674945131094,0.0015498432581303161,-0.0007846419460735115,-0.0007623310707036
1681483603.0091336,0.5448721878002601,0.1192980430460708,9.82303711808664,0.0006047384036599458,-0.001140765850175661,0.0025181618944283
1681483603.0192432,0.4987885700750721,-0.05302906636703698,9.79350333678239,0.000380845300253342,-0.0008725456010135706,0.0005355603021111
1681483603.0292835,0.5828247206015971,0.089041880925895,9.809858132804877,-0.0016762577611599747,8.149171118189741e-05,0.0009762566146914
1681483603.0391395,0.45450079860130094,-0.13558666123967927,9.794467799598628,0.0005432704686348205,-0.0011608863643960167,0.0002248614287477
1681483603.0491643,0.49797200418670495,0.0020743234783175057,9.819184456154733,0.000352539698192916,-0.0018258473434514836,0.0002703219611671
1681483603.059154,0.7116831519295249,-0.12297343267694569,9.65460786385692,0.002089642043089854,0.002538330423348734,-0.0009590110316399
1681483603.069166,0.4334456864580023,0.2325549901972084,9.92844132095516,-0.002926096585881853,0.0004655753704515045,-0.0007746072992209
1681483603.079261,0.43767898998059396,-0.2677479817064803,9.769865776635868,0.002578760973378114,-0.001393328367454507,-0.0011620605404946
1681483603.0891352,0.5203952895842543,0.11553726233012938,9.831603823030028,-7.400808754835274e-05,-0.001559118188366595,-0.00069527537967
1681483603.0991364,0.6250862533152826,0.0036999282415208154,9.747321686025552,-0.0015119822769148067,0.0013026495246916485,-0.0025236418045583
1681483603.109143,0.4729694675531418,0.06636598023469488,9.85199071067002,-0.0017317429460062593,-0.0007034174394699828,-0.0001316341844845
1681483603.1192307,0.5293363724488915,-0.08579408869842173,9.770557049663472,-0.0009729015336883368,4.9078313314588744e-05,-0.0017502775921944
1681483603.1292095,0.5970265372699136,-0.022963666136100885,9.767319198779289,-0.0008183211719880755,0.0014415967772749658,-0.0016232449601862
1681483603.139131,0.5035225708951201,-0.07105185111336622,9.781301767618201,0.0009731661819929127,0.000898451644492711,-0.0006136952474239
1681483603.1587656,0.4832736425478166,0.010849563625938207,9.824748269326719,0.0006863220441336307,-0.001322191403965784,0.0003653180279311
1681483603.163447,0.5269715858572619,0.11343648922852641,9.833586146523821,-0.00047560514465048656,-0.0011992525732289797,0.0004677624634009
1681483603.169238,0.6581690360564513,0.020294458370604954,9.737303098110964,-0.0011923559154810464,0.0006428935447470762,-0.0003395053831387
1681483603.1792014,0.4889962244644233,-0.11407047232170499,9.777484161305406,0.00021990874924313959,0.00037543332325053425,-0.0017916222609106
1681483603.189207,0.5124343374203683,0.0189759102862753,9.820273113531394,0.0015673546993323036,-0.0011415112060219864,0.0019075923442382
1681483603.1992471,0.4632377107234819,-0.10518869466619869,9.813514891845559,0.0013907915873074671,-0.0011597769475044225,-0.0024569595738772
1681483603.2092192,0.6546100743436769,0.04416773108026528,9.742996512574072,0.000884844608071896,0.0010977588648741856,-0.0011847936588797
1681483603.2192638,0.46845735101622493,0.14949000774669538,9.875833475082656,-0.002254432069667864,-7.237048239462202e-05,-0.0005168376996639
1681483603.2292287,0.5836021249748845,-0.03439282465096014,9.757797401979607,-0.0012929237243905793,0.000879822206525699,0.0002759080339696
1681483603.239266,0.5791975433635538,-0.017747759043952212,9.761307758048607,-0.0011994546655853236,0.00209278582330211,0.0004469108494471
1681483603.2493982,0.36684437534872827,-0.08164928276794624,9.857691869554335,0.00016254568963704248,-0.0009656989850573172,8.851894703770596e-05
1681483603.2594085,0.6295846868924757,0.2011560312787531,9.808265825681481,-0.0031887340641320793,0.0005866400889616992,0.0024686002830516
1681483603.2692535,0.31450164187752605,-0.19157920685465066,9.849697929870393,-0.0010328961535958259,-0.002830567870563357,-7.687486181890053e-05
1681483603.2792509,0.6249236094663092,-0.08632304995965832,9.70896521230196,0.0009526783833870995,-0.0007313534858151404,0.0005459818017211
1681483603.2892642,0.5541541135760988,0.0947653548491603,9.817039266278856,-0.0015905597797232632,0.00016681156380319014,-0.0002992729464072
1681483603.299199,0.5103277607827393,0.09843956544297972,9.84128778100545,-0.0032408798283183964,-0.0005231348559522757,0.0009553732775625
1681483603.309213,0.5703520255346678,-0.17564265549600475,9.72371813146461,-0.0004584440351029424,0.0007833366081942457,-0.0004948501049998
1681483603.3192492,0.5365994503701417,-0.02033307372905499,9.78500263097066,-0.00020403435149414276,0.0012531164133662393,-0.0007898826192591
1681483603.3292253,0.4297695359588379,0.05193849286332017,9.86666995493748,-0.0018513339336718013,-0.000538382390734126,-0.0017584720666978
1681483603.3392146,0.5812131769661534,0.02503179646703293,9.785354810449492,-0.0007572338894760895,-0.0006091718774752651,0.0015760246929371
1681483603.34923,0.48644800653549153,-0.08677109143013821,9.783279650238173,0.0008658830600776199,-0.0013389600307247638,0.0016393740184379
1681483603.3592236,0.7007403566960277,-0.013813557234686694,9.698012403622965,-0.00011354600811087128,0.0032733266811869966,-0.000305996396904
1681483603.3692122,0.4352312902366672,0.021817285264208723,9.85093527856945,-0.0005612774140809823,0.001232982133971624,7.771572158748823e-05
1681483603.379213,0.48340726675545237,0.03423702180739563,9.829832723317026,-0.001701588596596174,0.000617574422092042,-0.0003346432972226
1681483603.389194,0.4341640376210807,-0.09338457407562054,9.82534709705446,8.655598204194875e-05,-0.0015527832844926966,-0.0001796914770725
1681483603.39922,0.657871569671284,0.06521847431850478,9.754242551606051,5.8234615055004985e-05,0.00021038623586622086,0.0028132125694778
1681483603.4092777,0.4625175774944013,-0.11911601556859663,9.785550575291875,0.000275407233552989,0.0003161999577911373,-0.001198937887651
1681483603.4192047,0.5189823224122075,0.08028716370071745,9.83320663924488,-0.0015063857631269677,0.00015378607680725556,-0.0011009320191565
1681483603.429253,0.40320047668335984,0.0028251762254259388,9.862199083163578,-0.00036718239551542425,-0.003275369723790989,0.0010820747079801
1681483603.439214,0.620025369904157,-0.1815533109837191,9.679079583298424,0.0019667080273615117,-0.00021876866147052233,-0.0013393801677498
1681483603.4492562,0.4937171880174364,0.13815426956554386,9.860662492132052,-0.00030572483737738336,-0.0013628005738196061,0.0003835691564258
1681483603.4592593,0.6279217994135395,-0.034741928764186046,9.72755756242579,-1.362454185145506e-06,0.0010187794275938926,0.0001049268717419
1681483603.4692245,0.39221401925223903,0.018383150929255958,9.876837744981586,-0.0012325812900610897,-0.0012726591571658116,-0.0012618918012354
1681483603.479295,0.6177332946393939,-0.13479161994827318,9.702421340261798,0.0020669122927532285,0.00012844519122401604,0.0003534114180606
1681483603.489261,0.5091116987840195,0.18724665711226546,9.877822732104578,-0.0027610651683869798,0.00015488613182299574,-0.0012924377846989
1681483603.4992096,0.6150014886523308,-0.16066429680033173,9.706095989306156,0.0013185019522539009,0.0014389931145034893,0.0004811617505278
1681483603.5092647,0.5153974942053627,0.15462920590331536,9.864559564695016,-0.000723699194322374,0.00032402507281214534,0.0030415510951083
1681483603.5192137,0.4671266172226155,-0.13065430226629626,9.776798073295888,7.761941420453402e-05,0.0001157667076919929,1.9232738437900123e-05
1681483603.5292275,0.4479884831125999,-0.09692169803885936,9.804364521501931,0.0012030102094451101,-0.0009951107670420904,-0.001259295506728
1681483603.5392072,0.5341011537509752,0.2375016824671273,9.877703978135116,-0.0028996390369938068,-0.0014916981939641048,0.0006253413699109
1681483603.5510426,0.6342424415438421,-0.11160323292822467,9.703538651269657,0.000649449601895831,0.0006022955618577554,0.0027271374088254
1681483603.5592422,0.4519365009878063,-0.13036452326496722,9.798522299691086,0.001286829070019837,0.00021002628024782545,0.0001805336174097
1681483603.5693414,0.4931985722981327,0.08564996385367557,9.844386103233099,-0.0009256202401070155,-0.0004869925814006363,4.084605784232336e-05
1681483603.5792456,0.46194991924847556,0.11133955419977334,9.868840213161231,-0.003579497918194034,-0.0016969577891259155,-0.0003410134272176
1681483603.5892031,0.5659045615838544,-0.29057573755730415,9.689872986565344,0.0025951582835577803,-0.001210032632556227,-0.0002426484174553
1681483603.5992286,0.5411236132662415,0.142817853059368,9.850250964433695,-0.0006305549251383129,-0.0008162847598156875,-0.0007254432461682
1681483603.609218,0.48734076802839743,-0.017228525079650166,9.820578545668704,-0.00043574739794826245,-0.0015803657303113117,-0.000999260697839
1681483603.6192667,0.6342776579023127,0.051794943864926085,9.739252798306737,-0.0010526481115668423,0.0004719019266210767,0.0003809586592491
1681483603.6292746,0.4024844242570882,-0.08029411397456125,9.842036297161805,0.0013564985356934746,-0.0026044308792448003,0.0020264421432752
1681483603.6392014,0.666801529143432,0.005578627044251987,9.73698913654127,0.0010562244067188937,0.0003843848539393585,0.0015164406864154
1681483603.649233,0.3955535443066453,-0.03288964343442506,9.847834739003977,0.0003711701212460105,-0.001567686804547274,-0.0003428631502661
1681483603.659231,0.6198296802216761,0.030710584563841768,9.750011776174372,-0.0001138696377826095,0.0002882515641602063,0.0002829980763148
1681483603.6691892,0.49660506668832455,0.03460548819819509,9.824925709688753,-0.001019122661944264,-0.00041843235403386716,0.0002937966451522
1681483603.6791916,0.6520354488448734,-0.08234007879526721,9.698551169733841,-6.659941549189882e-05,0.0027398605784095175,-0.0003857157466459
1681483603.6891992,0.43532123013492124,0.04761155002352878,9.861493215816292,-0.001557061403008143,0.0010940261634362052,-0.0010160193819079
1681483603.6992052,0.4726769478271294,0.0953713780020435,9.8619645347808,-0.0022901756018638914,-0.0009671763429572073,0.0019068460347138
1681483603.7092526,0.4963585705096864,-0.2635893369334077,9.721437309493876,0.0017260705299478884,-0.0006415453946630179,-0.0008189347613129
1681483603.7192416,0.6521187336527017,-0.09216871541113826,9.718651222089328,0.0037604534551708324,0.0016282161690957396,-0.000767904803482
1681483603.7292936,0.4449580053185385,0.16195795962040016,9.894593517577418,-0.00043427099830835254,0.0003970555005246093,-0.0015785296022418
1681483603.7392194,0.5295826374150636,0.04689010036487361,9.808841900060917,-0.0001682635824182034,-0.0003949663552580155,0.0014665112380921
1681483603.749235,0.5922621879034513,0.1398400396889658,9.8135944739921,-0.005322983558099724,0.0024097440001614443,-0.002278152158809
1681483603.7600005,0.5132892368484346,-0.1820008020117623,9.757829112745066,-6.844215722305069e-05,0.000986382728172463,0.0005232962389949
1681483603.7693746,0.4976601690210382,0.0005044184909875272,9.810042719912088,-0.0002934336486743722,0.00034785596527718956,0.0011323575122755
1681483603.7792556,0.5385007710405808,-0.06999356622851875,9.775255714991134,-0.0003590205583938992,0.0014013967586450446,-0.0010722319170359
1681483603.789377,0.6232772029892806,0.06508064279613997,9.749475439392098,-0.0015168416602103893,0.0036622302260607463,-2.2510536340227547e-05
1681483603.799268,0.3485700823198132,-0.047868660493191405,9.872546271941067,-0.0009375386292267727,0.0002778076226045407,-0.0005522344767573
1681483603.8092902,0.5513529968822151,-0.08940257128704818,9.767554314268217,0.001950673726395783,2.675574991242507e-05,0.0012840110535275
1681483603.81925,0.5122133161623755,0.11128386755215688,9.847347381496379,-0.0009133060514876533,-3.5113438534949125e-05,0.0005456179456327
1681483603.829297,0.5051929126286068,-0.15526124639955416,9.75178254339492,0.002668188562907409,-0.0006538747697093647,0.0011197189119652
1681483603.8424227,0.6028792826787032,0.11582205900509045,9.798559294538789,-0.0015931854974581086,0.001800721087779065,-0.0005522090982172
1681483603.8492546,0.4050645499951402,-0.07419946602288982,9.842693447778021,0.00038718404023746565,-0.0006251953887694839,0.0014616665426241
1681483603.8601253,0.5658731770043359,0.03901459130000461,9.790761127923641,-0.0015015460855317435,0.0007893001254729122,0.0003593617544051
1681483603.8709557,0.41289532190635514,-0.02585427669657389,9.854822216621532,-0.0005508421872840561,-0.0021797616940829804,0.0016356333176613
1681483603.879368,0.5728425124181348,0.03869441021974587,9.790376118941246,-0.0008466314312952683,-0.0019133967975305615,0.0030721126782249
1681483603.8892336,0.5592139422691148,-0.07170733576988099,9.765443858367515,-0.0006890547179032835,-0.0006345059988917004,0.0007568455144305
1681483603.8995087,0.4413580729834102,-0.1153206229521295,9.816719598855265,0.0004579611500183794,-0.0018862036173103074,-0.0011642933863673
1681483603.9103875,0.5595025896126311,0.07638331964912341,9.797740147570355,6.087680506549603e-06,-0.001971885496001136,0.0017854004359346
1681483603.919367,0.714157502960882,-0.17155584721522185,9.63861757916299,0.0026484182014837126,0.0019832692395741905,0.0010395889071755
1681483603.9293993,0.29870787631070617,-0.015181366702346781,9.921951399407448,0.0005659879534320548,-0.001455194307618067,-0.0029725485987487
1681483603.939206,0.723897158713326,0.10236885575667719,9.731104164244526,-0.0008082582787391979,0.0020152989605234767,-0.0010130354243788
1681483603.949475,0.4608126903919097,-0.03192449939574376,9.82487473822371,0.00021952109187152824,0.00024169144238567975,0.0002941617236014
1681483603.9593008,0.42975877102071275,-0.016365764972448155,9.849330322556002,-0.0008947007956584935,-0.0011370683457070027,-0.0017409571486983
1681483603.9693098,0.4797994414980691,-0.00019392103680742058,9.827243742517197,-0.0008469937006001285,-0.0023578249242681404,-0.0009061263449016
1681483603.9792068,0.6753581696664765,-0.05699140262281017,9.694005709969721,0.0008565767419805219,0.000401123450451312,0.0004096518928658
1681483603.9892657,0.4921778208479595,0.09054239314108398,9.836657720242505,-0.0006473288504135685,-0.0005894299919722056,0.0013983385756968
1681483603.9993303,0.5350290373178345,-0.043107204615831805,9.778712884039388,-0.0005467518420211397,0.00015972906432425488,0.0006797371857341
1681483604.0095117,0.5867911097005087,-0.04399806396324258,9.762239583734749,-0.0004957077329282921,0.0017694213169793494,-0.0002791647606987
1681483604.019287,0.5540340738140779,0.07526425656857264,9.811751986479306,-0.0010038650611900288,0.001542924646697352,0.0022033841192264
1681483604.0292337,0.35364474268335633,-0.02614555061561781,9.891601464070169,-0.001547739724233549,-0.0017185781735170858,0.00053742643972
1681483604.0392408,0.5839921570945434,0.012520994065607778,9.780317628292186,-0.0012359223957431195,-0.0010476334130059433,0.0019977315637756
1681483604.0492609,0.4425161817676099,-0.027767001303392404,9.836357842124709,-0.0026962583777421045,-0.0016917601205956678,-0.001142294150171
1681483604.0592637,0.6917748957666132,-0.258576393191664,9.637185398133163,0.0028171942480241683,0.001316411059041937,-0.0004039792151648
1681483604.0693524,0.45477840280739923,0.20305468067858012,9.910750808404632,-0.0023661783597880653,-5.819895972078512e-05,-0.0009429997339371
1681483604.0792463,0.5550052940360752,-0.11367581371766709,9.754445855369728,1.8394717366376836e-05,0.00032512157888077897,-0.0002489829243618
1681483604.0892198,0.45368696787385143,0.08378743474341818,9.85668494668093,-0.0020525062030106573,-0.0009053474184422986,-0.0003208867314729
1681483604.0992496,0.6401421557247198,-0.20001149503856386,9.676862498964699,0.0020560984684893815,0.0014464631146773029,-0.0004795687313649
1681483604.1092217,0.392502177398442,0.21168074964998956,9.94495285746434,-0.0025274843374652775,-0.0013393365585008565,-0.0005086408968541
1681483604.1192715,0.6309687009040215,-0.10906487508883678,9.709077692963067,-0.0010433354827328613,0.001223297661148219,-0.0012682185083154
1681483604.1292818,0.5220382661691451,-0.044853579610103854,9.793047566627534,-5.538638669771708e-05,0.0009330857330088348,-0.0012302377767387
1681483604.1392844,0.5316347036320227,0.0691865327592445,9.824636087813278,-0.001098431594229215,0.0006198109639718151,-0.0002087435027111
1681483604.1496727,0.594405420807958,-0.07537144963063667,9.729538246995856,0.001055500497170808,0.0016274955981680763,0.0012400311202749
1681483604.159256,0.48664968529489927,-0.015603291975281208,9.823196074153952,-0.0004979558051724384,0.0018919761440837192,-0.0020565034396473
1681483604.1692183,0.41328648050111827,0.09170512892737993,9.884729835728008,-0.0016848260571385542,-0.0010327400204839649,-0.0001834183971855
1681483604.1792493,0.6540740116390783,-0.0857589112143404,9.694619421318208,0.0005145859454953798,0.0012598021895771482,0.0009594795952093
1681483604.1892133,0.4954432685473824,0.08547702563109459,9.847792836716737,-0.002054735200915688,0.0008909988498536798,0.000183882653388
1681483604.199266,0.5003784882410902,-0.09042250872018681,9.790749375294292,-0.0011219423731473293,0.000687947392465492,-0.0011851689818773
1681483604.2092104,0.5708569931148533,-0.13986011658065012,9.72651353884878,0.0014865189088175974,0.001672946680539394,-0.0011005681048605
1681483604.219246,0.4650160641319647,0.09963821119168581,9.867689541945476,0.0007224449238627786,-0.000496284670051571,0.0017008289392346
1681483604.2292776,0.3936871733774634,-0.257599936962816,9.77721380301939,0.004140428463020795,-0.002077294550804604,-0.0016712821129236
1681483604.239228,0.6004907073806282,0.3275470204807836,9.869298522747354,-0.0004308922823992699,-0.00218907431049297,0.0030147427419673
1681483604.24933,0.5558435022757864,-0.1652032784949254,9.735979565466367,0.0012447388402391777,-0.0005655768268630094,0.0001168367412414
1681483604.259417,0.46346034493861793,0.05973322881230047,9.862871927776546,-0.0009922958986520027,-0.0015762724146327184,-0.0011896230320904
1681483604.2738223,0.574116090891113,0.008419173748201133,9.779519084123937,-0.001899768321200783,4.162911489901183e-05,-0.0014325117267194
1681483604.280799,0.445381610959563,-0.12027902853855232,9.79104066514312,-0.0002029171541825669,-0.0011445076609529188,-0.0008990489918265
1681483604.2892358,0.6800079900204669,-0.0028262208861065783,9.719101486769253,0.00010665959852015521,0.0013317003740217106,-0.0001986989559132
1681483604.2992463,0.4426840782174322,-0.044518231710176874,9.822325076032389,0.00010073920036658592,7.404933846560211e-05,-0.0013658124994013
1681483604.3092227,0.5861318184440882,0.01725690230470413,9.77986158818989,-0.0007285443782785375,0.0015030887526481659,-0.0017040520946953
1681483604.3192365,0.5542857535862453,-0.06145661172446159,9.749675669119368,0.001818820914821024,0.0013879460906929023,0.0008265044848907
1681483604.3292491,0.49901315231543664,0.047025627224756214,9.819869903129662,-3.526539358937357e-05,0.0013492130527654616,-0.0006975103210184
1681483604.3393035,0.48872522933186585,-0.03502212633303019,9.814967359106026,0.0010439493786327401,6.361741964779743e-05,0.0004446804482963
1681483604.349265,0.5839426776339897,-0.042526354140074586,9.764826326380025,0.0013356429515937996,0.0013484800144372515,-0.0005697060882571
1681483604.3594463,0.578802682680755,0.03432214249462048,9.793181118696118,-0.0001443959305331525,0.00238782695802164,-0.0010089185129377
1681483604.3692412,0.3778773641985866,-0.08028260520019406,9.853005378936114,0.0007738733274348003,-0.00039199712715161714,-0.0017815711948547
1681483604.379325,0.48184860206507435,0.19206316683234192,9.890282721494227,-0.002928696202977629,-0.0016165008220698435,-0.0004233275580677
1681483604.3893075,0.581253395728337,-0.12980856675937896,9.719774898644342,-0.0006361643634559225,-0.0001874726525399218,-0.0007802124641362
1681483604.399248,0.49945405683661104,-0.17165850317224746,9.755568378070016,0.0027549837792787838,-0.0007079028902505549,-0.0004896370268884
1681483604.4092486,0.5987920323581039,0.1653550154538689,9.83166351234893,0.00011375023548957574,7.665172109568059e-05,0.0011651381460491
1681483604.4192815,0.5003506021005207,-0.01325276810411456,9.810849286348137,-0.0009375349402392492,0.00018729494272421107,-0.0009322008158538
1681483604.4292846,0.4433966574668579,-0.0898214975029507,9.819548507276956,0.0006121953573285828,-0.001480513731696561,-0.0012279860715839
1681483604.4393003,0.4928498624885318,-0.037995341250683365,9.8111460577457,0.0008390655854966675,-0.002157039090121921,-0.0015360717702183
1681483604.4492736,0.6367307841711175,-0.003100956481445862,9.739899306359236,0.0005667553264118753,0.0002696462437106989,-0.0017349815502289
1681483604.4592872,0.5171849321732594,0.18707393319003465,9.873987457999693,-0.0035761473502485255,-0.00016847425577660131,-0.0012868586968157
1681483604.4692838,0.765633021857253,0.029346194222376547,9.68328716268364,-0.002447765869131401,0.0037747464239448634,0.0023952209117364
1681483604.4792893,0.30152916456625556,-0.19329733142269628,9.861188664312854,-0.00019098523051759247,8.634085818037918e-05,-0.0005998991004649
1681483604.48925,0.5702966125130681,-0.035406790662172095,9.76530656117677,0.0006621080635073843,0.0007621049613172826,0.0001715937356006
1681483604.499283,0.5277770786131611,0.005134220116897275,9.804667394995137,-0.00015708633704194773,0.0010612529117046358,-0.0009113336022469
1681483604.5092492,0.4983277369064193,-0.10919944188788842,9.780909237327972,0.001820681311473593,0.0006559358652050545,-0.0012291066854718
1681483604.519249,0.6767626998583048,0.23104840734051332,9.799919733307899,-0.0030110471238946625,0.003780682110640696,-0.0009750756475601
1681483604.5292926,0.3535012026830523,-0.18003728247187406,9.836127268222079,0.0003856792181312379,-4.068325867805824e-05,-0.000888986517069
1681483604.5392926,0.5011023280993556,-0.05642531697598677,9.80409105495456,0.00039538836578564666,-8.206643510182578e-05,-0.0025113599881056
1681483604.5493236,0.484300091386981,-0.026624277336583565,9.808380976102107,0.0010476867938006996,-0.0010398157687339783,-0.002100819958699
1681483604.5593102,0.5757528260253189,-0.014563322981420839,9.76933478301224,0.001660860087178005,-0.00031522911325583433,-0.0012503345537457
1681483604.569291,0.6238131349428644,0.0804763775561001,9.774298493705082,0.00017447190866222382,0.0016252557577939983,-0.0005615321028504
1681483604.5792904,0.4432312326054378,-0.01356765897823629,9.844913924322462,-0.0010392515944269405,0.0004189939923671515,-0.0022088603622738
1681483604.589442,0.5555333426333757,0.030049878582686224,9.802077526422751,-0.0003295799054449642,2.897625849993114e-05,0.000749410649902
1681483604.599251,0.5117946215024329,-0.24659648125326541,9.728539380199658,0.0030496359446159802,0.0006596565004030386,-0.0017901561263475
1681483604.609307,0.4721894808139359,0.0666613648783629,9.844338540641408,0.0017920116954242358,-0.0006546347256378603,-0.0013058416120234
1681483604.619257,0.5874744904269026,0.18296327994888617,9.82074812020617,-0.0012661123184632792,0.00025583638550827527,0.0004360943526502
1681483604.6292949,0.5549461222920534,-0.10914850619734129,9.757346646655943,0.0011039320900945984,0.00043353203695185323,0.0009993730596274
1681483604.6392703,0.4683280024990926,-0.012900036747864807,9.82949924686888,-0.000857810483148622,0.0005877575749389267,-0.0030254472553256
1681483604.6496315,0.46934321705413345,0.09188972913606681,9.859722924013207,-0.0018241477270191505,-0.0012726471063477707,-0.0009027717209879
1681483604.6593847,0.4379665661615203,-0.01640785037715119,9.851252533142471,-0.0005769189060465911,-0.003926544738091646,0.0011844959185932
1681483604.669963,0.6571485751175472,0.07617730653421263,9.755562045405485,-0.0015652365517815467,-0.0016701357818179182,0.0030560960254173
1681483604.6794777,0.5939130182225302,-0.0876270851878277,9.73200384450975,-0.0010191294690525623,0.00038100982172658426,0.001286952359393
1681483604.6893108,0.5317314288456896,-0.22988111423856702,9.721204601716076,0.0016146405445930374,0.0015645361833924775,-0.0017834452487054
1681483604.6992834,0.4791115497042308,0.14815738908907428,9.878134975770793,-0.00042269854593503806,-0.00030965858108083745,0.0007736102520961
1681483604.7092755,0.5687787227989245,-0.03631176161536545,9.755488037571498,-1.0311617489035552e-05,0.0006119837568497518,0.0008581852267038
1681483604.719272,0.4491676821136286,-0.10683962868473634,9.809357983974136,0.0019052472732596086,-0.0009269452297336455,0.0006756438483957
1681483604.729319,0.5040948454508846,0.10222680216875778,9.835924911330734,-0.00021631412658372107,-0.0013806796927247195,0.0009390084847349
1681483604.739278,0.5492558036632443,-0.12808525861886857,9.750216801737553,0.0014828080706883917,-0.0003513956352729753,-0.0006874408613417
1681483604.750793,0.7236888320598864,0.05295075257503408,9.708312096072348,5.0769744521151105e-05,0.004213587594581011,0.0002535493072595
1681483604.7593915,0.25528601853826477,-0.01040877027084933,9.945164008638047,0.00037153792983491346,-0.0010610536385098773,0.0013480552548084
1681483604.769297,0.5443127768160569,-0.02118260001845097,9.78194633907457,-0.000887623575662037,0.0003169503115472552,-0.0012633663177016
1681483604.7792802,0.678008089263525,0.07033544597660808,9.733989780057984,-0.0014814514005834156,0.003135104536705422,0.0009043202112902
1681483604.789364,0.3190486514636566,-0.19758240193668203,9.854826917670513,0.000903899952531586,-0.0006203361226528958,-0.00181955867852
1681483604.7993512,0.47590118290541056,0.10125946962590499,9.875449320152224,-0.00012801826882512436,-0.002659203861888634,0.0004755869700115
1681483604.809304,0.6316908362239972,-0.05802615596265724,9.713787063712116,0.0007876334807807909,-0.00029623652445507747,0.0005642367719214
1681483604.8193183,0.4247402187356142,-0.023922343381877344,9.845632555613129,0.0010003702279637414,-0.002303048999716382,0.0004059183370795
1681483604.8293157,0.5626277261503286,-0.0936236971193619,9.750497390022405,0.0012719633556301933,-0.0006009589797986379,-0.0022341648622873
1681483604.8393154,0.5585610840288705,0.09762035340115989,9.812418461890058,-0.000756867484609598,2.3387538452225175e-05,-0.0015755551907691
1681483604.8493166,0.47597479706696266,-0.07440664266828406,9.807224370162881,0.001483164251107777,-0.0016485042887308854,1.736951121206003e-05
1681483604.859301,0.6730045422012788,0.010349082138710667,9.71443718746954,0.0006196244133287474,0.0018051905559382745,-0.0008934678084674
1681483604.869335,0.5089543378101477,-0.03787389452196619,9.806371844986872,0.0014138338427340334,0.0012326353351734944,-0.0004113961517337
1681483604.8793733,0.5508947727333731,0.01273822570953335,9.795563154532637,0.0013285339839870238,0.0015049568564395187,0.0003809758887168
1681483604.8893106,0.4256101703489814,0.06913732823465835,9.870546431509004,-0.0006100907487203338,-0.00045158216133577375,0.0001917293953251
1681483604.8992877,0.5782496049642974,-0.08775187428326994,9.745031715642272,0.00010068472514981781,0.0011461899816978946,-0.0015498541801694
1681483604.909363,0.4666781567980448,-0.03825008471083302,9.815163520676846,0.0003126707214040032,0.0001440809346739423,-0.0021049254614386
1681483604.9192948,0.6454005711011478,0.10560905536820134,9.765927964203636,-0.0009327142949218521,0.002006709507823832,-0.0001849272561717
1681483604.9293146,0.39858083438658176,-0.03874369819974239,9.850503390477183,-0.000681595882778348,-0.0003342473482113545,-0.0007980908307704
1681483604.9392986,0.7245360775440772,-0.04256376410266692,9.674374367936949,0.0005175522781528642,0.0036462243268048805,-0.0002735835773396
1681483604.9493272,0.5108276678560965,-0.0920429368571365,9.776508514905194,0.0026942574338517495,0.0031235704770275247,0.0003176705172758
1681483604.959331,0.3433568130657241,0.10817730671828177,9.933236434796237,-0.000255427822336638,-0.0003677813970182572,-0.0005745755083385
1681483604.9693124,0.5311624796050477,-0.10209359885359136,9.770643677486463,0.002271795314516014,-0.0006505238752130312,0.0005206334713388
1681483604.9793096,0.5347246111748757,0.22417833821301142,9.879110331590791,-0.0018818916297634507,-0.0010819115231796301,0.0021050245809842
1681483604.9893727,0.5962324185509157,-0.04388152965782701,9.751505478923486,-0.0017623191146672068,0.0006253820037424866,0.0008931870648179
1681483604.9993217,0.3496110391174555,-0.0348557215510667,9.88650176808144,-0.0017634259143680996,-0.002781760589937702,-0.0004225851775604
1681483605.0092936,0.7672320071644914,-0.00363840092921721,9.673660124531706,-0.0004975735361180965,0.0014021062916147796,0.0017750166839927
1681483605.019303,0.43652830026928885,-0.04103919396767602,9.831941496715512,0.00014280350876123618,-0.0004154517160720294,0.001801041009045
1681483605.0293477,0.4497609238204297,0.04473462567496786,9.852262556400945,-0.001596541324420933,-0.001474937157953956,0.0005556882784243
1681483605.0393414,0.6947047779731678,-0.056154425129827205,9.692719570123078,-0.0005035350853795881,0.0018767112866193445,0.0005497218767654
1681483605.0493753,0.4898515260158236,-0.07304280597012278,9.792517122846865,0.000659497379318311,0.001051934635086718,0.0004506215878304
1681483605.0593443,0.47099069356874823,-0.0036365544541001405,9.832881173605408,-6.35817365896281e-05,0.0002320084288304696,-0.0006412465631488
1681483605.0693123,0.6042727441710523,0.05488777434320483,9.777530149381727,-0.00036683208072472507,0.0012244165777390457,0.001370742803871
1681483605.0793295,0.43336849761187907,-0.03626058424509768,9.834353755045102,-0.0009554071564079074,-0.0001234029303278132,-0.0005377046804401
1681483605.0893054,0.5103601449951645,-0.09723536141386466,9.770557206861099,0.0003577668641665339,-7.161814338453247e-05,-0.0014183567877385
1681483605.0993946,0.4689018752903613,-0.019662351991915687,9.807129966615083,0.001305089533915296,-0.0015531655312389018,-0.0001238209701601
1681483605.1093192,0.569904445264311,0.1846043802399921,9.84011358311392,-0.002081568098347063,-0.0010904799878948992,0.0013979656319374
1681483605.119373,0.6240986907151016,-0.12169747814430709,9.711883453740404,0.00016402792861322683,0.0011473044772452765,0.0008376723813366
1681483605.129351,0.4710060739796408,-0.017969675009292297,9.833456677701717,-0.0006518291106943296,0.0003128386824208263,-0.0006572718306902
1681483605.139343,0.5332208654394059,-0.03796822610568818,9.782534197891126,-0.00035974053903913624,0.0008019735661535008,-0.001623236578283
1681483605.14932,0.5657165004376996,0.030482675075878343,9.784956153342668,0.00030372811377590007,0.0006887206808874475,0.0013428352063296
1681483605.1604214,0.48692201999050805,0.05513414095361373,9.852136929751271,-0.0011617877401226143,-0.0003826727397108365,0.0019426009053372
1681483605.1703408,0.4144006059748797,-0.05640588752377809,9.839260393456454,-0.0008648813814235896,-0.002319074851295971,0.0007274073973771
1681483605.179339,0.49648250641433456,-0.18456616951711377,9.744478042163227,0.0011896095079336729,-0.001997583649781885,-0.0016735394060138
1681483605.1894553,0.6541302202718438,0.1796378484521816,9.79843468549945,-0.0027632932517377483,0.0004659415794058716,-0.0014857831451568
1681483605.1993794,0.46898255645246273,-0.16659549636594284,9.774323574068848,0.0017633101386370794,-0.0015103147748316312,0.0008853785071064
1681483605.2094064,0.5625067566907601,0.027499686359012274,9.78886957888339,0.0010580900724069132,-0.0006661573662434288,0.0007154804148253
1681483605.21938,0.6230699594227701,-0.05351215751857686,9.717295199226319,0.0010364814412866968,0.0021296437251757715,-0.001159476818842
1681483605.229395,0.31067462314137334,0.04835979035930367,9.928416045395599,0.0010495417649752426,-0.0030175615566471093,0.0007732313202236
1681483605.2393537,0.5207235434362016,0.05232636961780844,9.813082128737605,-0.00041374510640067075,-0.0027866073364071027,0.0002997502411257
1681483605.2494416,0.6707788592963881,-0.03037078998602027,9.71409739614015,0.0001673886646236099,0.00016009953026911565,0.0005590306205217
1681483605.267733,0.494028751263476,-0.05069325857634568,9.799820068882463,0.0007336333744635065,-0.0006743497913387397,-0.0006192745681378
1681483605.2694714,1.6407960257932075,0.7692317764243108,9.46211011938732,-0.0019701818974186217,0.003332563649069759,-0.0002604989608276
1681483605.2793355,0.35194361757512577,-0.24139168455582477,9.809025989470415,0.00232244540814386,9.566098637109948e-05,-0.0012209392193231
1681483605.2893355,0.554439967123347,0.16277774928214656,9.844167952449281,-0.0005255226053001337,4.983817912709568e-05,0.0007065575878609
1681483605.2993655,0.5161500625759771,-0.17735393221117055,9.750767555380465,0.0023966147812518306,5.123590417203044e-06,-0.0003081996732849
1681483605.3093476,0.454855708294398,0.002846251517954221,9.834884037911843,0.002694629850476773,-0.001747608653442985,0.0006137956475381
1681483605.3193529,0.5785532965154268,0.09729192920332695,9.80672245494102,0.0009347998542948386,-0.0009772276988155885,0.0018557969847701
1681483605.329357,0.6438361640435891,0.04097829465534134,9.756111633275955,-0.001190104149073936,0.0022101301642101583,-6.010174225007576e-05
1681483605.3394234,0.4178465690959642,-0.13906687770134735,9.805945095646884,0.00031936847042400763,0.0005728751371482304,-0.0022673406678709
1681483605.3493538,0.6737913323972722,0.02775589942438319,9.728062519102522,0.00036963209196230664,0.0029760619047186246,-0.0007835447363082
1681483605.3593664,0.35601031083238455,-0.04190718719542937,9.8876782771579,0.0018679883239962913,-0.0011929283201547495,0.0005467401311274
1681483605.3694892,0.6782060487155249,0.013665789239526353,9.719503390667661,0.001537162976852322,0.0017943861563841038,0.0012597238342518
1681483605.379356,0.30859165893965346,-0.05916539412433117,9.903708443415045,0.0013375183197677591,-0.0018668146684316107,-0.0010882788378271
1681483605.3893452,0.6850840172013644,0.054779524228916285,9.731406082792624,0.0003700358919996398,0.0013696897207330888,-0.0004185049369457
1681483605.3994515,0.6081270736448479,0.010973730480236157,9.758327841799277,-0.00030238272105313004,0.003087434194197968,-0.0001837889471549
1681483605.4093368,0.20188341329976323,-0.05168347146680576,9.965379167708985,-0.00020103107252691327,-0.003483617783606467,-0.0014611820265177
1681483605.4193456,0.7007890018978982,-0.09321135845531812,9.683577501556236,0.0015628671570590464,0.00016121732792640395,-0.0014757413923267
1681483605.429363,0.5589955399105965,0.09673896970398921,9.821372784637624,0.0003048444357045641,0.0002003346600583885,0.000372016216303
1681483605.4393308,0.613476250915575,-0.00897032730186631,9.750348568455015,0.0009620077174735215,0.0014021055081317967,0.0019429937488407
1681483605.4493685,0.3814623730415459,0.02599334835037533,9.878870301762763,-0.00183008683886207,-0.0001942014831083403,-0.0018493880092624
1681483605.4593868,0.5707809765367808,0.13180738739638279,9.810504905740189,-0.003234539750875375,-3.3998402172482676e-05,0.0009646835929256
1681483605.4693964,0.37861181000314,-0.057079853655526015,9.86520658271771,-0.0025904388861162342,-0.003074202729534112,0.0005858520703863
1681483605.479442,0.637110658424883,-0.17811204070120787,9.692495865537424,-0.0006625928253988013,0.0003448766160865556,-0.0026082082226399
1681483605.4893825,0.552448759695842,-0.10688377432789228,9.747930585391632,0.0017838157541625352,0.0006000443057083911,-0.0018322295549783
1681483605.4996169,0.44393216794628804,0.026869754955613175,9.85481300143831,0.0009601507501362153,-0.0014395006509123375,-0.0016861893277141
1681483605.5094907,0.5711471078091555,0.10168247486739165,9.826581537762761,-0.0007490442208043202,-0.001007414003384046,-0.0010346502571824
1681483605.5193558,0.5498960245813811,0.01757117161472701,9.784366468936325,-0.0008410492746183971,-0.0006926121997300094,0.0002107326832141
1681483605.5351152,0.47888272802198045,3.503700521478518e-05,9.822440362899092,-0.0015492123249844817,-0.001870190217524498,-0.0004412094171616
1681483605.5393603,0.7524248775101907,-0.18797034086426342,9.612549824932827,8.691517354685467e-05,0.0001392493325862077,-0.000366694414382
1681483605.5493908,0.6114152045140612,-0.034136545051740054,9.748309052004458,0.00038904443879932203,0.0020201326750376642,-0.0005797995294902
1681483605.5594318,0.5144233411290581,0.1624266963224345,9.866868194572906,-0.001717232154429545,0.0006894601433169096,0.0022164206562105
1681483605.5693746,0.3730563209596605,-0.19909274277062664,9.818734430171391,-0.00023234549734149458,-0.0009671427098123453,-0.0021570674184236
1681483605.5795,0.6985392741417981,-0.0586317715722964,9.691814998090754,0.0017409423084711305,0.0019203043031870016,-0.0004557437536764
1681483605.5895133,0.43902984834673664,0.057136177648611196,9.87052124764884,0.0007347528337789753,-0.00023925148115942202,0.0005579205422204
1681483605.5996408,0.7037060417364538,0.03144446825767406,9.709737551871441,-0.0007456948919759484,0.00402882877741513,-0.0007082792039487
1681483605.609583,0.3477801292142803,-0.048443882483376347,9.878336229558172,0.0008774338027813294,-0.00015989997446337958,0.0007456771523233
1681483605.619398,0.4213618287335227,0.016070378160412433,9.861067658118458,-0.00025728406975518935,-0.001835529488674044,-0.000362235707556
1681483605.6294124,0.6207653866802736,0.00803147403548697,9.75404632169634,-0.00015818946436189837,2.1141263648945015e-05,0.0004819160053979
1681483605.6393602,0.6218980381033106,0.04271017769996022,9.753178207229071,-0.002508846148343953,0.0028799250129112075,-0.0013587623875114
1681483605.6494277,0.44958140781096173,-0.15725966866481328,9.781522857913721,0.0017662770968020077,0.0006842570075020854,0.0006707798416268
1681483605.659521,0.5046522757303145,0.05381651659589926,9.827177127946277,-0.0004986955539757435,0.000856352889725283,-0.0007813351734999
1681483605.6695762,0.46569092184233024,0.06346966502702596,9.858414950311284,-0.0014598091285295811,-0.0009317859771454843,0.0002863376826521
1681483605.6793735,0.5859094264659127,-0.24564792103854616,9.681288861697883,0.004178421271863863,-0.00013569778281453842,0.0020115022739868
1681483605.6893983,0.47141516417756746,0.09731018723910104,9.85590864935782,0.0024394465679677705,-0.0013218103229493394,0.0028374183416839
1681483605.699358,0.6086305456417971,0.10128310329358746,9.794027453421865,-0.0010068205677285693,0.001070560390145087,0.0009528016631033
1681483605.7093933,0.4937943909649305,-0.09265693863834604,9.778884319846007,0.00028583120057966606,0.0008779688730185477,0.0001306128647651
1681483605.7193592,0.4569840589831734,-0.18339153976152528,9.769468348950392,0.0021410384593001735,0.0005266966159603572,-0.0029583766631308
1681483605.7294333,0.653574254036502,0.15861403971810353,9.801883388199279,0.0011378479449979308,0.0013559063214417671,0.0020003552158836
1681483605.7393982,0.45063736824021855,-0.08986611067293838,9.814048661965362,-0.0001846523959191769,0.001593964461794099,-0.0030802034347776
1681483605.7493677,0.4707985051702931,-0.051495037718731616,9.808372607018736,0.002580629536420515,-0.0007279964046319647,0.0006044775323484
1681483605.759729,0.5673182092774804,0.10165342482641465,9.807934271333266,0.00034769475687314983,4.871324672652115e-05,0.0011237910908188
1681483605.769736,0.532951589197137,-0.003977769915628101,9.793869681420684,-0.0017455391820206702,0.001414009706311721,-0.0024532501160625
1681483605.7794423,0.4874793659467005,-0.17438611796240988,9.753889359585802,0.002460689816494987,0.00025248000946637063,-0.0005917002021793
1681483605.789366,0.41122343611816065,0.11107376388152473,9.896482076832323,0.0001726086620193604,-0.002162258185895929,-0.0003070929128203
1681483605.7995307,0.6217823148438064,-0.024390860241698176,9.736999840233253,0.0011937023216086406,-0.0005499220118903393,0.0009159166907433
1681483605.8103857,0.5279361384693069,0.07150995742567436,9.819183820351014,-0.000702106275889772,-0.0004083767214561854,0.0010015916446231
1681483605.8193696,0.4506754743413097,-0.16949315166346654,9.79745241495366,0.0007526302919561394,-0.0012130276494108098,-0.001664593819854
1681483605.8294468,0.6117279743751781,-0.06449054728971637,9.716284544905184,0.0026953763562193906,0.0004268295733015909,-0.0003145448904011
1681483605.8394718,0.4822282356128164,0.09425040100318789,9.854562480045468,4.297470960401901e-05,-0.0002463226372728165,-0.0010361319913986
1681483605.8494678,0.6143508523835021,0.052507394784455104,9.765141166411704,0.00045163487658304825,0.0006265019732981046,0.002178046790092
1681483605.8597093,0.5701197293222259,0.12576433025724007,9.83002205672253,-0.002623243280722013,0.0016464792288779018,0.0018703329510994
1681483605.8694072,0.46771502029273654,-0.31283191579089265,9.724993811048355,0.003085379200315969,0.0008251125698900595,0.001284346911731
1681483605.8793974,0.4176396613959327,0.10615078946388228,9.894817923003053,-0.0014597791681737358,-2.6181176853403482e-05,-0.0024878957814994
1681483605.8893929,0.6017329206070187,0.04195945959841919,9.78182817382627,0.00019532347938738053,-9.135341621413361e-05,0.0024663845502313
1681483605.899382,0.4823463268653563,0.039196673495163634,9.841262582705644,-0.0022253738651674786,-0.00025118899622565943,0.0001551951241221
1681483605.909372,0.49814346730584924,-0.12553137117291893,9.77588489899971,0.0005242708521351587,-0.0012283157408224422,0.0009826048586059
1681483605.9193804,0.6960253104259273,0.05793790541156019,9.71942094133133,-0.0014508923559985217,0.0027756187606066255,9.969982379193026e-05
1681483605.9294152,0.3026109652542397,-0.2577176750268177,9.837007271012311,0.002491608823766715,-0.0011623608330457486,-0.0022472203749689
1681483605.9394505,0.6644209217085738,0.0877412720085506,9.754781657935,0.0015464765617890877,0.0012203170834583165,5.7959575812170086e-05
1681483605.9494104,0.39824945682936946,0.14512788084173786,9.914646198915872,-0.0016352687705350614,-0.0012894056966631588,0.0002934173640337
1681483605.9593956,0.5628017351331724,-0.06019912947133698,9.771682021335826,-0.0014501390428534658,-0.0002914227518463891,-0.0013230065855655
1681483605.969648,0.559841028748019,-0.1305167473904046,9.736307374758923,0.001819553826124723,8.672873407382369e-05,-4.854577532892508e-05
1681483605.979396,0.5350305034761642,0.15134329066746127,9.85748394817265,-0.0010831882167691934,-0.0001420219210721963,0.0007363541476901
1681483605.9893749,0.5131936070320274,-0.2273379371106166,9.720790203474225,0.0017375718085846992,0.0007960500992195193,-0.0021324818994376
1681483605.999449,0.4813140786047596,0.06239703864811018,9.848037001861528,-0.0011613935904498563,0.0005509036365842618,-0.0042212537995997
1681483606.009386,0.644536875635156,0.11034169911638948,9.76725331530234,-5.9495888497928977e-05,0.0010143201008442888,0.0022521524766002
1681483606.0194592,0.4107226217330565,0.01128015909263405,9.870341809997809,-0.001837935496063069,-0.0005253392989379228,-0.0003495537716421
1681483606.0294309,0.4931896950841836,-0.05165987409876675,9.808965173603369,-0.0005031603018482095,-0.0016161136784863313,0.0004271510947969
1681483606.0393894,0.608093082394845,-0.05302997592167843,9.736918833453885,-5.575449919131648e-05,0.00043130123602084857,-0.0005052776582065
1681483606.049405,0.5709580659539475,-0.14277913569043948,9.724833258929584,0.002606321521795016,0.001532498757202984,-0.0009635104838285
1681483606.05942,0.4789234017171793,0.1748603803623917,9.875290762049483,-0.0009833540367170982,0.00036461258574984863,-0.0002478690625626
1681483606.069402,0.48376639655167697,-0.060867812070347416,9.795069688119357,0.00017744288946479109,-0.0005477026893782879,0.0002069898142021
1681483606.0793731,0.48021589511448926,-0.007258898596762444,9.837022902285124,-0.001028431361057111,-0.0010659000562191158,-0.0019324403296682
1681483606.0893683,0.5760764380130733,0.0044497503967154215,9.769420102012031,-0.0009424055594925529,-0.00018337855623321952,-0.0011758424847844
1681483606.0993824,0.6497284694071453,0.07598985474931401,9.768750675619511,-0.0011450222721867084,0.001173735663521018,0.002482420062321
1681483606.1093946,0.4849569611298532,-0.1599893160066729,9.76844404301841,-0.0002569546376304073,0.0018145100703370848,-0.0016578703693572
1681483606.1194246,0.5307354019692176,0.015593181929534038,9.822045031962281,-0.0006089894359217511,0.0017165209628151922,-0.0012607816647264
1681483606.129424,0.5923233067170376,0.0028250682951014377,9.765369437911447,-2.034383218346404e-05,0.002676900035479639,0.0003351613373037
1681483606.1394613,0.35623069829668025,-0.023462159063581692,9.883193530186007,0.0012372948319912449,-0.0014630016660331134,0.0017734738317325
1681483606.149443,0.5720374974072737,-0.0222357782095491,9.769189614629715,-0.00011350838741808871,0.0005024729867487708,-0.0013706556096199
1681483606.1596322,0.5166193997816402,0.052786168498057714,9.820257857874635,-0.000825411653702112,-0.00030258229664110493,0.0005214056541685
1681483606.1696508,0.5641066305232947,-0.017505235839767458,9.779866367580727,-0.002335659626578575,0.0014806994514506672,-0.0024029486853155
1681483606.17945,0.32538185327020697,-0.10043010871426292,9.889684738798058,-0.00021520853934701848,-0.003022417918296625,-0.0019000330980393
1681483606.1894891,0.7226117936154367,0.13564652148796918,9.724106463218884,-0.001615163065509639,0.0004789815123026612,0.001552943616431
1681483606.1994686,0.2570566211737039,-0.13232482943923668,9.845682111865266,-0.0004082016197826398,-0.0038367647941919603,-0.002080710841668
1681483606.2094386,0.9086828427100468,-0.06661429619377104,9.68071960147561,0.0008315578825558231,0.0008120191786929687,-0.0024078125174615
1681483606.2194548,0.5352209519086693,0.09174889399502603,9.746598994282277,-0.0009193025094700856,-0.00047132806817681556,-0.0010856783523682
1681483606.2300763,0.14708539290162193,-0.22066718691534484,9.921359562859864,0.001801392950712908,-0.011463073811187613,-0.0097738823428276
1681483606.239404,1.4187845437990103,-0.014582787307340942,9.653009686065987,0.0022241169090254508,-0.006336865088154582,-0.0089363430201533
1681483606.2494612,0.38049449542057034,-0.13888623048101428,9.552935121218434,0.0017099429841816434,-0.018077445256767695,0.0077618856408175
1681483606.2597628,0.9602393860599735,-0.23494154702177555,10.146238904332161,0.008574447019821045,-0.04671076078390926,0.0391606676817413
1681483606.2694652,3.696807390772744,0.7472090304169482,9.714768104832528,0.007018991441310686,-0.03716094225311629,0.0675732630730148
1681483606.2795634,4.504337572196023,-0.5302592620061283,9.203796213124717,0.01376447213173578,-0.012326608129430339,0.0758476618171211
1681483606.2894356,3.1565193301953434,-0.15374133355297576,8.992906110999662,0.019237957336755606,0.0006635055400992699,0.0710530567408081
1681483606.2993977,1.478198483641226,0.8577229848455531,9.841825977068188,0.011316225122100959,-0.011551069721898486,0.0589738029480453
1681483606.309466,1.1954470246009126,1.8344407730581995,10.138092670126078,-0.00825188384783684,-0.028917783337869367,0.0439770135522362
1681483606.3194528,0.6560863844910129,1.966444110486776,10.548348584774335,-0.034139295434264146,-0.05733370705282518,0.0147764587268706
1681483606.3294368,2.757665493029227,0.6080998923822689,10.295865585304984,-0.041608334938669764,-0.061509877880020776,-0.0048996314912561
1681483606.339455,2.4446807680228977,-0.167648505015099,9.685782587563976,-0.03326751443751256,-0.06285005873410345,-0.0250496019184116
1681483606.357726,2.3408435132993355,1.4683255129137387,9.751771155608777,-0.05236529322412529,-0.075545023305757,-0.0372044344007495
1681483606.359512,-0.43674279581023084,5.750859511487647,13.239172161278745,-0.0702650543458506,-0.088827042020629,-0.0320143562316421
1681483606.3695052,2.402776370729896,-0.18592215641084872,10.158229830182103,-0.0704080197527567,-0.09586857122101683,-0.0258425336837295
1681483606.379533,3.540430968641168,-0.9829487920420106,9.485905824596406,-0.05591249743522736,-0.08343486229462517,-0.0086806251242283
1681483606.3894086,3.5772180488135645,-0.27726943387617325,9.28407228517477,-0.047869585527639744,-0.06339530861835328,0.0066906197421726
1681483606.3994162,3.28918310475881,0.17476452588428168,9.519911320016323,-0.050344402889941915,-0.03991257526003609,0.0175264428794857
1681483606.4094234,2.612846859257474,0.7772692599499759,9.57593059355801,-0.05846109564203661,-0.017282061732201752,0.0287477753550287
1681483606.419447,1.251417839738131,0.3505538925717756,10.451069158045373,-0.06281645970802063,-0.007259714320662096,0.0261792920023676
1681483606.4294658,0.23540174606609374,0.7743455411025418,10.660030989229028,-0.07218857423951204,-0.0032756258501295313,0.0200451358646627
1681483606.4395173,-0.6781540524256787,0.04177445771174834,10.59212005777356,-0.07563007932147461,-0.00891075321087543,0.0115942375228282
1681483606.4494896,-1.6085714937470632,-1.1490071704696294,10.090414113594505,-0.06440386458196486,-0.025859293918500253,0.006514366013604
1681483606.4598842,-1.1748439437202676,-1.083600165747281,9.599489368658114,-0.051372195364298094,-0.038590796560702946,0.0034736259799923
1681483606.4695678,-1.2986852040927488,-0.7408292545825749,9.369707819487985,-0.044169931976862524,-0.04962047167825357,0.0027312756242703
1681483606.4794407,-0.2845583930418104,-1.018775999533476,9.50035044619234,-0.036486891865273666,-0.0501480641555897,0.0015498679090764
1681483606.4894288,0.04435804964422199,-0.441456015068583,9.721477241397192,-0.03405507329518379,-0.043587463859057665,0.0036794689909097
1681483606.499425,0.11053089835147317,-0.7398552327851062,9.979893298176252,-0.033436250257649174,-0.035226394594025635,0.0036244755570318
1681483606.5094547,-0.2259860963521249,-0.5990649113392735,10.046476774227822,-0.028283419498924087,-0.03378659347306896,0.0123622498900171
1681483606.5194645,-0.7627701769134477,-0.7654935256902584,9.92615938899881,-0.023034503624227452,-0.04168521198161788,0.0204452897847172
1681483606.529488,-1.0062705372829155,-0.05305035378430985,9.84165177097707,-0.024830701891895922,-0.05459933044842664,0.012952766144323
1681483606.539484,-0.3391309431150962,0.35395982718137975,10.010942733722407,-0.03740726370524004,-0.06357669504259801,0.0070255210116978
1681483606.5494764,0.6125093271666002,-0.4775875285195061,9.740540296046232,-0.03266664198186382,-0.06491603235865301,0.0031306423439186
1681483606.5623477,1.2456775073425748,-0.2542003240023432,9.708828680660806,-0.028120282140625865,-0.05744340833070362,-0.0063562395557287
1681483606.5694623,1.4386787294267125,0.9447755795600651,9.66159244745689,-0.03620156717799414,-0.04911276424631558,-0.011893742023361
1681483606.5797875,0.9896632969867325,0.5605589586511661,9.857235268166063,-0.04835146972722415,-0.04822671756322915,-0.018504654294205
1681483606.5895183,0.9699996376450878,-0.17638185087697908,9.552119117390564,-0.046891223200227615,-0.04814577803130919,-0.0260108069091561
1681483606.5994165,0.8872862399560163,-0.508359042571851,9.744727611827221,-0.04094611549067902,-0.05333865301873313,-0.0280897927045348
1681483606.6094582,1.1277584488031926,0.03904421807580313,9.705015844623182,-0.03960919868133301,-0.055968588937828495,-0.028676855614734
1681483606.6194315,1.5502962887443856,0.4818117357765941,9.752100884303744,-0.04394898348997562,-0.05300074735471892,-0.0275817078113082
1681483606.6294906,1.3358822085500535,1.906462943377808,9.675806069845777,-0.06105576554085961,-0.05322465661900745,-0.0205866706132415
1681483606.639444,1.4503130626405885,1.453238496070693,9.939891499027896,-0.08692273249602989,-0.05031875668264702,-0.0155111674725536
1681483606.6495004,2.009956362738911,-0.9341454758757561,9.93544313742338,-0.06971674877333368,-0.04482473857451009,-0.0046508254058185
1681483606.660202,1.254749021955529,-1.1459687468384285,9.885004009748313,-0.05569216269863664,-0.046450641562684046,-0.0046604329294983
1681483606.6767662,2.2735487025857846,0.5997360829956243,9.66102436971384,-0.05535409669521123,-0.0308702137639618,0.0021632916719194
1681483606.6812468,2.591427904620793,2.51420491323772,9.971380704884591,-0.0758395901380931,-0.01995695568886959,0.0011808393424384
1681483606.6899498,2.004382258336548,0.023477684421167957,9.492313359331558,-0.08298103638184556,-0.009597904375498977,-0.0005723028484258
1681483606.699421,1.7037251520230186,-0.6654988501809314,9.271562479839623,-0.07747281726552327,-0.00301408921954737,-0.003200161042017
1681483606.7094347,1.3839286295870064,-1.476333091624163,9.101315886998067,-0.06207294219700318,0.0005147487131180549,-0.0031310434028032
1681483606.719483,1.5528969872178857,-0.5385963684709646,9.392177186102378,-0.057488881054618315,0.006771671849655144,-0.0078857757657292
1681483606.7294817,1.8174175532714678,-0.7640203494505154,9.32496607613795,-0.057716643719803645,0.020213553341544784,-0.0137382729485157
1681483606.7394383,1.367637234957355,-1.4598736091127704,9.360004012788806,-0.04563299269257919,0.026708371996958385,-0.0160479501395944
1681483606.7497563,1.2309744263622806,-0.3486082175460306,9.75226555416111,-0.040076371984126405,0.029496893190229103,-0.0186928932129863
1681483606.759478,1.44676607855809,0.6589502136361216,9.796809778818993,-0.055601393482024974,0.04244783489170991,-0.0216585670172694
1681483606.7694871,0.7490037562491211,0.1252613617271614,10.012254413650876,-0.06287712177195698,0.04447113623001261,-0.0277605385094407
1681483606.779497,-0.2229303904354819,-1.0605878479280557,9.589662786085666,-0.05487638011030397,0.03922589656638195,-0.0251150012522462
1681483606.790084,-0.9400040982736954,-0.6270591362932788,9.732295870341359,-0.046034759059600784,0.021567317582037455,-0.0193806786596301
1681483606.7994452,-0.6351514857207023,-0.08564674192793675,9.973909939727463,-0.0449532360904477,0.004564511124800203,-0.0100316342472556
1681483606.809454,0.6077514130626397,0.4491321484333965,9.955994214109504,-0.05187522028571689,0.007349610587784498,-0.0006178440566632
1681483606.819452,0.42799684700930507,-0.30389353148034676,10.078999109130315,-0.048869275845328096,0.0086600322676551,0.0027479029918562
1681483606.8295147,0.2321552742925961,-0.7891347334159711,9.860335164986067,-0.04439078488372661,0.011799832436641858,0.0024284686619889
1681483606.839486,-0.021466187508103182,-0.4421368531893961,9.95915320606721,-0.04045915600065543,0.009564809320195863,0.0044358342379804
1681483606.849952,-0.3555841070200244,0.22637547582174233,9.873846733733037,-0.04550874241568482,0.00399415513316298,0.0020930158748764
1681483606.85947,-0.7787523874208235,0.049383179070271524,10.285280339753907,-0.054641016568831365,-0.008392723838187016,-0.0095437618478659
1681483606.8694646,-0.5265329153180022,0.25899983860280595,10.000827680617295,-0.061452805680613544,-0.02002181951982522,-0.0120048180728677
1681483606.8794866,-0.1476447279214251,0.11866195191672103,9.958721966823491,-0.06717088744410263,-0.03000946836864059,-0.0183829285710576
1681483606.8894637,0.9719184632302016,0.20278887043149393,9.462629365020598,-0.06922037348892533,-0.023381798661248007,-0.0188591212540391
1681483606.899482,0.8939549981459912,0.45174006574701275,9.65092524172777,-0.0757285784421097,-0.022027987694888878,-0.0228393015026572
1681483606.9095533,1.2620341104082915,0.2603785037726216,9.468507531398012,-0.08124216412395723,-0.013763841610610868,-0.025861262580705
1681483606.9195907,0.9534064282444915,0.2097239669640623,9.797300490416708,-0.08331215230961166,-0.010643704136990504,-0.0259954195975784
1681483606.9294748,0.6148743812945449,0.26513162685277936,9.774750682587824,-0.08780217746215223,-0.010714923113085674,-0.0273349483072284
1681483606.939492,-0.06762081004994214,0.2412402948559867,9.93644432332782,-0.09371276889908156,-0.021514044076556403,-0.0299303655087474
1681483606.9494889,-0.0718839193725054,0.523255887258467,9.967503753413444,-0.10550211399689437,-0.03242594424584014,-0.0239063196390393
1681483606.9594898,-0.43553394290571235,0.16817853240780697,10.348580769176346,-0.10744842230548758,-0.049050085307166036,-0.0217980400233987
1681483606.9729536,-0.49343363291946296,-0.1587888291894411,10.08327369960119,-0.11344705004356533,-0.06256619203540996,-0.0167903706937555
1681483606.9795878,-0.9655863302060249,-0.48894513012771373,10.356150802996213,-0.10717068428373372,-0.08377128026807001,-0.0016634187235954
1681483606.989534,0.303848833199662,0.46948023867186245,9.963105186797096,-0.1119095799707564,-0.08991365579540915,0.0048303413164343
1681483606.9995584,1.4587764464716204,0.14822998477269222,9.935976087927243,-0.12097042200634521,-0.0797165768156022,0.0185518886387821
1681483607.009487,1.2633280690135433,-0.8343546849478455,9.841466286838504,-0.11311443883656407,-0.06908157487321709,0.0213531560689684
1681483607.019554,1.13991336009092,-1.17586918317938,9.812237049577696,-0.10473807504285235,-0.0593030418666068,0.0235080111265655
1681483607.02952,1.015260887237621,-0.8043763487436179,9.50229650459336,-0.10301154365215857,-0.04841064980551868,0.0218364361167427
1681483607.039654,-0.0675632526438774,-1.5954231597161812,9.801892527843162,-0.09444991950333952,-0.05329959376607053,0.0133823135361548
1681483607.0495048,-0.3357567023607185,-0.8136894846249494,9.63969814462664,-0.0895911101606584,-0.06270763760880918,0.0127829906955834
1681483607.059524,0.24430148104916452,-1.5544253087658308,9.978127615534948,-0.08787807929512816,-0.06301863519840585,0.0029148085700821
1681483607.0696883,1.8123157783582788,-3.8892581388267415,10.355896486913194,-0.052222273158701156,-0.04979313789945645,0.0079278836451944
1681483607.0794852,1.9360763797256688,-3.9092690490778237,9.61732813847443,-0.014655433005470465,-0.030303202264652232,0.0088370453991469
1681483607.0895624,2.387882609718977,-2.534757506432558,9.18898940826669,0.005603100751495981,-0.0066086076670881025,0.0160809762269731
1681483607.0995638,1.3225887554926705,-0.9922183142129813,8.680837051843982,0.007381038729504982,0.0036159540669107684,0.0179941698402639
1681483607.109476,1.239621280513517,-1.7025521760507283,9.04125532409428,0.006522552826709194,0.008079954114987855,0.0129920660943266
1681483607.1195245,1.4901046704345713,-2.2781687532997665,8.952082062639407,0.025152827277935254,0.016373021297141185,0.0086772844620522
1681483607.129545,2.067746430370283,-2.2981950089500494,9.858564212340477,0.039708716945864884,0.022858214774795375,0.0043564799666878
1681483607.139532,3.1270825749488202,-1.890104978722081,9.330710144781934,0.05429998926608551,0.04975789487385538,-0.0023328834253821
1681483607.1495185,3.078616904089781,-1.8430295630597806,9.843736230782197,0.06815904752429336,0.06994094353963969,-0.009794588437629
1681483607.1600645,2.276402304883753,0.8959313014915249,8.986118451541588,0.06147988578475642,0.08373709885203133,-0.012714688903046
1681483607.169489,1.6607764426895986,2.2868985105404107,9.647083803795349,0.017376041996068847,0.09064234382854801,-0.0331191804766181
1681483607.1795952,2.5618281695237033,-4.160278399334117,10.293075268351261,0.06766941789461288,0.1007599410541012,-0.0316711266099933
1681483607.1894825,1.1391177346188015,-2.1839977503361085,10.089617371342603,0.0927468658348542,0.09209367851350368,-0.0393532712518695
1681483607.19948,4.26538208904645,1.6166289072421118,8.73834385963408,0.09053269969516672,0.1239577867438287,-0.0318894807755473
1681483607.2094824,2.424238006247168,1.6112859097401233,9.737838873878838,0.05377778797962249,0.13867954473262395,-0.0301668953656676
1681483607.2195687,1.3154049013036184,-1.5508965553310698,9.773409356162091,0.06757613533442791,0.1321315938866646,-0.0269933280109885
1681483607.2295318,1.6384671039056036,-1.3044704277980044,9.436830169456307,0.08625319942446771,0.12902099624638222,-0.0100935979321125
1681483607.2395082,1.642690155674287,0.027083025074996537,9.541155123121897,0.08807332496543062,0.1315064551587465,0.0022834367078271
1681483607.249515,1.184797210740137,1.4510108832881623,10.01700542965334,0.06361924632532955,0.12273339121938912,0.0148287729785319
1681483607.259484,1.63557418798567,-0.2148783362233892,9.674006825774581,0.06306828777100687,0.1294870728476048,0.0304046224296566
1681483607.2695243,0.3292768507811475,-1.1647536082999463,10.280821903981206,0.06701871244188252,0.11818885900042322,0.0421732726932045
1681483607.279507,0.4346577110865528,-0.8089628225000192,9.617705509802713,0.0796637190843237,0.10678358848075623,0.0594525958836552
1681483607.2936623,0.6839921962417047,-0.5015598451862378,9.5323064407306,0.07956354147811052,0.10288280694107031,0.0695183041930672
1681483607.2995028,-0.007341114181255984,-0.4145361552955493,9.660525856731592,0.08187352302639107,0.0959332914695892,0.0722049612045761
