time,ax,ay,az,wx,wy,wz
1681483755.1749325,0.38783285741101725,0.7063160624343486,9.778251263889821,7.166126782369159e-05,0.00036090406486777955,-0.0004322455537963
1681483755.1848986,0.42567287201340676,0.687647398867729,9.749715921198478,0.0010025824501686813,0.0009502381471438023,-0.001096495198411
1681483755.1950045,0.2598353005819173,0.8352183638227858,9.886426860842738,-0.001016886315255802,-0.0022751260550469576,-0.000909852333692
1681483755.204954,0.6123733574501424,0.6976533363670456,9.659230134767888,-0.0007870456922173298,0.002416122557799991,-0.002906991871399
1681483755.2149265,0.3542296724145558,0.8704357610006338,9.849845962032427,-0.002409038014957523,0.0006715729559943762,-0.0008085195481303
1681483755.2252684,0.2803618240904981,0.6733056098803082,9.81531840338008,-0.002514432981775197,-0.0010450381828347758,-0.0036729036405209
1681483755.2349524,0.5750833027405873,0.8264222207330166,9.707408484965468,-0.0008071432401475642,0.0003441279148203478,0.0023918708280202
1681483755.2449384,0.29564921184561277,0.6663952091582775,9.817018058398084,-0.000359733080183525,-0.001603075596751874,0.0004387068288874
1681483755.2550237,0.5394403243475144,0.7166491190176303,9.68897535071079,0.0007138788408097193,0.0009994112129827243,0.0011699772108353
1681483755.2649636,0.264298434370423,0.8916067146036131,9.910603654560672,-0.003273674638240977,-0.0014324820883319504,-0.0003245989832553
1681483755.274968,0.31492191473455033,0.6154141451627168,9.779923365933257,-0.0009319467326921128,-0.0031781419605609275,-0.0008181959896806
1681483755.284957,0.5136384242413048,0.8367581351019759,9.754841163972054,-0.0021687401099486302,-0.001534545096444023,0.0004562076606329
1681483755.2949514,0.4554071156814207,0.6122151592493006,9.712410670740228,-0.0005165917881162455,6.583075766185249e-05,-0.0014202313072506
1681483755.3049212,0.4879735509115513,0.8919638179002203,9.7915179138427,-0.0019262458505158093,0.00040334332391889167,0.0015439939120792
1681483755.3149157,0.41284973196979985,0.5816492271780536,9.718793881516275,0.0006490625584509746,0.001158485127683359,-0.0001096535747397
1681483755.3250918,0.36916347318828663,0.7835229148137441,9.812577275706545,-0.0007914755712402682,0.0005449250616046211,-0.001166143924323
1681483755.3350046,0.40932181182551586,0.6511328916509193,9.747171694796837,0.0016835823234291629,-7.495621061189399e-05,0.000372775477032
1681483755.3449478,0.3955820160099888,0.8954804630346219,9.826506140447519,-0.001296282140588232,-0.0002575097454177642,0.0006782496889595
1681483755.354973,0.4460490148187978,0.6560201774738686,9.732397022939052,-0.0013439305759775622,0.0014948425865738038,-0.0023802474647287
1681483755.36502,0.3903485849529378,0.7815652270101467,9.802481327357237,-0.001116338629158916,0.0001705197188692081,-0.0003566592972252
1681483755.3749633,0.5219815598297385,0.760655791089971,9.73599046895553,-0.0006469452416238385,0.001963881069237424,0.0007601760403726
1681483755.3849325,0.3330411893049854,0.7329092434620862,9.808149700872022,0.0008196812890932671,-0.0004970432070937474,0.0030587124597754
1681483755.3950987,0.41835295310722276,0.690118133286441,9.741312206599392,0.001351648118678314,0.0002368625122385859,0.0020059172489222
1681483755.4049602,0.4971282524285649,0.8067311230059708,9.747867985438944,6.121635585957724e-05,0.0020547846883034316,0.0015458363955498
1681483755.414956,0.2877059204993814,0.8661346798002305,9.878190813784066,-0.002213821591556523,-0.0007019494409321511,0.0021933280473117
1681483755.4250815,0.3213552267308876,0.5063119054786294,9.740949357165624,0.0017960839286094775,-0.0018925264056707824,0.0004781845450874
1681483755.4349768,0.51718921230579,0.8159264267497487,9.751327872054736,-8.146231671266133e-05,0.0005397066498272281,-5.936087514196915e-05
1681483755.444899,0.3403726277900082,0.7712270349917175,9.830497251906763,0.00027840439036291674,-0.001718573589614102,0.001603237305559
1681483755.455125,0.439069820124895,0.7267057451920967,9.746535358398129,0.0001543516200561508,-0.0006795844300617092,0.0006972328369979
1681483755.464988,0.4698747551252738,0.7312881143142114,9.738919709229547,-0.000318756590395656,0.0010459759985066478,-0.0005455126560751
1681483755.4750812,0.35564085468014534,0.71112897542119,9.798483694233662,0.0002422673979351669,-0.0001654871506604882,-0.000782072082487
1681483755.4849403,0.540815814158168,0.7481733151603678,9.704982937446779,0.0003737267466429064,0.0023699469394739244,4.677020073945242e-05
1681483755.4949565,0.297538054746032,0.6827727405835894,9.820659140995229,0.0014816609957523787,5.6545302615969414e-05,-0.0002307376166332
1681483755.504994,0.285166213846946,0.8216607461925803,9.856942471404574,0.0007068241816333819,-0.0030779092585313025,0.0012668369704865
1681483755.5149755,0.5947717740591839,0.8647689010275235,9.710388024426404,-0.002020471071990931,0.0009073927792269803,0.0014285228276516
1681483755.5250487,0.40885206462577844,0.7898654533155794,9.810706084277518,-0.0019992401139395377,6.241619904532616e-06,0.0030594445957344
1681483755.5349786,0.4409480528377148,0.6573527721007166,9.749815326487132,-0.0012709467338745146,0.0009714658031699394,0.0010254397889606
1681483755.544954,0.33709973952252253,0.5618690828665794,9.752710429820526,0.00045979161170039414,0.0006343486204645613,-0.0025121120310846
1681483755.5550308,0.29274693766140286,0.9395123799741782,9.892407764240128,-0.0028146817168063706,-0.00227363168735158,-0.0007649515795979
1681483755.565055,0.4891414120980839,0.6586955820083151,9.708317462253971,-0.0020420747724356897,-0.00017298186077468244,-0.0022714694536749
1681483755.5750115,0.5786248345242339,0.7545787888455388,9.680172611559803,-0.0012482094272774711,0.0027931398043790382,-0.000245241219503
1681483755.584949,0.31670433668145326,0.6149492452195613,9.779891670997454,0.002470352691502249,0.00027598242593945984,0.0013763553029516
1681483755.595012,0.35115512874509724,0.8826207089963294,9.85746347978768,-0.001370031801373644,-0.000640839169618461,0.0001045459608089
1681483755.6050055,0.4752347486991597,0.8014026666738155,9.757255597132769,-0.002897416229175617,0.0010627378515884087,-0.000461315740225
1681483755.6149948,0.4221084245979403,0.6470884304657074,9.742466855681338,-0.0008947085312782035,0.001243408103896951,-0.0004445638082448
1681483755.6249778,0.4611744439432001,0.5819705406554337,9.687293674721742,0.0016932748086026716,0.002916437954944718,-0.00183446566048
1681483755.635013,0.3444892191920611,0.8980641292424547,9.857833100725957,0.00014466301414582422,0.0006142142199937604,0.0011938267521567
1681483755.6449766,0.3737548842855823,0.8790473103138409,9.861026440184595,-0.0030307760861750374,-5.82149259597915e-05,0.0004919738235425
1681483755.655015,0.5221956918333217,0.6096236246565094,9.666456937814852,-0.0015067647546091185,0.0032252760525313816,-0.0018549435812506
1681483755.6649694,0.2494336395016375,0.6250515212003777,9.828718060370539,0.0018031519623664808,-0.0007495875727560959,-0.0006088607519391
1681483755.6749773,0.42440000237379605,0.8811042169374501,9.796821503385374,-0.00026436632310140315,-0.0007127416725616862,0.0009855735075202
1681483755.6849573,0.35661496787959746,0.7572112721306508,9.809034189884633,-0.001052629529358875,-0.0015185177985255218,0.0001823976595428
1681483755.694961,0.5950636519343594,0.641233687368486,9.626400274505087,0.0015338148782995569,0.0023185368208014693,0.0007508746307816
1681483755.7050023,0.3003776539222442,0.8425422517668035,9.872280555176783,-0.0010086790184394192,3.828069727633415e-05,0.0001537172316115
1681483755.7150946,0.2276284621079428,0.6541974575782326,9.839922101521319,0.0008126345288596731,-0.0037342977941800565,-7.948605748747868e-05
1681483755.7251194,0.6404336465507301,0.7619599674359122,9.658888359963468,0.0003294217765251487,0.0012203285222247603,-2.6580881652584496e-05
1681483755.734995,0.4137202253381165,0.7953376650401175,9.800128495422307,-0.0006775181993348343,0.001155868083507191,0.0003716482274707
1681483755.7449486,0.30024478252994125,0.6264800972022905,9.802202423991277,1.5763815617843312e-05,-0.00016737565898208907,-0.002949086720449
1681483755.7550063,0.39156898838958265,0.77343267613324,9.78854907902564,0.0015207901442963578,-0.0019100385508135204,0.0009561442380313
1681483755.7650144,0.5675559880634338,0.730574039917922,9.680588943858885,0.0018348331541951826,0.0012963044575015946,0.0008868420805324
1681483755.7749796,0.3527461743288259,0.9020331873544298,9.857493243433794,-0.0013786035895473217,6.547095878280267e-05,0.0011815050634563
1681483755.7849994,0.5228391470756245,0.7445618056104318,9.691715765235326,-0.0016393823917006897,0.0029983915516027747,0.00078550632638
1681483755.7949562,0.3423627730970925,0.5059479183342775,9.732889044677535,0.003048515957377854,0.0017396311934750543,4.641001173371988e-05
1681483755.8050218,0.31898400113004427,0.7414168644898665,9.819927863266987,0.0025083691797435884,0.00040112806646146567,-0.0011858872644129
1681483755.814969,0.4837349458492917,1.0504673985058133,9.846942594679742,-0.002087536716400881,0.0008854068692432934,0.0017939697677742
1681483755.8251235,0.34180658804485026,0.580031703933573,9.739143573691315,-0.000504664604332243,0.0007248340610353088,-0.0013058672233942
1681483755.8350043,0.3971216827532955,0.7777323522299618,9.788961198238903,-0.0008727280015782985,0.00022341366678416922,-0.0008539962622795
1681483755.8449607,0.45587043167886826,0.7206697648191845,9.741727765324315,0.00034470445034674474,0.0006864849169508281,0.0005217738758314
1681483755.8550684,0.4808136967616403,0.7216587435627997,9.733324385352637,2.9909279506125596e-05,0.002635553637469238,-0.0007004989351603
1681483755.8650444,0.3020187618970943,0.747159311396023,9.845495827818043,0.0006307989255884635,-0.00022732139841430974,0.000725169138192
1681483755.87502,0.39360466001275257,0.7615399375739365,9.811178159794743,0.0003413629150763717,-0.0009556280613428174,0.0009472042398069
1681483755.8850243,0.4261300384887667,0.700959196585733,9.749765660095784,0.0011378272807537517,-0.0004206666939961223,0.0007989426917869
1681483755.895027,0.4338979563359114,0.7983020829300209,9.776336516725063,-0.00043201643695418797,0.0003955390805251849,1.6633999208757458e-05
1681483755.9050033,0.45514429050847593,0.7981300481350143,9.762195288946717,-0.0013435813480721281,0.0013481003758451945,0.0005065189866822
1681483755.9150524,0.40515438801421966,0.7306418742281278,9.771551067038686,-0.001200916987210523,0.0013797573400517978,0.0001566967653583
1681483755.925262,0.34442917001249773,0.6304917110132527,9.775842117532997,0.0014909788863391074,-0.0003852640903396015,0.0008470018470201
1681483755.93504,0.4914445047115012,0.7557134985460932,9.737750211295502,0.0006494364121771211,0.0015805644776135997,-0.000309688974497
1681483755.944978,0.35370746715766416,0.824109510420824,9.829090571053902,0.0006274652187019573,-0.0007395532470831038,0.00300766096511
1681483755.9550529,0.3973841498441067,0.6869047442969205,9.758454638373541,0.0005659849697490383,-0.0002869284270706713,0.0006730194977957
1681483755.9650345,0.48349519267988017,0.8959382316313275,9.791274288908278,-0.0018166957658329523,0.0007077207867631499,0.0020468939870137
1681483755.9750288,0.3771461120935062,0.7751786373662424,9.798746995135994,-0.0015920819502000406,-0.0004541880465643123,0.0037080068100717
1681483755.985075,0.4342589595453779,0.4360231937587777,9.669088622857954,0.0024830347175825566,0.0013387754182877967,-0.0006855807773295
1681483755.994973,0.4016406774937992,0.7643684130649645,9.788619865562431,0.0020717357298741653,0.0012248058222758995,-0.0008804339490357
1681483756.0049706,0.4443362733750542,0.8160995303566315,9.786002964453395,0.0017890172754465384,0.0011823158078965448,0.0009490748594057
1681483756.01501,0.37129634694831154,0.8172991419428997,9.818879408368824,-0.000227487257917453,0.000701754527675405,0.0002803832717713
1681483756.0250094,0.45993255982626835,0.7367217304880384,9.740845599792957,-0.0008276508440505422,0.0021527560674805472,-0.001306587368575
1681483756.035049,0.4050893417219002,0.8704508343427877,9.834175794042052,-0.0021534678040139197,0.0009174402327351451,0.0019415064848967
1681483756.0450351,0.3846485614730964,0.6743866010815709,9.761442864022419,-0.0011617985008169239,0.0006782857463146445,0.0011506100086502
1681483756.0551023,0.4017005108269626,0.6610569453847768,9.760013361570191,-0.00014403260105572425,0.0008533794193825645,-0.0005015567916903
1681483756.0649867,0.471739411968006,0.9138191028324385,9.808231044121205,-0.0028914333317323656,0.0015585793612964101,0.0006566371262546
1681483756.0749922,0.2974445723749678,0.4669083387792403,9.742045381332558,0.0018080121035938656,-0.00014834817384245795,-0.0014596951700273
1681483756.0851405,0.415581215793522,0.8918686274023185,9.82882283724668,-0.0005735637944468695,-0.00034840013787435745,-0.0003193857887286
1681483756.0951169,0.3239013412850103,0.7154906215100689,9.809975085508215,-7.399737429843619e-05,-0.0021305853744316783,-0.0004568522603709
1681483756.1049826,0.6828668816076077,0.7924179571364879,9.633717130827053,-0.00042679706499898094,0.0032882223545282413,0.0007750911131974
1681483756.115101,0.22238945445116975,0.6973224540548932,9.856448253005182,0.00018898682076361108,-0.0004649969067523385,0.000108274743567
1681483756.1252031,0.5752975887402788,0.7316756270568793,9.683510143695676,0.00021769114291912648,0.003362745237527534,-0.0003476727328721
1681483756.135188,0.251424569412345,0.7657831455854436,9.86220186768225,0.00023071608419642235,-7.645262676406593e-05,0.0006488064496319
1681483756.144996,0.25976040718620164,0.6107146388640895,9.819293847563277,0.0013747734289457447,-0.002084021847755798,-0.002674141669971
1681483756.15504,0.646880946026218,0.9666947317542216,9.713183906939333,-0.0004241781164581616,0.0011562438459347506,0.0026023384375971
1681483756.1650422,0.3201787385506382,0.6623431087657576,9.795669814287782,7.239484986819616e-05,3.53040322560679e-05,0.0005400390323724
1681483756.1751206,0.33765528606469475,0.6552458282606551,9.791634528621248,0.0012179154329301494,-0.0012975923671554065,-0.0010346528183195
1681483756.1850648,0.38349701362496524,0.9854310766435297,9.86913513017417,-0.0036845497032822042,-0.0019618204673812925,-0.0010789879638228
1681483756.1950505,0.4848605619350655,0.6194764082879948,9.68867693766673,-0.0005731862414012339,-0.0006568548720780726,-0.0001171062508124
1681483756.2050807,0.4774911059910388,0.7065290069875625,9.736408194064673,0.0005197879151599041,0.00044471776646977216,0.0003992001252722
1681483756.215029,0.40530717860651444,0.7546688197957522,9.77926556808168,0.00021654597755372358,0.0005065572464060794,0.0003228493692826
1681483756.2251036,0.39154528166182806,0.8240228642109949,9.805237279370438,-0.0015503346902325122,0.00021560994665574884,0.0002073646715384
1681483756.2350402,0.4040451274510101,0.6155345483315148,9.731357178696035,0.0002594180212505026,0.0006797954662434068,-0.0015189270529422
1681483756.2450676,0.4077107749382292,0.7933636565438915,9.80368648521165,0.0005641418131393276,-0.00043632107124897887,0.0009602488676559
1681483756.2551522,0.5304143856700152,0.7449567053221889,9.70443716003719,0.0009530466215379286,0.001938556833389513,0.0018349263660151
1681483756.2650206,0.2964073214989073,0.7868126201968105,9.857520327742474,0.0007120255010870309,-0.0008840975459046105,0.0027789381525021
1681483756.2750306,0.5043876619034019,0.7822976855914318,9.737451429448349,0.0002888245035113623,0.000953584823440012,0.003431982473145
1681483756.2850494,0.2198738094835494,0.7059160191620231,9.865554411623041,-0.0015827374789336675,-0.0013490213197054693,-0.0015446457586709
1681483756.2950287,0.5957790540332325,0.6791243736437436,9.656592241329774,0.0015602739159249924,0.0012918454877692866,0.0016255969344878
1681483756.3050158,0.3228863289308375,0.7845628919010337,9.822931022312256,0.0010342710295067601,-0.0005775137975511858,0.0024656357668813
1681483756.3150272,0.4961143656279937,0.7667899437431002,9.736465479372395,0.0004255534928119911,0.0011696524892355232,0.0022998698364485
1681483756.3251514,0.33923404636735993,0.783623807675656,9.823114095149048,-0.0014713793289030908,0.0004178764227411019,0.0001976635499399
1681483756.335176,0.43105142776175,0.7250775765183655,9.756806812890847,-0.00036570708356058223,0.000395166727453107,0.0015745387532173
1681483756.3450212,0.3628662241872433,0.6903986186570596,9.791679747821094,0.0005946757422080625,-0.0007194434021545531,0.0015022777075013
1681483756.355059,0.40298603580803344,0.8210737904364477,9.802497424930467,7.314503610040738e-05,-0.001458528702500214,0.0033123897115241
1681483756.3650384,0.35127497527813845,0.5046953707003814,9.719126182950907,0.0022133312517352705,-0.000629673464136798,-0.0026257180183652
1681483756.3751788,0.42202299495282036,0.7532942635597336,9.772741421971132,0.0032772604791685605,-0.0010014413413461682,6.355845430011469e-05
1681483756.3849952,0.35939750800902937,0.9478785872355485,9.866039495892744,-0.000433869830593576,-0.002301198047590056,0.0008220346604015
1681483756.395065,0.49604683564680696,0.6370939228941348,9.702672340826695,0.0012935545289221673,-0.0001081285109717856,-0.0005086271598461
1681483756.405003,0.4212801226154996,0.8002961963178161,9.798576212761768,-0.0004856641333969233,0.0003057552510213891,-0.0016057384240898
1681483756.4150493,0.43775488334857454,0.8162321321968282,9.782335487749831,-0.0013875488791360371,0.0006995137140315195,-0.0002296193310517
1681483756.4250994,0.25844045469977384,0.7503325297722719,9.876417319837799,-0.0007851638231519052,-0.003211661267503615,0.0010749851021923
1681483756.4350872,0.5222590075975778,0.6234624555532878,9.670296121761275,0.0012063860017962238,-0.0005491848364152524,0.0002692217199605
1681483756.4451103,0.3487619087929324,0.6816258315916708,9.782944186690138,0.002153711120641719,-0.0015498012339547089,-0.0004281773039597
1681483756.4550333,0.5134476163189098,0.8148638619103488,9.747654012233186,0.0013769813853309557,1.2965414774444453e-05,0.0009073381620932
1681483756.4651065,0.5354830144105603,0.7098490008723745,9.694394088732274,0.0015852300093700381,0.002818097454939095,9.925682703802166e-06
1681483756.4750912,0.4395757544833783,0.940398215155369,9.834535490385926,-0.0020852806162569184,0.0027827053733158378,0.0009297070169363
1681483756.4850628,0.2595661170736481,0.723040587010286,9.845763360750135,-0.0016505555287153722,-0.0003789580596273386,0.0012075967638761
1681483756.495034,0.43306428657918694,0.7117618184910544,9.751112618297142,-0.0012199259433812932,6.10060373488535e-05,0.0007993142312865
1681483756.5050156,0.4389546579012597,0.7238723439210354,9.753875289876358,-0.0010723964872451997,0.0007792339000589705,0.0003008639865096
1681483756.5150423,0.43639146381743754,0.7768471403539898,9.767403298858255,-0.001067166016638851,0.0009152163230585727,0.0016688107676113
1681483756.5251944,0.39899696186258393,0.68563847084884,9.766507612422792,-0.0012132167444361018,0.0013845859821320049,-0.0004866744897786
1681483756.5350635,0.2804614776867374,0.5657511657266133,9.778717100608155,0.00219766217078328,-0.001227173224142215,-0.000601027397764
1681483756.5450397,0.49872179550940265,0.9944030633626039,9.823806919908222,-0.00047636121069099185,-0.0010431672190960195,0.0043189681560274
1681483756.5550182,0.4481700558734814,0.7099143459006462,9.735026368633738,-0.001019480101844664,0.000607504211314346,0.0018069920729853
1681483756.565091,0.28074791516458464,0.6897407372137266,9.830378945555443,-0.00011945129918397679,-0.002032239330015303,0.0012642286269933
1681483756.575026,0.5107523104000266,0.6173154478054119,9.672912623315971,0.0014682684028772281,0.0007364042272911405,-0.0009228789753738
1681483756.5850902,0.3133171069250477,0.7536417741316809,9.848382855093776,0.002059094203906873,-0.0019391094042799642,-0.0001681502948973
1681483756.594999,0.5426225042579657,0.8297761726159797,9.732894903299435,-0.0008511075222600194,0.0015202066019986183,-0.0018963033839586
1681483756.605114,0.42741337421870873,0.7215642882150974,9.75347606053505,0.001686179477332978,0.0006540831076913536,0.0019478227145977
1681483756.6150725,0.3944412374367832,0.7634147499283278,9.790962674495027,0.0012253605438201942,0.0004126886614612853,0.0017343523464173
1681483756.625169,0.27648820676872776,0.7640620482425102,9.849713109671336,-0.0007076844602875326,-0.001464497176160317,-0.0011009580961886
1681483756.635165,0.5039986918558599,0.709089250240745,9.708684227981664,-0.0007325943764905199,0.0012166004137710235,-0.0027546121313694
1681483756.645017,0.4037713673094616,0.8655279668755418,9.8203911713088,-0.0018334478905674477,3.455484819410374e-05,-1.6340095076469803e-06
1681483756.6550894,0.5785903646591917,0.6769700732490945,9.656687880337786,0.000979835003667549,0.002840089496729964,0.0021612600499306
1681483756.6650405,0.1330472514180155,0.7439066009175856,9.917259467180056,-0.0007412200007446815,-0.0019331354232056347,-0.0011430589988354
1681483756.6751,0.497099957794418,0.7237934381068313,9.731833567905086,-0.00040778198569791735,-0.00023405912999563926,-0.001247745011327
1681483756.6850238,0.39313503003299977,0.8289489253897047,9.816737254364826,-0.0010869170141925301,-0.0014745572229934866,0.0007814335945535
1681483756.6950862,0.37136648713824266,0.5638559080427488,9.74349615031321,0.0006930586124754641,-0.0010011193254737644,-0.0031420511699739
1681483756.7049985,0.5520542017996767,0.8466214198051113,9.73716882433144,-0.00019324624915197347,0.0010735313725749054,-0.0006219057872418
1681483756.7150066,0.3964097714539128,0.8265269726914702,9.814234772497652,-0.0016282172964777796,0.0004566146018793083,-1.2428969470014992e-05
1681483756.725171,0.4263697699733918,0.8893828856010213,9.81787265721541,-0.004401282410579738,0.0006298786441566353,0.0008324727491948
1681483756.7350647,0.37322911243112833,0.5387327332786642,9.735207087086694,-0.0010966103000786796,0.00023385133610872376,-0.0006434982683036
1681483756.7451694,0.34915284945942315,0.5034224018093411,9.730231969368244,0.003462768346971407,-0.0006702478732194176,-0.0017279391217503
1681483756.7550457,0.4156911079480692,0.9726332739076176,9.854923802750491,-0.0009997308651695685,-0.000945581136076249,-0.0009281109127674
1681483756.7651076,0.468778615341966,0.6529471901886443,9.710682348127317,0.0014325007332310511,-0.00014352422086718065,-9.43944364312796e-05
1681483756.7751114,0.4506487031504108,0.9087006828237238,9.810755225561888,-0.002150491378416681,0.0008164846407140023,-0.0004184902686152
1681483756.785079,0.37245699408469374,0.6713131731979616,9.78188893702111,-0.0008250566573824574,0.00010645155227504983,-0.0010942523408207
1681483756.7951071,0.35275425318629244,0.6811075313174956,9.78960972165104,0.0016817235240723972,-0.001962944230920032,0.0008577898802709
1681483756.8050275,0.4448784025215982,0.7205879392082036,9.73603983380411,0.001151604861618429,-0.00026792859104543657,-0.0009299721609327
1681483756.815103,0.3644524704440325,0.7914934894242687,9.805957584491733,0.0009616233201318701,-0.0018027491274317199,0.0009766403777998
1681483756.825202,0.4486971467928821,0.660181731146068,9.71376854071259,0.0029539194583123518,-0.0008163037698449491,0.0010630902211655
1681483756.835181,0.4538098088429152,0.7414991011879157,9.752768336972135,0.002103059030403909,0.0006499763828727663,-0.0004754688165608
1681483756.8451004,0.3316020962089448,0.9459741073922675,9.885308208033717,-0.0018319811797694245,-0.0012793701701777646,0.0003176390851389
1681483756.855179,0.406592233538984,0.630744396538768,9.743839891092392,0.0006177786824576464,-0.0012786052236982955,0.0001887347275864
1681483756.865119,0.37534015322037034,0.7973898217388394,9.817132135712956,-0.001218797579412088,-0.0016421796292749988,-0.000975791136128
1681483756.875107,0.5543251277117175,0.7835524707225261,9.72241048074725,-0.0010135290571413446,0.00046668941797688184,0.0010634398745846
1681483756.8851333,0.3686131085117805,0.6969394952695191,9.783579185856677,-0.0010801965965180596,0.00031545130251494724,-0.0007515188812736
1681483756.895162,0.44935336255566205,0.7864221481314331,9.795516909654472,-0.0017358760452501122,0.0006369330349738863,-0.0003279541892457
1681483756.9051137,0.3272163552030073,0.7033581647932945,9.793599190746976,-0.0018375437582276394,-0.0005693147200573662,-0.0016694450791451
1681483756.915136,0.5729937010719767,0.7256025079101498,9.669002924523605,0.0008509720779500383,0.0015723633201531564,0.0026608363219078
1681483756.9252508,0.36241979674437097,0.6484535855555361,9.767574646259456,0.0015364114710312684,0.0013287339474755762,0.0002788717352327
1681483756.9350896,0.29010338026323135,0.7169145106258833,9.828442622596233,0.0014026822171521063,-0.0008848215627166005,-0.0007366295944425
1681483756.9451067,0.43613607148020855,0.8417614822988361,9.799669512219449,0.0007086733885827713,-0.0009969704747992394,0.0013487864885486
1681483756.9550946,0.4099718648053371,0.7488982449003194,9.770797146105966,-0.0006003805403982385,-0.000283967355201874,-0.0009936844039235
1681483756.9650698,0.37730923508645436,0.7477337289893109,9.787530361693884,-0.0006462139436497166,-0.0010435452629118994,-0.0009441247716072
1681483756.9750493,0.4608995198643936,0.7693170734259075,9.766416783712119,-0.0006063625592556546,-0.00041993581035717684,4.866194971914011e-05
1681483756.9851756,0.426657656586152,0.6270359627875421,9.737445411117783,0.0011218198769633121,0.00034933516856830546,-0.0011546004138413
1681483756.995112,0.38395648984526304,0.8095291501097474,9.804735597291227,0.0006166589156082437,-0.000632650599123723,0.000444284985448
1681483757.0051055,0.41174048864053997,0.7139670705845212,9.765203646501083,-3.749007855479121e-05,0.00022604570528300604,-0.0020244529045644
1681483757.0151234,0.4488635847837174,0.8109107049420262,9.778122525053146,-0.0005907105730830234,0.00029680659214359744,-0.0004821990191463
1681483757.025279,0.4718872370054627,0.6289217843916961,9.706694221896743,0.001938745430494547,0.00157458997213493,-0.0004691758699241
1681483757.0351715,0.3478821522152298,0.9223361860305064,9.87530928210768,-0.002007818515278443,2.1355123248021054e-06,5.8723376738676605e-05
1681483757.0450914,0.4366262509203325,0.6170872514899453,9.723474885819241,0.00011561235349099204,0.0006920796950626979,-0.0011288872960481
1681483757.0551534,0.42498949486143356,0.7607616699247357,9.778582858989832,0.0004892511322515991,0.00048717738010652616,0.0003887733869727
1681483757.0651352,0.5219652578442006,0.7720999634130364,9.737702372974299,0.00032237939863077934,0.002298037990248973,0.0009609790827621
1681483757.0751276,0.3896033549751288,0.7943566841971289,9.797795172105392,-0.0007754955596725076,0.0018629260595208568,0.0009691620903562
1681483757.0850909,0.41612948333530597,0.5544831102409611,9.712522186999951,0.0019115901481621552,0.0026318370656702728,-0.0011676098260555
1681483757.0951328,0.35392054573956333,0.8177797190526978,9.839259016273417,0.0001655245411232346,0.0015507599397995928,-0.0017171113326672
1681483757.1051102,0.5444889737941941,0.769864628161374,9.69708990796467,0.0019663174701669193,0.00324092217469478,0.0023613169283148
1681483757.1150591,0.2110711288288024,0.8305169907996143,9.904289151126402,0.00031529086981573395,-0.0009045857162567507,0.0027342230273884
1681483757.1251016,0.4697571083692695,0.7204908605823748,9.735136626592814,-0.0005463684572421782,0.0012784288525301397,0.0003593604738366
1681483757.135079,0.28599041485883014,0.793044104671177,9.852349755104377,-0.002162033508035108,-0.0008006629771593688,-0.0010834503959391
1681483757.145089,0.43502327298837257,0.5331442973947996,9.691218234960706,0.002535204143048075,-0.0004139737615389195,-0.0008044082246247
1681483757.1551645,0.4604297101199053,0.9929738725261317,9.829042805398036,-0.0006145479870459288,-0.00040724283670849973,0.003322427739064
1681483757.1650598,0.5005472604602333,0.665021514542249,9.700887689178623,-0.001165145377314018,0.0030341607191728018,-0.0006878229364279
1681483757.175078,0.26497769589072445,0.7011812379115272,9.84725934485101,0.00014166373314210184,-0.000301474366938925,-0.0001417179632458
1681483757.1851456,0.34714753599981885,0.8046090521638111,9.83474630044104,-1.03055382919413e-05,-0.0023589481491647765,0.0020584540284712
1681483757.1950874,0.5091816317369133,0.7393429866939152,9.704055656987137,-0.00031503472455583623,0.0002197063873505439,0.0012828603462789
1681483757.205234,0.4615109695431547,0.7173407595368089,9.730515108507173,0.0006665858286708594,0.0009941875319960517,0.0020372298272799
1681483757.215088,0.21131170299647212,0.8304913296999392,9.905888119482876,-0.002088253705099549,-0.0023660384959463482,0.0001782999566298
1681483757.2251918,0.38939574654409825,0.5688403707365468,9.727487930197546,0.0016880481457512571,-0.0029319001879439923,0.0002770149108495
1681483757.241703,0.4787123078495798,0.8336018589594352,9.769315293413959,-0.001089514755424285,-0.0011158132875428634,0.0005437583272818
1681483757.2451582,0.7481753762759004,0.3278251017294174,9.446117420455703,0.0012562678236256526,0.0018379682806973455,-0.0007988547481123
1681483757.2551453,0.2628930793905909,0.8589382687649525,9.891593543680179,-0.0009196423081459401,-0.001240235437264309,-0.0006248643662307
1681483757.2652314,0.4731908797710463,0.6116562988408163,9.6899075959316,0.0023504142375408805,-0.00027351835120363214,0.0001757101813804
1681483757.2750564,0.443486758069642,0.9291515750430177,9.822307657446036,-0.0015827807207277756,0.0006007841554922497,9.557344625541744e-06
1681483757.2851696,0.4638996051829552,0.6268869102795346,9.694625515868598,-0.0001697622485122832,0.002476107423219148,-0.0019700771703842
1681483757.295181,0.3807674399254732,0.7852047320355598,9.811247384361703,-0.0004301373808373345,0.0015485036272039885,-0.0010771404526654
1681483757.3050914,0.24536325982684343,0.8077106888428383,9.890986506035253,-0.001290686212721989,-0.002348148146696628,0.0001183306990664
1681483757.315047,0.6101372131195737,0.8320698380586458,9.695220017470048,-0.002896315031416467,0.0017112932003461193,0.000839188923734
1681483757.3252108,0.31919031080326543,0.6730699203168057,9.804418119919605,-0.00029119081594905483,-0.001013738738809346,0.0023136385675993
1681483757.3351955,0.36864000736860597,0.7919076260266813,9.813823100599551,-0.0025051338601364214,-0.0012137936340567157,0.0003045995213564
1681483757.3451085,0.4320020631974112,0.6737698307156144,9.73803764153681,-0.0007102829782742185,-0.0009254538468785199,0.000935281564622
1681483757.3552418,0.5230091982106485,0.8041192998129161,9.738465752552557,-0.001044822527086455,0.0007457075246958317,0.0028083792381461
1681483757.3651042,0.33099909123877413,0.5532225801980191,9.750669193107875,0.0008267531101508803,0.0004909145090370432,-0.0008301236707243
1681483757.3751535,0.526327632404596,0.8101847278305021,9.736470348581715,-0.0003087235963961949,0.0028222107375880526,-0.0003741243894669
1681483757.385266,0.42138999991439413,0.8047559387117751,9.793292381390243,-0.0007483015287075929,0.0025219311496360803,0.0007896330167081
1681483757.395252,0.1739884103679565,0.519836965266184,9.824807614120566,0.0019261603824588412,-0.0013761889907875139,-0.0025117022491518
1681483757.4051523,0.6748322512594453,1.0897118016664062,9.744308986191939,-0.003123161110031023,0.0028948305975618474,0.0012042556150358
1681483757.4151213,0.3038683403130591,0.5707801426139536,9.780333357740247,5.14927049462032e-05,0.0009371889582245159,0.0007069213275339
1681483757.4252665,0.3477362207858187,0.8279985173685389,9.834633083023792,-0.0013804669562779116,-0.0006058264743622582,0.0013305355783326
1681483757.4352362,0.4925986957590048,0.8698689215073412,9.773011029965303,-0.0028657225558949145,0.0005985637377020827,0.0032528018305551
1681483757.4451218,0.4356037231158184,0.6710086669394991,9.738888686912345,-0.002473845048564957,0.001644619774138019,0.0015100727846824
1681483757.4551983,0.3349549611905215,0.7053888101075347,9.80230675200582,-0.0027733580285478,0.0007192731673572745,-0.0008070250082287
1681483757.465079,0.5616954095099747,0.6879777738844688,9.670503371987202,-0.0003709324552298464,0.00308668290063859,0.0013018144632464
1681483757.4752352,0.2355314394520935,0.6370697493233136,9.836853625790114,0.0008245311815948178,-0.00042068009821025334,-0.0001804471289265
1681483757.485139,0.40563415733187214,0.7499583946955793,9.779636807623294,0.0006043592770372573,-0.0003215696833112231,-0.0002866156905416
1681483757.4951923,0.5484047455071751,0.858028579764958,9.731848068297824,-0.00019882884941705364,0.0018487794028654038,0.0023173737532001
1681483757.505159,0.4116536952858167,0.62994172975834,9.731208977270127,0.0018586456588502805,0.002179975510117325,0.0013100150204504
1681483757.515162,0.21272864665592953,0.8254451205763821,9.910692019053185,-0.001113743239603482,-0.0011884476068834773,-0.0009299640118602
1681483757.5251656,0.4558702391100587,0.7554848887871687,9.75055246047473,-0.0007382240515925232,-0.00029103773989193316,0.0001496153377469
1681483757.5352075,0.4421882220241103,0.6679027663213176,9.73023052033983,0.00029998763361837347,0.0007975159114835305,-0.0007448180153492
1681483757.5451553,0.2970529830401385,0.8725228346623207,9.87191536447351,-0.0015991406967790149,-0.001894407013419301,0.0005582864355769
1681483757.5551343,0.5877076249806643,0.6679246670424283,9.639564744105824,0.0003480762949252168,0.0016110908021088758,0.0014735831046404
1681483757.5651624,0.279589503159781,0.8295775064943677,9.872565370539478,-0.002172824341279595,-0.0006009731267110107,0.0001730888575788
1681483757.5751305,0.5176065271074752,0.5829368643182029,9.655836140486887,0.00044607816863840097,0.0021952277568375047,-0.0011888600460711
1681483757.5852332,0.49649392553466304,0.8728550924672358,9.769783954217255,-0.00040852489519482024,0.0028717354133068183,0.0022432439105127
1681483757.5951655,0.37094042748508943,0.8058367648606334,9.814791558555562,-0.002403408100421286,0.0026195442646434184,0.0009096387616832
1681483757.6052406,0.36181894254105695,0.772278693613219,9.814165150349744,-0.002159452959523608,0.0013164174108358023,0.0024019345251385
1681483757.615394,0.30328350126130865,0.6332761217232096,9.810976359109825,-0.0004394661485083611,-0.0006996983824706498,0.0010705051495701
1681483757.6251764,0.40958102742783514,0.7214577461494255,9.766980517810872,-0.00011758399920404069,-0.0005838286600207557,0.0007672801107641
1681483757.6351955,0.4297375884849872,0.6900515771524678,9.747078571303767,0.0010126726206145513,-9.845805345638875e-05,0.0005511775921572
1681483757.645134,0.45480974396980617,0.8092577449681402,9.768021247887523,-0.0005177145955699057,0.0010679551489759934,0.0001485043863307
1681483757.6551316,0.3277674652161565,0.7358311489904561,9.828640845477409,0.0004542376971287853,-0.0012186301718856737,0.0009580062428962
1681483757.6651378,0.3890417022047117,0.8998574214268074,9.833696545265386,-0.003494944604295134,-0.001408986076322091,0.0004636823392015
1681483757.675165,0.494517402968258,0.6173703091016066,9.688746912070403,-0.0010884036048147178,0.000585891756753066,8.814327479417044e-05
1681483757.6851676,0.35639884380118586,0.6421959087515794,9.768895914511061,0.0010342681495673575,-0.00036963200510969614,-5.06177869787636e-07
1681483757.6951635,0.4768275642467107,0.7820740183390842,9.751900173005266,0.000922485704269367,0.0004592486313817663,0.0017537340714138
1681483757.7051206,0.450835870501669,0.855878958162357,9.789155723929623,-0.0026347658637621584,0.0019638695079495106,-0.0002139949978787
1681483757.715165,0.3723222677318179,0.5717574167933325,9.732097163227982,-5.575523301366435e-05,0.0018923545031453454,-0.0021634220651808
1681483757.7253106,0.25324211941055225,0.7865440877881289,9.887882636616784,-0.0011640231976778313,-0.0017345897917698835,-0.0022431365254793
1681483757.735153,0.6244981862771366,0.8542177283548575,9.702274952697493,-0.0013558793251263286,0.0012743319118903485,0.0013577480818152
1681483757.7451203,0.20894523290699035,0.5044203679323633,9.803203689621045,0.0020985704224632117,-0.0019450467574258943,-0.0018017003353211
1681483757.755187,0.6748959157284802,0.9476177006584237,9.684487536347167,-0.0017302752121285975,0.003388068317163186,-0.0001010666641864
1681483757.7651415,0.36526829643790243,0.5538759939848862,9.726381528033489,0.002030042849344849,0.0026776645042631123,-0.0005872154183212
1681483757.7751343,0.41245761135238934,0.9001168809762213,9.821451079849114,-0.002147523365303144,0.003139951700208472,-0.0019536775111678
1681483757.785215,0.26365417429669585,0.7262440823699898,9.847006742088094,-0.0009587651046900912,-0.0007570692310735615,-0.000168145871115
1681483757.795268,0.4791420157707036,0.7209226778026407,9.734984230758018,0.0001793164918500168,0.0001269463409093595,0.0010086745856337
1681483757.805146,0.287325366102793,0.6302342736245568,9.805735623291854,0.00249719432176501,-0.002349615201922608,0.0004346141318332
1681483757.815139,0.5511159464606407,0.9628275939230506,9.786875434643724,-0.00239413286346834,0.0007471898693475002,-0.0002113680861416
1681483757.8252058,0.2798597852667508,0.6713230792730269,9.821136968860369,-0.001774212293050197,-0.0014968981866255024,-0.0014820583205196
1681483757.8351543,0.6109954758327936,0.7278736358422144,9.672990252874856,-0.00015819227088201957,0.0016490941718129105,0.001075333969808
1681483757.8451314,0.3710559594674903,0.7629804981338246,9.805175857941594,-0.0019709105756137344,0.0016785452319922226,-0.0015215368516269
1681483757.865169,0.3903832297986213,0.7230344725736436,9.790853808261245,-0.0005791598559477636,0.00024614965965448417,-9.51295991886167e-05
1681483757.875176,0.38551500738964084,0.7865510818674057,9.81907603446751,-0.001813727796101322,-0.00033052156966693137,-0.0007202234159681
1681483757.8851092,0.35516236763885584,0.7698063480108476,9.82167693048669,-0.0013167604798850643,-0.002271397631474367,0.0013722575782107
1681483757.895161,0.6087106864786949,0.6865490557383624,9.655398302916097,-1.8520087855575034e-05,0.0018063048198396436,0.0014948170997253
1681483757.9050949,0.11110170556347496,0.5646330401928651,9.8613592873448,0.002587722791729482,-0.0034742762028935445,-0.0008938303257796
1681483757.915189,0.5873987075258951,0.9649526045916411,9.759850630148092,-5.5385813734787295e-05,-0.001081540317364638,0.0026660597609829
1681483757.925232,0.38100485052488425,0.7123872959517263,9.777460218433912,-0.0011156025272025393,-0.0005782535010378154,-0.0004982042632523
1681483757.9352322,0.39292978072130763,0.6039528886754302,9.740070844668374,0.0021600540844818297,-0.0011832383561039943,0.00039923551553
1681483757.9452126,0.4164048945742757,0.8379415568617922,9.802499415839165,-0.0005393079754773454,-0.0006881512952225621,-0.0006639827083322
1681483757.955207,0.488544360488194,0.6146262403411261,9.690750824672467,0.001802791336572821,0.001257592087016618,-0.0013583460863206
1681483757.9651735,0.4143626534974519,0.9061580804574172,9.839334356310102,-0.00037763204889611484,0.000644013060948917,0.0009885536233436
1681483757.975175,0.37408846594421935,0.7201859042137235,9.78661619778217,0.0002571667103406631,-0.00017070903679964328,0.0010820515704348
1681483757.985254,0.5221455251439628,0.8419763988267329,9.75594367693352,-0.0012154459523657701,0.0017575019705938142,0.0017853891145445
1681483757.9952047,0.36355677517428175,0.6457873152072524,9.756815226738338,-0.0004312655956521718,0.0019012897796290113,-0.00068634422901
1681483758.0052216,0.35124364131447194,0.769936109813688,9.815871111373859,-0.00048639708063580767,0.0002714851394675271,0.0003079487901654
1681483758.015261,0.3316071926993751,0.6752144307096221,9.802227466340177,0.00019644704254391537,-0.0010931021934903816,-0.0009623735717955
1681483758.0252328,0.4840968352226632,0.7114444230195637,9.731188738961002,0.0014433048734185188,-0.00018114496759915697,0.000404054877023
1681483758.0351849,0.47563464727550686,0.8102907298276741,9.756188136655332,0.0006192693007722186,0.0007695584550361053,0.0013428407797131
1681483758.0452287,0.4665226206610607,0.8168352742563052,9.772400388467288,-0.001948957410679267,0.002501085895690513,-0.0004754485602948
1681483758.0552225,0.43563975151456397,0.6330629462054157,9.726939790481708,0.001302852559204367,0.0023718064622065037,0.0013968500311843
1681483758.065218,0.29314539740155826,0.6917925564446527,9.81250613486564,0.002578760960393046,-0.0002477920546170084,0.0014441714952649
1681483758.0752633,0.31828264180436894,0.7199395007705942,9.830305969537946,0.0015863532586616374,-0.00133375254956928,-0.0013881814706597
1681483758.0851943,0.4670055965003908,0.7518976601941058,9.724682947871216,0.0028201717740243466,-0.0007347100226714517,0.0014177057778819
1681483758.0952,0.41262098558210486,0.9618302176513263,9.859261329464603,-0.003701326733208278,0.0003892074233270292,-0.002191344978613
1681483758.1051917,0.3418175036327707,0.6689815497565006,9.778124725300355,-0.001259017401847344,-0.0016358613526173866,2.1468611108908237e-05
1681483758.1152136,0.3844409042909621,0.7187954780700949,9.773653148685588,0.000271700897972432,-0.0026152429786919784,0.0019392482022762
1681483758.1252391,0.5569300526657942,0.7840694450192821,9.709988780340147,-0.0006231291425962621,0.0006101185542116154,0.0017414319695912
1681483758.1351428,0.2948729557942923,0.7210259251241958,9.830900320627915,-0.0009270937863155119,-0.001373598987077745,0.0002040121431004
1681483758.1451583,0.40834733564992426,0.7994766665014037,9.796551255019578,-0.0014594408742558446,-0.0020627827283533707,0.0012962647120243
1681483758.1551647,0.4653829015657673,0.7576332371615427,9.754630548484323,-0.0019727899312609273,-0.0009299259155977002,0.0014676395363007
1681483758.1652198,0.4829981452785822,0.6217965390548421,9.701789685353493,-0.0007970938832177017,0.001352199878157768,-0.0009370336815241
1681483758.1751337,0.4005126835891794,0.68717466090816,9.749560619795947,0.001213822633272967,0.0007591338765139235,0.0005050040740993
1681483758.185279,0.3423394316051604,0.8576144613805025,9.855320216807947,-0.0020718914049475904,-0.00039571297230537835,-0.0005104921333018
1681483758.195207,0.4138924026748289,0.7164608998738546,9.769213729785058,-0.0007404596750338026,-0.0008140715305286023,0.0008104845142465
1681483758.2052145,0.47588380249258827,0.6296065688844334,9.712993383242036,0.0010018671414944353,0.0008824455452246279,-0.0006628513842347
1681483758.215297,0.29085088086556504,0.8678031109384825,9.895643424095685,-0.0013201125189255306,-0.001907440076036122,-0.0001327565446022
1681483758.225258,0.6472292339903937,0.807593669966776,9.667543927241342,-0.0024641386213888196,0.0029794104059511946,0.0003046150045942
1681483758.2351592,0.2723949931195523,0.674768762140243,9.83298284104376,-0.0016594856668836974,0.0004898066226346967,-0.0007503978017244
1681483758.2453003,0.3130915457025552,0.8115316195120216,9.853054075935683,-0.00230098183398777,-0.0021592740692765113,0.000988920913684
1681483758.2552197,0.5718662650667222,0.6152155326360712,9.637368679769164,-0.0002762915922308802,0.0017563910665863347,-0.0003827076911452
1681483758.2651908,0.35106321109849403,0.8375978366661094,9.83653244948691,-0.002115841283386247,0.0004633276780269973,-0.0001364894018966
1681483758.2752156,0.4466654161187364,0.6339556260147307,9.723441118643205,-0.001121216682062555,0.001910236096078782,-0.0021608066785607
1681483758.2852197,0.41644834315005064,0.7646402838547349,9.775419798126112,-0.00013361174014843362,0.0011160086877874792,0.0003228598466616
1681483758.2952478,0.35370135947589776,0.8777845327310376,9.853999560070642,-0.0017179701264609145,-0.0007086399106749878,0.0021452631877277
1681483758.3051949,0.4784653900568602,0.6096901665130607,9.696389756014609,0.00017000104597079415,0.0013145660693760688,0.000183524559858
1681483758.315211,0.3246010761403723,0.5504824815867815,9.755648747844404,0.0028034113053258345,0.00037653285301725205,-0.0029375308699432
1681483758.3252866,0.39842128461940635,0.8866631833458861,9.822371404381315,0.0013374981775503962,-0.0008568925358287044,-1.2431414191773358e-05
1681483758.3352945,0.5345932767854022,0.6586805903672642,9.669208368847844,0.00259443222488795,0.0021590967448087734,-0.0006471863056991
1681483758.3452375,0.31357644694082376,0.8642629153823791,9.876093550464235,0.0003178880862326302,-0.0002429752000935744,0.0001000763109427
1681483758.355195,0.3540703323732591,0.8513576494985063,9.838959609439279,-0.0012631052885237399,-0.0018034845548389514,0.0013491687528098
1681483758.3652298,0.4694975111939621,0.5585180180141986,9.6806553969986,0.0020065495464116527,-4.5157804229762194e-05,-0.0001361239742014
1681483758.3753548,0.4050942486157703,0.8051038094867053,9.795755730197092,4.984913067786883e-06,1.1085741147361466e-05,-0.001144920712662
1681483758.3852415,0.42505291589851896,0.7654643162465624,9.769185813766322,-0.0006316741996412088,0.00042832203666449915,-0.0011993076227131
1681483758.3952134,0.44203660603107003,0.9098241288159412,9.815230160914696,-0.0031920939714741143,0.0004718871690142793,0.000346308220784
1681483758.405326,0.3780254005973132,0.7737031864995666,9.788777490151885,-0.0029469446350055342,-0.00035137316391494215,0.001769732417912
1681483758.4151604,0.40132049642592676,0.6876289828974816,9.750676265319314,-0.0013420870805086606,-0.0006989426810806395,0.0028031460201841
1681483758.4377174,0.3728284101748276,0.6698429715135116,9.766212481602283,0.0006423581889054828,-0.0012063362729138134,-0.000873348446888
1681483758.4388,1.7553586466534237,1.4565562982246938,9.280929872357094,-0.00047111263669759345,0.0013737978808529526,0.0005605298170361
1681483758.4452488,0.5975630801329423,0.5432914871992603,9.889722028686801,0.004642371380496909,-0.0029911259775270193,0.01896874862318
1681483758.4552171,1.8966205309281372,1.5521537670010783,9.44381596567522,0.0008787367132841394,0.012610211585203772,0.0647041934967514
1681483758.4651597,0.8487139027807805,1.7416365061975332,9.793625967166637,-0.0022853339560211187,0.014413028558005286,0.113649590635347
1681483758.475215,-0.12713184808670175,0.7009725659267211,10.069572921104129,0.0032749670012094116,0.004650253724307181,0.134756534123468
1681483758.485216,-0.08492299807480987,0.9433547622811647,10.066271751303551,0.00507965962146128,-0.0012971712899997418,0.1392377454281326
1681483758.4952197,-0.13099366649304248,1.1304878972373675,9.963646997113894,0.0015467722134308614,-0.00508078141895163,0.1284411388874527
1681483758.5052264,0.0023391242526251683,1.0903332788785611,9.727456535108729,-0.003344249081133876,-0.004773323604810234,0.1107661488891121
1681483758.5152686,-0.15465881910967982,0.5961999500908414,9.713255472232106,-0.004526777118436147,-0.009314240713911551,0.0942717257380958
1681483758.525293,0.3630470564753252,0.6473593741254351,9.53162734959371,-0.004941057986422218,-0.005823930253941046,0.0850303161383148
1681483758.5353234,0.34438289097164093,0.45050378036043226,9.764443652586277,-0.001986545346757988,-0.008426608122438225,0.0838311973453041
1681483758.5452657,0.7874427420342945,1.0787114019841448,9.526056451115474,-0.0032365175929074397,-0.0017215493392465117,0.0919475022197243
1681483758.5553036,0.41847681181600144,0.8408916701823899,10.101576315797663,-0.0046153477167011295,-0.008189133895270326,0.1044476914644714
1681483758.5651968,1.0713515084463157,0.7990004459763144,9.518069818100173,-0.0012534372656331063,-0.0006818931891281355,0.1156869146466728
1681483758.5752103,0.36671461493844226,1.2198106965437072,9.997248745055554,-0.007088279557154292,-0.005962252720939577,0.1297111052513596
1681483758.5852425,1.0042425522680118,1.4900662083773626,9.652479969329342,-0.011845485724637866,-0.005355992276496073,0.1613179582596298
1681483758.595194,1.3343978543416926,1.6375056746467873,9.738815192607701,-0.016541476048710473,-0.004929202884844664,0.2033553409815308
1681483758.6052692,1.981134473961316,2.835278354237692,9.293962223690029,-0.03612335552193983,0.011560232527139187,0.2438232439995285
1681483758.6151736,0.5378094813093208,0.8373705696526352,9.838692228889919,-0.03604369799509767,0.010290375339347516,0.2696049201727387
1681483758.6252434,-0.2849899641132671,0.6195606139248001,9.910384680234978,-0.04251029333252108,-0.00168719977185404,0.2737157035112854
1681483758.6352482,0.7728311718909715,0.33467081853050507,9.479920946992523,-0.03416948410143589,-0.0029918811269033898,0.2742765534162995
1681483758.645371,2.1476147585805916,0.8426642510211428,9.240834903884766,-0.0349752341278557,0.022103334247043922,0.28410771372323
1681483758.65519,0.3004931594148244,1.0267136308610938,9.843326342343463,-0.04023071544690652,0.028454958886503796,0.2690420437098023
1681483758.6652768,-1.2590198544333657,0.3501846682632227,10.336895727859865,-0.03685122756191188,0.00968320303190806,0.2388617235661026
1681483758.675295,-1.3100173683090053,-2.025561179775844,10.652616590930961,-0.020660225991862357,-0.006306206604350823,0.2044285673141953
1681483758.6852272,-0.2816679296140668,-1.4694452734518302,9.894229458858161,0.002165551029291229,-0.012782539934936296,0.1729162174702164
1681483758.695233,1.1153576604301882,0.07556040749756983,9.139079674695884,0.011917993256352701,-0.002290486289614202,0.1637594390154358
1681483758.7053463,1.258539561694466,2.1878592097131193,9.283222448927413,-0.009208975339115502,0.01448405705942853,0.1667227584362503
1681483758.7152555,-0.11447981961887917,1.6511597440937187,9.798541991045608,-0.020016737128857008,0.01092435051841872,0.1781015086412903
1681483758.7253351,-0.8055231512768127,0.14032787856929013,10.08676356162801,-0.017948929545765487,-0.005741650291399859,0.1863954204559799
1681483758.7353158,0.27790339387682383,-0.43248168577760465,9.925043430958068,-0.0023855708202437337,-0.007824797381133928,0.1988726842642303
1681483758.7452664,0.06050104874578791,0.44482232703829294,9.945793487482879,0.005057920155561047,-0.01320416061575659,0.2057366955519196
1681483758.7552583,1.2155003108029465,1.665476161808361,9.583025461561482,0.0006732892666992031,-0.002607357568955154,0.2140565651894089
1681483758.7653518,0.3727558485635809,2.466104440359422,10.039581738623651,-0.025328886074205116,-0.00013184229296432767,0.2167818087578293
1681483758.77536,0.10332379215908077,0.36633775470303453,9.621857858130982,-0.022540941978348366,-0.002300357053083966,0.2149329322815414
1681483758.785305,-0.1255193738834607,-0.8700811026152859,9.811358685954314,-0.008027830067332806,-0.009058296018071224,0.210809333944368
1681483758.7953427,0.4365770431962001,0.05827597897647244,9.690755086969208,-0.0015765683614791667,-0.009544778528985517,0.2071944165468689
1681483758.8052251,0.8071632806710042,0.517410072806973,9.37349469575231,-0.00024868513302649494,-0.0023753194244238943,0.2112312603235718
1681483758.815246,-0.5284609295979802,-0.2482186966274322,10.13756018475254,0.006267525905646622,-0.014005914383996839,0.2109644252300735
1681483758.825286,0.7686283229239917,0.9196273901977225,10.143728158335364,0.008929719413257762,-0.016116171583681952,0.1935584980488296
1681483758.835254,2.5871924169661495,1.8457098979607613,8.82639034700887,-0.0013619607440157149,0.013009375151406375,0.1954118150711533
1681483758.8452797,1.7194105260645651,3.1390456583398283,9.283190135836541,-0.031169722423823838,0.0364654932859247,0.214107542061853
1681483758.855343,-0.6089148891359304,0.6562647934722871,9.618567565535203,-0.02585424732872328,0.020347675698858914,0.2251122284174438
1681483758.865294,-1.3210349636834515,-1.501824324708024,10.193939685258396,-0.011712156964881601,-0.00558962816037796,0.2132541078567978
1681483758.8753302,0.05519525539114075,-1.876033126547987,10.399995701295135,0.024612639372259854,-0.01579411214895508,0.1997778403997894
1681483758.8852465,0.7235071042784533,0.7893961098814625,10.32934994386511,0.017774582623622727,-0.010345042935322391,0.167004539394426
1681483758.8952856,1.4074156647658689,0.8085187352717943,10.052627210716848,0.00919080148128126,0.004683563273225294,0.1437663424253937
1681483758.9053078,0.5406543111330324,0.9154888082323328,8.90883417968365,0.009119311782001533,0.0122223711275936,0.1345074016094681
1681483758.915264,-0.5403578987766882,1.4565343956705616,9.666379684123966,-0.019920512371011695,0.0030110956409971955,0.1461516160011765
1681483758.925326,-0.2199411584093183,-1.2731499669721165,9.657651622798445,0.01313247798304245,-0.01388842100031286,0.1627324062824722
1681483758.9352856,0.935127569209278,-0.32107951473773505,9.770378566208644,0.02162715486640262,-0.009624521521580174,0.1742862898350235
1681483758.9452825,0.7749099909451335,1.6190920888030502,10.3049509994401,0.01852392163040449,-0.008461028463817018,0.1775567221880432
1681483758.955297,0.7394044784299765,0.9576021315843691,10.263469765426418,0.00941075260532388,-0.005747570285132875,0.1808218795300003
1681483758.9653454,0.23460766758752036,0.8211801696014143,9.552996651240163,0.017997027838978975,-0.0070920261898193854,0.1921696949244019
1681483758.9752574,0.03742885885363789,2.161100620094907,10.107942442100956,0.0046762619133144554,-0.023235790982317924,0.2031882542610641
1681483758.985259,0.3763075582025629,1.7187301341139154,9.644251884461138,-0.008946181017508648,-0.025615408462908627,0.206240921044397
1681483758.99537,0.5937060887918503,0.36227082795414983,9.77986968501106,-0.007399160358008047,-0.027294677679980905,0.2092274415731903
1681483759.0052605,0.5213480565164017,0.06831002461864331,9.857277477751202,-0.0018626269103151738,-0.029189107215517526,0.2141097176313873
1681483759.0152652,1.2755420418257892,0.35841765679839355,9.708834842581101,0.007215846582928049,-0.020700174714870737,0.2080414283514496
1681483759.0253232,0.42215875914476864,1.290106387749562,9.85526573137054,-0.008084052492435805,-0.014719647307871009,0.2114359724760529
1681483759.0353606,0.10966393347422147,0.20840202433769056,9.661049272162781,-0.001956106362115408,-0.016669381865134666,0.2159766245127197
1681483759.0452588,0.31406556805496993,-0.34241266624354844,9.53321495290499,0.008934183174818458,-0.018196521754794782,0.2216008591890808
1681483759.0553732,0.486810258908401,0.700154248149689,9.447301993394126,0.018582691097937698,-0.020125511072807727,0.2326099860907074
1681483759.0652666,1.5477289449898048,2.286729260225611,9.579518516618771,0.009068807230877943,-0.005028065131808496,0.248953773403215
1681483759.075273,-0.7608190995302274,2.838960516084699,9.975486388207376,-0.00235157331951998,-0.016700205966471357,0.2675586331129547
1681483759.085281,0.4885359375691565,3.2421023386374554,10.17106775337693,-0.033047855441325984,-0.023910693896606775,0.2685130524874207
1681483759.095301,2.4304987605344395,2.5425037144594964,9.217669620931975,-0.03969774956955125,-0.010766759538040184,0.2582131612539765
1681483759.1053016,4.819205742586696,1.2885725747461434,8.20030200721839,-0.04398397173513573,0.04960172321896787,0.2626472699881073
1681483759.115336,-0.5348204153796441,0.39405268842327096,9.98413200100409,-0.038528284021378485,0.04536312102097168,0.2580401885748383
1681483759.125425,-1.3275618932532947,-0.059676429847113376,10.901352797491404,-0.02864163617781027,0.012621839975006512,0.2301035511732574
1681483759.1354373,-0.8653668673991421,-0.24182540758179513,10.649600850526681,-0.02659596679396477,-0.002390952205184747,0.2172524917364593
1681483759.145362,1.1854545450779057,0.32028510830048457,9.893112201399443,-0.019100762425951837,0.003080857602406528,0.2184707510710236
1681483759.1554222,1.1091165347110525,0.871228883245504,9.076843263387813,-0.02465025210927706,0.013320258678434897,0.2280447173357483
1681483759.1654155,2.1594467402347948,2.38131010063342,9.173735273773675,-0.05111401917993422,0.034913246005018626,0.25379645707612
1681483759.1753528,-0.02487025676095446,-0.44551858892363116,9.67114110982467,-0.04975749719003549,0.03688016190407306,0.266018478894281
1681483759.185366,-1.0617357670325975,-2.512788259105084,9.937379413949504,-0.020848182864845313,0.015157404060163207,0.2568774807692047
1681483759.1954985,-0.06025506632650338,-1.1862594163162143,10.132519205474956,-0.0038603295429616487,0.011696300549095708,0.2478440541267868
1681483759.2054417,-1.0068744090742767,-0.35924182472319405,10.136335477488826,0.006417228132925988,-0.0027899113538452478,0.2156116801739212
1681483759.2153716,-0.24858365170622482,0.19512682591682737,10.131768886206498,0.003380971331648913,-0.0068555402401909195,0.1826038497925278
1681483759.2253687,0.7136884062619554,0.27324653842507185,9.60596915907413,0.0015432129049242282,-0.002877267094574417,0.1653799998999115
1681483759.2353969,1.5582361753464706,0.32932990394846595,9.161573871272559,0.005150004914270332,0.009694060085815807,0.1637915659189697
1681483759.245374,1.1454301533393259,1.3130728100672961,9.410439859486429,-0.0012550448044486137,0.012804159437122698,0.1809416699648376
1681483759.258149,1.1398786095450901,0.5788706279587085,9.837775352079419,0.006032133054947624,0.020441103048596178,0.1986198562622543
1681483759.2653954,-0.5872282314320368,0.9981463514290797,10.615638376250551,0.007761307454924669,0.005569141543284753,0.2035312044859406
1681483759.275299,0.013539745796119093,1.0512966215749557,10.534665639945656,0.0017276844598487391,-0.0070270523360649925,0.2043062287807938
1681483759.285334,0.685344843532828,1.9891318954757151,9.577522785727247,-0.008463631106695893,-0.01263714025775371,0.2248890537262436
1681483759.295335,1.9113695567254196,1.134619128433217,9.580984469279617,-0.023588425573718166,-0.002670171554288745,0.2411852616310593
1681483759.3053863,2.238256621520448,0.5380177272116197,8.673136176094875,-0.00661138497718589,0.016269351585912386,0.2608475673437592
1681483759.315302,0.7625276369974952,1.1453632050670812,9.653058276164712,-0.01787621625026543,0.0204732931690487,0.2623190570116516
1681483759.3253796,-0.25727243193718285,0.1472161922475165,10.514361981659471,-0.017918277002904458,0.008677030010832481,0.242392568612146
1681483759.3354318,0.22222768718943853,-0.27258056712577716,10.11404554102072,-0.0027585777127465323,0.0064248575128681585,0.2146876591682907
1681483759.345335,-0.005568566562573409,1.1535931234838057,10.158124847701723,-0.01824356629249791,0.004716414123663597,0.1880187678575989
1681483759.355343,0.1131476798918095,0.6247760856156285,9.679231931744077,-0.023850956041123746,0.0008194680576192727,0.1742286521435257
1681483759.3653524,1.5551966194043811,0.6623534272673298,9.152022261210808,-0.028136825792955573,0.009805888790013482,0.1938101041555878
1681483759.3753698,1.3614780882489483,0.9008475168019563,9.174357008766044,-0.02724412145381238,0.023849694485719653,0.2178686547518249
1681483759.3853674,-0.4259583789181852,0.504240316723835,10.44507881611507,-0.027411654629975787,0.009592764993699428,0.2196974593639847
1681483759.3954556,0.5502282435591522,0.16851561292974512,9.921467543995313,-0.025726268430432964,0.014628427833018876,0.2187076497316833
1681483759.4053583,-0.5754383014178711,0.3947634952685193,10.122700469126004,-0.028464386491942394,0.006163693016401932,0.2169669407845016
1681483759.4153569,-0.13725431278991082,-0.012284856316183711,9.828644148534094,-0.02480899812132512,-0.0027426156241785542,0.2191293078899857
1681483759.4254444,0.7455295582887121,-0.9641843508318968,9.033948920962134,0.0011511077800676972,0.004246297631924807,0.2194823312998291
1681483759.4352984,-0.45129499160572994,1.5250860178546704,10.016239700583016,-0.013203406047810444,-0.002251813395754654,0.215790851736116
1681483759.445359,0.08050914394564751,0.0002589697044543988,10.199848300238997,-0.007465931960889589,-0.009232976648748656,0.2034509319305893
1681483759.4554677,0.6874124465563439,0.517328198736848,9.777519364902327,-0.008414445580958866,-0.00019750605832260574,0.1919918942690369
1681483759.4652846,-0.05011414651974082,0.22252881246402095,9.959102777815362,-0.0038422025422745255,-0.004963677481539427,0.1839096087456223
1681483759.4753623,1.0635299899640995,0.6220822518537754,9.477166324376652,-0.006610917113117855,0.0033308749538278515,0.1845044183969971
1681483759.485314,0.8948173957482493,0.47942480263734355,9.48279681951588,0.0005062397884130474,0.00919794992279752,0.1934140163898941
1681483759.4954102,0.713404362848247,0.867061443357413,9.583715240702118,-0.004517412817302852,0.0098689936226452,0.2059281605720993
1681483759.5054564,0.7096854439252059,1.0361984262856436,9.52577876124792,-0.002554071054585142,0.013145120635188398,0.2160199719906326
1681483759.515324,-0.28884977167586134,1.4427612589646328,10.3389236679937,-0.012982813470561747,-0.0010150950116409885,0.2177383291960236
1681483759.525426,0.09378113613308318,1.1255383750908616,10.00670399751302,-0.02060402772505638,-0.008562751227767122,0.2223427880049225
1681483759.5352876,0.019779727295847996,1.2577840054265081,10.075468880445003,-0.030287506950022337,-0.018865162704745427,0.2169343519449707
1681483759.5453258,1.4354783473425312,-0.8970208500167608,9.65802759326354,-0.016267122450003405,-0.010170367792948509,0.2106705743313309
1681483759.5553436,1.3370990574235435,0.06663751521344392,9.497412605875276,-0.00810675680043292,0.0010967112485122585,0.2012153256178375
1681483759.565424,0.6748931573573245,0.633182018400504,9.77578399099783,-0.006360803986227543,0.0023042708272813773,0.193519397401857
1681483759.5753524,0.31781343144157564,0.7736168187482825,9.976770066784557,-0.014264232460807165,-0.0002556411157724681,0.1848957675934311
1681483759.5853686,0.5715093090780985,1.0389284897104294,9.826411862969485,-0.018036814255465508,-0.0024115013606404033,0.1884228128433701
1681483759.595374,1.3505502009465737,0.9910393329189574,9.474636027089634,-0.014459923494560323,-0.0007303163786580692,0.2037941503763672
1681483759.6053665,1.81431476729546,2.184623389969994,9.512086220769053,-0.030011825954829312,0.014752349418556908,0.2232995021582123
1681483759.6153982,0.5815957136399543,1.4519358992947093,10.094414922211008,-0.039973871856425224,0.010308093566808634,0.2359921622515198
1681483759.6253717,0.22163917956150953,0.8164411783353511,10.118664629602028,-0.04093755824571251,0.0013168069464627105,0.2427028256893631
1681483759.6354184,0.4747991031101788,-0.5525453231932755,10.154089878424967,-0.02894427955434219,-0.0025219888290113806,0.2391257721424576
1681483759.6453245,0.6277934951327228,0.6058181044042458,9.70287740913842,-0.030755006340409122,-0.0035461000349599047,0.2391760337591644
1681483759.6555042,1.0760633272542592,0.4278908092142867,9.823250415084082,-0.030753681383285377,-0.0016725953699481156,0.2457529443741318
1681483759.6653314,1.321826627690124,0.10725815509726554,9.58870440986177,-0.030285226341984092,0.004725355928705126,0.2399463492870804
1681483759.6753118,1.3062481772554448,0.8142578692320798,9.425909133238596,-0.03755356150747182,0.01857381601309177,0.2339351612568375
1681483759.6853814,0.3875296722187206,0.01477771320819817,9.825378025399335,-0.03938889513413403,0.015231182663853525,0.2312451440334793
1681483759.6953,0.14087770335417021,-0.772376812824045,9.797632488308446,-0.030692109884890097,0.010297840120864031,0.2221547353506561
1681483759.7052946,0.2519384605501842,-0.3041476674202549,9.947562453518826,-0.025309585491273857,0.00694255807520021,0.216976805353212
1681483759.7152848,0.4710789704803664,-0.5132365386864861,9.715751225795456,-0.014926935228737191,0.004545168535653334,0.2203312951565262
1681483759.725402,0.020356060633866784,0.4843785636415109,9.8308957394283,-0.01726119992810645,0.0033645121407733956,0.2167519021273132
1681483759.735377,-0.047887784409538496,0.582877457992897,9.845388409237762,-0.013762242114258033,-0.006583693556167788,0.2122133511543747
1681483759.7453444,0.18138914998099692,-0.3568280537501417,9.548008556690254,-0.008450526921254305,-0.005972970270683716,0.2057819950819489
1681483759.7553427,0.25528237566809336,0.07727380874556877,9.969533654636438,0.0028236572690398033,-0.007322984626468373,0.2024074334145065
1681483759.7653227,0.5353294691751539,1.1439458537855096,9.964778372402227,-0.003846101192331647,-0.008071973802424987,0.2033105629921432
1681483759.775334,1.167173842369952,0.8296916445378928,9.684030578071795,-0.0034102034009462698,0.005812423646587027,0.198569400930452
1681483759.7853577,-0.2187721133205124,0.4881291140342459,9.942473798464212,-0.008695632431844102,0.00018229410844817392,0.2013516712427612
1681483759.7953932,1.0864377941632717,-0.009085147120910917,9.240927593806635,0.001462805369424154,0.006926587086795485,0.2164191740990158
1681483759.8054178,0.4210815282657957,0.9275550906579545,9.894807500738226,-0.009926929611399977,0.011511320062218132,0.2238096136093613
1681483759.8153,-0.097085304141199,-0.6981922934006866,10.418483939367018,-0.0014921883007641586,0.0040463147061727016,0.2233414042234894
1681483759.8254037,0.4709417974115374,-0.5515827389708081,9.79387917826493,0.008771491612926499,0.006979893964802692,0.2154616552830215
1681483759.835342,-0.24721116667235804,-0.29078896142726685,9.937835760140013,0.016983310906534495,-0.0006805395476910171,0.2146195608616348
1681483759.845396,-0.024483502115974703,0.8854559625748969,9.823904499473393,0.012841315692951688,-0.008227869707098713,0.2160241890192505
1681483759.8553965,0.509863043848041,0.355280621891494,9.645344586594781,0.015961719589230528,-0.010042788866969871,0.2244758147240158
1681483759.8653345,0.10724238634674134,0.4345685470524933,9.899724228486171,0.023115241800661213,-0.01705767219306424,0.224386273646402
1681483759.8753269,0.42954318683053255,1.0613979315868305,9.748259822181657,0.020220983203184117,-0.020389903616451353,0.2141713637352463
1681483759.885455,0.12864345698318874,2.4347029559588083,10.038836806799088,0.0004420465466927763,-0.0271820823251047,0.2090192425489899
1681483759.895374,1.1959839541586121,0.8616845683408477,10.112364567137298,-0.0018273970413528846,-0.026524831654626727,0.2077625680208679
1681483759.9053793,0.713139641052523,1.8711121440323975,9.514296461296654,-0.013677958251109353,-0.021713514707578662,0.2019930470228668
1681483759.9154243,1.204422689718306,0.4396524365900186,10.048513970076588,-0.009874239441318825,-0.024160735355459463,0.2041563976049896
1681483759.9253805,1.563544744816837,1.9621339331754646,9.039571789629383,-0.016594236359902793,-0.011614151482277423,0.2162291097879883
1681483759.935335,0.5632531090105029,3.0178740628014413,9.86941349887706,-0.04908238795079625,-0.015423031304342801,0.2201393980026718
1681483759.9453807,2.1123120534269586,0.42484865418401485,9.455671804702227,-0.04396698801678162,-0.0023865776035259484,0.2362601447344299
1681483759.9554117,1.0889542202945854,0.9831624646110825,9.814727288027592,-0.04986494547990171,0.004493886610514551,0.2457402187824722
1681483759.965332,1.2049206439072184,-0.3013560310110457,9.809451019532235,-0.030883438457428608,0.005907403854162925,0.2533356535673615
1681483759.97535,0.8950995828756183,1.0287592393607659,9.764362749966066,-0.033684162241804,0.011615793322656175,0.2507861542940613
1681483759.985296,0.39041862651151776,1.0869018368675942,10.261209748591778,-0.044421155557604994,0.008382384215357716,0.2433437544346329
1681483759.9953654,-0.15905978482312222,1.4090730003964627,9.873063283100489,-0.05374714119698954,-0.0011530411363796617,0.2392833519220825
1681483760.0053203,-0.31292603645352945,1.1808776698352152,10.034527589206146,-0.0710834112688667,-0.007383313915847815,0.2342325139284607
1681483760.015303,-0.2616741437650139,-0.23756375757163994,10.542650411823706,-0.06603576698275081,-0.019590880786171237,0.234910308146524
1681483760.0253682,0.564021049062997,-0.6844576998769282,9.900604853724595,-0.054262282915746904,-0.017575240249990888,0.2374490636826035
1681483760.035354,0.9961419258622702,-2.6956384386014145,9.29931570295921,-0.01431046164053121,-0.0029918648671998817,0.249378635311174
1681483760.0453677,-0.5035523997533712,-0.2509118581644698,9.501270616290252,0.005237804177587306,-0.012676979407119728,0.2657636690378662
1681483760.0553718,0.5173409556215978,1.5143950356444105,9.732848658547706,-0.012826145354412706,-0.010529389102457872,0.2809113252401825
1681483760.0653646,-0.2315066018383093,1.2102053112524318,9.54876964192869,-0.020172203421409525,-0.013411516688200727,0.2856612491846558
1681483760.075318,0.5248776164503876,1.5170918409693552,9.783145762451008,-0.03199785958049495,-0.01846045543058369,0.2872374046087738
1681483760.0853376,4.01305914413928,1.633611656428332,8.596951517664937,-0.05082944090354492,0.022419675493596754,0.3024749744177338
1681483760.095383,3.432250870350896,-2.8887101202890713,8.05972881697294,0.0019084615735860835,0.06230724558483343,0.3087157893419739
1681483760.1053605,1.6363340045197245,0.2476919750372976,8.985279390701491,0.015613728640582086,0.07223649935119188,0.2870421099901672
1681483760.1154675,2.922632480981135,0.6095541731051362,9.386077419860563,0.004470940629980112,0.1040070567503835,0.2768217909574982
1681483760.1253543,0.7808074901489561,0.011442011357976586,9.477519332870372,0.01016985167496679,0.10571267368437069,0.2480780172586914
1681483760.135318,-2.1428182240443543,2.360838693583468,11.442707293328832,-0.04086895295433703,0.07699558663956067,0.2029770303011414
1681483760.145462,-2.6778095506493913,-0.8604062697509073,12.020579828175261,-0.05334605497024038,0.01883218445578152,0.1730593282223221
1681483760.1553977,0.0658752998700148,-3.877810551964521,10.175454485553097,-0.020227501445325556,0.00968248811655961,0.1458707589149948
1681483760.165403,0.22420906916271321,-3.3622948655133533,9.384203358700875,0.018092151785824857,-0.0009712282832298009,0.1367374348879333
1681483760.1753876,2.882135141357726,0.026612923026384724,8.481683531268999,0.02267164323692043,0.024472593034105157,0.1605349022388931
1681483760.185387,1.4877047208253127,1.8099485894188168,9.111438205030575,0.004726413020804913,0.03455387014120411,0.183514087224054
1681483760.195361,-0.05656186253223768,0.21299424283198676,10.10235210023349,-8.060339048391635e-05,0.02578212866108224,0.1916729349136826
1681483760.205502,0.42770096151565584,0.24261348387458012,10.222505607609367,0.009030511199367892,0.014643892473671205,0.1962833839893814
1681483760.2153826,0.8183359540350552,-0.12001134360716427,10.24383806212211,0.012557141152780516,0.02163559930723927,0.1829315412283417
1681483760.2254145,-0.2476015218543524,0.19385838521612628,10.833998843314964,0.01855166032326833,0.0048073962735294086,0.1722555297852036
1681483760.235335,1.6834018222291178,1.3613292780869113,9.406317778462766,0.013168334611950416,0.021993703772262656,0.1667662996292587
1681483760.2453866,0.18045912760363206,1.4256654694276945,10.070339667817601,-0.0039436578547802775,0.021117492437594518,0.1577009696007248
1681483760.255412,1.5237201218573564,0.8394793463917513,9.413918192801702,-0.005254547882896511,0.027592781105258816,0.1690846818924423
1681483760.2653754,2.064356296637628,-0.05704073799994271,9.022290456289285,0.00535008916503247,0.0525722776807525,0.1945383686066147
1681483760.2753422,-0.7820675675876255,0.9578213461828222,10.121255767081976,0.012492412617854987,0.035581329538590986,0.2089953112841125
1681483760.2853806,0.6040352694739904,1.0993957138662738,10.190875588678434,0.00024552649768866543,0.03205970561542459,0.2126498210669037
1681483760.2953644,0.605760839009912,-0.0201629932502109,9.748224393901245,0.008841907506271486,0.042606643659865925,0.214981942200708
1681483760.3054006,0.06167276197627884,-0.4177001525381628,10.207988613763959,0.017828474599173832,0.03315096058229525,0.2201834905386444
1681483760.315384,0.5775944693220657,1.5187611937918826,9.371768682255425,0.010986961801967048,0.0406721023746717,0.2288226026535507
1681483760.3254414,-0.19165469284756326,0.9539468677947074,10.233326892818795,-0.00560538181262877,0.031826717884827986,0.2376778412104126
1681483760.3353324,-0.02824186785871377,0.29427979629293677,9.940182476615995,-0.010234024558818661,0.027897613984830007,0.2553367603064057
1681483760.345492,-0.10167142463346376,-0.6526175498897132,9.860516750844289,0.003566541194828131,0.01766885467509122,0.2732312667608734
1681483760.3553858,-0.07821143568275572,-0.6237163252017841,9.973051486571267,0.013333000429545456,0.01196470304772678,0.2955659914255615
1681483760.3654058,0.002617154130461238,-0.773932060028668,9.82945080278417,0.03253781311945958,0.0029774287657381745,0.3093925404787537
1681483760.375447,0.6198457540393519,0.6353564723589328,9.888843812738557,0.031990478867907825,0.005672012208272378,0.3222620475531098
1681483760.3853712,-0.25372663721354566,0.652043243551778,10.04348132735151,0.035303672614523676,-0.005101533444221344,0.3268138158560272
1681483760.3953946,0.4477979789702842,1.976133013091582,9.974901369488595,0.02681584186136876,-0.007602291656405803,0.3317798662424561
1681483760.405362,-0.3740060478500402,1.979112954941668,10.25118384287994,0.016117270993335358,-0.021992644288487927,0.3359721887350556
1681483760.4154632,-0.1108538107071354,2.4470692410328936,10.033932509467816,0.0010215796867834403,-0.03673572373079651,0.3324982810259339
1681483760.4255154,0.8115834332900869,4.683169763236063,9.686473033951277,-0.032279164717585955,-0.04896265071587202,0.3268439460039612
1681483760.4354382,2.464258152311798,6.356380100795243,8.460378145417327,-0.10879535049086696,-0.024788940234801705,0.3220865118742462
1681483760.4453804,2.9197318170735818,-1.0504043073706073,9.587304802724825,-0.09068122055988057,-0.0005413997365143326,0.3295018959284302
1681483760.455415,2.198789305630904,0.17427485509772486,9.40313333761665,-0.0792796545984848,0.007098520356765529,0.3124800014734741
1681483760.465575,6.3731341625411435,-1.7397061964879525,9.105867390841144,-0.05674626273228304,0.07543768770951602,0.2798073578119751
1681483760.475383,2.1560216644421057,-0.8260442222509461,9.388741673596892,-0.0557102633264458,0.10495693548723319,0.2637094247580048
1681483760.485381,0.6315107361347013,-2.643583153416627,9.921440568598198,-0.02978557888096722,0.10707571843448528,0.2331637579441544
1681483760.4953997,-2.3079098871636314,0.018880744037577096,9.890328603583889,-0.04255772668688973,0.07664037572828837,0.2238824504852768
1681483760.5053823,-1.908366526216931,-1.4987365465639848,10.575136652815694,-0.04379077658295666,0.04338431108102146,0.2197685230017181
1681483760.515479,-1.6494398756993902,-2.9077868482492213,9.78574625583245,-0.0214141060462505,0.01353911037574553,0.2052974242210861
1681483760.5255303,0.8099007448542992,-2.203743282437117,9.139947026683148,0.0027001914853727314,0.018078520687632615,0.2100901293993469
1681483760.5353954,0.5590135926645462,-0.8212731148935293,9.328909217976165,0.007983842693714539,0.01876788850213746,0.1986810553312775
1681483760.5454223,1.3806555007004524,0.34000174872901867,8.710587696633075,0.004988112812341503,0.04262207476176281,0.1880560207605835
1681483760.555395,-0.529088633145286,1.1524909238054313,9.866409188536513,-0.014409051030829505,0.03686106300873124,0.1854205268860336
1681483760.5653603,-0.7675996630654589,-0.38919774006468366,9.928137816070556,-0.013129092921805191,0.027892232571250626,0.180054916763353
1681483760.5753598,-0.10647457039838915,-1.4539188855389313,10.784161522155593,0.0073522767974387015,0.020423554846474876,0.1779676962137695
1681483760.585348,0.23556027293568896,-0.10808290536872275,9.81093596893585,0.016300053355542184,0.02536439572281302,0.1717071819544312
1681483760.5953865,0.7858278332526135,0.7806056419225705,9.926849786630425,0.011297551962018343,0.03518123391515504,0.167086257362413
1681483760.605368,-0.7207041178554605,2.2320141655507917,9.429441823912567,-0.004847320487021745,0.02299973580378751,0.1808849561453339
1681483760.615404,1.2363231326015627,0.3981171192858374,9.865910035751252,-0.0040572733514422235,0.030141072836296467,0.187509744191217
1681483760.625487,0.15522887547057568,-0.027307491334161067,9.729284130649665,0.00779599365050888,0.026620526144011506,0.1861171710730072
1681483760.635489,1.3863598453598582,0.36018200768803066,9.748910570560703,0.0143176880715761,0.038531216680841696,0.1794852453709122
1681483760.6454124,0.20112961796625137,1.1794109684363168,10.13168976212471,0.0022121530097981403,0.03530150688055154,0.1673173743725296
1681483760.6554534,-0.21308185104537614,0.7818504975581767,9.862527049332817,-0.001861310218926514,0.02383793776988113,0.1569851923227783
1681483760.665376,0.35709705502933997,0.8012904898251466,9.82759304753607,-0.012276146502936834,0.01727773724749837,0.162524147653627
1681483760.6754105,1.4588757484380064,-0.46635042921898107,9.407769735620237,0.0012208921155693133,0.026713562722754814,0.166478438997316
1681483760.685407,2.823927291824829,-0.66960608079868,9.444391133422117,0.015838047347507316,0.04823823944831032,0.1780736285686966
1681483760.6954606,2.064530574188192,1.7237238637836707,9.06089367670995,0.004932815996635209,0.07052527381098778,0.1897802192211624
1681483760.705341,0.9444857632601931,1.7461850632903182,9.785529610508009,-0.019390337037969368,0.0705971222712389,0.199772505784082
1681483760.7153802,-0.23243811481883386,0.3578906947839363,9.882237198995043,-0.02278659911305848,0.06029107157118924,0.2066142249346252
1681483760.7254424,-0.3690007934892807,-0.9315146738421344,10.696157744486634,-0.018006042063841796,0.04062086230217327,0.1946239906788345
1681483760.7353785,-0.5220496403822251,-0.6107118500961946,10.047449929758752,-0.009027542988321948,0.026240304450416155,0.1756398517132278
1681483760.7454538,1.0906073152656706,0.05076506097113513,10.15052440776984,-0.015402712433228442,0.025913223808931834,0.1643219727516647
1681483760.7554848,1.511312524775455,0.030849840243541867,9.30542000254579,-0.01413875023458732,0.03852114248996632,0.1579724389553543
1681483760.7653968,0.4793137948542375,0.4019208252689677,9.44264621571971,-0.016244751308588472,0.042183320782322245,0.1473575967789169
1681483760.7753706,-1.1013410637865502,0.7596433865509717,9.971913327426387,-0.02717438177531282,0.020196268947452987,0.1453648197889801
1681483760.785419,-0.8679210309998086,0.8787495990287233,9.734228806042676,-0.03359320244152675,0.004827437800000671,0.1394177812576767
1681483760.795392,0.13513045782214,-1.1752820829602744,10.194186505301124,-0.022972660263893007,-0.0009037281811296843,0.1410627353430267
1681483760.805476,0.9339865249665473,-0.014562610374013926,9.584196322806381,-0.011198232600343127,0.009823238642850453,0.143434597873735
1681483760.8154607,2.0498580621935174,-0.7300014210095833,10.342107617406809,0.0008024729041262527,0.02652308938212599,0.1439343381166931
1681483760.8254805,1.1988554383511703,0.7665006457917026,9.392598266151806,0.0008825116260787374,0.04984544645940804,0.1450609255075928
1681483760.835472,-0.8213121339529418,0.6041978576233717,10.746204768490633,-0.00831334697574533,0.033389771727723776,0.149919851446199
1681483760.845369,-0.9381615862616177,0.8121944533748809,9.948601134761555,-0.015011136032724458,0.015398773657148654,0.1573413747787949
1681483760.85543,0.7062005695063692,-1.0271321072621635,9.87285457002126,-0.007625195887266039,0.01387427408110767,0.1682103413582321
1681483760.8654466,0.899819185860169,-0.8129198767210447,8.971811380932703,0.014063007632123016,0.018189024323686857,0.1786621946335312
1681483760.8753924,1.7149038601624242,-0.14947255203904491,9.876437866387665,0.013263505216365934,0.031238745782660948,0.1873560536146637
1681483760.8853586,0.4378494646590904,0.20729146077958685,9.678131876021203,0.016806661869833293,0.036332050311916615,0.1874645489693161
1681483760.8954172,0.9017934883147579,-0.8738241557806014,10.560729570820916,0.019193193287977032,0.035420258316627616,0.1857501852751251
1681483760.9056349,1.4072365093052677,-0.7299209946637364,9.380222250954475,0.038178218349719864,0.048252171711031626,0.184970556521463
1681483760.91545,0.9413350516509457,0.46497102419682146,9.68735963046223,0.03701607758926858,0.050758029849939594,0.1850562829018112
1681483760.9266355,0.4962237751581588,1.9110019522421509,9.432672452080688,0.01601530958261605,0.052493486289737365,0.1918939042330261
1681483760.935431,0.2864475613677927,1.9145289051020444,9.524733073678743,-0.0004290666027274998,0.047649607865484306,0.2011416095734116
1681483760.9454343,0.5029089292196744,0.9125982042906892,9.623350125509713,-0.008201813163459356,0.04373661681609119,0.2095534789801117
1681483760.955538,-0.04904886507351076,0.7499488856877725,9.97831426986656,-0.015175690226541461,0.036358601269507615,0.2108507591724869
1681483760.9654274,0.1054314163082859,-0.977547005516132,10.312836705721015,-0.005690160021502219,0.028109496340172912,0.2047691184521194
1681483760.97543,-0.29013629237436245,-0.7405314052951327,10.044140722856788,0.0002708051643748492,0.02012272817677787,0.1878336507320877
1681483760.985429,1.2738723991035912,-0.7702528645919943,10.129998262757471,0.0068986323257909255,0.02815972244450027,0.1811069089413162
1681483760.9954443,1.0481388886451863,-0.26931561506042795,9.38926102169108,0.011956419597530486,0.03983620568359166,0.1757901001215454
1681483761.0054324,-0.7422491291745476,1.8059383054825073,9.1748323924077,-0.003073766616644241,0.02959169198464257,0.1719036686659332
1681483761.0154436,-2.510019671143687,2.659273685294513,9.848305594453313,-0.042372423158430275,-0.007643883717992426,0.1803218561649796
1681483761.0255551,-2.1589346511978977,0.6622040263629826,9.354774733770832,-0.04702059471504332,-0.03986074765196085,0.1786401409149643
1681483761.0354085,0.07464976181709042,-1.3869920135034284,10.061369375551315,-0.03812126671080232,-0.048523882900608294,0.1842374044895645
1681483761.045418,1.3351097594537205,-1.1552923788452465,9.458412352651782,-0.012345869175407441,-0.03005034019436303,0.1932445156813141
1681483761.0554671,1.1709688433358818,-0.08249605622462194,10.70773249650074,-0.014389498879908962,-0.0178765271929311,0.1977144915104385
1681483761.0655358,1.821972828856598,-0.5067903409770436,10.141803657812243,-0.0128728248980191,0.010801789729482569,0.2060303080320831
1681483761.0754316,-0.059363293582148834,-0.5543240308499595,10.357167522133317,-0.00990998377094129,0.015211339898920768,0.2030717420816895
1681483761.085475,-0.577629000146861,-0.03838935961984594,9.696240256546787,-0.011306121776156343,0.013375175064960143,0.2088652539492126
1681483761.095543,-1.005230289717509,1.0279374765285734,9.617044141953757,-0.03258950199014144,0.007932297166851277,0.2282469707966324
1681483761.1054325,-2.7469861668953564,-0.060494645462888144,8.963212186777364,-0.0380407479272102,-0.021985706224796838,0.2460525173187729
1681483761.115419,-1.387007900461911,-1.3860719663470187,8.827237975719544,-0.02323091269661931,-0.03654858479888381,0.2738188195467468
1681483761.1254375,-2.4115417608697753,-2.9399383401733243,9.237032105811606,0.021796002096069328,-0.05817462113946762,0.2824199784040924
1681483761.1354382,-1.936984319570235,-1.8888261311849797,10.502921516886222,0.054901634868416545,-0.08081814785114382,0.2538349914789673
1681483761.1454036,0.847228790206126,-0.14618300167086587,10.880037317281323,0.05926416347515704,-0.06587517732373342,0.2214506554842468
1681483761.155458,1.6831985298127359,0.4175111573240589,10.708761796041712,0.061991683867177697,-0.038050760779865786,0.186912073516893
1681483761.1654437,1.1539300305470543,0.3515406833673419,10.432186013699516,0.06481137539804,-0.025671259733150233,0.1537813383579727
1681483761.1754932,1.5183952995600714,4.435480161528811,9.17989219007368,0.02696703374741538,-0.009375200680409798,0.1434410351753708
1681483761.1854792,1.15190139705901,2.997272972852591,9.462585295933215,-0.0038953377830715542,-0.005567210273980084,0.1526316988707062
1681483761.1954238,-0.007530700106187026,2.4855935461180096,9.458207591150297,-0.025155694506104925,-0.020147574684334823,0.1507225769997116
1681483761.20542,1.1125937545785671,-0.08336630451674347,9.485630931441447,-0.019366339390694685,-0.021102690226677538,0.1474719780922409
1681483761.2154636,1.4524706740782822,-0.5898225780153601,10.047575127238693,-0.006965356882636658,-0.013584115320369157,0.1478602278471466
1681483761.225613,1.024823980452944,-0.7932959625347042,10.38956996169173,0.012963542448665127,-0.012081354836646508,0.1420848804951187
1681483761.2354054,1.2039021567771362,1.4180532353555757,10.335000356279753,0.002993779132503591,-0.006256036819164577,0.1488694983959671
1681483761.2454512,0.5315548573686291,1.2735415410209883,10.413047422161055,-0.008284041741242877,-0.01162383939959274,0.1606474507093903
1681483761.2554705,-0.254783722650643,0.34777271002863047,10.170529029051357,-0.011830073003858136,-0.03002298215634478,0.1673153478146072
1681483761.265426,1.5843863569037173,-0.13233749419395147,9.490450589206013,-0.008302735751900209,-0.024068744454638188,0.1885336625814911
1681483761.2754552,2.47826990489315,-2.0733149199289262,8.93712476290321,0.02532878222434605,-0.010365438411733607,0.2080594289541718
1681483761.28542,3.336016355086187,-1.8017575764866833,8.696962270941098,0.05365774643837678,0.018516658777568678,0.2102860051632401
1681483761.29557,1.5526591743215623,2.1039567497535168,9.133565291572557,0.04984411943292611,0.03635170692971468,0.2141464042902466
1681483761.3054218,-0.9909501161746976,1.9568354626784021,11.1349830826957,0.016676389060597756,0.011541073769611237,0.2066097843885895
1681483761.3154478,0.6032815027412249,-0.4844764950366055,10.537035321649387,0.018403872771965788,0.0004816921635784418,0.2009963828564163
1681483761.3255448,1.9537744210405956,-1.5330987893831658,8.950043754576965,0.05765402745544615,0.017790694121918138,0.1983897078276154
1681483761.335411,0.32685364682948653,2.010259002049916,10.338116487168104,0.024093390674681314,0.017563075510194915,0.1992219674826141
1681483761.3454444,0.3746896669445455,-0.17008386473179524,10.063558914685366,0.03657909053533693,0.006984139148575085,0.207304655337381
1681483761.3555858,2.0987207629316447,-1.4592668074051047,9.02033426605878,0.05517667636555323,0.027434545846737827,0.2105901974678513
1681483761.3654566,0.34608596091337085,2.105831301423804,9.465343495029238,0.04269264034022286,0.03291407947215714,0.2211464631796356
1681483761.3754609,-0.7758447421012095,1.0878560181938475,10.360403677210165,0.022340854583380115,0.010297809485243555,0.2226735341787811
1681483761.38546,0.5288031213046968,0.46361953571609865,9.573006088280021,0.017684869932450775,0.014316939258711456,0.216293274188089
1681483761.395447,-0.4952026173382336,-0.23524359975284032,10.263419084566952,0.01910742017670155,0.004597262038793044,0.2065087992191788
1681483761.4054198,0.9044619177144603,-0.9103488747217557,9.896563431355759,0.0170639168635287,0.0077471311245654,0.2015305894852158
1681483761.415513,1.9007018032813396,-2.277307956024901,8.425396407074995,0.057667041817666305,0.03672009184383546,0.1904120135546204
1681483761.4257336,-1.0357606442180698,2.373862385335958,10.508331622713524,0.01908023017890383,0.02672146302606124,0.183572976613092
1681483761.4354413,-1.2576324241508052,1.020014875916375,10.390125930336001,0.005972923763270838,0.009207645527297451,0.1782892334700104
1681483761.4454632,-0.8011461934545802,-0.9595228961528612,10.095974778883877,0.0035220757192642033,-0.0006021960917299402,0.1692106265068527
1681483761.455426,0.16520264138278729,-1.4832595473366648,9.499508215760706,0.023275516098868073,-0.0034462212091857783,0.1776480812073227
1681483761.4654312,0.6642175546939539,-0.6433218923831217,9.651580165520128,0.031287432328520326,-0.00047919202496489997,0.1809492695570465
1681483761.4754837,0.6089943886099246,-0.4579144459804826,9.519412347643925,0.04381723332436232,0.009567034367375205,0.1842294770718094
1681483761.4854558,-0.5964887259720211,1.5061499404976502,10.24123893645062,0.0287140454605562,-8.980962560100002e-05,0.1868637043476578
1681483761.495457,-0.1783107326760489,0.2358050953522797,9.887779018492948,0.02415465808212196,-0.006786251992134444,0.1793718028307434
1681483761.5055077,0.26970422932785665,-1.054308474947047,9.299141585055441,0.03742104561693355,-0.009295480132701822,0.1807132202625748
1681483761.5154808,1.714018270701606,-0.6199836798048138,8.894763102084944,0.05037316441380933,0.006265846650585308,0.1812970775604721
1681483761.525669,0.4112337601026343,1.7531875999119462,9.688580187868643,0.03585065973754565,0.013516855643120855,0.1778032469988342
1681483761.535489,-1.0348511655892354,1.997314908136152,10.836219209268085,0.012806656773704014,-0.0016538460221256213,0.1700666088104721
1681483761.5455446,-0.7060170085248826,-0.39186416317828,10.619199297222957,0.00817221804033956,-0.02000985725829427,0.1566301125526901
1681483761.5556383,1.3315960269678497,-2.1861654780343773,9.268685496762043,0.04200000107439467,-0.010694045802546879,0.1569222051144119
1681483761.565477,0.7977868919700917,0.3574831440946373,9.550788923915395,0.047948563550846764,-0.0051921534322973365,0.1702976364136215
1681483761.575483,0.1610208591047141,1.5706273126670158,10.12942111197575,0.031764780165822924,-0.009020854634113024,0.1759596753359314
1681483761.585517,-0.0010131401144789509,0.9249074938955923,9.984525887688813,0.021204262710699966,-0.016294784377019964,0.1798094201326843
1681483761.595558,0.5256423958738771,0.34689843233756934,9.702604593739165,0.016728780341880096,-0.016083516413836256,0.1823911804199692
1681483761.6055417,1.2754112531862682,0.11056334928917524,9.427788426563096,0.019296658061395265,-0.008259180406033101,0.1884062874556061
1681483761.6155226,0.7287172497568701,-0.04641711370484189,9.427869649617064,0.022897832286281887,-0.0017244399944790266,0.1917392897844788
1681483761.6255102,0.23905031384985417,0.277239431298136,9.832740252151925,0.026194189377002474,-0.008208602928544825,0.1928396511316772
1681483761.635516,0.13030553019255361,0.16116178430046424,9.876145610760556,0.02495764887493948,-0.009874246832199344,0.1826452601194855
1681483761.6454773,0.5748481281735226,-0.7198233545782047,9.655689212394373,0.03967305690336593,-0.008841453004677159,0.1788869041443344
1681483761.655438,0.6240980886349525,1.1198757599105633,10.001749989891715,0.030313770334535986,-0.003425428218366103,0.1746082443237778
1681483761.665483,-0.30568579965029313,1.6176099424820904,10.253377163423544,0.015847325193610942,-0.009324356691916443,0.1739956426859375
1681483761.67559,0.008033230598699682,0.3956942768213595,10.132346806285927,0.007796218671028574,-0.013605191094614708,0.1717901516199585
1681483761.6854296,0.11472899098495881,-0.2772115404001711,9.671058877608527,0.01384101322135666,-0.017018749824314606,0.1756582248449799
1681483761.6954503,0.6455950194164563,0.01193781598187799,9.511266088403582,0.02030266125486626,-0.0137707330915749,0.1907601791859146
1681483761.7054703,0.18543461408118908,-0.19498961426632475,9.6378934664565,0.02752596188795192,-0.016577431453800844,0.1966717529535767
1681483761.7155244,0.12464031185196256,1.0759455622761704,9.71184179145801,0.021576279931696096,-0.017154453730856695,0.2005468744278427
1681483761.7255754,-0.838177816183632,1.5393226543549225,9.896927181871396,0.0055130103737090885,-0.028787419393039596,0.1989009666681763
1681483761.7354443,-0.713933409420608,0.5200315462198003,10.096844217807723,-0.005323543249978758,-0.042701953168640575,0.1923736322165009
1681483761.7454934,0.19397508747460576,-0.5216460974514785,9.927516770099977,0.007341062176226987,-0.04674878809488323,0.194219379448938
1681483761.7556,0.8320570636504299,-0.7267914278381803,9.692765470440074,0.02196272263725847,-0.04091335771391522,0.1939365107059952
1681483761.7654552,0.14022283901251292,0.25346668507758446,9.897780586896415,0.025681740901736486,-0.040722002034275444,0.1886134881020065
1681483761.775449,0.2897856477463569,0.9846095427402343,10.025659251567841,0.01760987968676598,-0.04248245036242158,0.1872791040182587
1681483761.7855449,0.21292084736383307,1.138762993578208,9.660810909067576,0.011363091636484343,-0.043326446357115356,0.1919396955013748
1681483761.795449,1.0119709058171336,-0.43359284280700666,9.581691165328886,0.014521896393017287,-0.046759229655052977,0.1974114316940781
1681483761.8055005,1.2831414810345176,1.1732037529411692,8.79706918492542,0.017600658335534036,-0.03288332909939236,0.2107328164816376
1681483761.81558,0.5686913329156734,1.8473971251164822,10.074327050451993,-0.004283484124320512,-0.03927393455080333,0.2107337254524704
1681483761.825579,0.3362530124397146,2.0208633735741244,10.18108284488775,-0.03221862294976483,-0.045533073800636925,0.2094850975513931
1681483761.8355374,2.0879676020509206,-1.3380838983728651,10.127344581820369,-0.020573786020662094,-0.03305422750831277,0.2053994524717804
1681483761.8455274,3.6645321302770033,-3.0491954648947135,7.795588369089808,0.037566331846526205,0.006181758010178027,0.2058589446783539
1681483761.855552,0.10254155712345477,3.5121074135838786,9.241789935836788,0.004452900365504025,0.010329208124682826,0.201579882526445
1681483761.8655028,-2.6201234742892767,5.470285362844302,10.64265662968877,-0.0587272168692278,-0.029393271771363864,0.1969332981348511
1681483761.8755298,-1.6677986618211609,2.565765923685466,10.336149365526419,-0.10163374497823828,-0.062470823058425586,0.1897669571876999
1681483761.8855093,0.525619108099927,0.030329062354310637,9.669075515688077,-0.09682051607628683,-0.06709674166828608,0.1948674160480972
1681483761.8955483,3.8510560119088324,-4.482805738740921,9.286789214527,-0.027696796257013087,-0.0239278476974313,0.2111743080854889
1681483761.9054675,1.066746423557678,-0.7959083772862832,9.590199974042866,0.007568373370488112,-0.0023642109948680957,0.2116622615099426
1681483761.9154875,-0.340988953013343,2.1698021157506675,10.871274511382762,-0.005806518144823094,-0.005027558849791385,0.2072298217058655
1681483761.9255862,-1.7632418271815118,2.0359932296497427,10.75349192064381,-0.03105625388499856,-0.02667903937683206,0.2075010228395935
1681483761.9355145,0.10276758944355871,-0.3111182460988116,10.112175886275434,-0.02724274543140483,-0.03212702603764043,0.2083255189896103
1681483761.9454732,-0.4206553009710364,-0.3238175047117578,9.235492870780249,-0.011874527454361,-0.039989474927236854,0.2163131672382828
1681483761.9555793,0.768138014180665,0.4948727151531471,9.418514243267431,-0.006473572915027772,-0.037981376387538644,0.2325970369816299
1681483761.9654803,-0.3591313226827592,0.7470034408943905,10.110678766544131,-0.014717529443483597,-0.04660821319527901,0.230576037192392
1681483761.9754827,0.8040150267569117,0.0359437413759489,10.059795732457392,-0.008927400768263026,-0.04391450747105077,0.2305266547441956
1681483761.9855888,0.7188298053790759,0.5398689017881199,9.82886974391922,-0.014297444125200637,-0.03578996532848311,0.2269074309111114
1681483761.9955158,-0.04541703199588838,-0.10908002779111631,10.203753330137982,-0.014452111071665013,-0.039871989836362816,0.2185234266758438
1681483762.006099,0.32212861053632347,0.23661451579350695,9.824358791570866,-0.011863184146352446,-0.044476318840747965,0.2250874328852173
1681483762.0155723,0.21608105301199587,0.41242689319318154,9.858100794980341,-0.01744190339544076,-0.04616725036143887,0.2340064037085052
1681483762.0255344,-0.14066146331051815,0.3014040404888671,9.859985323680503,-0.013747568165962174,-0.055379347024514344,0.2388446468353744
1681483762.0355084,0.9956555530080703,0.5607846507412471,9.847849741806492,-0.021200252860158062,-0.05142843566902878,0.2484807062387939
1681483762.045513,0.3193201873838798,-0.6239375732232434,9.576056199245437,-0.0029015164696820916,-0.05224925482895765,0.2486952233553406
1681483762.0554855,0.33731603573709795,0.06356045876081212,9.86816502387413,-0.0009647010443512408,-0.057396200172784226,0.2417314934969421
1681483762.0655112,1.0681354299354044,0.7884044355185488,9.791964195397725,-0.0009280068963653446,-0.050714932903291286,0.2432046520948883
1681483762.075565,1.422108041769794,-0.022681662356232705,9.622850583674323,0.0011767678101024224,-0.04221207142110297,0.237357242727327
1681483762.0855048,2.073266073298666,-0.03419906829884475,9.284083914171635,0.003152232162153006,-0.021661761155169174,0.2285729933023926
1681483762.0954945,0.8259494224518097,-0.5085195383605056,9.031393797263567,0.012861679625112369,-0.01405590983939751,0.2286185610533234
1681483762.1055322,0.033622637093974596,0.01794187331972992,9.671010288246759,0.012044150844705719,-0.021481023727285477,0.2222931224346634
1681483762.1155376,0.4874037058966331,-1.2184319048358305,9.30329675851238,0.020636996647883113,-0.020051191668004422,0.2176390129566666
1681483762.1257164,-0.40661712919927356,-1.2624059983958666,9.381513293396669,0.032590388282504185,-0.029364698619178977,0.2057700592518326
1681483762.1355376,0.10993130295913899,-2.3818687777139433,9.55158736879763,0.049936628153193795,-0.031905078918161155,0.1917912352324005
1681483762.1455393,1.137661573132571,-0.5446437726257345,9.806580538370424,0.054129675053431664,-0.02693073981004518,0.1842735249042984
1681483762.1555653,1.3307135373502286,-0.44124963008577844,9.525635043966982,0.05968694593097066,-0.009441521811368021,0.1692968744278427
1681483762.1654923,-0.1424963936493355,2.638821867120741,11.144943430461582,0.015639635343494284,-0.021510462606153913,0.1642267990351196
1681483762.1755347,-0.09024707579146234,-0.12358242707763495,10.304888966064611,0.012730338703255073,-0.027659041474770232,0.1606649893761154
1681483762.1855323,-0.03962281444283557,-1.8039978672374548,10.076159988250675,0.035954930586678,-0.04543568889623294,0.1626414048910614
1681483762.195511,1.0575105409751895,0.1177185634233604,9.141537402660498,0.05437860504590922,-0.04747781434666003,0.1889442044735428
1681483762.2055593,1.1741208526018536,1.0618848806440513,9.147835308001437,0.05300588718834661,-0.04446784675805743,0.2182928014040466
1681483762.2155344,-0.003201016574736679,0.6965788848768919,9.33206320712979,0.053008091495042535,-0.05248965218765535,0.2437173265457626
1681483762.2255554,1.0085778642817305,1.8457040460728165,9.864695858390279,0.048232325457912166,-0.05398628533683053,0.2697254407644745
1681483762.2355657,1.463449227900542,1.2901647636196272,10.060412385257134,0.0362688112267742,-0.04219661892931408,0.2831047165632721
1681483762.245643,1.3464528847274724,0.22233787542324118,10.512042567772935,0.039318440503901354,-0.03465171706541239,0.2740807819605347
1681483762.2555983,1.4328978521054443,0.595576688820752,10.017186406759425,0.03893569353797256,-0.01800699064231903,0.2592838692903992
1681483762.265524,0.7087257933121984,0.8753288434236859,9.67759547913863,0.02856233930901695,-0.010885603291446463,0.2373116153717514
1681483762.275644,-0.6790263562295225,0.09690905820765161,9.282578597528037,0.023231006940547794,-0.01771484289684446,0.2083938855171677
1681483762.2855296,-0.6673976563198964,-0.5920287648901652,9.584527290842574,0.02530340556683415,-0.03774840554146376,0.1897350836039062
1681483762.2954934,0.5208306275542656,-1.670676471447745,9.37198317585285,0.038020793325546844,-0.03674060626318995,0.1695810246706482
1681483762.3055544,0.5126814790481692,-0.5279442200133289,9.982412633810762,0.04538495954642569,-0.03999414723498309,0.1540672767401215
1681483762.315593,1.9139758262887157,1.559972170518014,10.354156054563026,0.018007680546420858,-0.02332689110806343,0.1492121953011032
1681483762.3257654,0.809544940510514,0.46488652732349894,10.672740167009641,0.0029716865604432585,-0.022587017573630797,0.1418160039425369
1681483762.3354988,0.7983835255828777,-1.2575269156843312,9.588532589176715,0.01420510989355397,-0.019414070473200127,0.1364734161139008
1681483762.3454971,0.8955850835856101,-1.8301281005891445,8.990749368150203,0.03649232220483452,-0.0173078840029029,0.1407003540039536
1681483762.3556485,0.01033419056696128,-0.794599439694402,9.161390758568123,0.05281827398021725,-0.030377115515858418,0.1426547307014938
1681483762.3655145,0.5847609014988184,0.9586527449185586,9.840068382115607,0.04789422591846119,-0.0442939153424029,0.1527570921421524
1681483762.3756046,2.074962565498085,2.346374496632527,10.324329596830614,0.02369985495572544,-0.037973711628590784,0.1583895522594925
1681483762.3855424,2.408735808818796,1.012885199163302,10.351181751145518,0.014502372107831797,-0.028494347440276617,0.1551258552313324
1681483762.3955534,2.66178086431296,0.06936895948360654,9.847639207614058,0.017768901103416272,-0.01578999151190749,0.1542908537626739
1681483762.405887,2.352221167617451,0.44493398081664975,9.514363505331337,0.02246120857187629,-0.004130843484069732,0.1569151121616837
1681483762.415566,1.961762754286268,0.7423258826824551,9.678654850221042,0.020389365529265197,-0.001137934399743745,0.1643732476473328
1681483762.4376748,1.6871153558760779,0.8762702426751664,9.466489830901773,0.012568466796771701,-6.0354223776562945e-05,0.1738589096308228
1681483762.4386995,2.5819438411207867,9.28871602220707,11.77807320813633,-0.001380487450075701,-0.0004724422224490707,0.1837233889341827
1681483762.4456048,0.17909885561365246,1.6356452048453511,10.08251875425751,-0.01792010475230232,-0.012896573147322274,0.1889178443193909
1681483762.455572,2.5740995175123986,-0.8198654664395244,9.992033090112134,-0.012464268374126931,0.004053686811273533,0.1945433008909698
1681483762.4656284,1.614023393698649,-0.6153969233309066,9.452772910548347,-0.0009112068759017342,0.020401874080783564,0.1894807654858109
1681483762.4756773,1.146445744433536,-0.4615198266981126,9.858650672345366,0.0023561308514975818,0.027745059503312363,0.1806507098913666
1681483762.4855802,-0.35805419771849395,-0.0656940987388558,9.710381031337866,-0.007104075132600309,0.028386888879717482,0.170788719081926
1681483762.4955685,-0.5842839178115463,-0.526752896309341,9.97030164229711,-0.00474112215646255,0.015247168555888719,0.1614050853491302
1681483762.5055225,-0.5817801878571643,-0.8164603939157767,9.600030968176245,-0.005908571861767357,0.006324181565662681,0.1602933246136185
1681483762.5155313,-0.584993565066463,-1.7722458059777895,9.486913970922433,0.013759810258273658,-0.0019209565570311037,0.1600144344807144
1681483762.5257392,-2.339016133718841,0.026997911958447227,9.411391636213448,0.011629688694135082,-0.03364360032536413,0.1547445196152206
1681483762.5356174,-0.3696090775941797,-0.41396867274560634,9.903232781107631,0.00927079706080694,-0.04711898742285964,0.1627952593803879
1681483762.5456076,1.0558678165380082,-1.1317045367836844,9.572238119972779,0.02967789680438328,-0.03852069504100618,0.17365330340867
1681483762.5556052,1.0173771990430822,0.47519029549461217,10.132316846196517,0.03571926141794322,-0.034259811175596504,0.1855444151401993
1681483762.5655386,1.0486463461238704,1.7042097062572679,10.535840700920003,0.020248280447181983,-0.03098649738596337,0.194856255078363
1681483762.5755816,0.8209207352735067,1.1417912205975302,10.308052743613192,0.013253894278895595,-0.03170174374382504,0.2006265658379074
1681483762.5856638,0.8803932139630521,-0.3350683682902937,9.806119432638981,0.023452826701827082,-0.03426472013068317,0.199203504943895
1681483762.5955875,1.7045907586610007,0.30828512573748046,9.449318799290957,0.03142814134288668,-0.027557611808289233,0.2061598736286636
1681483762.6055598,1.3608487563557021,2.076004814843641,9.533564764496708,0.01764211313919415,-0.022970789715853018,0.2162052381277557
1681483762.6155136,0.5009504448100893,1.1984728748984985,10.025202583944209,0.003689921623355494,-0.030668563583693517,0.207866503620195
1681483762.6256044,1.2678960278382723,1.0762467633681834,9.743879379915045,-0.005715251454518337,-0.02480894532024267,0.2039343703032013
1681483762.6355896,0.6900389607907159,-0.45624825230384863,9.533659920179442,-0.0031128450500470745,-0.023790971175497815,0.1962990749121185
1681483762.6455758,-0.010339362967626308,-0.45688014209995864,9.508648799023263,0.007784462657247969,-0.03153129642397536,0.1956420082092758
1681483762.6556628,0.08484630264103049,0.5158345922410864,9.957414759704175,0.005068043741882969,-0.04027005236149664,0.2009383279324051
1681483762.6655204,0.13184342896588985,0.16645513476717613,9.861942308124297,0.004192723046409861,-0.042396863893831384,0.1934267419815536
1681483762.675576,0.2838835630897598,0.3489872708205528,9.8498034180956,0.0041842492226927186,-0.04320446214954318,0.1882647562265869
1681483762.6855028,0.18139410838662903,0.1374055072788331,9.841075050085644,0.003401269542800014,-0.042492125392246664,0.1854209739208694
1681483762.6955495,-0.5615242899844534,0.5687770585160146,9.900658294045918,-0.0007468353811572347,-0.05487155918351074,0.1861811715603348
1681483762.7055871,0.518833539542396,0.5716974797598218,9.721023110275807,-0.0005103302479022114,-0.051448273816655184,0.1852823633194443
1681483762.7157826,-0.10718690623295629,0.7525602718267259,9.872182336246023,-0.0074808860965304876,-0.05577791783079618,0.1855708796024796
1681483762.7256632,0.17910559458992212,0.442956509986728,9.903403242825094,-0.010280941035353895,-0.05942892209504593,0.1851010310888763
1681483762.7355874,0.6183917839347407,-0.5014066666522972,9.602941610680118,0.0018304829056555898,-0.05782627006989094,0.1856619107962128
1681483762.745546,0.9908158485624539,0.9857661879494146,9.7389021249671,0.0004392621733851141,-0.05049574436982867,0.1906872827053543
1681483762.7557282,0.6304595119731532,0.12002233218804614,9.714156957183953,-0.004529494908711222,-0.048287345861290965,0.1901472497225281
1681483762.7655382,0.9415761935662823,-0.4279278611540474,9.542593937560607,0.009149077049835037,-0.04611290604552608,0.2035159307957169
1681483762.775621,1.1557217233651325,0.3017155427150303,9.725614858513783,0.008018196507443209,-0.043046749261614545,0.2155895072460648
1681483762.7856872,1.4693833667062124,0.10982030394874343,9.353812198558998,0.011878037524866457,-0.032424515179978616,0.2236917752266403
1681483762.7956576,0.6897764375906729,0.2719026527765812,9.911757543235604,0.008978534258040627,-0.03490711407097423,0.2286958235741135
1681483762.8056629,0.48077656272519825,-0.5747193421235426,10.045994864628465,0.01884856174847185,-0.042038928913692236,0.2268646943808075
1681483762.8156412,1.1099926939846876,-0.08732474437739354,10.096846636896506,0.020557268671298385,-0.04277174486054957,0.2215701180935379
1681483762.8257086,0.7490886575622977,0.8135047397215602,10.108963949656587,0.014207414137547367,-0.045091924662413116,0.2150931644678589
1681483762.835672,2.0105862117598527,-1.5916092694121737,9.718768562161028,0.030363975553849752,-0.03973077926808827,0.2077937263489243
1681483762.8456032,2.0453577942061023,0.5821088412356246,8.825711622148585,0.03583492230036386,-0.0237051284052353,0.2142208653927322
1681483762.8556423,1.1519243945321918,2.236392106147,9.72705062098301,0.010364386728499497,-0.025346568212322406,0.2198079812765594
1681483762.8657398,1.0743336549706728,1.8313568443489503,9.752007026521321,-0.011556492472255818,-0.020848356972386572,0.2132888275623795
1681483762.8755393,0.4155852666607203,-0.14574238789185273,10.245769018140386,-0.016483009268198758,-0.026769022345481504,0.2040876436472412
1681483762.8855655,0.03747297122574646,-0.7376969479267523,10.070529422587342,-0.007187173957438787,-0.03419623746873275,0.1977131504059311
1681483762.8955617,1.294261886013524,-1.794392316030332,9.399891461745884,0.022602964595828386,-0.026372229227262,0.2022011417389389
1681483762.9056704,1.0198248233026106,0.29897991912401367,9.566701232908324,0.020174161656390452,-0.023810759590689873,0.2094117987394806
1681483762.9155357,2.050411695927419,0.3939298663316625,9.447043472365333,0.023800466490545454,-0.006671982911736934,0.2152264255524155
1681483762.9258032,1.0563435715414968,0.8539131278412689,9.84759648019347,0.0122686641361771,-0.0005321852709581438,0.2108494329691406
1681483762.9356198,-0.1142297928178911,0.4748918131165386,10.32922878787277,0.008019958526784497,-0.011794488936940236,0.1998991656542297
1681483762.9456618,0.15711668860588177,-0.8413930662144976,9.903700349042026,0.017161389956430663,-0.02206280363530605,0.1873897749424454
1681483762.9557264,0.6393344475478243,0.3079690430546353,9.677639355149742,0.01873255925427224,-0.02563834054512413,0.1881442654371735
1681483762.965655,1.0320598238835754,0.9369167368976121,10.061066356934317,0.01251903734149258,-0.02691864431394576,0.1942112881184097
1681483762.9756029,2.074524310574616,-0.39932666748278445,9.124622945760864,0.020295249015607066,-0.007863500703742643,0.1945315587759491
1681483762.9855418,0.6941279715772959,2.2980460119724597,9.343731169044322,-0.0025162651653576756,-0.008225072254272318,0.2048068332911011
1681483762.9957,1.1040094635693247,0.17830644049059297,10.226395332006337,0.0009329171774524415,-0.008563778137026851,0.2127608943224426
1681483763.0056283,0.8412722064654223,-0.4131758099219072,10.013445642825538,0.007210098295118915,-0.01151289732363789,0.2174985844135757
1681483763.0156465,1.0349938079400451,-0.8263067056194261,9.7803834080996,0.027797089093693904,-0.009775840410868415,0.2143223423004623
1681483763.0257144,0.893643694888403,-0.000925793290583623,9.82193399765299,0.037650768704857854,-0.014660868456699071,0.2187066513538834
1681483763.0356562,0.9161612531758624,1.81195096314431,9.995871410679381,0.02263530034556777,-0.016631807592936088,0.2234285909176346
1681483763.0456738,1.5295468530659446,1.3224025240713393,9.828181732029666,0.01394887517558223,-0.013120021830514599,0.2239964443684097
1681483763.0556748,2.0355845455957504,0.630065158728402,9.304687306456497,0.015502054929907933,0.0008967584038760953,0.2203607547522064
1681483763.0657055,0.9279842111301914,1.7349066115132818,9.91278535531257,0.0006019903186973706,-0.0007954984438170354,0.2210600662470337
1681483763.0756364,1.8758243168327335,0.13638881172331968,9.472069210410579,0.004886417355061166,0.00758355763505142,0.2300629902124878
1681483763.0856268,0.7911611362576094,1.6541564317080806,9.994003461651252,-0.012328666910543476,0.00792736462973193,0.2288117248058792
1681483763.09561,0.9261773496068885,-0.6564297454377956,9.934074141899304,-0.0058199510318491755,0.0051338556242380195,0.2350451189518448
1681483763.1006758,2.6414365742452675,-1.6647355158143908,8.756393847555533,0.012888746592087613,0.01509734690962086,0.2469838398933884
1681483763.1146157,0.8213235661461751,0.2072084063216891,9.595880577107856,0.014319953169618767,0.018129325365836703,0.2488580483437057
1681483763.1246357,0.3643288653083248,0.7999115683634701,10.065620302654132,0.004512391146920797,0.009893956539944026,0.2534597206354614
1681483763.134764,0.5448916386808957,0.21318061721641385,10.033933437206622,-0.0013044018301342942,0.005121152725203348,0.2459054577589508
1681483763.1446457,0.7360943257967357,-0.6687735685298586,9.861345074021902,0.004664674167493728,0.0035245105397399695,0.2314666497946259
1681483763.15464,1.1825518566395656,-0.5859977664607431,9.303554872750755,0.02208935790815243,0.008367065361980846,0.2158169734716888
1681483763.1646512,0.6710476525525447,1.4663075726635963,9.98452237099327,6.384759605884535e-05,0.0068506964171877495,0.1986808467150208
1681483763.1745763,0.11891845194772092,0.6453138704511613,10.105820112387063,-0.012838253450741277,-0.0028188406675578458,0.189098729515123
1681483763.1846116,1.0775951561447232,-0.953928692090954,10.005025207110267,-0.0058803475161955335,-0.004612055299804189,0.1908800590277191
1681483763.19464,1.2246021848350697,-1.4859017223688273,9.574847085324532,0.014099212611265012,-0.001395056832414432,0.1877508598804947
1681483763.2046146,2.0449865768607665,0.4032902770086276,9.38805987336807,0.014635753823114635,0.011682164655979693,0.2034162867308136
1681483763.2145784,0.9751119819433158,1.5592368217031276,9.673970513651883,-0.0022385601895640395,0.011447598884344632,0.2231915432453629
1681483763.224755,0.44490868819265667,1.1373544259868165,10.227284839733152,-0.01976195503030192,0.003134558235831471,0.2316020566463943
1681483763.2346318,0.18616629929021683,-0.45054462558914404,10.244524148339682,-0.013374671402919517,-0.011456000640412158,0.233504651808786
1681483763.244589,0.709381404218809,-0.8093599078957678,10.39434144068854,-0.003894465723629568,-0.020085557374865812,0.2237346756697174
1681483763.2545917,1.683729953322203,-0.26909106584626097,9.623705639255183,0.008693345440134094,-0.012739501097835821,0.2144032556057449
1681483763.2646797,1.7899146703283062,1.7534720175658731,9.701945749754973,-0.007784241899249337,-0.004602383910408657,0.2173634755850311
1681483763.274584,0.6997440410168816,1.7823574246871963,10.094290364352673,-0.0292105537753607,-0.013834443077538464,0.2160396862268921
1681483763.284652,1.7802037765305665,0.6606055850969013,9.869450927744895,-0.037124383601843225,-0.008895395037459529,0.2196382421494003
1681483763.2946618,2.0059486513236453,0.2429871710021973,9.757926427956695,-0.03718835868494773,0.0011852289317487348,0.2207848119974609
1681483763.3046126,2.302250684953378,-0.9410431353106957,9.383575882764774,-0.02205834095761966,0.017739770221157736,0.2218409019947525
1681483763.3146615,1.921115431554798,-0.5300754288299735,9.15070177721034,-0.018027890707198128,0.03423402339081425,0.2296677667141434
1681483763.3247626,0.8430723120793256,-0.9174401790564679,9.250098000029148,-0.005786451779667023,0.0372304446973761,0.2279571581125732
1681483763.3348,-0.9306114982650336,0.4326482686901917,9.697178898387634,-0.01435327785554344,0.018262981612623283,0.2163209307432648
1681483763.344668,-0.21639413632110668,0.13324393345802982,10.188768092054545,-0.026909730210857345,0.005647441755646454,0.2079412627459045
1681483763.35469,-0.4754798559876302,-1.499492326784276,9.78674117208156,-0.017502363795574072,-0.004451195275659099,0.1849313366652008
1681483763.3647652,1.0847618528633582,-1.8637238569515535,9.88024302360834,0.0076286850365281985,-0.0020688027792891343,0.1698883760214325
1681483763.3746655,1.2578663645965757,0.06052647663630123,9.40133871266799,0.009961102611653238,0.010460216986602449,0.1601252693176743
1681483763.384687,1.0849051974046242,0.7170331955926584,9.717116852334549,0.001301998691920176,0.01977381091056156,0.1535938817501541
1681483763.3946905,0.1541036772088964,0.32668129771774196,9.727607594823747,-0.0017278001091953433,0.01944602575322653,0.1545719492674347
1681483763.4046698,-0.27172723888451095,0.775428315152077,10.00096587980545,-0.012886643600971833,0.008948442868160876,0.1622873682022568
1681483763.4146683,-0.11001285040686082,0.001280554317412557,9.829942822230848,-0.024611629909659514,0.001994178592727295,0.1787588137627121
1681483763.424774,-0.00913105237017028,-1.6447816807425788,9.658084252320048,-0.01326886570999093,-0.006190692746911513,0.2011966097593781
1681483763.4346778,0.18115108698960175,-3.5443789597771374,9.186400067927877,0.027058790260978495,-0.01106203144184929,0.2141868758440491
1681483763.444718,0.517317089580377,-1.6761000476267682,9.572644644092431,0.05076842700591094,-0.014082029706205352,0.2146551895380493
1681483763.454741,0.9652124619135339,0.422980947841623,9.812966415036632,0.05130020998022104,-0.010439274597126855,0.2110623854637619
1681483763.464661,0.6076603389196887,1.4389241412395757,10.195254389195785,0.033635346305410624,-0.01081030450680251,0.1953008461237427
1681483763.4746194,0.5795634450967997,1.0965336062963404,10.083257194877943,0.02767928862872831,-0.012834125244576194,0.1822570997715469
1681483763.484691,0.7608331204280173,1.315624636658301,9.883297471370145,0.016326337309354545,-0.01681500244624745,0.1656977373600479
1681483763.494671,1.214587024200803,1.042897291751396,9.88500376120825,0.010141425296903251,-0.018673195521991388,0.1601480531931396
1681483763.504669,1.680801007592646,0.2714183615543332,9.620502846416326,0.017763054846726425,-0.011799383259921003,0.1546025860548492
1681483763.5146403,1.9600750382628216,1.2427869384559143,9.500104870228487,0.01726852799835468,-0.001214151934332432,0.1565723556519028
1681483763.5246146,1.4558787586712976,1.3777611995397039,9.815844220945491,0.002798824472965823,0.005315953455254571,0.1554741847753998
1681483763.5346284,1.1470743755173896,0.5036912467615132,9.680377879445878,-0.0004487737143282484,0.009440248651499488,0.1680501985788818
1681483763.5446975,0.5020562597805707,-0.30571315053585557,9.823768282704945,0.0033445962704105065,0.0006637890957090631,0.1810109305620666
1681483763.5546644,0.8459202089908132,-0.9221162455478273,9.449853814385502,0.015195816965886982,0.0017777084202634614,0.1864480215549942
1681483763.564644,1.6916333195299478,-1.2744688035687088,9.465939667496313,0.02963836180073805,0.009346621606924774,0.1859741050243851
1681483763.5746386,1.1978301645028988,-0.28278818582535087,9.568244049976384,0.039545483366737536,0.018197719716055605,0.178141920590448
1681483763.584579,0.8185646245893518,0.7802273792628241,10.103319745748562,0.03511705943973898,0.019596254586043395,0.164558141255426
1681483763.594737,-0.03845041573467126,0.8356551406822611,10.168403937158786,0.020645591573306792,0.009875452061766446,0.1457480478525635
1681483763.604662,0.7211007201176928,0.0005292117624548905,9.66035528188518,0.02385681984058459,0.007033680620856896,0.1352320003748413
1681483763.6147094,1.2732122823017324,0.18805717073209904,9.621984687484629,0.023321619841313843,0.007252480401046309,0.1390966463327881
1681483763.6247292,1.5494849484845499,0.2480499251153718,9.288355458195525,0.029021026354894817,0.01597555985071387,0.1452428239822861
1681483763.634626,1.360351252283545,-0.060044635937564234,9.621419574544054,0.025859392139761628,0.023306898554045503,0.1507972318172928
1681483763.644704,1.442976148073432,0.8928018122147754,9.914703309863143,0.015998793128933972,0.03087640895482156,0.1691879320383545
1681483763.654687,1.7375876667351782,-0.613882876721248,9.925811072448152,0.026480111649565596,0.0413821763674447,0.1775844830513473
1681483763.664697,0.7635164249807787,-0.6311215713678974,9.716573107043354,0.031751409807733326,0.044435877868193044,0.1811977315187927
1681483763.6746786,0.38800149454979005,-0.41527728676210524,9.897518560410107,0.042118935726874474,0.03664765701916958,0.1809378403664108
1681483763.684658,0.035820088893921145,1.4675337415415723,9.76407244126829,0.028671734642019185,0.029003768952888823,0.1816797393799301
1681483763.694631,0.9426077762675612,0.017413312283135154,9.987424325212528,0.026495625625872505,0.023130058849234466,0.1813761580229279
1681483763.7046602,0.3409534720546383,1.5024259630438521,9.93321497649159,0.008685070416058554,0.01366706456139843,0.1774721729994293
1681483763.7146156,0.9642390846083756,-0.21235375091015593,10.131586836630925,0.013928893714015917,0.004404109690260998,0.1653929192066666
1681483763.724743,0.6755532912142608,1.7005656966716933,9.539043414954039,-0.010759072041041044,-0.002832623322772827,0.1567668605089661
1681483763.7346752,1.052336142522008,1.970654582829419,9.720906864638769,-0.029346575237863673,-0.011050133529726126,0.1590049553156372
1681483763.7446134,3.3776858485816796,-2.141374688787835,10.011246728533754,-0.00948058377472185,0.004424309890705138,0.1630978423595901
1681483763.7547045,2.117489902605355,-0.3610682620156626,8.99535917631999,0.00514567781959179,0.025376156667470586,0.1567320662975784
1681483763.7647965,0.43915516404724925,2.1903729812913184,10.145993149119658,-0.008895954578562066,0.0016799420004182427,0.1525216388941284
1681483763.7746954,-1.9225580812037861,5.906197972353878,9.619617069986877,-0.09936577275346642,-0.026192552442971605,0.1582952428102966
1681483763.7846072,3.8945249519777563,-3.679408206834166,11.016622492126073,-0.04610672653295193,-0.01967618734192701,0.1734201598406311
1681483763.7946446,1.5307957058158643,-1.4335655059053967,8.843447967562684,-0.021416911345701232,0.00166496477290281,0.171880899691629
1681483763.8046553,3.6514332174016126,-0.020779614904241763,10.056521692161,-0.010431691739481894,0.022815298626285802,0.1723318833351608
1681483763.8146946,1.6579198543025944,1.354537850758906,8.766161258144995,-0.022028890112434966,0.05192247714721545,0.1743945467710968
1681483763.825214,-0.12226886005227348,1.363124652198321,10.738019855945694,-0.04683783974321745,0.029049248091092793,0.1797989297152039
1681483763.8346672,-0.31332000403487775,1.648329249344932,9.104037232358705,-0.05792683598118957,0.021695381994901765,0.1947031009436127
1681483763.8446896,-0.3888257304770706,-1.4402321749337523,10.822466710855853,-0.048758468234254386,-0.002137969740525873,0.1956011790276047
1681483763.854754,0.8958677130799,-0.37973152066932075,9.233604401465287,-0.041287604628738976,0.0025247632946619543,0.1913745093584534
1681483763.8646965,1.1582427069981367,-0.2942645222004029,9.228377593152356,-0.03586975094169431,0.01793219138138615,0.183125047707605
1681483763.874689,0.4104507259374356,0.38195213910555287,9.576304906384902,-0.047007134348258414,0.018765214969174545,0.1817567485809799
