time,ax,ay,az,wx,wy,wz
1681484405.9677267,2.4675543223264182,-0.6275167453264611,9.133539597465933,0.076637182791457,-0.10709590795974812,0.0715404513717171
1681484405.9778335,2.814169825880517,-0.28886200147282215,8.942584975148716,0.07941673529967748,-0.06841234456355985,0.0591760899365421
1681484405.9877906,2.0159318905114225,0.41948151739449113,9.2073953159054,0.07757844002475989,-0.04366161010554049,0.051703925007629
1681484405.997755,1.9607601682146385,1.3097369803759704,9.413085666527834,0.06158011476739126,-0.020166917198304785,0.0441381807864185
1681484406.007721,0.8934388250737785,1.7378387990004012,9.932795381032527,0.037506079882749434,-0.008189119445488965,0.0385088089347359
1681484406.0176892,0.3186983163633941,0.7438994340688789,10.140250576510654,0.029174307046524323,-0.012764925872761537,0.0390312324703213
1681484406.0277486,0.961925103897047,0.7557653598159143,10.180825371667984,0.018961711298715277,-0.008839012485253754,0.041443428719091
1681484406.0376744,0.6880008162219345,-0.8410356227729653,9.708598609418646,0.029405332745135886,-0.00923946791475239,0.0402192349970814
1681484406.0477126,1.9175329780210395,-1.14083526246217,9.17635005036407,0.043143603548276566,0.005518444359793853,0.0424769173801418
1681484406.057708,2.7305671052201848,-0.8127882377752109,8.796987797906379,0.056828280181308866,0.030209414664622524,0.0489688205957886
1681484406.067739,3.633587499472995,-0.13340874123983856,8.82019911116071,0.05997573956083976,0.06713987604907384,0.0549200873315807
1681484406.077747,4.187525722462529,0.9089570334561039,9.059315451184796,0.050156391891945075,0.11777615639779887,0.0514310847461697
1681484406.0877423,3.260355438588255,0.33585189098957596,9.251793097449838,0.043058088878180675,0.16298958358305363,0.039925313317823
1681484406.0978386,1.273820636992043,-1.503117396667114,9.119537333132035,0.06213390978048779,0.1887049853072841,0.0267670906574007
1681484406.1078222,-1.9868994322772626,-0.6605263839459236,9.973710679923888,0.07147420872355517,0.17830800799162494,0.0008973275503617
1681484406.1177597,-4.733077609331865,1.8306557277627453,11.369136600334514,0.05389948543122006,0.12757366491426178,-0.0111677295103195
1681484406.127726,-6.159174185402188,3.292122793905997,12.329940784672576,0.012510560515926396,0.05518032026560437,-0.0144404054194215
1681484406.1379328,-5.516979791280775,2.1004122686603455,12.314062829130783,-0.015973402424318012,-0.016654878321930976,-0.0084578471764448
1681484406.147789,-3.346684279859406,0.28732380134741503,11.060585814318095,-0.012128574640257479,-0.06417504742100283,0.0094316692516681
1681484406.1576903,-1.3893899264834864,0.14048033151847325,9.962617241757062,-0.00382294372984865,-0.08191052899527665,0.0243175222963568
1681484406.1677442,-0.5925867492703641,0.5853206975799328,9.515323415916965,0.0009376395417443882,-0.09033034298944882,0.0428478631616112
1681484406.177805,-0.33348306608411393,1.0310229598167637,9.214025292739436,-0.005202713358287107,-0.09310373360251287,0.0565797488630291
1681484406.1877484,-0.5522435682772288,0.8329191823517037,9.105843100825446,-0.011532845610552251,-0.09652542208865594,0.0619377556682106
1681484406.1977067,-0.7643925349218799,-0.051067164398744556,8.895427163441123,-0.004977837323781482,-0.10496763521701519,0.0683769646525856
1681484406.207734,-0.8260210930738754,-0.4273749324593736,8.738763781434416,0.005578825724466458,-0.11045561546470808,0.062436750853109
1681484406.2177343,-0.9014393644842176,0.16063210228242572,9.111584706250369,0.0068101520846609856,-0.11926907534875895,0.0540310803294655
1681484406.227792,0.6680627102985954,1.086335307559949,9.36471337947643,-0.003369365266503514,-0.10811603024222392,0.0431290853262421
1681484406.2377725,1.0384380184599535,0.9698466763875686,9.603846302019994,-0.01149406600984281,-0.0853924664345641,0.0337621632457252
1681484406.2477229,0.25939157386915757,1.1744877904717481,10.442940316997179,-0.021102647701860794,-0.07555415671571837,0.0246213551104542
1681484406.2577248,0.210770292612034,0.7732684986594608,10.656321923023409,-0.0274100599399555,-0.0656143389774509,0.0197005986661192
1681484406.2676706,-0.4824372639789627,0.906874223123072,10.715344379752993,-0.03366650702550967,-0.06459464676725465,0.0224679063499447
1681484406.2776735,-1.2889113624368131,0.7759416683372411,10.664255667316743,-0.040969849844740405,-0.07700484492793,0.0299093711615082
1681484406.2877018,-1.2597510827819811,0.8357602210706088,10.273969340401868,-0.049567143662460976,-0.0917646690698553,0.0439870792866226
1681484406.2977245,-1.3210516390803504,-0.005978463791069812,9.90202460279358,-0.04910434174380326,-0.10642676970663527,0.0571789543569561
1681484406.3076851,-0.995805185185911,0.07125738163168076,9.903996915586518,-0.04281507542102754,-0.12337602666343982,0.0718712944031235
1681484406.3177264,-0.018764506303782222,0.9147084467060904,9.765075252302811,-0.05218924938210596,-0.1252546036774642,0.0792883697391029
1681484406.3377366,0.5710108058230436,0.39693353316755164,9.50915077672864,-0.05391647521552608,-0.1145091052524096,0.0824894073844429
1681484406.338797,4.8772550159958925,-2.61687024692598,6.262698860138789,-0.04831437465283953,-0.10386651714927606,0.0816961813211914
1681484406.3477364,0.7919393523947921,-1.5709873750804735,8.934925679889268,-0.029256760712873604,-0.09374214082589226,0.0767881411552902
1681484406.357753,1.2962423044774922,-1.3629334440437788,8.773213016842348,-0.0058163427294281676,-0.07431989767392835,0.0719018194318291
1681484406.367717,1.5277637059942453,-0.11254207029828212,9.42196696257297,0.0008984834974285639,-0.05594173386271342,0.0635976779699799
1681484406.3777874,2.6242434550523024,1.5503555246713694,9.491106621084969,-0.014855019503213857,-0.018942352609077028,0.0653144183993812
1681484406.3876688,1.7094778554083427,1.9584067164130683,10.043821730292553,-0.036071905284444386,0.005849348200604904,0.0668620902538773
1681484406.3976803,1.2397674132490262,2.9983905984305363,10.788015967109732,-0.06936932676690248,0.02202083769518335,0.0680793363094803
1681484406.4077735,0.9945013211299591,2.86114665342594,10.695640563082481,-0.10275995367489324,0.0390920725594979,0.0781652096152779
1681484406.417688,-1.3911316269473004,1.1576833261037667,10.801879019602913,-0.11804558338644706,0.023624047395797147,0.0844106364489075
1681484406.4277225,-2.63984557632919,-0.6520313918428662,10.268804797934274,-0.1066666644489009,-0.00907734440405063,0.0962273913860794
1681484406.4377325,-2.7821953008941662,0.3145155138192025,10.21651906600965,-0.1048484748430152,-0.049166132376640394,0.116029037857103
1681484406.447731,-2.0382689898978668,0.9759008511108588,10.209397743833737,-0.10810179651190825,-0.08442329794806021,0.141408367776918
1681484406.4577208,-1.3740649064342296,1.489040947523758,10.027116810567435,-0.1188712084200653,-0.1096979683375983,0.1600050169468399
1681484406.4678314,-0.7113203425863819,1.354390697446965,9.90562255920637,-0.12903645419059084,-0.12881338370546022,0.1770524966955658
1681484406.4777305,-0.08609793004520211,0.025974195686388413,9.231252055928666,-0.12356534826517038,-0.13557147792249769,0.185747100734758
1681484406.48767,-0.23735193918264155,-1.2102311566704795,9.209065191822482,-0.102116764553832,-0.14729249558794233,0.1856632220983978
1681484406.4978025,0.23580266852003526,-0.540140512216654,9.027843993346877,-0.08727082732146926,-0.15281068400856232,0.1836409706116196
1681484406.5077465,0.8478692300470317,0.08601236747542783,9.197386070833618,-0.08267526125862604,-0.15403437007221935,0.1756720829248901
1681484406.5177052,1.8642078680529377,0.3968285498208225,8.913084137599535,-0.09050928169991396,-0.13599541764819043,0.1648814219475265
1681484406.5276926,1.1510112972001418,-0.9799855474202205,8.777428579414623,-0.08175435640530865,-0.1252750520184825,0.1574414956808563
1681484406.5377195,0.2165561118241727,-2.3844053532477822,8.96922562701218,-0.061322416831520815,-0.12810586079946856,0.1513463098049637
1681484406.5476923,0.30654453198626624,-2.783801211514919,9.260143938932922,-0.02878212433486233,-0.1340788751131329,0.1464076179504868
1681484406.5577247,1.0429770427028844,-2.142224250212677,9.248141351791595,-0.009466080231128838,-0.12545503013504608,0.1358991402626511
1681484406.5677214,1.6155593275941698,-1.2980058397277838,9.472886030644807,1.0052500726384584e-05,-0.11022531789453496,0.1306674170732971
1681484406.5777202,1.9105410133330945,-1.8544242699571645,9.203369833307496,0.014465432353770236,-0.08999819746212681,0.1305749106646057
1681484406.587664,1.9520896814990518,-2.5991325303108397,8.964671192276548,0.03772443693085193,-0.06543012934588947,0.1308119583368774
1681484406.597752,1.5745785330931648,-2.8780931150242393,9.1934971384538,0.06928404102293566,-0.048184462363367944,0.1353856164455887
1681484406.6077812,1.7981134006857908,-2.60510495973061,9.496235647668952,0.09963687317653169,-0.026199905223207937,0.1357198643923279
1681484406.6177418,2.0869605756674554,-0.8950523724638803,10.12214200410502,0.1065756579912919,-0.0007419200869504465,0.1389199185610291
1681484406.627746,0.9277266581177815,-0.7599338233279568,10.38854394516786,0.11481723119001577,0.015459071127797314,0.1393806624651428
1681484406.6377556,-0.9690714084843075,0.5277799745881362,11.162204574036615,0.103345177590794,0.0069504403910530185,0.1386988002300735
1681484406.6477675,-2.361638611667559,1.1297308008125913,11.213491777297643,0.09028901533966498,-0.017101360166011555,0.1353906828403946
1681484406.657755,-3.9574424317473738,1.75640722425324,11.42384918243297,0.06738270584419498,-0.05973027825724672,0.1294530916452881
1681484406.6678078,-4.720768556630668,1.8827421323123288,11.209077977672184,0.04575314071136384,-0.1156330216235048,0.1222462567925926
1681484406.677734,-3.713858951910564,2.148207691606324,10.750061320828395,0.02202199957317654,-0.16028612774727774,0.1095559361815926
1681484406.687676,-1.8317158896843644,2.107320932378922,10.50952150667276,0.0011133491682957912,-0.18137116240685458,0.0964016083121773
1681484406.697804,0.5683479586216922,1.6599695553267573,9.938694475528568,-0.013185322320499317,-0.16940139558582726,0.081786705875444
1681484406.7077472,1.8943498686480018,0.2277925318340542,9.625389050045033,-0.008882442668658319,-0.13881314473626083,0.0673020917416092
1681484406.7177522,2.5561619814472887,-0.3282554289379604,9.568297634648674,0.0031950618186708224,-0.10343480558328284,0.0573895152152058
1681484406.727733,2.7652587504106547,-0.2778240267350816,9.279979097772243,0.014216653609884809,-0.06362575051228929,0.0568371552467819
1681484406.7377822,1.9161800657643624,0.23104492585561703,9.553985135378445,0.019417694467549484,-0.03839023279879941,0.0603901918471332
1681484406.747819,1.74520099725983,0.5155946008407636,9.869692053697005,0.009569904246778194,-0.017952023677627476,0.0682300392032143
1681484406.7578497,2.0079145134864973,-0.24902329507224433,9.653734491265952,0.012937320691147525,0.003149823701616929,0.0875797856092926
1681484406.7677183,1.2096815841257038,-1.3916276066004223,9.584696407691291,0.028853469462758373,0.014165617801346744,0.1065764862537857
1681484406.7777748,0.8803666661562995,-1.1319482636162705,9.694204995982707,0.04367338304054184,0.015907651299658983,0.1267952162266251
1681484406.7877564,1.1426018711026642,-0.32790010720538376,9.509862559802366,0.047911161481145555,0.02434752937095252,0.1440450537443634
1681484406.797755,0.6374253155428634,0.8798729602628955,9.708222337403887,0.04048061371555872,0.023614398599619026,0.1524269569159027
1681484406.8077655,0.38754666753643097,1.0478802270826382,9.887633415111301,0.027796151749456835,0.014955302033130032,0.1517994988203522
1681484406.8177538,0.5955346081109961,0.6823584090357423,9.65219773159879,0.019076664969573387,0.011319052837169805,0.1397085923195358
1681484406.8277316,0.7369875002714422,0.5856874576577841,9.829015280579195,0.013079684955596043,0.0061453341993486345,0.1260672050953384
1681484406.8378174,1.0534232806906358,0.6284577777634149,9.739421114076876,0.011204010515517917,0.001615933382862738,0.1148754644632812
1681484406.8477545,1.4818670559669713,0.6081572859613259,9.72141008403363,0.0074049368231280275,0.0020777929419569896,0.1055655914783951
1681484406.8577352,1.9501213347515505,0.38964934906169224,9.30416615332799,0.007758331242934019,0.008616690701183137,0.1014659840107437
1681484406.86789,1.6064973546571222,-0.3254218865471468,9.253710855761325,0.014692797149331216,0.00788991707237203,0.1074840638280388
1681484406.8777688,1.862110022697484,-1.0068193206697866,8.768608616520298,0.029551600136090966,0.012725750250055002,0.1154291394591804
1681484406.887776,2.093892494082172,-1.5667913219343435,8.711582924397748,0.051152533775359124,0.016977418057786506,0.1296570885420319
1681484406.8978376,3.0276819426154145,-1.919814161863114,8.203446974704235,0.07819054165704463,0.03526276431124783,0.1518442470074173
1681484406.9077177,3.2077263884492604,-2.312389171729625,8.343569353312459,0.10928347639772176,0.05194708841208495,0.1802359658718582
1681484406.9177294,3.9583535867973443,-3.212691264856165,7.997973270481674,0.1503635268273514,0.08273456107021047,0.1991671908140656
1681484406.9277847,4.436224618772776,-2.957864320288322,8.096522496785944,0.19084723463026346,0.11844249988024153,0.222652151012468
1681484406.9377744,4.9197633176092355,-1.6132393547314827,8.283965681156625,0.21311540897138578,0.16402115049655683,0.2341056156397339
1681484406.9476938,4.141652945440033,-0.7112232183672699,8.903653734886618,0.22319909628987245,0.2044476550445477,0.2406295973301407
1681484406.9577172,2.6406480073761394,0.18373576200412098,9.680246797737782,0.21305758113855844,0.23567552971118608,0.2284685659647461
1681484406.9677851,0.355316062236362,-0.7869089831189694,10.269469836276363,0.21309898988519754,0.24188654242294216,0.2037364381790634
1681484406.9777167,-2.258839058425291,-0.4478133216871152,10.712944819675398,0.20935065233288006,0.22321522848882316,0.1695968497038361
1681484406.9877045,-4.186184618929098,1.1970574258899458,12.033129694064794,0.1847758100305181,0.17688693158479513,0.1328193384647842
1681484406.997721,-4.550722662441723,3.4004256982556877,12.535183173030587,0.13812139010645935,0.13264639268666395,0.0989375922322746
1681484407.00779,-6.230949511898524,3.653457577168893,13.235145838564042,0.08319739717916672,0.06959407696207631,0.0712684157729622
1681484407.017772,-6.98064551754138,2.288288038080705,12.705304649924644,0.05815099077975249,-0.004076763966498247,0.0575090858579155
1681484407.0278137,-5.004388833228881,1.5816442205729717,11.761977056647355,0.04797498609531075,-0.05537731314244453,0.06458847107892
1681484407.037951,-2.7868287023884406,2.3837660847978683,10.876729761215158,0.036685980071088364,-0.08137710894208024,0.0765378239989754
1681484407.0477471,0.14030726351849543,2.487300487932388,9.993366658198237,0.02001248060997726,-0.07305084624755381,0.0877214509487625
1681484407.0577488,1.7029054034164044,1.7140980821932346,8.701557064521625,0.011799577768439328,-0.037856791443414556,0.1006355199456688
1681484407.067844,1.0338716213743147,-0.03714995169645754,8.751541786629044,0.0211661639263283,-0.013396420150260307,0.1030413794756409
1681484407.077793,0.42515614933881996,0.25415898992961955,8.539438599346582,0.03493504146504994,0.002859388128020729,0.1089877251029488
1681484407.087785,0.14565804303719404,1.2776086462268512,9.189893713911005,0.026404985258168354,0.0064077939090153345,0.1106301310897346
1681484407.097811,0.8081970519647959,0.9248225534153952,8.635384214471273,0.0236372027388402,0.02320182270704302,0.1066226053476807
1681484407.1077166,0.14611048958010409,1.3697553543978578,9.260416294554917,0.01231735704491854,0.022767587732786997,0.1096940773964401
1681484407.1177964,0.39584768145904453,0.8155167664037204,9.1024986082154,0.005562565002285737,0.027936831055277573,0.1076910782099243
1681484407.1278255,0.3326845395934419,0.455829768575252,9.505570567744885,0.006281694742499884,0.024364355935766534,0.1019279349089142
1681484407.1377056,2.0948634515567592,1.2670181887131002,9.709236560311282,-0.0035714016158837425,0.04310805342066169,0.095173886740255
1681484407.14774,2.679961660396285,1.4991728748889628,9.986536337791883,-0.014893072813411087,0.07175830719116803,0.0940328154206749
1681484407.1578455,2.1952017433126754,1.1235676655644016,10.567124889002246,-0.029215908286299153,0.09474154453822743,0.083428500914621
1681484407.1677616,0.7074072024424234,-0.8071829363221672,10.211283770298008,-0.02102056142697722,0.09450112859887207,0.0832824695349213
1681484407.177718,1.1390657097077606,-1.3655973692655359,9.80536639090826,-0.004169523846680199,0.09903643113094407,0.0942661825061317
1681484407.1878257,0.5267805277136026,-1.5716242182484486,9.463806867115567,0.020405458664382373,0.09086026644867684,0.107187165641832
1681484407.1977444,2.0695620266707335,-1.2404010810161645,8.706837458795945,0.039680808555955974,0.10091521138925948,0.1202980193734642
1681484407.207728,2.7862535362734677,-0.8350829198085293,8.153208489162731,0.056035894304523055,0.12211246951165612,0.1348601866007324
1681484407.2177792,1.8454013614286977,-2.42848840886411,8.138976673047866,0.08909819680640989,0.13439846034168684,0.1374526161194321
1681484407.2278025,2.032583276750003,-1.977749123376816,8.176348572861608,0.12108527014158728,0.14757123132231073,0.1381465929985519
1681484407.2378936,1.0581111933869174,-1.5605986948909718,8.591987020833614,0.14225124373264364,0.1563137093536162,0.1283874351025101
1681484407.2478795,-0.6455338107803197,-1.1971199534121935,9.434644744770251,0.1563447900418293,0.14012689846923584,0.1157769921660896
1681484407.2577238,-0.9312450534749493,-0.572525046659089,9.631402317961228,0.16296044344479674,0.1233675800296867,0.1010837245226379
1681484407.26784,-2.1518644813255836,0.9585115505519702,10.27938087275803,0.14740885216704352,0.09317901552909973,0.0895909208298202
1681484407.277855,-2.6195077745740556,0.9586676274170005,10.565479548217866,0.13655775215531235,0.059457737184031766,0.0769823926926132
1681484407.2877932,-5.048084316061849,3.7791634636758595,11.861463115656868,0.08778701112740313,0.006261294906649361,0.0698081690311905
1681484407.2977345,-4.525058767259975,3.350752209305363,13.024070914997932,0.048746422175209594,-0.056494626238720355,0.0642743024468895
1681484407.3077853,-1.1343481676555842,2.9832878115565267,12.183154064470486,0.020470711387393804,-0.07289317584500464,0.0586335163057323
1681484407.31779,1.7121533568383545,1.886651102236289,10.880828495065998,0.014372366965797226,-0.05553343236887304,0.0489742446184631
1681484407.3277662,3.1354534734394397,2.1806778354985514,8.905544123992417,0.0081355432853794,-0.008351333658166878,0.032926465147781
1681484407.3377948,1.5998612145000612,3.522658873480843,8.499164839230748,-0.013751730907630214,0.026645102447288235,0.0309120740235325
1681484407.347783,0.11144135271252777,3.8348094122056113,8.932735284374758,-0.04027181734988311,0.03717026798013799,0.0313693142921205
1681484407.3579657,-2.2598359335420257,4.0639217281159565,9.905679857676205,-0.0802653435099962,0.02935324924733905,0.0176364581525799
1681484407.3678524,-3.837380330107373,2.925577814734893,11.602939122355641,-0.1098399704496318,-0.006489551047867535,0.0011387996160432
1681484407.3777616,-4.294088753454997,1.375201367195373,11.446384473299787,-0.1208390381016289,-0.043354107270515585,-0.0088436121627215
1681484407.387886,-4.423321867800431,1.0465185912465502,11.355689411694742,-0.1238018042199064,-0.08901635432655859,-0.0244308833539012
1681484407.397785,-3.611673796898399,3.190705277637212,11.15301570859583,-0.1594343579349143,-0.12438695522708977,-0.0357491497456554
1681484407.4077768,-2.2074062034638704,2.400281256005777,10.605919182115285,-0.1905920195238464,-0.14530951992051852,-0.0451045830308917
1681484407.417776,-0.7880777399829277,1.760449082227652,9.838153351023402,-0.21206654587884557,-0.15053967586790476,-0.0443010341882232
1681484407.427786,1.1334164626052787,-0.32005316249457494,9.482750355140794,-0.20086911556942075,-0.13834164500815843,-0.0357571553945068
1681484407.4377792,2.62320571769041,-0.5617088631889748,9.003436540297084,-0.18387983532141575,-0.10632006995291185,-0.0248289380728725
1681484407.4478424,3.5234712935775394,0.284616414332815,9.361579051786268,-0.17263722257063746,-0.06684382428010441,-0.0135640653356436
1681484407.4577353,3.9792949594248226,0.8905211712272979,8.752628214605188,-0.17250789449354856,-0.0166433886037901,0.0060133587062832
1681484407.4677737,2.8843021106461446,0.5045744508364538,8.96389627784185,-0.16975074785438368,0.017168298753918624,0.0255355376244064
1681484407.4778087,2.105438217375553,0.5505504816543499,9.012770851795356,-0.16807115433427178,0.036187253151738506,0.0505148831248756
1681484407.487818,1.1974313395923417,-0.3255990636767201,8.917746416175076,-0.15613105335582197,0.0495930362728646,0.0702799099922653
1681484407.4978526,-0.7439547650667417,-1.0599158318685271,9.660773262378017,-0.1382656936059368,0.03275918600009741,0.0846620637417313
1681484407.5078175,-0.16972954096346643,-1.7478659562768726,10.000396197707275,-0.11629883297158651,0.018367782903807216,0.0968903887510773
1681484407.5178185,1.4313951586974998,-1.334750217069315,9.864521221578405,-0.09735315564671299,0.027448123972267768,0.1072728473186966
1681484407.527914,1.4413030587879172,-0.5121165177866884,10.052821044845235,-0.08834564913778858,0.041322360154459746,0.104740268313932
1681484407.537764,1.6687139398006963,0.5794095076251633,10.04158102234338,-0.09894030882806323,0.058597117827506845,0.1003020915627952
1681484407.5478027,1.8061776120131703,0.256950053308418,9.584013881161251,-0.1094986930184766,0.08200629250486163,0.0967293519020554
1681484407.5578198,1.732039768928065,-1.7770684777712231,9.251013796515462,-0.09605391537188325,0.10303852744543313,0.0978525865316864
1681484407.5677657,2.3858742361486933,-2.865704612482664,8.93210691926113,-0.06602552560768804,0.1304149832209921,0.1077588561416145
1681484407.5777862,1.6308345818854049,-2.400711701345964,8.80532767928105,-0.03384086968548366,0.15738518691018694,0.1219213593245026
1681484407.5879524,-0.675393359237017,-1.1959576066525008,10.284035832151492,-0.029216411379040356,0.15377129506305165,0.1381453114986893
1681484407.5977595,-2.267656589896989,-0.6306200547266129,10.494780103881684,-0.020107162151478484,0.1292454235204163,0.158515273356485
1681484407.607782,-3.404393110465257,-0.677462009587872,11.3090621928114,-0.02325633034097932,0.08417980356278115,0.173827259564447
1681484407.6178818,-3.127171410704049,-1.7630155897080253,10.39970742809855,-0.004033405917709522,0.04656217861234086,0.1942950922489639
1681484407.6278837,-4.287438511644178,-2.6177521377100486,10.660915494915157,0.02396821910575531,-0.01123421604129477,0.2031518358231064
1681484407.6378207,-2.6425294545010702,-2.3706023348652914,9.96515388726003,0.055754446540130204,-0.04977859096227259,0.2076856780291077
1681484407.6479166,-1.1031155053953596,-2.2358471051586375,9.432626989465634,0.08246262512725372,-0.0667625022653709,0.1997164029121872
1681484407.6578414,0.6641394852342677,-1.74092360058277,8.925198136435291,0.10308559410815478,-0.06126276794521952,0.1890938568354126
1681484407.667807,1.3271864082404414,-0.9616193907293299,8.742466762325163,0.11766539265007847,-0.042829944430786526,0.1756154734135147
1681484407.6777894,1.0431436131928387,0.10615316589178024,8.794283474838641,0.11761007400390715,-0.026705100026436352,0.1627554732800003
1681484407.6878324,-0.1865318684016785,0.7834154761249102,9.350377450599286,0.11111343285578125,-0.025541209916743298,0.1546483624220367
1681484407.6977887,-0.907106624044716,-0.0539840005320276,9.72868869735047,0.11116644791290141,-0.03834593777746426,0.1486176240683075
1681484407.707832,-0.7783411290924929,-0.834710550295887,9.60522104794674,0.12411368293009269,-0.050890576357058834,0.1439004379749771
1681484407.7178426,-0.3496477382849178,-1.322152997009006,9.514248041401062,0.14425203423266805,-0.061440612098642,0.14371524634366
1681484407.7278695,0.2524637440974206,-1.1586290518401743,9.010075028496493,0.1648426048372451,-0.060330882886765504,0.1424476790667053
1681484407.737804,0.5311899802479538,-0.3766821563717566,9.005220957268769,0.1746761361021304,-0.05534598623957306,0.1453245121479507
1681484407.7478993,0.48203649517647534,0.22844040512499075,9.193681130681984,0.1742996668840281,-0.052978740342531104,0.152268319153833
1681484407.757861,0.8432233049525023,-0.008956551614127017,9.054511530583465,0.17761379280664388,-0.043015874778603504,0.1554462898016449
1681484407.7678332,-0.07284583636708689,0.21408896236961567,9.570311194607127,0.1789371303260076,-0.04682099081128967,0.1601730871439453
1681484407.7777982,-0.3112962589351821,0.18343724282073637,9.955920290616175,0.17711111442427963,-0.0532630023341986,0.1598640966654297
1681484407.787938,-0.5550480935697409,0.5152456509255322,10.185817183855779,0.1771374116567434,-0.06324392669196097,0.1550717640161987
1681484407.7977636,-0.2932765840422384,0.4480442260525749,10.193088045774504,0.1693880492535965,-0.06937828220725074,0.1468215126038071
1681484407.8078008,-0.6863019434509706,0.030227089224353413,9.876184794667926,0.16987996488569104,-0.08004348900321859,0.137875168347406
1681484407.8180845,-1.128538039180177,0.26208314095654384,9.620773164456084,0.1708747664442371,-0.09128846884446573,0.1227849039674278
1681484407.8278806,-2.0418504649147633,0.28925133730488306,9.785489921822686,0.17112038793413156,-0.11587952668543414,0.1027830454946037
1681484407.837906,-2.3951901838214127,0.1277836843839287,10.05601295610476,0.17209196610397395,-0.14118995105780802,0.0771785292268272
1681484407.847932,-2.6201669287228504,0.3658247781099885,10.727748716461292,0.1744861741058446,-0.1725197106205431,0.0512860219419475
1681484407.85786,-0.26176907169863944,1.8559937138030547,11.220181060980527,0.15952766421892658,-0.17473422678047895,0.0296335041016813
1681484407.8678508,1.7037599839511788,3.6552123322708847,11.394875472934308,0.12482783985590931,-0.15342916012518212,0.021120543354797
1681484407.8778508,3.726232014895406,5.0738700312825715,10.681961310500228,0.07716996159521432,-0.10530054759010521,0.0127645486459609
1681484407.8878417,4.84492847661192,7.052072255530802,10.165419163696317,0.0074940783344677325,-0.041782200860591825,0.0092063329607721
1681484407.8978093,4.795784278583107,6.930319798127448,9.24626763199525,-0.0655581111754983,0.020062175851324845,0.0145083095372196
1681484407.9078972,4.236608468671516,5.057887948475227,8.401041375295014,-0.11352329936406423,0.06942706427202434,0.0254377003252979
1681484407.9178271,3.2663864094727018,3.477968417331793,7.921209233341356,-0.13498010383865375,0.09903944422517334,0.0421437981963631
1681484407.9278142,2.713309660912098,2.9011345960954413,8.074097075862502,-0.14700249106312588,0.12009297240090755,0.0567465487361427
1681484407.937806,1.9720438379997514,2.3709081068588507,8.507444849694677,-0.15474367084546217,0.1300953116069138,0.0715622070670601
1681484407.9478705,1.4160401095386046,1.1225158287728922,9.12334720238967,-0.1477870655667846,0.13078294415018307,0.0820949214935776
1681484407.9578598,-0.7802377783638987,0.12176508532140348,10.421703560200383,-0.13686028145917106,0.10793564853554893,0.0805476072669502
1681484407.9678552,-1.4905212519430973,-1.2423605800703947,11.173128920414083,-0.11136134729304471,0.06859873680993119,0.0801054227591034
1681484407.9777744,-1.2162272049714782,-2.6817867990188846,10.841839905382589,-0.08389236352315109,0.038859049838818424,0.0684121611953255
1681484407.987825,-1.131090323760558,-4.518117914492671,9.84799339577484,-0.029206441630011154,0.011651924688101313,0.0564830999315258
1681484407.9978716,-0.5890182836755398,-2.1895608910800965,8.69862489297262,0.00044783146065654523,-0.002922914004234198,0.0594268131494995
1681484408.0078654,-1.9706131291566766,1.1105683337853287,9.63805012872452,-0.015674916075894503,-0.03184339644152423,0.0618977236986633
1681484408.017784,-0.0983139605090474,1.1969743615734862,9.983779536648743,-0.043880485298009364,-0.043655752151099916,0.0677044677973267
1681484408.02782,2.338643832007549,-1.064197650218816,9.510016116232983,-0.03810274573661151,-0.017198182158518538,0.0718446958303924
1681484408.0378237,2.041896050793438,-2.8656837885727615,9.457870217695348,-0.003524873433834641,0.012396660671984779,0.0746604341507431
1681484408.0479364,0.7036871441301039,-1.7089220459391221,9.69444760846416,0.02584545596530706,0.025361241517126147,0.079654893600988
1681484408.057856,-1.368715195133322,-0.06298554556581418,10.33154074796552,0.025459679831423266,0.018331248896472682,0.0811381924391266
1681484408.067859,-2.3769175731381558,0.14957650769497993,10.783909318809695,0.022021541992135813,-0.008905651671803091,0.0868369478226181
1681484408.0779362,-2.4812582795528435,-0.1804765495544483,10.599729942327746,0.018983394163002487,-0.03684556840602373,0.0962899762630936
1681484408.087806,-1.8271058701867535,-1.3966021378847404,9.97304293121739,0.032336246656918234,-0.05797110663800862,0.1073385465384003
1681484408.0978703,-1.0084290833267178,-2.8567467124298944,8.8428894048104,0.06901729354386782,-0.06435536711159986,0.1124060812831398
1681484408.1079285,-0.24622055499252785,-3.3828504504335575,8.542929343479312,0.11589357120047092,-0.06290698023830134,0.1238189178944107
1681484408.1177697,-0.11818586830077799,-2.411175921009586,8.624491094621545,0.15387562231794621,-0.05618455585301698,0.1349429476500031
1681484408.1278937,-0.12294921531023206,-0.1459563220014799,9.43335256046458,0.16706659165093185,-0.05038372976480857,0.1383803922176834
1681484408.1378396,1.6563235097696882,5.113989388039336,11.104534100836155,0.11859618189256489,-0.02434766292831992,0.1417345839977737
1681484408.1477995,2.3710540047355457,7.2225923507927074,11.601198390062498,0.03253744978779105,0.013550103449037766,0.1412382561207291
1681484408.1578245,1.633493725904615,5.172238705613674,11.21390418501705,-0.0293906878641,0.038636887765347204,0.1315370786428925
1681484408.1678226,0.25567150131218247,2.450002718061406,10.01168607753012,-0.052941472894102434,0.04947287518562267,0.1165057781577583
1681484408.1778314,-0.6071271429536476,-0.22024513711076296,9.44595588686387,-0.041425416405615645,0.04122543339865459,0.1132753032684799
1681484408.187862,-1.602064372092153,-2.0584682811817676,9.143868640514402,0.0023508081950885835,0.014902754484546301,0.1160190093756195
1681484408.1978416,-2.3511013628745916,-1.814563896596882,9.642352025536079,0.041759782514170396,-0.02728951809040893,0.1171250480652328
1681484408.2077937,-1.3633521784865215,0.5823282319919675,9.8703284669208,0.05500919457409236,-0.05672586074045956,0.1176877606153961
1681484408.2180338,-0.7050495713563815,2.562697667895352,10.5172697677414,0.036116873837437835,-0.0781603669830051,0.1133130553603645
1681484408.2279334,0.9228349906749523,4.648084188730604,10.5853352339926,-0.014214311073059612,-0.07525095941124753,0.0853708896279808
1681484408.2377927,4.461987357954977,4.741789496032904,10.415699633676205,-0.07649148435590501,-0.029051745180330452,0.054880923354673
1681484408.2478316,5.185736228375373,4.561983586525337,9.279059420029293,-0.1269276067569422,0.037653819130540785,0.0267463575542446
1681484408.2579205,5.269448932898544,4.622875918542389,9.312582793102855,-0.1849785772995279,0.10328295364150052,0.0037164993077989
1681484408.2678704,3.3021609263719327,3.997855311057885,8.779325025353677,-0.23067727761017728,0.14744366782097848,0.003961344245496
1681484408.2779653,0.08752772674112934,-0.9510828774479272,9.34842022947601,-0.2272550966594786,0.1548785367739335,0.0360228631139274
1681484408.287872,-6.38437839069827,-8.19810896351561,10.667816980167505,-0.10408473954273605,0.06927318267469912,0.0793286848307129
1681484408.2978592,-4.919249730997204,-1.311408355549565,12.580710293066918,-0.049554569017218164,-0.025053736855967068,0.1254059511662003
1681484408.3079977,2.4501109525148346,3.8955528945398683,10.934032920033252,-0.07759686524462701,-0.004592266641322278,0.1556255805731293
1681484408.3178885,4.5294666227151446,3.4329452998683503,10.31556293039104,-0.11404486095510842,0.05485985906821083,0.1772885459900375
1681484408.3279853,2.854231651111873,0.8608130094777809,9.126158241624095,-0.1149721238155552,0.0944893383406204,0.1910637754440781
1681484408.337867,-0.0527710018556109,-1.1330783910270739,7.999904655732219,-0.09126273042289756,0.10034793434003784,0.195074721002626
1681484408.3478625,-2.1395753607390087,-0.639174929374197,7.849648941268041,-0.0692421766334509,0.07592368572514782,0.2021376478910919
1681484408.35787,-2.8487724920025177,-0.26950439020180483,8.456435810275428,-0.05914056485490953,0.03694655148070171,0.2024708825588699
1681484408.368062,-1.0487218193767736,-0.048902809253160505,8.357134656266876,-0.052321053407450094,0.02337803971765471,0.2071934181690689
1681484408.3778815,-1.753959102087807,-0.6085386864565215,9.428993641051465,-0.0470679075398772,0.0028725913497937715,0.1941208827734467
1681484408.3879952,-1.2530588824481934,-0.7402928972344818,9.862591528488608,-0.034656568241490944,-0.013305755947964104,0.181061847829866
1681484408.3979406,-0.44956332299902796,1.736806443603036,10.649509460149279,-0.05300422225183376,-0.01910263759895623,0.1712460059166428
1681484408.407874,-0.5444609421965584,1.940286507048944,11.141119766321182,-0.08394976202218078,-0.01758731632578868,0.1559093880892273
1681484408.417894,-2.3688512223122786,0.23797549089479172,12.194622982974055,-0.09927472160326656,-0.03932857958222955,0.1426595139742371
1681484408.4278636,-1.8975443967762602,-1.3690642316107977,11.624638158282918,-0.08952959422668597,-0.06138489489400137,0.1347281623125549
1681484408.437848,-1.6784566759936745,-2.350763032812672,10.805397957903194,-0.06580235083487124,-0.07458052914985663,0.1275268334389206
1681484408.4478736,-0.7551815524804242,-0.6862403477587244,9.75417306275398,-0.056568741389741606,-0.08042331700699844,0.1221655223012443
1681484408.4579124,1.0418432538057865,0.20767300813510792,8.989968922093698,-0.06317569993608951,-0.059463346302655096,0.1235094431281563
1681484408.467899,0.28282769315642414,0.6139203046139436,9.432571326688793,-0.06856936588918076,-0.045172495104479606,0.122521831417131
1681484408.4778109,-0.5450211458412209,0.8849048410036555,10.123911577568137,-0.07611681872724774,-0.048058542230035584,0.1256882089615341
1681484408.4878137,-0.6213698028839177,0.8709970244315216,9.6263449992058,-0.07970077696420978,-0.048811548393711636,0.135876922631311
1681484408.497882,-1.7745030620267936,1.2794183738209677,10.026878236849992,-0.09066970962559874,-0.07065463835193339,0.1557172525167938
1681484408.5080066,-1.4458521216413427,0.08664571075858053,9.66111770184545,-0.08354550177707055,-0.09309189390331135,0.1820615816355225
1681484408.5179155,-1.945247503228653,-0.5579626879231325,9.28267567439852,-0.07080727010721012,-0.11699544607175567,0.2057218688965317
1681484408.527878,-1.2735666032004291,-0.969553362680739,9.574634803464349,-0.056325723570033,-0.14163091630026012,0.2273979473352905
1681484408.5378876,0.305689828437638,-0.8668812250668474,8.667448413613814,-0.039920263413382236,-0.14188083974592616,0.241838871264505
1681484408.5478504,1.0054533955725988,-0.6498956788984105,8.748284002518396,-0.03472322554724564,-0.13518360336464944,0.2562982130289551
1681484408.5578628,2.189742140978254,-0.6262694012006217,8.634198540304801,-0.022635851288800694,-0.1152780115710376,0.2753903854132172
1681484408.567994,3.410613823541496,-2.3538924311854785,9.081503486601513,0.002228241769485869,-0.07645488490044067,0.287841080451059
1681484408.5778854,3.3513304603368015,-2.6589114896248214,9.373259705694522,0.04337355321781677,-0.04452159472971483,0.3051728892565247
1681484408.587928,4.278441282878253,-1.7897111309815268,9.504128629492838,0.07253378363992617,0.0021564660156922328,0.3068118977785584
1681484408.5978484,3.784256567290968,-0.5975257234424566,9.41468614650809,0.08685069197591479,0.05014395485260262,0.3096609699964996
1681484408.607858,3.4288110538648704,0.029834246591288728,9.573884392924105,0.08368355108452794,0.09072893161524086,0.3095395851374146
1681484408.6178732,1.3241049940573657,-0.8882678663433368,9.142774861110924,0.09579698036837969,0.11050448849483352,0.3022970545530792
1681484408.6279511,-0.07959026457448586,-0.5771025280411175,9.682906654771664,0.10075310051281347,0.10717597711639772,0.2921805668116089
1681484408.6379406,-1.3810371137942354,-0.35125587053330876,9.783267801054517,0.10471700957645647,0.08789098677422734,0.2832874047995087
1681484408.6478934,-2.4948473489235203,0.6679086345326476,10.42061416720839,0.0944262630398899,0.050322230095842704,0.2691671538591858
1681484408.6578877,-2.126867270267967,2.2655322313190838,10.340753277378735,0.06460427396243963,0.012750230878411485,0.263237922215509
1681484408.6679018,-1.7241886070014563,2.1073128849313925,10.22689348194314,0.03651597731422856,-0.02274096186410457,0.2505051630974289
1681484408.6779234,-0.6927579039731732,1.7440416995911139,10.034915625037886,0.011172526434569716,-0.0468966607767273,0.2339724290609833
1681484408.6878371,0.4121975175042255,0.08546312784266921,9.903613614691228,0.01248969854741181,-0.05489413284600079,0.2102396029472824
1681484408.6978328,1.433801867398555,0.25291265400903984,9.701331925512713,0.018379782625532335,-0.049847764472013625,0.1826304185629364
1681484408.7079008,3.5641719472057476,2.000882912397294,9.486269973605681,0.0028355282327815444,-0.01209622792540361,0.1542611259460922
1681484408.7178867,3.0199974144696187,1.4004926443119754,9.548386566744586,-0.0038614240414178917,0.025194061065624176,0.1275170135736938
1681484408.727994,1.545205220778227,0.8956341097250727,9.97672104246545,-0.011717818183615218,0.04203215306405306,0.1053527730942245
1681484408.7379327,0.6473900013653703,-0.23069494283869366,9.801667621851598,0.0006481337652113318,0.044383287366100206,0.1034449327230926
1681484408.7478766,-0.5007300497330512,-0.21346287582586482,9.809019332609996,0.010844444519207842,0.030763299189123305,0.111151954853582
1681484408.757863,-0.21636479113488682,0.36547041682887593,10.048929135638101,0.01112009488806761,0.014854017429919195,0.1306612181902405
1681484408.7679904,0.10720137077990444,1.2555003489654508,10.301437136613945,0.004437512655310219,0.005565887064124185,0.1551205802202698
1681484408.777887,-0.3562650048766016,0.7241485386132598,10.944623908461562,-0.0034869610142860183,-0.0045903263153465185,0.1772704261780258
1681484408.7879202,-1.9351805562594055,0.032605303532463874,11.393188181555026,-0.005634635216883523,-0.028678722651666773,0.1797304141760345
1681484408.7979455,-1.4829241042608232,1.043536344610128,10.663847933129931,-0.018652261024229778,-0.0561318984821716,0.1760998356581207
1681484408.807954,0.44013461973384743,1.4575428414943363,9.032916043697835,-0.03952290052589387,-0.04962971296803977,0.1738043564796921
1681484408.8179345,-1.7166335696233535,-1.0538997390804867,9.381243076934354,-0.03294356132934776,-0.06355243155791986,0.1661659169435974
1681484408.8279748,-1.1938559989910318,-2.2761747243847728,9.939159415677324,-0.011511151600887457,-0.08451024323141744,0.1741909075022217
1681484408.8379104,3.0384000544647005,-4.074932665256769,8.512006762943377,0.04911074776111925,-0.04372614434515265,0.2191418993711945
1681484408.8479865,3.4301576592680423,-4.147761788949612,10.502453415301375,0.10687237510365301,0.00010972339008565274,0.2618470180273529
1681484408.8579726,4.986566889713207,-4.877180454728153,10.545438629830421,0.1744744103706861,0.06024670527289408,0.2959313380957123
1681484408.8679385,6.267875098223303,-3.331454378766769,9.61345778424771,0.22358171082441478,0.14365026273764467,0.331814913773584
1681484408.877883,2.6424421512853025,-3.878330195874714,9.098106847729309,0.27723472259718984,0.1848103478570365,0.349188565039682
1681484408.8878982,-0.6469831696515502,-1.7104556523540455,8.686134279322408,0.30710427388380146,0.17551658778309864,0.348606346869516
1681484408.8979924,-1.1866321358318037,2.9445819969601623,8.21417739988915,0.2799479112800516,0.15667501067052644,0.3597032714128967
1681484408.9078958,-0.9749773525798517,5.18035870461331,8.684654855392003,0.21959464656733663,0.13440150373591012,0.3703927982092377
1681484408.9179,-1.6527697366504122,6.027753056551105,8.77400313713415,0.1466033490014877,0.10666956361168484,0.3662012505770203
1681484408.9279058,-1.3549377150724664,2.8092735520068524,9.322365195631281,0.10349076615120752,0.08397843777966214,0.3509380209684845
1681484408.9379437,-3.075875272395585,-0.0036787000580623358,9.738652855839566,0.10923316002818043,0.036080011464335475,0.3331417131662842
1681484408.947916,-2.079523056527479,-1.0409926005973564,10.154909426683298,0.1307815153424426,-0.004049299083096285,0.2951632428408142
1681484408.9579866,0.4840987523884924,-0.10972287971306312,10.117124488880878,0.14944425452693025,-0.010932716641800604,0.2569346416235443
1681484408.9679627,2.473653041297144,3.1470951152910485,10.502454376699864,0.1301202059923897,0.005605015281943465,0.202714486742067
1681484408.977862,2.560484920135513,6.384277773109073,10.437237839344863,0.06580919296360352,0.033834198110761486,0.1549231696367737
1681484408.9878898,1.0421067905357813,5.960035944210568,10.54869340866286,-0.0065893123679315845,0.046001973850799814,0.1167164731264587
1681484408.9980388,-1.472381595557397,4.920054245156809,9.980141457608594,-0.05752850000144307,0.026608409518905054,0.0877729121089455
1681484409.0078692,-3.4721203374258582,4.208588545814888,10.53286000491407,-0.10345624574119115,-0.0206027540286763,0.0579745646059986
1681484409.0179455,-1.9505435921070822,4.318970302689464,9.741982688482953,-0.14279951090917437,-0.04962652250182137,0.0445990550756927
1681484409.0279126,-0.3270292774059365,5.824995026526922,9.724329895015043,-0.19822858493790507,-0.05978700772145574,0.0346042986453052
1681484409.0378656,1.2956793821726968,3.676836683269254,10.140492958049595,-0.2335826711825799,-0.04537978345121543,0.0273683879018303
1681484409.0479078,0.27703207910849204,2.671357885357966,9.571954944806809,-0.24632962570854358,-0.036183357029331675,0.0331664632499691
1681484409.0580337,-0.7969027611637277,2.161772304558352,9.533877152472526,-0.25671631857240895,-0.04090704523923957,0.0417145702481743
1681484409.0678792,-2.9231209906933753,-0.24211466701932377,9.949362944147458,-0.239333920101153,-0.07468409821633883,0.0533864411950584
1681484409.0779705,-2.850755934660058,-1.107713263030495,10.424698170977951,-0.21461887469485738,-0.11186368895964831,0.0719845953822609
1681484409.0879216,-0.9665944635609587,-1.1498426704964324,10.689017628732346,-0.18680508731367695,-0.12688329273272175,0.0817121479154106
1681484409.0979338,1.6597917323135913,-0.6017616714730245,10.90086259813157,-0.18063922157084997,-0.10580042806049855,0.0841494190931793
1681484409.1079738,3.1759139043905336,-2.134388634821816,10.226553196430638,-0.15802350202332743,-0.05665028110814813,0.0969218823552605
1681484409.1179793,2.451805333066294,-4.859338173335809,9.701500572317618,-0.10976626701950647,-0.012966822524649972,0.1166425931692596
1681484409.1279726,1.405688455970006,-7.3636337144349655,8.806822150726958,-0.024420379906397907,0.01563720079559029,0.1428798425436493
1681484409.137933,-0.8189903987148717,-5.233803237681185,8.54896445834269,0.03301113640747946,0.020171087367874357,0.1645168799400803
1681484409.147971,-1.6740805990496181,-3.043341516852728,8.75573902183575,0.06557881101981347,0.009522198640288807,0.19215394439702
1681484409.1579194,-2.489145566878407,-0.7665910603782875,9.41327236501352,0.06537480347496619,-0.01173471253815937,0.2211913007736679
1681484409.167967,-3.2517902381157744,-0.5473992335124387,9.945927305415166,0.06385797290881896,-0.041068963675582965,0.2409404802561279
1681484409.1780105,-3.816461069060744,-0.43098135005690724,10.4241491066687,0.06167854683559732,-0.0800518823570866,0.2596689152956482
1681484409.187925,-2.6012849258790394,-1.210729790510401,10.92547846387588,0.07033035261581567,-0.10873266824102627,0.2712588298559662
1681484409.1980245,-0.811019180501275,-1.3167110358784657,10.9848152695687,0.09259802497749149,-0.1182571333636752,0.2539934504271027
1681484409.207935,0.7565127165258267,0.09632902321313254,10.875201144046747,0.08616581405331798,-0.10776671059987701,0.2280908513308044
1681484409.217935,2.228558589765027,-0.18981440172084388,10.26663598595657,0.09182003032873572,-0.07986371991736428,0.1973832088947769
1681484409.2279856,2.24478055969253,-0.8024430928412664,9.363823322110187,0.10198082192775412,-0.04999810023656184,0.1634007233620163
1681484409.2378914,0.43826081879168255,-0.6628111401243415,9.643150480637887,0.11477995122423376,-0.04172804101959796,0.1313561934471603
1681484409.2479012,-0.7000316771059412,-0.5797335996329415,9.942368031659333,0.12125437611696775,-0.06025687272568529,0.101652799868631
1681484409.2579875,-0.36534111290821525,1.0851208946957296,9.830855115988928,0.11292517022218189,-0.07403938114757146,0.0781799468636986
1681484409.2679644,0.10524106916575696,2.757720337744915,10.263770523231557,0.08374550151475721,-0.09134152466622625,0.068482926809835
1681484409.2779655,1.1018696035743325,3.2168043828514485,10.119461291368761,0.051526382191526277,-0.09416692247898006,0.0627069089055534
1681484409.288026,1.5573516875869498,3.8025555073260326,10.198661203961745,0.011278795805107206,-0.09633660109649336,0.0685612547636505
1681484409.2978897,2.5294308920712396,3.8785311175602573,9.71655901092099,-0.020153223115921857,-0.08639435408412574,0.0847967404366012
1681484409.3080316,2.1399135763636523,3.570856844428686,9.800923220239364,-0.052302590308726686,-0.07931537454929456,0.1073978084564682
1681484409.3179977,1.0245344576716549,2.6554823865215873,9.736494450423363,-0.07074682055355107,-0.08443061960155179,0.1298262763262268
1681484409.3279974,0.4472778511727303,1.5130610740751391,9.77445708548298,-0.07654311076436147,-0.09874187410592314,0.1480523783207413
1681484409.337891,1.3423032698166895,0.7643957131061916,9.553997965640226,-0.07147054458727164,-0.10241275425495001,0.1662328082561966
1681484409.34791,2.3519733951874877,-0.3481187189227703,9.138992928743725,-0.052187412320787364,-0.0945553654913671,0.1740165490150925
1681484409.357948,3.96637641511767,-0.40712475329214604,8.30138303975759,-0.03441175930692145,-0.06159599122025214,0.1695995468140121
1681484409.367987,5.266759471353397,-1.2399124947421758,7.966005881375177,-0.007594722205659919,-0.010295588108467977,0.1560706484556671
1681484409.377933,5.646826501098065,-1.4406440625131824,7.556674316530663,0.017205377933515634,0.05103284037456155,0.1408302176237579
1681484409.387958,4.864230164926478,-1.1305676245511078,7.843867472084598,0.03442642276423773,0.10434906573528095,0.1245066288352486
1681484409.398006,4.024981370564188,-1.143089062117507,7.953417248128254,0.048618320339775596,0.1471710024513409,0.1149196538568016
1681484409.4080293,3.4090754672893073,-1.5605953550217482,8.393317618829759,0.06338872177096982,0.1802412631893559,0.1143893066287514
1681484409.4180288,1.6377010946807946,-2.326313241268065,8.880300474503645,0.08577239214777832,0.19320664412731328,0.1151895660400864
1681484409.427987,1.7893588568127279,-1.336343548199128,9.103348837532133,0.09830426091625825,0.20175986940124507,0.1295326787472244
1681484409.437997,1.6217674492520047,-0.2058306759082785,9.435852409690831,0.09755555041587717,0.21361494813827875,0.141709773564386
1681484409.4480095,1.2552210719395858,1.1913705960426704,9.940321345697717,0.075497274776749,0.22102701030457225,0.1490439462900635
1681484409.4581125,1.3443167648895706,0.1987497857936658,10.184252658989761,0.06780435405757859,0.23321429200333865,0.1538780468941208
1681484409.467937,-0.9331148093264581,-1.1171623087415368,10.505982690762774,0.07452489196757144,0.22386673691414996,0.1444871711969849
1681484409.4780056,-1.274987321521699,-1.4959934932582857,10.795835706178623,0.09158472591114027,0.2009781962587683,0.1291653651237961
1681484409.488026,-0.8452694268379958,-0.25734922261845716,9.994978557783604,0.09912937137910617,0.18645301138218448,0.1135215151548859
1681484409.497991,-0.44607837795499217,0.9744453446178972,9.818902135105446,0.08973810843421763,0.1779610382146393,0.0970089274883743
1681484409.5079322,-0.2580380968205504,1.5682239175698274,9.634930371034084,0.07753509318543982,0.1722934385797098,0.0854510206223007
1681484409.5179515,-4.277439287553054,6.968244899940923,10.724447394341643,0.022156142309922737,0.15605211371010702,0.0373727108777042
1681484409.5280485,-14.73029046635214,12.853371120385816,15.68264041086229,-0.14806966632031646,0.007329779857988454,-0.0277061082928899
1681484409.5379312,-16.30547658950506,8.456216110763027,14.516155394026956,-0.2441773290726036,-0.17197800208177058,-0.0916887980460647
1681484409.5479784,-14.47224079243146,7.813071957797893,12.525629007358415,-0.33479229371833935,-0.32169350220845433,-0.1421302717685226
1681484409.557978,-6.782079013957752,2.708376079465771,11.572632107130769,-0.34928155245709036,-0.40202757819962937,-0.1540042471646789
1681484409.5680122,3.6089743425548533,-4.737418995944947,10.12775700866954,-0.28402080451386,-0.3383382625585591,-0.1613770138978484
1681484409.5779586,5.499610353109958,-11.106266337627542,10.072944330901747,-0.1384504233613846,-0.23114537484836092,-0.1530741464852813
1681484409.587963,2.3672747608313642,-6.93777968982307,10.091833905669574,-0.014758351456137549,-0.1672347709224082,-0.1125317376613143
1681484409.597959,-0.525217251752683,1.478565070258587,10.704940134453837,-0.01621837693463291,-0.14041374263014147,-0.0736578640102866
1681484409.6079566,-6.125869054923553,5.020154351520596,11.729745604537815,-0.0692461023490247,-0.1967057615675898,-0.0483582031487945
1681484409.617968,-6.372152146532566,5.457462027414437,11.671876754315546,-0.15289907148761156,-0.2796513601831447,-0.021429087272239
1681484409.627988,-4.301805958388602,0.8972248087581199,10.544211250974135,-0.18064936388659522,-0.33244490682651806,0.0053604065865751
1681484409.6380365,-3.0254123820336885,-5.391087851491081,9.994937913026181,-0.12907424690894187,-0.39146928273531356,0.0143311850220438
1681484409.6479158,1.7278866051216004,-7.970074867829124,6.758198719830284,-0.03778618658627426,-0.3831864386608758,0.0142680609092589
1681484409.6579466,1.2845043073330802,-7.196568382326332,6.197939882809086,0.04647952151454132,-0.3730492829195889,-0.0002163095673072
1681484409.6680107,-0.042450252243607045,-5.104571482025508,6.474662696260369,0.10138664704012039,-0.3874783190328456,-0.0286738064646247
1681484409.677956,1.3657943020736698,-1.8822440267346423,6.410662433809686,0.1115936884775483,-0.3816138803550404,-0.0647013571619514
1681484409.6879845,1.3034458504972275,-0.21057689799015983,7.939794993828433,0.09733605191847394,-0.3771619280613801,-0.1056692164897445
1681484409.6979349,2.466796282511798,0.8809475408258132,9.507967043150957,0.06773920366814104,-0.369502124292195,-0.1382354509591583
1681484409.7079506,4.9610272243209605,2.1789414588922984,10.209287546832273,0.029558935747891413,-0.32650257059849674,-0.1505464476108077
1681484409.7181065,4.9638251352747345,1.3481432829479882,11.458658177339672,0.004571453328260788,-0.2866852440788046,-0.1455308061599258
1681484409.728088,5.216147562357972,-0.10030818407968045,11.295219874134206,0.004419383707715111,-0.24263475958647368,-0.1245679270982269
1681484409.7379534,3.2065372097880083,-0.679824966530844,10.246106115547695,0.024084476905090548,-0.21579939992438388,-0.0949576210736755
1681484409.7479978,1.7124663050494833,-2.0524893640236135,10.299656786618533,0.058649477841157836,-0.21269387640791895,-0.0609407958149436
1681484409.757954,0.2663488879621152,-2.3440091038793507,10.44278091813186,0.10495487076315355,-0.22991124062924803,-0.025526904737902
1681484409.7679887,1.0023900962811139,-0.973726170580604,10.646467870895723,0.13342444659942773,-0.24615639611510098,0.0052248954266783
1681484409.778008,2.107535379692466,0.2989130329459746,10.236819866400964,0.1389506739462533,-0.23963935860260824,0.0226131051272627
1681484409.787954,1.6536616708645078,1.1640138453603175,10.0817369803335,0.13001634394702483,-0.2467325585563695,0.025697107189941
1681484409.7980094,3.1840786440507087,2.341442357056711,8.835332052651978,0.10088931117188893,-0.22381456052438084,0.0166315312922474
1681484409.8080149,3.0231542917853327,2.0512375486611076,8.689138835851258,0.0679897746073429,-0.20402021351717983,0.0053470306989278
1681484409.8179796,3.126372045172816,0.24005409041385636,7.769675208537798,0.06273135496289,-0.183979864397449,-0.0105532754718784
1681484409.8280349,5.737944860099969,-2.7379264257363056,7.906145570755585,0.08766064405149017,-0.13215499012443185,-0.0170019206165794
1681484409.837957,6.977814479802671,-5.000432932289045,7.657675745058782,0.15582942172888672,-0.057638691659412426,-0.008863102881563
1681484409.8480668,5.777115996916842,-3.065983361453104,7.812504572782724,0.2060631466440198,0.0029324299789410453,-0.0018976605537805
1681484409.8580842,4.162240688264028,1.0075390424775261,8.175184455719338,0.205362623191938,0.04411110954220915,0.0037051464856144
1681484409.8679886,2.9706753299103665,1.4532071922461172,9.817532868311078,0.18265654669454587,0.06095545973892201,0.0082632119261201
1681484409.8779657,2.198080815523976,0.47153325072248525,9.619750174857646,0.1764815793377994,0.06682108429139441,0.0036755881697412
1681484409.8880205,2.389737996255544,-0.1811142330566581,9.485754183153848,0.174431458748452,0.07391799528838933,-0.0026611515827003
1681484409.89802,1.412007401384062,0.6887549199599994,9.139176294150925,0.1733707865552868,0.06552825129144359,-0.0144199591636184
1681484409.9080107,2.9955751454508506,1.4838350084562093,9.137093328770018,0.1523351490423392,0.07528235402798632,-0.0267329618840936
1681484409.9180634,2.943510665880342,2.7701005987139937,8.457458528417515,0.12373688230244338,0.09040637560643965,-0.039850970035744
1681484409.928048,3.807371335274596,3.61297953983514,8.226320735205025,0.08049096520334685,0.11213347262298742,-0.0516515423118594
1681484409.9379537,5.175287125633633,4.1801023540682385,7.343756102615258,0.041644177921230964,0.15573505381199199,-0.0561317366122726
1681484409.9480822,6.131560995528774,6.150589469138558,7.23880740468756,-0.018460562002734087,0.21296962861566782,-0.0626481187104705
1681484409.957995,7.5414082460726,6.263627292465321,7.043130453701318,-0.07754574861686635,0.2909005332151562,-0.0747891005634788
1681484409.9680417,6.953822237077379,6.738132499379351,6.6907407108985115,-0.1412833232792284,0.3679992403199193,-0.0979442086576942
1681484409.9780128,7.237657265298038,7.089393147432833,6.596355882685538,-0.20941445063928493,0.44414593037963995,-0.1119605538010123
1681484409.987997,6.479083565025251,7.035274363746097,6.3049198108873385,-0.2738234891619622,0.5138147081150781,-0.1236298840999129
1681484409.9979906,6.145009453688897,5.913711827826448,6.978993908327074,-0.3279993400228332,0.5688884216622212,-0.1268489521502975
1681484410.0080123,6.794266914274361,4.3436518521434895,6.977302325261409,-0.36247212509430493,0.6331578132752639,-0.124261842346144
1681484410.0180652,6.7845078064252675,2.7860472501644353,7.635437924384408,-0.3792586465580688,0.6914797811553962,-0.1171503749250892
1681484410.02816,7.425356636636453,2.139333381135756,7.998591951082027,-0.3818037939542887,0.7585873326522826,-0.0860785928129676
1681484410.038003,5.235754685221792,4.693009598153887,10.269542542839623,-0.41205232103582573,0.8051402084895423,-0.0490283903240684
1681484410.04811,-0.2683900542668748,6.133903166373409,13.738596723486312,-0.47631553829241907,0.77991022629284,-0.0092107935383442
1681484410.0580788,-2.907747025313926,1.8457874250372477,14.702878858017765,-0.4949063028176483,0.7186351716197853,0.0047954993747648
1681484410.0681045,-6.361535718669096,-2.270895991204203,15.297180563543161,-0.4750302449245514,0.6418941250048144,-0.0077100258826736
1681484410.077979,-9.163282742450493,-10.2334973500395,16.74365764946794,-0.36847873018819205,0.5345745162956592,0.011445840583789
1681484410.08798,-15.15828446798161,-8.963589929000154,16.350938611729294,-0.23855494502026964,0.3625772543051809,0.0436806294560905
1681484410.098019,-14.321097169531342,-7.324783613692887,15.20811174582495,-0.1629330189557846,0.17416881196681022,0.0297521434218164
1681484410.1080124,-4.508626134193065,-7.188732875277248,10.689145461773316,-0.09314975819167277,0.12724547896194632,0.0290351703256841
1681484410.1180775,-0.8252872659932902,-10.866292734062934,7.995089254141783,0.01293137474244335,0.13245092977788286,0.0178298044443603
1681484410.1280172,-1.961741306299373,-7.053905441059287,6.187475894282009,0.09196488304270568,0.14811839919359468,0.0115776674315806
1681484410.138059,-7.011614867983822,-3.580066955180197,8.164102436591097,0.11709999046386653,0.08350931828335152,-0.0040013885631683
1681484410.1481223,-8.027305206623948,-2.69917457156558,8.289257476644448,0.12483589317895512,0.006896175235464264,-0.0259766944258931
1681484410.1580274,-7.781884033224733,-3.128099482381634,9.071679886180284,0.13321540033000726,-0.07287602345353855,-0.0385617662727359
1681484410.1680384,-5.9631785470738645,-6.282494529498721,8.50593080011568,0.1847965776031723,-0.13021321537007327,-0.0532302048563483
1681484410.1780224,-3.697631188127735,-7.163729412374579,8.221786313717036,0.2544929057293411,-0.1661831371456593,-0.0611853015183929
1681484410.18808,-1.658943766487644,-5.563960521334917,7.567205264332967,0.3108995199140203,-0.16506008066155492,-0.0561816219746593
1681484410.1980395,-1.4155773517283496,-3.3084355434023864,8.464013951356826,0.34175354349585285,-0.16771282271266053,-0.0509582583367351
1681484410.2081208,-0.457377359121237,-1.644032492549092,9.33560828865525,0.3489093026858182,-0.16136899197377666,-0.0302926835178855
1681484410.2179787,1.4449879217349657,0.9220860936445956,10.267344939676118,0.33499733242869917,-0.13598731478474346,-0.0066798927768591
1681484410.228041,2.2805505044832213,3.533106260312825,11.065453242796357,0.2808505906971915,-0.10045883590020588,0.0197246323764797
1681484410.2380376,1.9230060887421376,2.248835151436389,10.408610317788265,0.25245553219459776,-0.06609598416972161,0.0428248781204697
1681484410.2480376,-0.3588666192696758,2.0224493046816527,10.05320869064933,0.2272813204898174,-0.06188664057253952,0.0451004232705112
1681484410.2580037,-1.5874581647029589,1.3397977950280326,9.166116315011791,0.22204913268157964,-0.07210655253152097,0.0376074078917976
1681484410.268051,-2.0604743476729417,1.4035344785920378,9.34679578551735,0.21193015546231306,-0.0941976849635433,0.0310880828142639
1681484410.2780185,-2.3134725304613464,0.8667199542603928,9.040258210176608,0.21671585481518532,-0.11580049659466632,0.0158946576953407
1681484410.28801,-1.2469438226000822,1.935473768504554,9.532157590491767,0.2050596907098232,-0.12741494704528664,0.0052220923785593
1681484410.2980275,-1.0162468565114038,2.7812728885871163,9.855794519863538,0.19342946048225065,-0.13562124109172313,-0.0042641281656447
1681484410.3081102,-0.0578628414224314,3.9898017441861287,10.999781605588616,0.15653588165804705,-0.14031702270989155,-0.0224171124904874
1681484410.3181703,1.7476623875272688,4.021907109455223,10.272748587261376,0.12025400413678615,-0.1145744018997519,-0.0407639083027366
1681484410.3281229,2.0677890584820737,3.7067461237921453,10.393474220888988,0.08790753793065105,-0.08873480134017571,-0.0549440507351878
1681484410.3380754,1.1439833582695573,2.6005523663830736,9.998233235037983,0.06719098170861865,-0.07158487892735976,-0.0789117750286582
1681484410.348039,0.8990230170140285,3.8436237525978547,9.98036177000887,0.034166133966825774,-0.06166954391353225,-0.0985845339059356
1681484410.3581102,-0.03398041859851156,3.297008198668004,9.889699949479569,0.0004543349631183654,-0.06200210807937628,-0.1256092798470977
1681484410.368054,0.4815907841680557,2.6017856376767377,9.88378380009626,-0.025486351916879476,-0.0613190406309645,-0.1403069954871658
1681484410.3781493,1.547156756861676,1.4609862457620402,9.165242600892244,-0.03235525992945378,-0.041026728324891154,-0.1542089742183212
1681484410.3880482,0.6091125766684332,1.9498107059281997,9.81900946831971,-0.04572350871832681,-0.03687191027594757,-0.1631361406802657
1681484410.3980937,0.958831146403368,1.6687215476815644,9.77033558882208,-0.05702423958676712,-0.02726412787368643,-0.1679522406816009
1681484410.4080276,0.6621920164397732,1.8798305724164766,9.894343374617364,-0.07140172936639298,-0.02161339610646957,-0.1652439993381027
1681484410.4187703,-0.06921688256888321,1.2315162322773914,9.924005128709302,-0.07995684544839274,-0.02654575159219315,-0.1639232051133636
1681484410.4281034,-0.0641662724240364,1.9743199697594793,10.027954277569766,-0.0901408600865333,-0.034107981949198875,-0.1555722218513015
1681484410.438012,1.5503004380159562,3.4432239440841905,10.673145208768457,-0.1354023461404687,-0.017755608738623526,-0.1667829018592361
1681484410.448043,2.91614580349244,0.14832260414093254,10.505297591088542,-0.13913198331968593,0.014332486000039195,-0.1623203766107085
1681484410.4580553,3.510422519565331,0.9657496441038802,10.497372059402219,-0.14519437693357518,0.06121352723512374,-0.1731088024138931
1681484410.4681392,3.650168129283424,2.208755942488001,10.58115581620449,-0.1723942700490102,0.12257880613887555,-0.201116399145079
1681484410.4780624,0.23759817438784475,0.05285440809234107,10.422380987577732,-0.17931840424176373,0.1550354390951722,-0.2384679776191238
1681484410.4880714,-3.233899127799021,-0.8104808137612225,11.033564014135049,-0.17079795164710962,0.13878206483619532,-0.2808240961789611
1681484410.4980588,-3.2148270553496556,-0.2687243795727412,10.441709623250018,-0.16369974364894815,0.11252865908696957,-0.3182685982942108
1681484410.5080292,-0.3285501441550473,2.765253788606541,10.220412608140643,-0.20201299220131977,0.11582207912162545,-0.3551736783742431
1681484410.5182512,0.7830608534073812,4.369048131548988,9.709059898108253,-0.26892387951105523,0.13624315322227465,-0.3936499368905548
1681484410.5282044,1.451467458939988,2.7940508963223403,9.213665266766954,-0.31949550723044773,0.1614390348608166,-0.4230276059865478
1681484410.5381963,-0.2581716868208172,0.11693727135808925,8.71431598222249,-0.3329887690112928,0.16969245421731222,-0.4423376929521087
1681484410.5482168,-2.622727600097172,-2.792317471060984,9.786434694086024,-0.30459855462777125,0.13018205594418564,-0.4554976534604553
1681484410.5583184,-0.4063767768784144,-0.4111916792544902,10.220694073652211,-0.28015372712099346,0.10432476909030625,-0.4468184125184539
1681484410.5680556,3.9716650719271773,2.9354145220548222,9.965182974234649,-0.32798399224985153,0.1422719169130471,-0.4153175663709167
1681484410.5780735,1.6870909527415845,-1.519331919021598,11.024986914494583,-0.29394695057357423,0.14675976014783798,-0.3790248048066619
1681484410.5886295,0.3247434857009742,-0.9416804277216544,11.651002204736777,-0.29082132945057015,0.1305711469209012,-0.358566344952536
1681484410.5982125,0.6690326800763482,-0.9073610715843093,11.731482102789515,-0.2664965507078119,0.11783260364499223,-0.3286427867173675
1681484410.6081448,-0.8462889746826819,1.3442407095561333,11.983408703627825,-0.27574215586803186,0.08447272369739439,-0.2859817456960205
1681484410.6180313,-0.48076688443303495,3.2887653846247793,12.055561161538975,-0.3059525152783334,0.05583970839483561,-0.2431436788796905
1681484410.628084,-1.472700686465294,2.7645455995583474,11.374932442485404,-0.3333764266878965,0.0195700770292657,-0.1966034185647491
1681484410.638224,-3.4379097759667494,1.741907791075034,11.270550702093965,-0.3434683474679391,-0.040295780216914254,-0.1572427016257766
1681484410.6481247,-4.0656691142317305,1.9320299751333396,10.952856351087943,-0.35449584128558015,-0.11563932892885856,-0.1292074334382537
1681484410.6580832,-2.347115781046672,3.115867308230774,9.974106825788304,-0.375954911316547,-0.16161730616639755,-0.0896386664866927
1681484410.668126,-0.8677265832722243,3.60462244525215,9.629284125717053,-0.40706372282448516,-0.1896908485801839,-0.0671295684337142
1681484410.678028,-0.8549590646617239,1.2738829878977882,8.7337239093855,-0.41159745579660917,-0.20277805874913452,-0.0659576740622047
1681484410.6880484,-0.5235360539552425,1.0585882041764387,8.97000128871657,-0.41163071633268694,-0.21357777972080175,-0.0633572128176215
1681484410.698068,0.4476397028167444,1.1386999224959216,8.364306815182484,-0.41056205026761267,-0.20776925954813452,-0.0606593911110881
1681484410.7080903,0.1637546762447929,0.8136311413809364,8.2191385805286,-0.4131003238064689,-0.2040983503223928,-0.06314350781436
1681484410.7180226,0.36111348056137565,1.2525348838904244,8.03968720420259,-0.4253277626123024,-0.19551854747329228,-0.0506757248699191
1681484410.728213,-0.17249148574181178,-0.7340858443666175,8.214305240097302,-0.4163429602769339,-0.19483339804193928,-0.038919278657389
1681484410.738023,-0.07008238264314683,-3.2684035805978375,8.46225645708892,-0.3824879938935413,-0.19671311949167894,-0.0299045268952373
1681484410.7480748,1.1626182798454026,-4.911933239193332,8.755430965318713,-0.32958985518357187,-0.1854626769261294,-0.0138601076364043
1681484410.758114,1.531702845678067,-5.714444579160425,9.199581386046379,-0.2701067405135841,-0.16441965058728183,-0.0091041012241963
1681484410.7680936,1.8073977330911564,-5.71158823038992,9.568752793661371,-0.21772807772001534,-0.13947517637346474,0.0041590218857404
1681484410.7780988,2.4566899165942595,-5.193194111142791,9.488260903071914,-0.17512362263606443,-0.10905061745107204,0.0256259671837564
1681484410.7880948,1.0000525751243472,-4.571008181945194,9.073163424488467,-0.1422595872043883,-0.0926774025444471,0.0421720992267605
1681484410.7980852,0.6106552617579113,-3.2659479562946965,9.063724728213503,-0.12705982949772762,-0.08410125965569681,0.0634846228600021
1681484410.808103,-2.0854450737842076,-2.870888118011785,9.569641130334004,-0.11990312463369318,-0.10843538823734089,0.0732786271214958
1681484410.8180754,-3.8076145564282964,-3.3815595128893112,9.726974741060882,-0.10403208248678297,-0.16239430599978644,0.071102707409906
1681484410.8280845,-3.431340560552998,-2.3627930524592458,9.313026288223702,-0.09471041993461322,-0.2139694204290241,0.0670431021094795
1681484410.8380113,-2.856397949750546,-2.5528010792437827,8.880814037650776,-0.08112744121953364,-0.2576089548601486,0.0523178752005573
1681484410.848034,-0.7068351397853258,-2.257833777054589,8.849493596754126,-0.06909984530598522,-0.2817465391014597,0.0404314387083526
1681484410.8580527,2.004260585926947,-3.8381259028916594,8.396681713620438,-0.03754843772644656,-0.266979285424522,0.0301921933383222
1681484410.8681812,3.0269449438255203,-5.440033203360718,8.814401096091668,0.01785104723227334,-0.2417194946238191,0.0191420547157999
1681484410.878045,5.460927440759224,-5.397485307970666,8.368655985928367,0.0739895483358716,-0.1899769111534354,0.0181222341448541
1681484410.8881445,6.921139885765678,-5.626355766655807,8.103609406412922,0.13295322735279902,-0.1114505483731784,0.0189886621624704
1681484410.898099,6.8345681675162915,-4.6461319829383445,8.07544941943478,0.17508803029083989,-0.03710183412050011,0.0251024241984363
1681484410.908118,6.7615590204818155,-4.693614667113389,7.837785338657476,0.2151406905604916,0.032918254918261,0.0368925842881676
1681484410.9180696,5.360712936585028,-4.831143008411677,7.606258525336532,0.25383434559979856,0.08776072163853958,0.0511985744774814
1681484410.9281602,3.572101934541351,-5.427185181577243,7.565338940301792,0.2999401632541031,0.11557662551828275,0.0591421525419231
1681484410.9381726,2.9212613035874626,-5.46499017750069,6.634012631763865,0.34920042041883387,0.13860758119415756,0.0684183079243179
1681484410.9527066,1.5621629845592744,-5.619739176848832,7.245034396495513,0.40625209557208136,0.14361198954964785,0.0678981530905243
1681484410.9581103,1.4372386793461422,-9.23852791854479,6.105474818114185,0.4705470395196918,0.13996612913997028,0.0725553098559853
1681484410.968107,2.5629079029580724,-7.1043233772832695,6.594583613794035,0.5401711668722784,0.15067142730483135,0.0796262014151092
1681484410.9780612,2.5407690450338216,-6.067508522029553,6.222596061606861,0.5994953386059598,0.1631783528343063,0.0840938228607651
1681484410.9882228,2.455166865059793,-4.647828750178671,6.749471468890854,0.6381212813178547,0.1680283511666534,0.0940058741212364
1681484410.9980862,2.887364979459144,-4.06576468288403,6.427553246372328,0.6711690938659935,0.18398874479123167,0.1005630257964607
1681484411.0080905,2.602604084928495,-4.557946325543558,6.788340808373422,0.711546270330028,0.1927263117145115,0.1074738416314598
1681484411.0180988,4.996314140805541,-0.38631503175060994,8.292241299754542,0.7175875996394513,0.22222436842194215,0.1129057097673889
1681484411.028085,9.282791224052584,6.961783830623544,11.216400858417988,0.6410483371843919,0.3062022967318919,0.1105728212237831
1681484411.0380845,9.542007896175372,10.08320557773201,12.931819564694889,0.5170342215284206,0.4096483320524356,0.0936798665166374
1681484411.0480871,8.889492939826168,11.38709002337554,14.472649174903845,0.3848784097929723,0.5129535595972977,0.0419847469270702
1681484411.058147,3.662013967382957,7.79383476403819,14.252789777339558,0.2930743640412638,0.5759646642347689,-0.0319395412265781
1681484411.0680742,-0.8734465077644836,1.9295642665663768,14.106239562526643,0.27232658641855717,0.5747673306790704,-0.1009548318147185
1681484411.078088,-4.270358497696353,-2.0834300522993474,11.999847625733484,0.3227005180666989,0.5336165368070362,-0.1607964050530914
1681484411.0880258,-3.595737541767913,-0.131493267002397,11.29077027107241,0.35343494849109086,0.4846975664778301,-0.1948183935641769
1681484411.098162,-1.3291987313007425,4.8998044078929945,8.751687472222041,0.32167364883053573,0.4776185663619177,-0.1993565124034408
1681484411.108115,-3.001382686854887,7.699448138780493,8.925650977320648,0.23933581125708026,0.4481022469874844,-0.1867015522479537
1681484411.1180763,-5.207651912149478,6.577245523030272,9.013880592170686,0.16901143115227582,0.38779387217521794,-0.1583207857369903
1681484411.123243,-10.842764469743411,10.6141138163766,12.350145000069414,0.10310702946525017,0.2981136514485301,-0.1241861593484405
1681484411.1380863,-6.739786215517282,4.90401466328657,8.799453348752582,0.041458029836101834,0.19749467839542598,-0.0835775521158698
1681484411.1481783,-8.104762958118659,3.964584664510459,10.128981432126192,0.008015848268732027,0.09677926537059349,-0.0443469856440547
1681484411.153278,-11.561029192053711,1.7102894092644247,13.098830808119004,0.010931116430372922,0.0025960935563149297,-0.0068458879872683
1681484411.1671162,-5.495158895460374,0.3686736011379323,11.019653933624125,0.030507252571590506,-0.08062769378738302,0.0179055936128374
1681484411.177077,-3.0077171177367865,0.7485107340424945,11.382225063057591,0.031974728386414755,-0.10805860423580416,0.0351549710572239
1681484411.1870365,-3.016037667857023,0.764158243204248,11.894072592584493,0.03321509373097344,-0.12916839055436677,0.043704013103294
1681484411.1971388,-2.99712983589931,0.8973517383644053,11.953215776836208,0.02748893535706651,-0.15382842681599468,0.0353528659284588
1681484411.2072046,-0.48820984320899935,1.1107138806003167,10.987546190426139,0.015204703249340298,-0.1489886814668184,0.030236749672937
1681484411.2170827,1.4265197293227647,0.5750286909457677,9.980995784740953,0.010721784653799225,-0.11698413581257926,0.03275994839673
1681484411.2271883,0.7729182911080453,0.5180266279536881,9.353393531245377,0.007268139041071757,-0.09461362027260295,0.0353027309716221
1681484411.2372222,1.1700254147493296,-0.08523607011365711,8.269946020074592,0.012113366223872556,-0.06410508547096562,0.0367894980550285
1681484411.247139,-0.728376428134632,-0.9013333316853547,8.45044736650742,0.0193668219830291,-0.05386285365948029,0.0294362071395393
1681484411.2572644,-1.2397849770234521,-1.4822651138904637,8.975958065838654,0.03644429667230484,-0.056959124352638564,0.0193863536656376
1681484411.267304,-0.2578000537159304,-1.0785716812254313,9.256511341330103,0.04831956726679606,-0.0424671957641224,0.0097912882879849
1681484411.2771108,-0.5004531606458161,0.11267635977911082,10.155432119928454,0.04427891500859828,-0.02936705178841477,-0.0015410739037666
1681484411.287134,-1.112145387700587,0.4780641927259322,11.033882865473066,0.03270593211948355,-0.02664479867307626,-0.0147965059190515
1681484411.297147,-1.286880717192632,0.4341276606731461,10.731152001974019,0.02460631868470427,-0.022537387726190038,-0.0256375849753144
1681484411.307216,-1.367904616129077,-0.3449234806645255,10.715125303931725,0.026233942440055866,-0.023835913434419126,-0.0339783590793136
1681484411.3171418,-1.1729739981995253,-0.6120185866839505,10.01826743734822,0.03907001324234413,-0.023862654896772948,-0.0379929889499667
1681484411.3272026,-0.3365315797642646,0.3641572590105862,9.77661942752692,0.042986108946996074,-0.015349898893661786,-0.0315638009964946
1681484411.3370693,-0.026108300300216956,1.242441754066954,9.456409752554762,0.03883593292675867,0.0006436256121759959,-0.0244828865438226
1681484411.3471165,-0.1501296221022346,1.5629381992628488,9.60157115339102,0.02883794713736307,0.01871765428399189,-0.0142695449798825
1681484411.357141,-1.4811481189180824,1.418763662600996,10.262032634642802,0.01785136230297521,0.022802757982313588,-0.0040834809228304
1681484411.367105,-2.674952632539699,0.813482230525354,10.874831322859453,0.019657388656197337,0.007349435327536278,0.0001911872491713
1681484411.3770912,-2.183308591171949,1.2858800547054037,10.918465839182042,0.012740258533636728,0.000651094955541002,0.0037138508592274
1681484411.3871317,-3.053770522737761,1.6241095009264037,10.96448400069471,0.004582354195897323,-0.019500172565682934,0.0055624784395572
1681484411.397146,-2.992234123642277,1.9473174844933443,10.760081296422726,-0.015308580314331818,-0.04203155407097766,-0.0009602143004063
1681484411.4070826,-3.284306151629872,1.9415158875497152,9.986031572977055,-0.03189630829316036,-0.06544248088890325,-0.0113749515771392
1681484411.4171302,-3.5418758359210014,2.2250060274896395,9.740030408189421,-0.05747024714215169,-0.09711849099390346,-0.0260023374616626
1681484411.4271815,-3.324175373488205,1.7879312642008494,9.339700927890881,-0.0742823137289886,-0.1297436520142178,-0.0466603760182384
1681484411.437209,-2.46375554295682,1.8411071225637707,9.185856054817856,-0.09329615242160937,-0.15717559283770433,-0.0713743579148772
1681484411.4470785,-1.2158491322785068,1.2185129057991182,9.157233797873479,-0.10186893959921042,-0.1683571191207212,-0.0902835514902595
1681484411.4571283,-1.1483939897189124,0.9550512746047076,9.538593762347995,-0.10746465891363818,-0.18314573179170635,-0.1182209115981582
1681484411.4670818,0.8955232553019377,0.8664645916236676,9.601530729492675,-0.11236559157889714,-0.17458940863226666,-0.1381646108388427
1681484411.4771802,1.3365405885610444,0.5466694127903047,9.789158523726044,-0.11553928941105535,-0.16191980905697362,-0.1566352706908706
1681484411.487169,1.961984132684384,-0.5573884095250833,9.859473058863298,-0.10946677225887878,-0.14354430680745658,-0.1677398693322662
1681484411.4971948,1.9651523585947364,-1.3243605260312727,9.720354503536653,-0.09286573482372165,-0.12536977838291008,-0.1698074799537185
1681484411.507155,2.1635898155468825,-2.0746852283592667,9.740125998786999,-0.07050665082549328,-0.10699143894780169,-0.1653273117303375
1681484411.5170949,1.4041838284316575,-2.0407207141740193,9.522015864297178,-0.04890753529909595,-0.09776171414781638,-0.1555836659430984
1681484411.5272417,2.4034761331820067,-1.1156984048162983,9.818704318077481,-0.04146152191105028,-0.08793350686384427,-0.1306115549563888
1681484411.537079,4.055035896786909,-1.8117907170111427,8.878622089690657,-0.024829263684010637,-0.06100937785655139,-0.1071268033742431
1681484411.5471084,4.066800750076046,-1.5991050921469152,8.709396926310406,-0.014446043500425665,-0.03145053896688451,-0.0833697703241828
1681484411.5572033,2.502734670581518,-2.7380224493220684,9.205303694364972,0.009123696915637141,-0.021997403278469534,-0.0649355587124351
1681484411.5671625,2.844053112705405,-3.649242335410559,9.400272568687297,0.04455322769847817,-0.012874400216286646,-0.0516467366873744
1681484411.5771189,2.61638607738394,-3.3550092671741423,9.203290707133396,0.08513657139747778,-0.0021654231771207227,-0.0298479211091521
1681484411.5871437,1.8867095480278409,-2.3096422883305174,9.921707672600371,0.11129732949070742,-0.0008009153409917559,-0.0119844100012901
1681484411.59717,2.3239268350805173,-0.6931474787464721,9.99246939109365,0.124217830153748,0.00974603836884076,0.0100589699537035
1681484411.6071384,2.1046299161390225,0.004397505705602958,10.337800733719455,0.12346376026125595,0.019707109654715064,0.0225500508636709
1681484411.6171348,1.8659441457141812,0.29867928576189823,10.033447588597468,0.12421784035730372,0.03117047624200877,0.0386801909149166
1681484411.6271312,0.8467579801173871,-0.23172411210460336,10.131547559436614,0.12801035683291975,0.031325581316788226,0.0413357082248207
1681484411.6372085,0.08499510466030706,0.03320167660762643,9.702101335522045,0.1345861041683959,0.02608278911282358,0.0456867467105862
1681484411.6471956,-0.9137839568730641,0.8704019530331285,9.936839202008315,0.12895048573379478,0.008961674291217043,0.0438118230045315
1681484411.657158,-0.947928683757958,0.9354171691667982,9.95228089889493,0.1241879867992538,-0.008483931021920844,0.0418509084225174
1681484411.667103,-1.5542614730799533,1.1047684490119387,10.229890687306964,0.11490927930488952,-0.03364499519375034,0.0362510632217403
1681484411.6771777,-1.0368497919357118,0.9070748739442916,10.00571858338396,0.11249180818125706,-0.051946611512365466,0.0243520277977463
1681484411.687133,-0.26922830893862426,1.8887875159730265,9.873060265243394,0.10005769446359293,-0.058985964231272,0.013122117841291
1681484411.6972318,1.2743922355544453,2.3962115183151367,9.749734610933636,0.08245741754108048,-0.04724765473230508,-0.0008793666533652
1681484411.707152,1.8949584843005882,2.489917075889329,9.365171725658971,0.06236720378306948,-0.019603735035595718,-0.0221982609986785
1681484411.7171717,2.056692483248743,2.2036273012563976,9.727712657532061,0.0395850043490988,0.005797461954054822,-0.0384970617055419
1681484411.7272637,2.608852007813738,0.6037287009331344,9.012211432010691,0.041441913089657265,0.04349901542448904,-0.0503209244966033
1681484411.7371356,2.3879509008306807,-0.25003533147629337,9.194793407576176,0.04781612688788862,0.07440157451300893,-0.058148198997927
1681484411.7472246,2.3910011834460945,-0.45312462702430084,8.837833696887161,0.06271026193500928,0.10538061406799082,-0.0531320918857577
1681484411.757212,1.5558032769184547,-0.31606884989393275,9.114227890881562,0.07007940638591498,0.12271697983178757,-0.0470258754252914
1681484411.767125,1.4588569614737867,0.4449871269175022,9.07353359680126,0.06738627151176954,0.13800230816653308,-0.0354264688252929
1681484411.7771482,0.8450710637569174,0.9769750868288496,9.198662905099354,0.06007433411705482,0.14396704477563455,-0.0210047506302121
1681484411.7872715,0.5481085658900234,1.2335957801614987,9.37839977185145,0.04700999556619261,0.1435125097906639,-0.0096838932990554
1681484411.7971296,0.4286001916820042,1.2497999653251954,9.279795733157211,0.03714796736216673,0.14496975758100514,-0.0057610611006144
1681484411.8071623,0.35479157290456187,1.8242104025099852,9.681007552156414,0.02029342353073842,0.138875629665974,-0.0079574335872653
1681484411.8171618,1.15328982322754,1.9339682323073488,9.265369869141061,0.005676235125410526,0.14783933969065902,-0.010678711584163
1681484411.8271592,0.9289257477703962,2.0275644546751743,9.44257211558364,-0.010253737645809401,0.15100491500423918,-0.0225262560456517
1681484411.837281,1.7797595466135374,1.8740007077812137,9.095615409906218,-0.0246235001080769,0.1681870780199242,-0.0332880441605571
1681484411.8471832,1.750287431056359,1.7209032808252487,9.000339117025856,-0.03506939194139432,0.18255930967929604,-0.0398122679948333
1681484411.8571498,2.303916877886966,1.4876080883010776,8.61175486766627,-0.04340949210526823,0.20585027933131547,-0.0444096077739719
1681484411.8672042,1.5218286294509757,0.7419385365458011,8.664750447147437,-0.0444989862687178,0.21829216489186487,-0.0464475390076163
1681484411.8772376,1.8222218798963814,0.4153655339395227,8.461814510317655,-0.039308631295755334,0.23190412119466416,-0.0410257589578155
1681484411.8872392,1.6109530213014238,0.5904681052026,8.472222151596382,-0.03379623621440355,0.2469433264723387,-0.0358823549508575
1681484411.8971813,0.062675933211009,2.883801963827816,9.360101176044354,-0.051171500371629014,0.24828703727965856,-0.031236325627518
1681484411.9072022,-4.134328980332151,5.8556497691910145,11.156225797368496,-0.10836874672651702,0.20604066300544802,-0.034060967391682
1681484411.9171622,-9.138843385380792,7.682512512711903,13.281096703099077,-0.19384810877312375,0.10430161818810092,-0.0522523385047439
1681484411.9271803,-10.6211472785446,6.1132696540585965,13.41147342129528,-0.2597320681766474,-0.021084155852200952,-0.0637084927916053
1681484411.9371252,-8.86640419730259,3.49021382905901,12.271529106477015,-0.2923207553157763,-0.1234365318125201,-0.0857889961957458
1681484411.9471622,-6.411092761933972,0.6197118221692318,11.049109349520393,-0.2878843346948402,-0.18603836202647941,-0.1026901241898063
1681484411.957229,-5.732328245112035,-1.3721620786419377,10.756353379859586,-0.2599758149167108,-0.23690457889582855,-0.1187027406453613
1681484411.967105,-4.875661218551381,-1.6327557423231487,10.427726886876604,-0.22549677436376506,-0.2775791887357876,-0.1415214401244643
1681484411.9771676,-3.5179491229274475,-0.4386025534158419,10.639756071616752,-0.21550863491684064,-0.3039256073150737,-0.1558112811803344
1681484411.9871614,-2.758094390244449,-1.2416513674749254,10.215261161775949,-0.2029144644700802,-0.3178053796986593,-0.1692043107509139
1681484411.9971566,-2.362675453727189,-1.770590163182316,10.245493102576956,-0.18879237561110787,-0.3309491200717648,-0.178333834981871
1681484412.007172,-1.3446441913575833,-2.344472358039764,9.798531507866466,-0.17047019893407517,-0.3335479531737295,-0.1754602503537658
1681484412.0172882,0.5655649353270942,-3.895902360574584,9.665277112340455,-0.1344446778835481,-0.31553744989047755,-0.1576065134763244
1681484412.0272417,1.4856573054387383,-4.934575643777668,9.476120820660963,-0.08176112010076667,-0.2886633042953066,-0.1303019237279418
1681484412.037171,3.986812981425131,-4.595116019681619,9.317707628875329,-0.03378362800303014,-0.2324649823595319,-0.0896383088588241
1681484412.0471566,3.7633517159486463,-4.338410226496756,9.045178124888807,0.014924269675111802,-0.16820149439632923,-0.0468314301728728
1681484412.0571225,2.183649115431359,-2.6869755171195995,9.199214006653673,0.04477150710055725,-0.12649062122184238,-0.0074186383321407
1681484412.0671687,0.9066172861873348,-1.3359288482230274,9.379617913280649,0.05478369085792752,-0.0999749990386102,0.0196702058852192
1681484412.0771785,-0.44999092216793596,-2.1371368110979687,9.636677615867173,0.07321619318003057,-0.09178488450395161,0.0413393515587326
1681484412.0871615,-0.9406204252931077,-1.8819596224377342,9.837830016796909,0.08832362862373963,-0.09644896747335065,0.0677077087998863
1681484412.0972266,-0.06150261565357759,-3.124741386754887,8.991378574738029,0.12529447117935755,-0.09220940705184907,0.0979694637895103
1681484412.1072152,-1.5376956990237973,-2.1806483084906363,9.306924850957715,0.15330653594075785,-0.10818220032744658,0.1167159888387199
1681484412.1171863,0.1583796107216895,-2.427957327134479,9.270137438045817,0.18390239720467258,-0.11094790876661993,0.1271040874958511
1681484412.12721,1.2856427741969128,0.5843368125344683,8.594276949076914,0.18916096304541635,-0.07938805496772856,0.1375988710165497
1681484412.1371975,-0.2559211405156356,1.9734963414163722,9.476321361051031,0.16689588371627598,-0.06714271230999852,0.132133557224321
1681484412.147185,-0.3447489884901585,1.964948179535423,9.43275962832676,0.14791884703383124,-0.05381247443584963,0.1165612700820442
1681484412.157308,-1.3176279156728576,2.1237761596778446,10.1837706412274,0.1222507155512548,-0.052999397358061084,0.096220670962381
1681484412.1672106,-1.0442221340698004,1.6012781631372959,10.07699794439961,0.11059412691647673,-0.05063307918879078,0.0839279803872581
1681484412.1772,-0.5107099950888682,0.6191829830775519,9.996647958437066,0.11090479798916508,-0.04098999678873114,0.0685335162520882
1681484412.1872485,-0.5305686536235354,1.6015505885328905,10.0040210653146,0.09891982405948652,-0.02422507299674091,0.0590122404933449
1681484412.1972656,-0.2742048618090744,1.5611762074910809,10.23955228957238,0.08756696852601947,-0.01165762023381973,0.0601087163627621
1681484412.2072887,-0.07255743626707224,1.4965966401346182,9.910938922965272,0.07726189427861699,0.009828169108161575,0.0564124498010155
1681484412.2173228,-0.46487196667089664,1.7041544114167761,10.10771531264834,0.06423348961341063,0.020704279750000526,0.0574363458395477
1681484412.2271657,-0.5575266997515912,1.501325527833066,9.612997964601561,0.05132525229605961,0.03273602977801069,0.0530485908926006
1681484412.237209,-1.6366182777749025,1.0331547256129712,9.84438579278304,0.03998901384694884,0.030401960037967832,0.0418892491102692
1681484412.2471938,-1.2406407152545063,0.5071207261041868,9.739371237593483,0.03725480045052974,0.02593747175653715,0.0414607885718819
1681484412.2571678,-0.8676693238728901,0.3671932153191368,9.49403668702714,0.03521842392958191,0.031075610249903886,0.042471664720821
1681484412.2671988,-1.3974844003669726,-0.16151967758049057,9.91979748951262,0.04020456381416847,0.023026399909029657,0.0421032111585613
1681484412.2772462,-0.09007097966897162,0.6197720236030432,9.437037805616868,0.04015091989521068,0.035562728052657436,0.0471506963909145
1681484412.287215,-1.081678164413096,1.0198617033120256,9.895127672808547,0.0281677311410028,0.03730009714359279,0.0512753489852425
1681484412.2971425,-0.9296111314356486,0.11562410346062114,9.823997298951314,0.03140903223212471,0.036406639570070634,0.0509914632380482
1681484412.307212,-0.9882623203585194,0.4945732344080119,9.685099612686262,0.028422173185399427,0.040436039741453336,0.050223703259277
1681484412.317157,-1.362465447501113,0.7530570013665322,9.9815859965743,0.023769546320970496,0.036244014101770715,0.0544987905264374
1681484412.3273058,-1.244079673117499,1.0149451868974435,9.570465443972012,0.017449740651082145,0.0382330453059539,0.0618116918445106
1681484412.337142,-1.6542145062975881,0.7735229744354504,9.881305313727088,0.013659644327645609,0.03119245265131249,0.069779804670858
1681484412.347149,-1.6837455854078585,0.17744997760934048,9.71982181421341,0.01785114219809844,0.027132221448746663,0.070998049104261
1681484412.3573031,-1.714409220224663,0.11412958311926354,9.753162418748877,0.025446114346954676,0.02037669772994945,0.0701363224030014
1681484412.367211,-1.2641356142455653,0.9660362430518148,9.885781426010777,0.01747352362097936,0.02111656579336988,0.0698037880897995
1681484412.37719,-1.461944966779535,0.8290336602691335,9.911698152590636,0.012066902027191245,0.01891662410148806,0.0619661125779625
1681484412.387193,-1.060351100726664,0.5247923366933891,9.826088312087146,0.010379813396269562,0.022996198069022953,0.0535524736583706
1681484412.397199,-1.3922872499614172,0.81867320164586,9.991832509231644,0.0038568952948702887,0.022111752139532436,0.045929337614822
1681484412.407238,-1.6023552217422425,0.15007727527903408,9.871068776443403,0.007325581967074882,0.018091675785694636,0.0334223459899898
1681484412.417387,-1.7899650522160229,0.5704687601542684,10.044083505106908,0.002726650380649959,0.010875807938838113,0.0210105634719606
1681484412.4272716,-1.3936136543413082,0.13705351815532424,9.819445500757483,0.004046353072973627,0.009217141767875466,0.0085411888972398
1681484412.437248,-1.674807665984516,0.27313392754143817,9.969235498177811,0.002795523530310542,0.0028978563378842096,-0.0045636242761734
1681484412.4472814,-1.372735413799435,0.3535886112809919,9.909455448767032,0.0017580885702718244,-0.002873351244278831,-0.0121807206928256
1681484412.457276,-1.1678028830312879,0.11580589740367862,9.771282093284587,0.0005748779387572705,-0.004280148565133039,-0.0224532012402538
1681484412.467235,-1.1083986168125148,-0.012182134761301816,9.889318902954438,0.0032086562234360334,-0.011966113721020124,-0.0259084135800126
1681484412.4772708,-0.14816710377598774,0.185329386928219,9.508238139493885,0.00795111375566197,-0.006701915767449988,-0.0207208984106305
1681484412.4871898,-0.32624092067801574,0.7984153042063146,9.802899293211993,0.0011210689287217683,-0.004669656950116673,-0.0164487913757089
1681484412.4972088,-0.17509233030175556,0.5050711896255414,9.733642297652096,0.0001495226235098873,-0.002532494011579609,-0.0097950475796583
1681484412.50725,-0.29692544395586257,0.6602350036944997,9.795188098573105,-0.0020957255787154732,-0.001668244058106479,-0.0013587400357696
1681484412.5172367,-0.4086178044992241,0.6136804158865558,9.819389507796366,-0.0036692787538667947,-0.0028592710686487174,0.0051806268707391
1681484412.5271893,-0.4523165550088517,0.6220660442712379,9.835889887599308,-0.0051351622753158695,-0.006036896302152255,0.0096495130524512
1681484412.537274,-0.3400226033438294,0.4659508594832518,9.804101795285137,-0.00498466107413379,-0.008470596855471272,0.011613880978572
1681484412.5471735,-0.05439791232217286,0.39293300195045516,9.686887469942096,-0.0027877827810050605,-0.007805711457933916,0.0112215613440152
1681484412.5572836,-0.3207381560189134,0.49507548694554415,9.975321795622742,-0.007148641879201324,-0.01313960764906029,-0.0012044743675265
1681484412.5672126,0.32377994839576063,0.08797497985060895,9.843293296170653,-0.0035436543557187156,-0.011430028837319372,-0.0095994763582471
1681484412.5772164,0.6830145388545048,0.42871297702913763,9.820805264522697,-0.0041489928762468865,-0.004309901722615623,-0.0130796472116831
1681484412.5872564,0.5187134774890718,0.2790736759847481,9.804558482476386,-0.003421604006456381,0.0009188743640157667,-0.0186571397393468
1681484412.5972447,0.36432069684810786,0.7240806233816369,9.849069833402199,-0.008832939118724152,0.0033172782671614886,-0.0161500026046756
1681484412.6071672,0.18514395732536001,0.38724274587306323,9.765190911397779,-0.008658157971560655,0.0030267633640162343,-0.0143879440187934
1681484412.6172023,0.19764481867201494,0.41661021022241135,9.744983421987978,-0.008625100025531242,0.002079409555981527,-0.0079680860548738
1681484412.6272032,0.18819020858127686,0.37999168030348124,9.791175645479422,-0.007338718837916512,-0.0006520770958437004,-0.0023187270894173
1681484412.6372204,0.23851274128672856,0.40974166985616983,9.850442392739593,-0.007157272091891272,-0.0022174025322728784,0.0024440173252027
1681484412.6472733,0.4301239892909842,0.43683721573103307,9.842863807832389,-0.006252356553040511,-0.0022739952941854395,0.0078185375273701
1681484412.6572378,0.39366031444875293,0.278306851799727,9.864416095891901,-0.005324821637593359,-0.0022852025224346945,0.0075115256436642
1681484412.667266,0.4133826953530225,0.4033517282581095,9.825743662011437,-0.004954529212511235,-0.0019215724758886148,0.0084830794908579
1681484412.6773252,0.4546245808152896,0.4403730714093179,9.789945455801139,-0.006776211671608212,0.0007620523939471536,0.006298193471181
1681484412.687215,0.2808815573199452,0.21577685560539944,9.775636821870153,-0.003722574898407587,-0.00029740426401310253,0.0048732873943176
1681484412.6972094,0.3210694727694737,0.3926973185694768,9.84760706676432,-0.00464940738772373,-0.0009791165708617365,0.0030117718229543
1681484412.7071877,0.3942209040273278,0.26273303289300226,9.758168889762937,-0.004568937599506688,0.000766180517693017,-0.0020080865401301
1681484412.717237,0.2871205142997173,0.5179285357484933,9.927166852783763,-0.0072451745465783,-0.000974266902774658,-0.0030895473941687
1681484412.7272615,0.35884788686060637,0.18458938581284923,9.833383204779121,-0.004798398081125943,-0.0014041755287648163,-0.0040949841536108
1681484412.7372935,0.4960912523723771,0.27331451005505997,9.779544999072373,-0.0029462016711822364,-8.731706147101855e-07,-0.0031014604068819
1681484412.7472248,0.28894269346700446,0.35472789526368714,9.868674401647816,-0.0030419580504060123,-0.002061299983902892,-0.0029092070221427
1681484412.757275,0.5250335668039268,0.43965771812709925,9.77353068370298,-0.0047976806745415,0.0002420513563119825,-0.0008595495059612
1681484412.7671888,0.4506482650393533,0.320743021986809,9.77623056441286,-0.0033064579084275563,0.0006797522434281353,0.0018315906304873
1681484412.7772045,0.3006656252851963,0.3074520167510066,9.829744314664014,-0.003118692703980947,-0.0003215937654331601,0.0010246877750855
1681484412.7872396,0.6555547700411766,0.3585952162055426,9.70309804663983,-0.001871436351656745,0.004088049058340391,0.0035601088271018
1681484412.7971842,0.08775698208203607,0.34005746179635665,9.969000424825976,-0.0025550496669657957,-0.001235037234439766,0.0021851101151209
1681484412.8071935,0.4312739220306874,0.2961023151042896,9.800371271745897,-0.0014221954487582307,-0.00014425974106723486,0.0015976465324878
1681484412.8173387,0.40100679790397725,0.4883036587747987,9.81890656640728,-0.0039058532650679888,0.0008950824438482929,0.0007900215528447
1681484412.827306,0.2403387812305935,0.12854292882632645,9.803964437560918,0.0002098554216588753,-0.0012290835774999224,-0.0015450110699508
1681484412.837185,0.5803575685674225,0.4911022119363285,9.741245316795636,-0.0011014815425222629,0.002499956587615623,0.0007125523948583
1681484412.84719,0.2632520611536909,0.447278407391063,9.892566910253421,-0.0035865658269692013,0.00150009232165901,-0.0007694156415287
1681484412.8572972,0.2628309395342964,0.3850327230217162,9.814209194091463,-0.002633666811374692,0.0006570383726528436,0.0017477664182901
1681484412.8673065,0.23999280316931557,0.18846657939703695,9.756948794264174,0.0003275515974664924,0.0003743132278331937,0.0020148756407674
1681484412.8772824,0.12337952775900725,0.2264451287253352,9.836544618369972,0.0020639338402736684,-0.002472572293679433,-3.069767667835039e-05
1681484412.887205,0.33491433918227537,0.3128039630247769,9.809430949818033,0.0006766402360606731,-0.0014056303653472246,-0.0045330666511777
1681484412.8971746,0.37053232694368904,0.42940262077656566,9.84259125612174,-0.00013657120710774428,-0.0009403244400538719,-0.0041087491012636
1681484412.9072304,0.6085348249854915,0.32800132517006203,9.655877837524502,0.0005502714374398481,0.005952157687964926,-0.0035596967249635
1681484412.9173057,0.3328622582592745,0.46760141844183556,9.782093681007396,0.0004687122174177056,0.007635279949971638,0.0006238971214283
1681484412.9272275,-0.14452352766387103,0.27783642103634715,9.891637271079293,0.0016548732613126352,0.0023364408872152214,0.0003895509249072
1681484412.9372408,0.029796226954846825,0.5486882263282807,9.875944516708156,-0.0013342676441775668,0.0004879124770212157,0.0024377051700379
1681484412.9472172,0.1832671347953057,0.31262611050943606,9.716036118706409,0.0008718484093674601,0.002523422771001125,0.0033488963922959
1681484412.957225,-0.0007936129818671853,0.43170871822301027,9.842325843442266,-0.0004483795984065353,0.0017768836646979303,0.0031410170445692
1681484412.9672797,-0.03592965462159832,0.4083582113335533,9.878593511993937,-0.0013167658543077035,-0.00011444456605773416,0.0029063285287942
1681484412.977232,-0.008992105878595976,0.36076211734455815,9.817611597718939,-0.0018345900639647778,-0.0005272216093991249,0.0015305842312467
1681484412.9872518,0.038168796658549345,0.18317238281856496,9.748351079881516,0.0016947636456564384,-0.000549928016444324,0.0003206243232365
1681484412.9973056,0.10680769599835911,0.49465470542283846,9.797482555149417,-0.001769394423254766,0.0011271764926963866,-0.001451139342365
1681484413.007212,0.032503208329668715,0.302266942209434,9.812249294015118,-0.0003936557200311952,0.00023982949842314363,-0.001665335385454
1681484413.017201,0.13387936427309755,0.3629379832576968,9.778470452232954,0.00017445775825330854,0.0008816920051324309,-0.0009117121848735
1681484413.0272715,0.0591775907115581,0.28793319337174295,9.811224698690273,0.0011050357984258052,0.00017985420605434925,-0.0019741670734707
1681484413.03737,-0.014151626505651287,0.47267397480817364,9.919369561813964,-0.002871702916696763,-0.002169332412350487,-0.0042726679279926
1681484413.0472772,0.3065715394011355,0.30926136693242806,9.716788938452334,0.0006878250394710126,-0.001042805861670367,0.000387681062008
1681484413.0572422,0.23311781524209846,0.4099543674209523,9.801951383131021,-0.00017497871014344535,-0.0002191346500495908,0.0008265038446065
1681484413.0672708,0.14254468405123277,0.2866435578730828,9.819173299141465,-3.613271302045097e-06,-0.0006758731795299195,-0.0009504652156952
1681484413.0772858,0.24924059768848378,0.35299419004926835,9.807644178720475,-0.00045435928285504634,0.00012507013988168484,-0.0020378751255098
1681484413.0872478,0.39360473340844093,0.3859438440165115,9.720480373779095,0.001404563454302182,0.002286864525364798,0.0021687357180293
1681484413.0972483,0.20010592971568356,0.3409833893698833,9.810172068408159,0.001851204332137087,0.0020268548832328573,0.0018736721790869
1681484413.1073065,0.0713576122575114,0.4988228573509916,9.9128493044869,-0.001430747150282582,-1.01576949180214e-05,0.0003839324886452
1681484413.117238,0.15548578796548246,0.41680351367417096,9.813659988194551,-0.0026243262310133198,8.78419795092006e-05,0.0004372143844615
1681484413.12737,0.054438541169075705,0.230385717485761,9.790410290952467,0.0006911610225874729,-0.0016954628596875343,0.0001499894965913
1681484413.1373296,0.29717456560063704,0.3444655774339123,9.684555802821935,0.0006453278405342185,0.0026493327910452986,-0.0008219534106079
1681484413.1472733,0.04802399641960041,0.3671545973792096,9.830312389144899,0.0012324277564142497,0.0012508887762586196,-0.0002128506352651
1681484413.157277,0.08761203160975038,0.34663624527091313,9.792937364255325,0.0016143048189810728,0.0011197313985895335,6.197482022294578e-06
1681484413.1673238,-0.01213182573734115,0.5562288236418905,9.912967282856604,-0.0025054786376601046,-0.0005286894078100017,-0.0005235499742898
1681484413.1772332,0.20052026453415936,0.2609464193366863,9.704045989127458,0.00030298719946138616,0.0014084444362802988,0.0006100584246691
1681484413.1872602,-0.06069192027072179,0.40879369718689157,9.905649797075993,-0.001305235435932587,-0.0015419881469643595,-0.0010003738611463
1681484413.1972578,0.12514718457249807,0.2737466901466202,9.757034144258348,0.0012223816238889813,-0.0014857199810383301,-0.0001346344401586
1681484413.2072802,0.2565418020631426,0.5319562702788176,9.789082445442993,-0.0013566298891339035,0.0006950490356551199,0.0013983481872368
1681484413.2172022,-0.02729304341967429,0.3178439485880021,9.879691064522465,-0.001354404069704684,-0.0022725225653083166,-0.000744435940263
1681484413.22726,0.2277265916210608,0.5283059816516166,9.813278973250581,-0.0036305393543003754,-0.0014075137823138305,0.0012064686703037
1681484413.237211,0.27760296941996204,0.10529635096969278,9.64535810664877,0.0012462253479781447,0.0015839099749507402,-0.0002408016047898
1681484413.247228,0.09791237839407928,0.4480986839057214,9.871912948673991,-0.00017645791061962182,-0.00045009997492789533,0.0006342834054034
1681484413.2572873,0.3160529290497465,0.5012469065857758,9.775539071198631,-0.0024831814666979716,0.002224640463916238,0.0021091231570121
1681484413.2673285,0.05772297478742613,0.2982374479694097,9.84481942974823,-0.001661370742149212,0.00021224571487210293,0.0009401332313668
1681484413.2772384,0.15494451466210343,0.3138898472194741,9.787127759647538,-0.0012072513901567336,0.0004741301712885024,-0.0003439860924605
1681484413.2872765,0.15054775392954986,0.4084128784405811,9.820299451377794,-0.0015168321711170054,6.434893035504299e-05,0.0005668449989993
1681484413.2972472,0.15885805808904988,0.2589292223143044,9.766823293303855,0.0020844276148989853,-0.0005503070784617937,0.0031134585110944
1681484413.3074348,0.15269965847135464,0.46699614848402743,9.823077838666219,-0.0010146481742702741,0.0006265083269326667,0.0013808430117446
1681484413.3173304,-0.00375209774260739,0.244788211866068,9.835043814111792,0.00015582799899235974,-0.0012059689930564582,-0.0010570059570941
1681484413.3272984,0.22007879996103752,0.5407337364994786,9.791479823445849,-0.0013391172396706647,-0.00016102192997100622,0.0026291718200322
1681484413.3373592,0.014226135817227932,0.24100080996374165,9.819069333975518,9.88483416588879e-05,-0.0014898325397105948,0.0003031057963621
1681484413.3472943,0.18596099413398062,0.4094637854140854,9.775150357439308,-0.00024127181679825361,-0.0001993899724751325,0.001039596707002
1681484413.3573065,0.050550687676106654,0.09445825330319224,9.736561880408821,0.005180163500909522,-0.0011984925070793256,-0.0001464948331463
1681484413.367277,0.23676557523210712,0.6049314184630848,9.822760858700912,0.0012633711203116189,0.0005721214082134244,0.0017630341422286
1681484413.3772883,0.10507656073896458,0.5884334063782725,9.885380101213489,-0.0037471465922630587,0.0003713210188636559,0.0006219944294084
1681484413.387298,0.03853188505424795,0.07626833370893531,9.770228781409033,0.0016675623497515101,-0.0013680041082693853,-0.0007597242988172
1681484413.3973787,0.22430642258467617,0.4050262984217277,9.772916678489175,-0.00026661554480006546,0.0008958839579113658,-0.002901366217387
1681484413.407272,0.11307205182804414,0.3207092968143396,9.80799560910554,0.0007757035332924654,0.00011915973844569816,-0.0030656766652587
1681484413.4172575,0.10035985646917964,0.5067131239411773,9.88113608628176,-0.0004573206665291792,-0.0020534673236043827,-9.659969187264724e-05
1681484413.427349,0.16560599393209538,0.3005883557694562,9.76902848376295,-0.0005486000125644247,-0.000611780656869948,-0.003036619866592
1681484413.437303,0.29040380949014777,0.34651188620634693,9.731467994096196,0.002537798338489472,0.0006402803730149229,0.0015533107685282
1681484413.447327,0.0680219510985207,0.4250577170116692,9.865434727435934,0.0006822280565681006,-0.0007481230156813263,0.0006741532084074
1681484413.4573205,0.21704078127700482,0.3806743518921591,9.772794158087379,9.623232104739856e-05,0.0010523070664260098,0.0001194453757729
1681484413.4672506,0.030774532028819253,0.4229266284256906,9.875829691524304,0.0005119824123701528,-0.0018910372141095542,0.0025092196843128
1681484413.4772944,0.2021332600319143,0.2456253271257894,9.716287810245587,0.001813613017095182,0.0006641128586538294,0.0003031148767572
1681484413.4873886,0.02589116851964514,0.5333364443432048,9.924421913867297,-0.002144156583146847,-0.0014857285069960553,-0.0003704140003297
1681484413.4973335,0.3171039452775442,0.38389492783854373,9.707472349866698,-0.0021698539136493326,0.002216456366912005,0.0005683443119291
1681484413.50727,0.16637022129626888,0.3154524430700984,9.758539257953604,-0.0013097392389480854,0.0033221220159231203,-1.5793954347422543e-05
1681484413.517306,0.016815458947977927,0.33974954261701984,9.84774374579658,-0.0011245602512509488,0.0013197617424142419,-0.0008368627208743
1681484413.5273516,0.09943007039014136,0.31189661789327644,9.803375633257321,0.0022289707257629487,-0.0006322597054257585,0.0028578980086844
1681484413.5373902,0.14579829290530558,0.26767112200642085,9.762405779020913,0.003846853406552607,0.00013962811365942775,0.0012999932619517
1681484413.547293,0.11390975261993427,0.5756416558014814,9.884645598673325,-0.001035890356446218,0.00020778191572575465,0.0004081601469319
1681484413.5573256,0.10967150434646719,0.4256791935442462,9.837057359333846,-0.002937273801944024,7.339371954502532e-06,-0.0009594045154276
1681484413.567283,0.24903117140536496,0.3090439182476687,9.722996720274475,-0.000664100451585443,0.0016159403068208094,0.0011312443489682
1681484413.5773194,0.1175133948525971,0.17250437929016724,9.761283755877844,0.002064683742232997,0.001843937176806497,-0.0015014177228782
1681484413.5872903,0.07022241683835155,0.4661016513290727,9.882675259572794,0.0008636473248702934,-0.00046947442881802655,3.823800538743454e-05
1681484413.5974004,0.15386554839783884,0.41341530409149135,9.833971093078114,-0.0007654295789272721,-0.0001684582989661113,-0.0013032348401371
1681484413.6072774,0.1396815549443633,0.43945249390841096,9.817019555672186,-0.0014963229457650355,-0.0006333869450859265,0.0001958174357664
1681484413.617364,0.18686758430161568,0.3765249115459835,9.788576372403426,-0.0018819050160985879,0.00014593542801297102,0.0003735108726199
1681484413.627427,0.24748771225805694,0.3311676854754265,9.738700567935522,-0.0006778648361502281,0.0023140624661977366,0.0008097526111182
1681484413.637309,0.06390133325752441,0.30420959755484,9.82462575871912,0.0010554911345576656,0.0003299807124746634,0.0018043825071312
1681484413.6473632,0.12081716113143942,0.34669185747526954,9.799714431399378,0.00016403339798760786,0.0009945650138852523,-0.0006662167183581
1681484413.6572824,0.1093845536441041,0.3438435073113284,9.814540584801437,0.0011769308567497626,-3.285327636579354e-05,0.0004145007074352
1681484413.667334,0.20979311751352475,0.2622847070210671,9.718464542836331,0.0028361782011189344,0.0022414118663998182,-0.0008182411588255
1681484413.681718,0.04111884991628235,0.4750599111148625,9.88903106982473,0.0001465248122213817,-0.0009530156364648092,-5.452696173374933e-05
1681484413.6897442,0.14567186794839726,0.43742699068154633,9.838942871694787,-0.0012799083787236815,-0.0006542534680020136,-0.0009791448287192
1681484413.697327,0.14900561873124954,0.31650791318647326,9.778178483880774,-0.000797842081685664,-0.00022958003780991298,-0.0016903108957681
1681484413.7072904,0.16966010638982956,0.3295774452274869,9.766912741793965,-3.416500433172975e-05,0.0005914862150078758,-0.0014790874015066
1681484413.7172682,0.11981510926695298,0.4446002857517083,9.828257695202055,-0.0008578182606702885,-0.00027613014396335326,1.216632840300518e-05
1681484413.727421,0.20832019893901393,0.3173858552461091,9.7576767369204,0.0003380098267659129,0.001185677524472001,-0.0003748871426556
1681484413.7372608,0.01919323870029479,0.3476992646787679,9.849955467760847,-0.0003340356145647016,-0.0006181236748057738,-0.0019708180374923
1681484413.7473762,0.25797750810699943,0.40799333401603793,9.765531787598311,0.0003916421409766767,0.0007438500883185069,0.0007087772205945
1681484413.7573326,0.1376031709982396,0.48446518211003137,9.833616672353289,-0.0032706888981970505,0.0014054512285114706,-0.0016333060379598
1681484413.767341,0.13226724836009063,0.3504869136155773,9.787023213239134,-0.0014579626566079936,0.00044694280306664896,0.0013133997959325
1681484413.7773254,0.1591047493263697,0.41190256669471437,9.810545769913219,-0.0008235353965671487,-0.000202000268510634,0.0041874565609272
1681484413.7873216,0.12574756478005275,0.21858652233974935,9.76413474106423,0.0006315660771306725,0.00048419543003740085,0.0010392170184299
1681484413.7973113,0.0769678038515379,0.33244883931772207,9.813929838101313,0.0015096144982506266,-0.0007663880139463739,0.0009751364664647
1681484413.8072991,0.16627779888075067,0.4312037751835035,9.811463818285901,0.0003327972101346643,-0.000260485887578837,0.0008302364108626
1681484413.817319,-0.05586360866772572,0.4020097095940295,9.91142504171358,-0.001750406164960714,-0.0035186077260199217,-0.0015598947688463
1681484413.8272986,0.3395273458263273,0.3596660894415364,9.68353931155058,-0.0016922966399572554,0.0009334553153341954,-0.001502923904312
1681484413.8373578,0.05032843754396188,0.2304486675024123,9.806678330965616,0.001332296476962486,-0.0011083684458534694,-0.0011695020406964
1681484413.8474426,0.26370186709529647,0.4615773052468918,9.777572220523462,-0.0007896349488304689,0.001549245402998214,-0.0013103387359056
1681484413.8573892,0.12072119077550855,0.3982022331282154,9.813541569822714,-0.0006678337126606948,0.0008440738840782482,-0.0001234242267433
1681484413.867341,-0.09533659798541656,0.2959241503004096,9.912311510549218,0.0006796205571490919,-0.004027495141025606,-0.0003838461165774
1681484413.877293,0.41980556962854754,0.3967794705782118,9.656291058453299,1.576812672417379e-05,0.001915081990558083,-0.0004039545351166
1681484413.8874822,-0.02440694629362862,0.34734800644701974,9.890780329582178,0.000624477931975326,-0.00194172115084067,9.709049076850134e-05
1681484413.8974392,0.35074771851957937,0.5315393231952565,9.740415418515505,-0.00266272556404976,0.0024463036078035336,0.0003303106600892
1681484413.907376,0.04075971537163107,0.19429564241471392,9.808301677366353,0.001773361378106171,-0.00034728051395966985,0.0017272797081627
1681484413.917417,0.30403970628827026,0.42259555632988394,9.720473118358662,-0.0007322865606765958,0.004139817783841633,-0.0010607463813844
1681484413.927365,-0.12822672308338062,0.3794471023762496,9.960701090538754,-0.0004990643514554962,-0.0019208392999227322,-0.000349939339188
1681484413.9373317,0.29855985143739167,0.32317878404683115,9.695697787017645,0.0003849572071789949,0.001495975704462583,-0.000510870948759
1681484413.947445,0.21236659179416997,0.49822670268464025,9.805598695139873,-0.0015540789438537896,0.0027335222407577006,0.0008018893382054
1681484413.957428,0.006063331442457698,0.284714980608556,9.839874471333426,-0.00041042108563058054,0.0003448523723680103,-0.0005041915032539
1681484413.967352,0.21802331505835965,0.3005655480033714,9.73606658660926,0.0011158439300400194,0.0020600010306251163,-0.000402830079523
1681484413.977377,0.060163773167613,0.47370855151999813,9.898133722702658,-0.0008309902575124088,-0.00014500486012537623,0.000625336713298
1681484413.9873312,-0.02557889992868422,0.22322489729644857,9.839121630697022,0.0006419835186919472,-0.0024613669012748533,-0.0022915662306818
1681484413.997278,0.20539266229099098,0.5263012634475132,9.815417545645513,-0.001793969662066539,-0.0016939854789938492,-0.000308218532567
1681484414.007329,0.34242849847093915,0.3365555487786656,9.68949587520534,-0.001275435224129491,0.00280692284057599,-0.0004158518317613
1681484414.017442,0.019855960794080602,0.2710403100634579,9.839025655953503,0.0008315990451548866,0.0002599465233906536,5.446719611832676e-06
1681484414.0273094,0.2015037700500873,0.45575622826239537,9.790869820539097,-0.0015063984162264814,0.0019169259281711871,-0.0007578854023936
1681484414.0372882,-0.05730423763802718,0.3023003604589211,9.883940089904897,5.7505871332454653e-05,-0.002296355932664392,-0.0005999056197229
1681484414.0473697,0.3700013937351782,0.3081512922458722,9.650790851692175,0.0025824971114675774,0.0018890113038533272,0.0016613480070613
1681484414.0573874,0.06725414879163442,0.41415554462933146,9.85640120305154,0.0007138813858206229,0.0008738756820195358,0.0002937994391199
1681484414.067437,0.13392530715746295,0.3410547873888822,9.809627961430019,0.0013058364602594943,0.0005505115775388409,0.0003805899719249
1681484414.0773458,0.18526159373302256,0.5236759578179772,9.83873882289991,-0.0006551571782463054,0.000664138671009837,0.0027301204350319
1681484414.0873752,0.05039630573675757,0.20746341731195173,9.789191206235786,0.0011028050235214937,-3.026462913855152e-05,-0.0001938651589203
1681484414.0973442,0.15848629471201595,0.4457396726256593,9.833400683709149,0.0008498578461403183,-0.0006572265353157077,0.0021847493440386
1681484414.107364,0.1140422345232033,0.3500569140740055,9.805330502726834,0.00057009657564327,-0.0007004421585489118,0.0009624917834539
1681484414.117415,0.023031208410422277,0.5014711226292209,9.91905754140242,-0.00440278165880095,-0.0020706303831016623,-0.0026916677638415
1681484414.127325,0.30296829498783423,0.2891792434516351,9.683195695486312,-0.0008313715652366317,0.00027186327233465717,0.0008417917957071
1681484414.137318,0.08385527748931364,0.44234915567629773,9.855047977909848,-0.001997745127056495,-0.0011273618274401482,0.0016967427759904
1681484414.147463,0.053489663240256204,0.1949023020849959,9.782531049082708,0.00018936327635204147,-0.0019666480809623667,-0.0012015407014164
1681484414.1573253,0.1930547776371873,0.41893737424259814,9.784979014652885,-0.00024909446489858745,-0.0010971848387503927,-0.000298903909837
1681484414.1673884,0.21367077315681554,0.41586461318324836,9.770256341454749,-0.001272793863806738,0.0005207056721529273,-2.3734796318916705e-06
1681484414.1774015,0.19376360650157518,0.3383988340311484,9.774228016546372,-0.0009669661924832392,0.0017735227752245252,-0.0004702629561993
1681484414.187395,0.04223460161801232,0.3655256981019627,9.856705545686316,-0.0010757381963870044,-0.0001721959378132045,-0.0008398196700487
1681484414.1973836,0.10162940457350443,0.4242606657920223,9.846522786648688,-0.0019340496053450527,-0.0011433879736977182,-0.0005209285340729
1681484414.2073157,0.21570817695573566,0.37183171762236533,9.77373458916492,-0.002221273787496927,0.00047711097235672903,-0.0009329458739135
1681484414.2173934,0.09988001500913853,0.28139430735766335,9.797890812360778,-0.0011904947119710787,0.0003087548005174703,-0.0024021875619414
1681484414.2274263,0.10726647664072465,0.29472630735171884,9.813013457082379,0.0014753395796058548,-0.0010599147869702818,-0.0007790899876031
1681484414.2373817,0.2423075034895822,0.44364061880136274,9.765332297661892,0.0009973842150225805,0.0005773312193676057,0.0010380960261922
1681484414.247351,0.07733707889428972,0.45355286044498694,9.858029372610646,-0.000809383086047682,-0.0004419109052385519,0.0007322481792893
1681484414.25736,0.1274447537468069,0.3271631318194655,9.798955079753876,-0.0002595341589050525,-0.0003387154124375877,-0.000159579682489
1681484414.267373,0.08941036707650671,0.29796546212299674,9.802314366601319,0.0010137782082983264,-0.0012797205376066994,-0.0001223248004439
1681484414.2774105,0.14284803200709836,0.3905744207807785,9.811718732464666,0.0004881461018795533,-0.0011299639236437649,-0.0002791545161504
1681484414.2874107,0.10000906648464244,0.37286627741662504,9.826036087980933,-0.0005635152423664598,-0.0011832680514968616,-0.002418224471015
1681484414.2973137,0.2869368903948582,0.3543196998872051,9.722862331922236,0.0005998710183591484,0.00138274724028668,-0.000717998719168
1681484414.307367,0.1901612049135787,0.35483345986253806,9.76736034137165,0.0014217190528903797,0.0023978684428963104,-7.055118153726143e-05
1681484414.3174503,0.09233579028256991,0.5514365067426373,9.889038106487074,-0.0015060215877948117,0.000801220111229307,0.0017913499573718
1681484414.3273482,0.13039250603703803,0.1291124474992205,9.71260078832149,0.0029620983917044057,0.0013551789098798306,0.0007750862819615
1681484414.3373592,0.13406325980030634,0.6789667384225393,9.978694503842267,-0.0037829046735436524,0.0006160913558683381,0.0051172834314879
1681484414.347387,0.4240849670975367,0.4149963472493641,9.530583977060536,-0.0011085515992610626,0.007274202933703402,0.0111929464579101
1681484414.3574104,-0.4092733460224122,0.5367063872749293,9.994669964927162,-0.00283930234542674,-0.00027358183192498724,0.0152467375115033
1681484414.3675313,-0.144558698619205,0.1884346547788225,9.792778750472456,-0.0004975268155372468,-0.002648348822614004,0.0131456681952353
1681484414.3773162,0.009773692528746089,0.3238566373664222,9.783522212269435,6.980002585886801e-05,-0.0021201373725545283,0.0070827591658111
1681484414.3873792,0.24528441102595744,0.5918993464810752,9.85729578995709,-0.003385437561764619,0.001910605177932267,0.005141502940702
1681484414.397389,0.2711342457089908,0.5819126147819058,9.580426147263518,-0.0056072233712153,0.01106999172667327,0.0075617607176777
1681484414.4073586,-0.8290660282072094,0.16629348463468455,9.930800938321275,-0.003876735638545226,-4.591034866268063e-06,0.010492169992673
1681484414.417402,-0.491000256505015,0.11788665496735336,9.830108048834184,-0.0005856941694314976,-0.010652455113944274,0.0175631630659576
1681484414.4274173,0.6631210126411174,0.1602859195521259,9.629246336881915,0.002948690307269962,-0.010114060261944106,0.029060219177651
1681484414.4373574,1.1417833780503337,-0.1169803588785724,9.4256977455166,0.011535099707967197,-0.0027056663401202755,0.036265200698423
1681484414.447397,1.5811950999273656,0.5342648148108243,9.534318128982196,0.010842930006217484,0.0087211439192187,0.0476560357451912
1681484414.457422,1.1448006851144434,0.9112968486904536,9.56405045899161,0.007984627491510783,0.016075895014349015,0.061477239006805
1681484414.4673655,0.39531845716711794,0.9345260396447687,9.998215559651031,0.0023979785797046942,0.009966467430110473,0.0722452315927025
1681484414.477345,0.8779376652270069,0.12691573032747727,9.715503160942657,0.007820685458255669,0.01165996339917906,0.0785904738545891
1681484414.4874244,0.8625666537435779,0.375378151519061,9.773109635832293,0.013080985178164193,0.011373566795161601,0.0839161488652702
1681484414.4973552,1.0865954811125675,0.9309065100946927,9.742585818739697,0.007944869000010579,0.017955387683458602,0.0826401102781769
1681484414.5074103,0.8360502922371564,0.5848628538812062,9.798493513493895,0.0043605311129725575,0.023044636947229094,0.0759101125836845
1681484414.5174732,0.552943545170768,0.2948850965151205,9.83126757017183,0.003058440308328559,0.02474878802814832,0.0685071188450333
1681484414.527386,0.273893571329701,0.1295565964703289,9.787942162441926,0.006937787432387858,0.023781206321379547,0.0628794457257267
1681484414.537437,0.018666001156114793,0.3720899279266059,10.022118002226279,0.004492118507362072,0.02010042116423369,0.0570981528103824
1681484414.547464,0.41918114914965365,0.38140821533883484,9.870058131153238,0.001778911661693911,0.02472172598672117,0.0557352181017872
1681484414.557385,0.25389976821536886,0.5754162664503542,9.765137221188601,-0.0022312489914709083,0.027867881327299667,0.064444108629274
1681484414.5674171,0.023332529013598675,1.0170216705674562,9.729904397260423,-0.013479430831933707,0.03261857822378847,0.079154892587709
1681484414.5774236,-0.516003540764969,0.3845478986671728,9.780374670187626,-0.013406363451417493,0.029283538355001578,0.0977112713695045
1681484414.5873916,-0.879813813290969,0.013679676218933186,9.693484100215855,-0.006104297420468518,0.02184338373318828,0.1131543207407471
1681484414.597355,-0.5037460815104617,0.33639877549636293,9.602157887228374,-0.004070857698212756,0.023150258218711167,0.1247050750494476
1681484414.607483,-0.8861417835987868,0.9056289263669574,9.796034251701512,-0.007775519751928882,0.019847955489748832,0.1332134592772003
1681484414.6173851,-1.1478152466577685,0.19364522716908963,9.783617170815086,-0.009653358751517079,0.014152668956426175,0.1348311293364044
1681484414.6273563,-0.6618426345888685,-0.3262080362024365,9.488759563705507,0.008501005252880474,0.009618324513002336,0.1394261706114288
1681484414.6374154,-0.49610496523486297,1.0028992104412768,9.858175351028338,0.003325771194906083,0.010585946553179768,0.1375651198864456
1681484414.647359,-0.32477468119145936,1.3682792803786747,10.355837554322664,-0.008506176817491662,0.008108210608688963,0.1345875400543686
1681484414.6573873,0.17659672093942866,0.3098633892162345,9.806464563753899,-0.006129756444326922,0.014093580301326285,0.1297062325716492
1681484414.6674042,-0.07036046851844961,0.2619436864439626,9.718976485575705,-0.0022669917245966968,0.016362290480645407,0.1210185501218315
1681484414.6774309,-0.224603244622106,0.7130480806683663,9.918715070038582,-0.004658910721144344,0.009857538910822567,0.1168204385281082
1681484414.6874442,0.3748683993340448,0.20245638054655277,9.589310318748506,-0.0008059440977506009,0.01365036870205353,0.1170916098595138
1681484414.6974328,0.2374339786256763,0.41993607087395834,9.683503622763427,0.0011853316854739677,0.013366662396208822,0.1209987390280243
1681484414.7073598,0.3005396947575327,1.0009350320934658,9.76543299766663,-0.005487388769501098,0.01495736506741393,0.1274469483137604
1681484414.7173607,0.1236927785963416,0.7485200697661131,9.967905969826067,-0.008230711262020967,0.012710097835625551,0.1327117669821259
1681484414.7274656,0.17689009215380785,0.17522855377983873,10.077866673148264,-0.010764057891449384,0.009632361508013656,0.1356396365404602
1681484414.737456,0.287458661478556,-0.18537833266333772,9.563697255828432,-0.00010166749934626564,0.013819301310079716,0.1337438959122177
