time,ax,ay,az,wx,wy,wz
1681484293.9713004,0.008278393006511044,0.07843139825318285,9.725081417596707,0.0011978024580799123,-0.00010700628852539953,-0.0010648286010596
1681484293.9813116,0.043578719306413265,0.3364657907015218,9.809578769637078,-0.0006380164890550839,0.001354051536731524,0.001217289911025
1681484293.9912212,-0.12236435098137076,0.22999070238161679,9.846666865785272,-0.001526501041625964,0.0004137914956583733,0.0010846558975994
1681484294.0012944,-0.19201911776519393,0.05824446533018418,9.8263254702445,0.0011106293500004508,-0.0019804428528250656,0.0004617918707903
1681484294.011356,0.1010990736038032,0.18493407305960782,9.712018649299218,0.0010417178542427164,0.001846905148457068,8.589762323612886e-05
1681484294.0212853,-0.11027193354214071,0.31776205654274464,9.883226300196743,-0.00168148478412716,0.0007740110566044643,0.0002878252376344
1681484294.0312145,0.024144635818607308,0.16532793615515176,9.757255849223656,-0.0009237349039450216,0.0024232123538434187,0.0008253946976278
1681484294.0412807,-0.10579338406895267,0.19662097385985317,9.837010230137341,-0.0012705711023847878,0.0017764996406833457,0.0005355650169316
1681484294.0512493,-0.13440355370422513,0.16252063226661367,9.837047787899673,-0.001229219286395475,0.0008269316352359593,-0.0006423576309803
1681484294.0612478,-0.09548872236653837,0.22553163904678145,9.834446295038447,-0.0016810921911938617,1.295578650243068e-05,9.337439728046377e-05
1681484294.0712926,-0.14477728256482045,0.22849366061656312,9.861079064496037,-0.003196556662694823,-0.001273046851290716,-0.0013144169974598
1681484294.081237,-0.01294757342127201,0.08185758057725497,9.75050562297355,-0.0004279128256161015,-0.0004162031780223718,-0.0005905947222832
1681484294.0912256,0.13494056448452443,0.14506155679322955,9.687377738904399,0.0013490596836923151,0.0033291992066100287,0.0011319772707306
1681484294.1012745,-0.3472665790722822,0.1641368021928489,9.955630147341926,0.0014589545403050812,-0.002533279658143442,0.0007054384291645
1681484294.11135,0.1410382041855106,0.2203399989626065,9.704306806425928,-0.0007423610877661833,0.003152613034044394,-0.0020963728934053
1681484294.1213956,-0.1959893284420438,0.1701644531296524,9.88261050565595,0.0008081387044959612,-0.00040725209999761596,0.0001444151817362
1681484294.1263242,-0.06135006206336699,0.19196949421701467,9.814745617245745,0.0008256499560972792,-0.0003417037080831067,3.413646076882797e-05
1681484294.1402729,-0.0760815409405227,0.25698546152429386,9.8343037997094,-0.0009814929259870286,-0.0006035931518528359,0.0005281086155686
1681484294.150354,-0.10786456253459271,0.09391017709320024,9.804284570375067,4.603500529902833e-06,-0.0008527866119239005,-0.0011780611279878
1681484294.1602652,-0.14778847277265358,0.14858044399953568,9.846931647291022,0.001157580730446797,-0.002694969523728977,-0.0014947145286474
1681484294.1703455,0.06419103591269251,0.2347820561695625,9.750621534849026,-0.0009744004317989647,0.0006824303962186622,-0.0030671411700073
1681484294.180267,-0.04938269817738844,0.1862930305799836,9.802475651320352,-4.719228230713159e-05,0.0003925633619115235,-0.001116973584843
1681484294.190231,0.08085718534529454,0.15671612469456606,9.716417554984028,0.0018616287436313652,0.002859835875230702,0.0009926531015902
1681484294.200277,-0.1362804953904322,0.33667250301341195,9.890899971169315,-0.0006614964871298697,0.0011521437670463299,0.0021582955919679
1681484294.210293,-0.048098840899177674,0.10092355751182468,9.759798417923019,0.000811479353253957,0.0020953918777858065,0.0011837532179437
1681484294.2202165,-0.10719824032904296,0.30148057200770656,9.864704324672868,-0.0017805423163103956,0.0015515037919170455,0.0008034055895645
1681484294.230301,-0.14747770939640228,-0.01320323311977935,9.78875861163306,0.002362326515220695,-8.426425920508894e-05,0.0004912314430352
1681484294.240231,0.03974764821878795,0.22369989086538344,9.762584219738653,0.0016123758668607946,0.0023293631885387446,0.000356387925009
1681484294.2502654,-0.08233955244040868,0.2437099386724343,9.833290099353043,9.214371255502558e-05,0.002319277121934681,-0.0001886260037768
1681484294.260309,-0.2555143851316916,0.15534317979243462,9.900697027636605,0.0003894205512414095,-0.0015676839912542194,-0.0011300137307021
1681484294.270229,0.06040897064854323,0.44080477729430384,9.84191262880563,-0.004000092887467024,0.0004648134926074779,0.0001905924832921
1681484294.2803476,0.005602896440944946,0.09816655600258936,9.733234866338963,-0.0013707928469750704,0.001633073602768842,0.0017246772145394
1681484294.2903469,-0.16218854541911257,0.06345524647885968,9.805679267120079,-0.0007236985565652425,0.000910379479366502,-0.0015535738825324
1681484294.3002975,-0.20780680154989095,0.15214606417657056,9.880231276326075,-0.0005687275363480831,-0.0017200556509181417,-0.0028000620699945
1681484294.310299,0.06115072200196389,0.25004484666304616,9.759143175493717,1.130200087862437e-05,-0.00013680768486250752,0.0005400328041527
1681484294.3203647,0.040845728313970764,0.16778550551153879,9.744412106906518,-9.673646625552548e-05,0.0025115062567383434,-0.000872964276326
1681484294.3302977,-0.14286628430278553,0.2275677370316,9.855424213534999,-0.0005266587764607203,0.0009003170618104161,-0.0002500982995602
1681484294.3402424,-0.1153734205759851,0.2249663011217631,9.846585376886113,-0.0013357697604665546,-0.00016661160276568927,-0.0002448840572956
1681484294.350259,-0.0789658642917249,0.11443553269450821,9.791890929181752,0.0007735021801990275,-0.0006933690387468507,0.0008637598908048
1681484294.360303,-0.06819145790760088,0.215602229202525,9.825620961786752,-0.000980374155827355,-0.0001610454252316206,-0.0010328004177186
1681484294.370242,-0.08919769698922891,0.2950432526523013,9.854938103900498,-0.00341521723915498,-0.000568935201654911,-0.0009728041518006
1681484294.3804138,-0.03284559463542828,0.07667014794970245,9.753800496190369,-0.00014739462507460408,-0.0004817685906331689,0.0005802612827632
1681484294.3902612,-0.09177968393312891,0.18524433642687752,9.82656400454511,0.0002821284539099447,-0.0010807912204668197,0.0010656689660631
1681484294.400278,-0.04529701283723256,0.33046251530562737,9.847210608515274,-0.0031417769062908876,-0.00033089657505639656,0.0002993710764225
1681484294.4103763,0.04906489010209069,-0.11277438632351335,9.646246602490134,0.0027530969706230334,0.0023438846031603737,-0.0004303876816753
1681484294.420308,-0.18604809157995775,0.2026526011678273,9.881932358924058,0.0014961865532720853,0.0005132847910359738,-0.0025929387233678
1681484294.43027,-0.17482130723377115,0.24799508786605887,9.893868715316572,0.0011069181775175986,-0.0021678203299012543,-0.0011162252671543
1681484294.440256,0.23951807887496415,0.17928001728504744,9.639535903444187,0.0007537743832854066,0.004767903343254297,-0.0020091882947358
1681484294.45033,-0.355014168206395,0.15958247181976978,9.957517675607503,0.002229714075848858,-0.00209441546733316,-0.0002445218892294
1681484294.4603243,-0.05496716540011754,0.4149624342442951,9.88527422984814,-0.002322593674026013,-0.001883223540259698,2.334115156049448e-05
1681484294.4703662,0.10993722193427405,0.035694322045885886,9.651653507708355,0.0013270498919076335,0.0016915787624631042,0.000598535228661
1681484294.4803047,-0.17981192397007806,0.13160927320938748,9.84656683612976,0.002275156028686808,-0.0003133721721823873,7.102056001389938e-05
1681484294.4902637,-0.04093607218389597,0.34867445660284224,9.857826989249952,-0.001035887029671912,0.00010570430494352317,0.0002606324811008
1681484294.5003128,0.0017627620892117703,0.12958102135008145,9.754828477617787,0.0009556405830198866,0.0011506593391292484,0.0015499415272156
1681484294.510265,-0.0742839470715664,0.15101224316969017,9.790723370213804,0.0007336324957243653,0.001894216216207472,-0.0006177946965668
1681484294.5202875,-0.15574836710396675,0.19895997665663198,9.849747225610441,0.0009243578285919664,4.57445564326596e-05,-0.000450146155757
1681484294.5303314,-0.179336626698841,0.21198253670327002,9.870883388221285,-0.0010280650512915917,-0.0013654033253191343,-0.0028730768285218
1681484294.540305,-0.002288419236894277,0.13193203558166378,9.757944110844104,0.00153196414064867,-0.0007649119247740857,-0.000505296284658
1681484294.5504022,-0.05190096631106778,0.30124060493810834,9.842390260429099,0.0009057436491377316,-0.0014641159128680522,0.0026764837053146
1681484294.560301,-0.04576845575146086,0.11778588925725923,9.772920187122544,-0.0004767256190305745,0.0007881701238447381,-0.0026465912855688
1681484294.57024,-0.06944157410585153,0.06708507975794767,9.764801466959565,0.0017093226265402356,0.0009989984846138927,-0.0031256594269994
1681484294.5802846,-0.04188610867910929,0.3347411983539345,9.867498070470264,0.0005432727385533824,0.00017724338234221808,-0.0004177315899628
1681484294.5902908,-0.10951890563049872,0.21266738926409562,9.83419317938321,-0.0013242208833725072,9.227712792680475e-05,-0.0024260580580208
1681484294.600328,0.041619312772362076,0.12579590351472797,9.725571640498368,0.0019335312172473345,0.001300429547088782,0.0011196949304089
1681484294.6103473,-0.11351318614412792,0.18976496779443403,9.826470055957632,0.0023433214179666615,0.00029049512136152005,0.0019631166319836
1681484294.620322,-0.22222336355228614,0.15309031948273452,9.885661303186687,0.0005470038888465622,-0.0014607624155255066,-0.002796707911742
1681484294.6302776,0.05446465506894218,0.2937049514004857,9.776963071840159,-8.370143577674573e-05,0.00027149342580648023,-9.812069450667324e-06
1681484294.640328,-0.08222644707524376,0.21269683430749833,9.833122808058873,0.0004527500704036709,-0.0007090143629151306,0.001474333938901
1681484294.6503282,-0.11348071503019379,0.11215968080248373,9.803714102237644,2.9201704964550725e-05,-0.0003029604741195204,-0.0020639400504056
1681484294.660416,2.612408696122595e-05,0.2110136961090529,9.775187673437083,-0.00015040847414911498,0.0012847547476803314,-0.0020915234967592
1681484294.670371,-0.1813817536436033,0.19639803585420207,9.887624531784407,0.0004832860052981397,-0.0015725445766252256,-0.0006460996850851
1681484294.680307,0.17108387298500163,0.17739155311754845,9.678586172224053,0.000490732741327895,0.003254330701156551,-0.0005041591397944
1681484294.6902874,-0.2046314233375054,0.20144998255227411,9.885370529842039,0.0012007754339839532,-9.246565769422966e-05,0.0010071938700516
1681484294.7002952,-0.015101820442274495,0.279370787593487,9.81653163297213,-0.0014527657455070497,0.0015820387708024156,-0.0003950120921704
1681484294.710325,-0.19580654932849098,0.20679028788922538,9.884227045852917,-0.0005985268889017904,-0.0018631045873472032,0.0017373404657941
1681484294.720374,0.10579476216255565,0.13354997739670418,9.707975160844244,0.0004489912891636504,0.0018655481878864703,0.0014710015962431
1681484294.730351,-0.1788273147937628,0.11518351841433948,9.840848324983384,0.0019477035211535295,-0.00024222733057146863,0.0013219635252848
1681484294.7404325,0.0006816373990981775,0.20800975000080754,9.777303194662188,0.0006483326274379777,0.0017314238306116389,-0.0001212058163705
1681484294.7504177,-0.1963793974760565,0.29898562692042996,9.9241820521797,-0.001752242026914155,-0.0014156965496018425,0.0002744140761446
1681484294.7602687,-0.00024088607829960977,-0.03696444479737953,9.697029028693171,0.00182926072284162,0.0007181233230769118,-0.0018948197870973
1681484294.770302,0.017792492587794712,0.25105802428352675,9.796227771081158,0.002172699638162148,0.0015157424149391207,0.0006413411424968
1681484294.780443,-0.09390621292108672,0.24022103022795266,9.827345273441773,0.0005395423313732449,0.0014035959001851652,-0.0003074872115153
1681484294.7903163,-0.17451944917997497,0.2973739739649749,9.902098520535345,-0.0010548706924447093,-0.0011590258645820834,0.0006942512077752
1681484294.800321,-0.04433980284665492,0.09712156488811713,9.767718579139817,-0.00019435889878524667,0.00019995568407341394,-0.0018575701437417
1681484294.810408,-0.050154528243815215,0.2243802979153128,9.810108289460675,0.00031415937622234565,-7.164799755886185e-06,0.0001622793457012
1681484294.8203807,-0.029252718910622408,0.2603871620200707,9.808455531640835,-0.00036496338092283694,0.0001820852466280385,0.0016438304551651
1681484294.83034,0.07880529044431535,0.0012551184838428496,9.672920599296411,0.0029840828713732018,0.00366970159782957,0.0003057387616958
1681484294.8403814,-0.36387579626503525,0.30178529950945826,10.010458160817192,-0.0007795589891701055,-0.0019681564769965065,-0.0019253639079157
1681484294.850359,-0.02319240006739497,0.21429688585387974,9.814031781764664,-0.001558146737558027,-0.0010577179886109033,-0.0026890540070358
1681484294.8603463,0.04396164864718952,0.03772008203371392,9.690629373824182,0.0017603135972823131,0.0013015559877555772,-0.00189777976307
1681484294.87034,-0.12598676089012129,0.1778093742697402,9.840278091776861,0.0031498600148708437,-0.0007533381604435664,0.0005411675042946
1681484294.880297,-0.09415257738116938,0.22448116753276756,9.844185524082988,0.0018873613871909969,-0.0009887395777593677,-0.0005719508084926
1681484294.890344,0.019990733551274478,0.19349930926567208,9.75214873411405,0.002742679421131793,0.000504323187613394,0.0012120853021282
1681484294.9003952,-0.01660379016148192,0.15875593767748286,9.771360825547609,0.0032381324065477333,0.001788067688269399,0.0007266805001076
1681484294.910347,-0.2038409718996374,0.3002769052712061,9.921993713515365,0.001234311412872339,-0.0012271916711713536,0.0010451837111272
1681484294.9203477,0.11429198662331015,0.266810417708225,9.750953567139062,0.000331317162614347,0.002043235142469735,0.0018140792631551
1681484294.930386,-0.2102977834662922,0.03033603849713585,9.828193105557327,0.0025187985271749157,-9.953834912355547e-05,-0.0005674783646587
1681484294.9403565,-0.01988907536103371,0.3344825976741969,9.825319565658573,-5.6138334760883094e-05,0.000699897925151352,0.0007706512656536
1681484294.9503713,-0.2056890668665883,0.07909412130576486,9.852221247583998,0.0020479178761591875,-0.002117912607122883,0.0008283619495582
1681484294.9603548,0.015407621411052338,0.4015793466096828,9.838557704397804,-0.0022846005463430727,-0.0005443606523145082,0.0010325012222405
1681484294.9703796,-0.16450412513520765,-0.024596075577099592,9.79765171056392,0.0003175153100553643,-0.0016414481459442933,-0.0022550560574505
1681484294.9803495,-0.055285941900073195,0.16159777730598882,9.79573445410819,0.001304352431580325,-0.0017435280857256393,-0.0016340517945114
1681484294.9903162,0.08215426295098288,0.27420394089309774,9.760158802901755,-2.854724028692491e-05,0.001217712418532322,-0.0010961073025587
1681484295.0003216,-0.15732926995937566,0.16994088140044697,9.858047379935854,0.00035773354038645954,-0.0009381079194204314,-0.0011136338620904
1681484295.010407,0.0624411176949886,0.11588633071756092,9.725134830074554,0.0014097599280332362,0.0017880763406962516,-0.0016951207112047
1681484295.020352,-0.10887438471810272,0.3476129582271256,9.879038380310444,-0.001982086741056732,0.0010437399029913292,-0.0019328154198352
1681484295.030361,-0.05983601935500513,0.1706863136378454,9.80214247295414,-0.0013182338066399662,0.0009215451578753701,-0.0009411501273039
1681484295.0403752,-0.24870398159910462,0.17673613182095224,9.905813819616364,-0.0012165460088575152,-0.002863711334357655,-0.0010130484628949
1681484295.0504217,0.12937234156078128,0.18193020324072962,9.690686395391365,-0.0005601873882836767,0.0012713558865673404,-1.2414570424465563e-06
1681484295.0603158,-0.0492810293792057,0.20395684805056796,9.807345037609785,-4.6444965177067146e-05,0.0009889762870836964,0.0015156898912632
1681484295.0704343,-0.15017944314317175,0.1556695983211856,9.844951120167035,0.0005354418083515822,-0.0005607425837470567,0.0010626889957588
1681484295.0803795,-0.19642611714990657,0.17110539424071677,9.87976165414233,8.580600753187188e-05,-0.0027929259075870874,-0.0001133931841227
1681484295.0903714,0.06800961040047185,0.16536570582999688,9.735544105445872,0.0011668845806854344,-0.000434083831976515,0.0012396572961246
1681484295.100335,-0.01745133282683461,0.15735679426532787,9.76700253011248,0.001695485352921739,0.0008794641267657236,0.0007866153569434
1681484295.1102846,-0.12687553503605228,0.30342560251868733,9.884513068268287,0.00011300103257313231,-0.0009936201673156116,0.0024648893118378
1681484295.1203792,-0.11789568012276189,0.11176171900271967,9.812766768916395,0.0004955854145542791,-0.0014462416323199941,0.0001257850049536
1681484295.130405,-0.039797945526374556,0.13636410004586333,9.774409638098103,0.0006490888875815623,-0.00025264412709944246,-0.00195105211283
1681484295.1403396,-0.006714239862702865,0.2212880698303353,9.78440805238239,0.0011877665528427592,0.00023385111148042483,0.000402945788252
1681484295.1503174,-0.12616987201564367,0.11860279505466893,9.817888315466394,0.0008331072034428626,0.0003046488468212444,-0.0030936107545617
1681484295.1603389,-0.025389646654212113,0.33339569662320984,9.835222753650577,-0.00010343525481828831,-0.0002235974743955237,0.0011193292116753
1681484295.1703503,-0.059684423839095765,0.17118507828459875,9.801289085990584,-0.00044654626577454547,0.0003858523558703454,-0.0001521324779364
1681484295.1803606,-0.12853203265640212,0.19222849020942093,9.830419704440137,0.0003406139603725787,-0.0011981498750733895,0.0013048228534411
1681484295.1903365,-0.09970781964675382,0.13099925584081856,9.814706598452801,0.0011750818942700798,-0.001503985903377674,0.000940128050885
1681484295.200337,-0.011599757572924307,0.0035153516078427786,9.712169694983016,0.004015245355943643,0.0003225221533675299,-0.0007526436861131
1681484295.210349,-0.17821134252364434,0.36074376596717433,9.921924885129858,0.000925490839110396,-0.0022568732938434014,0.0001537111780148
1681484295.220381,-0.029556929162040144,0.07618829331748478,9.761373407130197,0.002056494063445461,-0.0005775110849905764,-0.0022457372437689
1681484295.230404,-0.015399243672662133,0.2411733145052085,9.80022764684429,0.0027493783627227653,-0.0005253308513789882,0.0005612573545899
1681484295.2404697,0.0514599996218446,0.19624597575801697,9.73678540107334,0.0017052040580306108,0.002588620822237498,-0.0008874733507159
1681484295.2503386,-0.2946939910337765,0.21573351576115518,9.932540394326445,0.00048626014068786313,-0.0014246323830933696,-0.0019752946722779
1681484295.2603538,0.09443573816224306,0.1854794710886786,9.713206654985083,0.0012846046500477322,0.0015973141369489117,-0.0003339266445014
1681484295.270345,-0.14954786970633657,0.3395590140182488,9.906430649260791,-0.0019131783680742824,-0.00011518655013869594,-0.0004996960091862
1681484295.280371,-0.0921955537581799,0.21600808346510897,9.832205266050883,-0.0018416573313650283,-0.0010815428455054053,0.0007773340289954
1681484295.2905302,-0.07171783832314996,-0.0013307972447266353,9.743702757979033,0.0018128553534400241,-0.0008151588262724072,-0.0003249767509747
1681484295.3004754,-0.13314392622603294,0.2292097065714595,9.856593652668337,-4.903318048047001e-05,-0.0016608176304711948,-0.0020456898532334
1681484295.3104064,0.04688362661817568,0.32183963199742327,9.801989785517367,-0.001412132643488351,-0.0003346190218183477,0.0008768033545006
1681484295.3304384,-0.04022169289018456,0.16056685291960904,9.785585324306238,-0.00031393998912593134,0.0009126145767234623,0.0005035145982641
1681484295.3404903,-0.0669070509850915,0.16537078530168667,9.802174440325714,0.0003525296613725207,0.0006842527903350203,0.0011703637388076
1681484295.3504434,-0.02946856854195006,0.2580461652121643,9.814431520792265,-0.0018360696798841683,0.0018770767871893464,-0.0002925944322246
1681484295.360424,-0.14364280285315403,0.24782295547013417,9.88307103121705,-0.0025245081283929603,-4.2568760262572816e-05,0.0006104342715356
1681484295.3703616,-0.049979897587055816,0.13161900918275893,9.769309767269636,-0.001961226248961861,0.0008567336449920597,-0.0006058681796762
1681484295.3804042,-0.11133160394269766,0.0456974931251261,9.787475123735431,-1.9218813888668403e-05,0.0007538828346503059,-0.0024558592162552
1681484295.390427,-0.09819645201440862,0.21936494793096076,9.842225447337341,2.1734127131980506e-05,-0.00019305767804172176,-0.0015945555682752
1681484295.4003918,-0.1530084612183387,0.2139417846396935,9.858893710384056,-0.000674160410989457,-0.0016488964977020913,-0.001723078782064
1681484295.4103923,-0.05145710761675023,0.14637767625757248,9.780678977486584,0.00025010757435971307,-0.0011132155919108128,-0.001662728380737
1681484295.4204028,-0.1259127033041154,0.33637797736905306,9.891019332418146,-0.001894920414437257,-0.002906582145425405,0.0001280243700843
1681484295.4304006,-0.049424569015932965,0.08667230338807456,9.762646872767585,-0.00027778139766473854,-0.0019581023986824757,-0.0013136714737388
1681484295.4404123,0.05749452177106046,0.4139074755720124,9.827345488118816,-0.005298367337760159,0.0006670777110737597,-0.001375889176828
1681484295.4504185,-0.06791542075319598,-0.06356905747778845,9.725076444760672,0.0011024462942477856,-0.0001416529054906646,0.0008615207002971
1681484295.4603975,-0.14786748871807162,0.234370354123483,9.877294156882325,-0.00036793322622046237,-0.0014618946540916008,-0.0001148718915406
1681484295.4704318,0.021849946939441225,0.22350372458042478,9.78079619324558,-0.001324589211700105,0.00048344052453108954,-0.00061370106819
1681484295.4803605,-0.18648026938113343,0.2348791983407287,9.884166078020892,-0.0011889838294690189,-0.0024937990731831346,0.0014028034161551
1681484295.4903555,0.04414657144768348,0.08516075184952088,9.711957164885945,0.0003592556719189845,0.0003336955405159591,0.0004074095009368
1681484295.5004237,-0.044505258697078456,0.2265388996974277,9.826020890511721,-0.0015078997468345953,0.001185674023168997,-0.0015278616960618
1681484295.510439,0.06396167438491573,0.1652829587071067,9.714075965517338,0.00033537621954024267,0.003357891962217836,0.0006085801247049
1681484295.5204246,-0.3019912339680257,0.07427715399923585,9.896902739344577,0.0009064843530289791,-0.0002619650517267953,-0.0029777574859086
1681484295.53045,0.09988702147439492,0.24477475802377435,9.729766027283638,0.0018799238848024092,0.0019795223522329026,0.000925605763356
1681484295.5403328,-0.06971858192730053,0.28015551403639377,9.832222876426053,0.0003428420359429643,0.001827913626630863,0.0019843310542878
1681484295.550419,-0.26959326202176737,0.202481554635636,9.929561216663233,-0.0011133729054189363,-0.0018858376665258178,-4.4827586365094605e-05
1681484295.5604498,-0.008766346150543487,-0.037364404012415184,9.718131222540176,0.0032325609751346802,-0.0005708072146823997,-0.0004039611707899
1681484295.5704312,0.04713540210583025,0.4498350551992369,9.837339735088792,-0.0017634225394897835,0.0017373795250947648,0.0006853147602182
1681484295.5804808,-0.017858246513579656,0.10950464921086761,9.76345239624374,-0.0005974157515171981,0.0029913199902780914,-0.0001081650884348
1681484295.590423,-0.3881177968405975,0.048932098224495534,9.945510455412032,0.001970832936442642,-0.0034958885981336437,-0.0011918437707695
1681484295.6003757,0.13581600133033525,0.33625377510956594,9.746787340254704,-7.84902619749578e-05,0.00013364652272041246,0.0008238860714722
1681484295.610394,-0.09406171996534426,0.3553100994551662,9.88525363016749,-0.003908805923389943,-0.0002832079096969996,2.9646438221284923e-05
1681484295.6204412,-0.1805212477137253,0.16940740546208344,9.85590728246046,-0.002012256546863258,-0.0034899413806940218,0.002874309658679
1681484295.630426,-0.04015906341548946,0.13290132062425686,9.780442679995014,-0.0015890830690359526,-0.00245878234786907,0.0014225517220861
1681484295.640391,0.0835241075805628,0.08270907146177067,9.691714243346615,-0.00011948411031801244,0.0012732339038315672,0.0001086587977137
1681484295.6503544,-0.018043757517721967,0.1295005219045259,9.767340900287548,0.001153070356865999,0.0023420237657935756,5.1647304232070026e-05
1681484295.660415,-0.07218633043437185,0.3218111684368309,9.863998349129067,-0.0015089910283887411,0.002196335033701142,0.0003567206399988
1681484295.6703775,-0.16004178652183848,0.1532807744272939,9.848385206126267,-0.00021854660400611733,-0.00015953209994579943,0.0012325637758717
1681484295.6804,-0.17108685375621066,0.10213853400248767,9.836944202478163,0.000656529065212763,-0.001816167428599668,-0.0003786194178733
1681484295.690401,0.053159741550506096,0.2278618482529814,9.764451931002938,0.00048068815353107365,0.00037430292398519583,0.001098446631246
1681484295.7003603,-0.08167188476526584,0.2584021413093254,9.8388882951884,-0.0011558414259817552,0.0002666367603585281,0.0004860039294239
1681484295.710366,-0.11411740319312955,0.18090040729962328,9.821438362744288,-0.0008503590602062445,-0.00042887075169743285,0.0003105578903582
1681484295.720546,-0.07120259851885738,0.1598130707642828,9.808238501757875,-0.00032472337828603836,-0.0005413732403052484,0.0002438694896649
1681484295.730548,-0.10914351993543067,0.21564351929866682,9.840162279588755,-0.001574921238512922,-0.0008442416113455962,-0.0007582316215608
1681484295.7404156,-0.07348266499687252,0.10785404736509044,9.787984733612301,0.0005227876383871503,-0.0011094659457209649,5.388981257642227e-05
1681484295.7504673,-0.034707421808189955,0.1297922450732399,9.779595766360275,0.00048441564376056187,0.0002033265446763239,-0.0020993261172894
1681484295.7603862,0.10184496119692425,0.33358691774850036,9.761378245949299,0.00016218725305439346,0.002146799626611098,0.0027304791106384
1681484295.7703629,-0.30426336591590064,0.13990457560988753,9.926672586463846,-0.0013569940787263328,-0.001350879233080393,-0.002201037252647
1681484295.780365,0.08007618001877863,0.41470403987893456,9.814934666905058,-0.00299424943102717,-0.0003029523153888956,0.0036093087360736
1681484295.7904654,-0.10225788123131345,-0.10067402204261194,9.729809711153631,0.0015051439978702845,-7.164666169617639e-06,0.0003992181696471
1681484295.8003683,-0.014126180337730809,0.31949377938355034,9.826105226408664,-0.0011107633158923124,0.0009129777735611166,0.000905482036202
1681484295.810439,-0.06289147564442459,0.12731240345572792,9.78035514987046,0.00044640338866907154,0.0010713088388037478,0.0012899271201117
1681484295.82035,-0.08364458291233307,0.2476356237156616,9.825170767316813,-0.0016624670286527533,0.0014199829640834604,-0.0003045036032322
1681484295.830407,-0.22455331967345055,0.057848165731305634,9.848525193918269,0.00019681225680793672,-0.0014075090103013597,-0.0012674829963121
1681484295.8403678,0.09411476861498053,0.19317006225125277,9.734213646011963,0.0007891427934671891,0.001419235331195459,-6.534986137335581e-05
1681484295.8504202,-0.010199968680736759,0.2964392082047229,9.815348077939804,-0.0004156128475369909,0.0019415415828400256,0.0017622673145037
1681484295.8604198,-0.21578155328247686,0.24415915986461928,9.900573736052348,-0.0024574689474520933,-0.00044527630533878413,0.0001391917426612
1681484295.870419,-0.17669307026677109,0.01026202046687023,9.803880754672596,0.001083810355896475,-0.0025768597980257743,-0.0004803345113519
1681484295.8804312,0.05063870800582055,0.32226633245066755,9.797494203019696,-0.0007747377696207255,-0.0007730878402699599,0.0013763602433268
1681484295.890419,0.04582133384751434,0.10745234550336032,9.722560593689163,-0.0001127530643757529,0.0022496075960444398,-0.0007519072427872
1681484295.9004157,-0.16493512694922352,0.3061198950805051,9.904045309362019,-0.0011819072294196723,-0.0007622837162199445,0.0019262160599705
1681484295.9104776,0.034894064822918125,0.02235657387066775,9.695361987127608,0.0014853710898971994,0.0019225478795800324,0.0003630912356551
1681484295.9204676,-0.1805711221933563,0.292571593011635,9.907259013534107,3.4397641955773224e-05,-0.0009723817974131919,0.0017738459824126
1681484295.9305253,-0.2221140177002082,0.05324594689887163,9.849566455867276,0.000798452399522923,-0.0028760351848671883,-0.0022815028246018
1681484295.9404106,0.25723898401300765,0.2932525887633566,9.667006892552468,0.0012477482890916993,0.002375140916460787,0.0025275014300372
1681484295.95046,-0.1713629788449451,0.22537408284389301,9.8799848506068,-0.0006786290070696661,0.0005944649699341863,0.0002203993458774
1681484295.960564,-0.06984804656845188,0.19327271583023956,9.81070892150449,-0.0006637312387791469,0.0004253347344401568,0.0008633863722447
1681484295.9703891,-0.12928400174662927,0.27857911590208617,9.882272345238794,-0.0035795175095785893,-0.00019268178315570692,-0.0012689554173025
1681484295.9803782,-0.024787648116155633,-0.07485809429640279,9.6948469484151,0.0022908054876356714,0.0006592991872160818,-0.0005648755508932
1681484295.990369,-0.06769880243702694,0.3341449880230179,9.86000241012353,0.0004590772386483921,-4.9256586701116764e-05,0.0017794268456295
1681484296.0003984,-0.0374418319433185,0.166529486865208,9.781151337846616,0.0002620202894485154,0.0010608749755539007,0.0004096428124707
1681484296.0104249,-0.07468277764899978,0.2185028499653435,9.824124474718223,-0.0010817101387749942,0.001444204712880201,-0.0010238459839943
1681484296.02044,-0.05302677562597675,-0.04683097721402123,9.713949049740535,0.00442201420654228,0.0016465149207382614,-0.0002877758856389
1681484296.0304756,-0.18851626314851927,0.3279368796202766,9.92183839303424,0.002753491021997036,-0.0018183884162921303,0.0022804788855377
1681484296.0405293,-0.01900775104138567,0.38072434361704194,9.840392890351204,-0.0013268237927247313,-0.0006833124866389797,0.0021523425198633
1681484296.0504336,-0.21452488776233378,0.045060133145142275,9.848249758882677,0.0009795081557761173,-0.0034947775997343595,0.0009915400255944
1681484296.060381,0.08716387790539039,0.11641939779398151,9.691368053222762,0.0015580410367009468,0.000514738051219405,-0.0005194500594857
1681484296.0704446,-0.0530994668537469,0.38525006115238664,9.872507869015239,-0.0014523560415167821,-9.955307789037262e-05,0.0019701750093613
1681484296.0804267,-0.07242883403181886,0.15232228947732915,9.796993280077647,-0.002416127922414097,0.00110332011293529,-0.0015144653193179
1681484296.0904405,-0.14375238555902095,0.08107127066095764,9.809421634019722,0.001045450790134712,-0.00107819231833845,0.0002956665080514
1681484296.1004226,-0.02906001882244986,0.201667992376092,9.792010652218487,0.0013922712450777442,-0.0004650142028256717,0.0007717356161687
1681484296.1104991,-0.04546285032183234,0.22562909378864046,9.808152975793423,0.0007053266303474136,-1.2756353819038778e-05,0.0008332184475388
1681484296.1204205,-0.06281439665362044,0.1875600429492531,9.810251493105204,0.0006565094536299791,-4.105448695894795e-05,0.0009148023050751
1681484296.1305127,0.0028254347484981727,0.2281904216939635,9.782318341339934,-0.00020405442198891084,0.0015779468261788241,0.0006950041238691
1681484296.1403878,-0.13764800616550618,0.03440120216539881,9.80084866078531,0.0017107576655003565,0.0009599180977150598,-0.001906754685891
1681484296.1504123,0.006536054654687559,0.3668852618684162,9.827851458258381,-0.000680490462321927,0.001673309733924946,0.0006834480987403
1681484296.1604333,-0.2701117075416909,0.10207752017332412,9.89524531289132,-0.0001514808885514107,-0.0020068962942119055,-0.0013293160631779
1681484296.1714654,0.004072731326692699,0.15191097403885193,9.77687175871481,0.0009776402199900064,-0.0005797231613884318,-0.0012361779849502
1681484296.1804535,0.06108097858154246,0.348406152600269,9.796576782886152,-0.0014106804558884885,0.0014993374378534194,-1.093489522968811e-05
1681484296.1904757,-0.2001077771361291,0.0809769615799712,9.843427862496174,-0.0006718915616164057,-0.0002485473683895653,-0.0027341081335667
1681484296.2004302,-0.01742533507359878,0.270324784882946,9.804500045106828,-0.00017497246060183252,-0.0007097494451607344,0.0015220191121865
1681484296.2104104,0.029463062329649167,0.32712960871328045,9.797842143529541,-0.0022719274887357203,0.0007833508880658626,0.0031820014078643
1681484296.220517,-0.20191823376913673,0.10437420443924887,9.856289836758304,-0.0013808374999849465,-0.001419797748949495,0.001252681784123
1681484296.2304614,-0.08149923512027406,0.12776485714072913,9.789215299816588,-0.0015086204600473893,-0.0007280020171345179,-0.0012838663573834
1681484296.240499,0.007751458074349644,0.0731342794567928,9.724404450971443,0.0008006926744966154,0.0009926968404186038,-0.0017107913776758
1681484296.250489,-0.027489156649890364,0.3244710261517809,9.832320949452688,-0.0009181549760203184,0.0013060008349360251,6.0961926962086735e-05
1681484296.260568,-0.14197790472706756,0.10961087519185515,9.823779256521899,0.0003629561344246176,-9.320688538593166e-05,-0.0007086778100106
1681484296.270476,-0.0351932891984084,0.39408732464873153,9.864954697162977,-0.0025230181021274538,-0.00040354542810990506,0.0020476544118959
1681484296.2804625,-0.014241140732891481,0.0065836615632012705,9.735209419549568,7.42457635259799e-05,0.0015608149545906958,-0.0007366235408458
1681484296.2904136,-0.24327738264075968,0.09471699526784931,9.8692920956586,0.00047585708081506893,-0.0011787859228834575,-0.0032370386220041
1681484296.3004,0.03312187273030136,0.23773207078143255,9.764916066482055,0.0009958958721368045,-4.703745032385914e-05,-0.0002292484318364
1681484296.3104467,-0.10161533620686429,0.44205575520479623,9.918489148667488,-0.0038499583324147347,-0.00120262627942487,0.0005538074142772
1681484296.320481,0.05053091578268305,0.09390240311321392,9.720660943371659,-0.00150154802981608,0.0009297428712283473,0.0013882756934858
1681484296.3305702,-0.20951914706354274,-0.013755082442178929,9.808804030552725,0.001356880467479514,-0.0010588185271882685,-0.0016340441111001
1681484296.3404417,-0.058231403583062974,0.299573596576939,9.847583151211845,-0.0011267583707930062,-0.0009306787985619891,-0.0017245831008527
1681484296.350525,0.1433516467385142,0.07255024913091995,9.661955744388532,0.0020110540023395894,0.002982731736045576,-0.0005425582680377
1681484296.3604765,-0.14859704274932287,0.2884474442054489,9.890533942450121,0.0010141302183858459,0.00044249112182235455,0.0015663581103094
1681484296.3704286,-0.1607002055926994,0.14413862299956567,9.852561878130519,0.0007433089318347209,-0.0009992119017048233,-0.0005723475519094
1681484296.3804567,-0.01056796782362145,0.230482533793128,9.795203149282512,-0.0007009855789862476,0.0005419499589327304,-0.0014958295545998
1681484296.3903866,-0.08225617757147334,0.19078265272002887,9.825995328362904,0.00032087208539219916,-0.0006535014845752102,0.0008667393081363
1681484296.4004564,0.0479053377909984,0.2624253640576367,9.77172750335915,-0.0014073295339768566,0.0019512056138939827,0.0008804927888799
1681484296.4104474,-0.13321764638747585,0.11385343848171482,9.818644477295896,-0.00010791950023574441,0.0007580060299741845,0.0002438591287013
1681484296.4204285,0.03723351176779227,0.10941942528874808,9.727765758454813,0.001420209187401857,0.003172004717670772,-8.29378082340044e-06
1681484296.430492,-0.29676105479264725,0.1962427887848895,9.940240528127212,-0.0001954705067997487,-0.0008248621339302459,-0.0029095846734467
1681484296.4404285,0.11448961425852006,0.31276370394973624,9.746744542785304,-0.0010839224656674065,0.0021348772536371246,0.0002412692370366
1681484296.450524,-0.23985654165706952,0.09747542251177066,9.87505272605345,0.0006188934380229836,-0.0012644521444043415,-0.0003831002436104
1681484296.4604475,-0.054481433999444016,0.21970301853820823,9.806532236822255,5.676429212507517e-05,-0.0008434889638328235,-0.0002452496014062
1681484296.470457,-0.01302707789601356,0.2021020030864468,9.786282751573443,0.0007295369918227918,-0.0003383450318468759,0.0017898725887302
1681484296.480498,-0.07481844643632737,0.20479105484852403,9.81331143862243,-0.00011276209998041387,-7.0492840906066e-05,0.0007851546356927
1681484296.4904618,-0.17750484514989834,0.1310301413230408,9.850252919927144,0.0001584473876477759,-0.0018586457599330732,-0.0009281090501222
1681484296.500475,-0.06711751313260315,0.25367543651706165,9.838454438978184,-0.0010485527515102734,-0.002001319695928826,-0.0009616327046874
1681484296.5105286,0.0046684623987925215,0.15581074562039612,9.760225075535548,-0.00041114969792100086,-0.0004456167451681109,-0.0014265426475081
1681484296.5205746,-0.021640718316061576,0.08299157850543737,9.75133040826251,0.0025512006539490624,-1.8361044324142344e-05,0.0002844433725353
1681484296.5305004,-0.16552297056266477,0.34397665360681084,9.909688724457295,-0.0009155637558767788,-0.0017830157308292155,-8.91763524610309e-05
1681484296.540491,-0.022574723544419313,0.048723540733070614,9.748173212306577,0.0013583781470452325,-0.0005749011597586376,-0.001397108430368
1681484296.550522,-0.009016245174737203,0.1976807170466469,9.78678212036326,0.0018568235543020243,6.359547871079501e-05,-0.0001625433837521
1681484296.5604756,-0.1488795871664154,0.42047826934564264,9.92720688087148,-0.004072354614885268,-0.0009604625692835226,-0.0018169649451497
1681484296.5705793,-0.08702633609707783,0.009768310826158458,9.767473182985116,0.0002687169372142688,-0.0018243502574792013,-0.0010555109515312
1681484296.580488,-0.10083570759350133,0.12942280036434722,9.8244753002511,0.0016891762512499557,-0.0028596205891803085,-0.0008759475353631
1681484296.5905144,0.0035768384039621477,0.41007581023941664,9.845293248643381,-0.002098694083929718,-0.0019636869588053143,0.0008220297127504
1681484296.6005776,0.12297561036461431,0.05934521695932603,9.658595007464179,0.0012316792036551772,0.0018659251221554332,0.0019519164884936
1681484296.611261,-0.25881875039004953,0.31490664936707047,9.95096912704059,-0.0031205619809949736,-0.001419801026688421,-0.001087535409582
1681484296.6204205,-0.06209414291095115,0.04099670085631996,9.752027931110343,0.0009903145550859635,-0.0020147164758453975,0.0009479502291891
1681484296.6305811,-0.08180591630436851,0.26802078688346076,9.850848764215684,-0.001913183342022582,-0.0016626928038580432,-0.0009668492752585
1681484296.6406162,0.09484313671923827,0.05151911706834547,9.682366086492488,0.001878418720451279,0.0012452697258852287,0.0005396458978306
1681484296.651163,-0.10060237851569091,0.21866453983999923,9.840858688480179,0.0005022902755026326,0.0009088791123411483,-0.000395397892547
1681484296.660539,-0.00724162399333444,0.48420917550433384,9.881176239019627,-0.0027968033235156,0.0005240592787691918,0.0042694278486546
1681484296.6705074,-0.14052190769883555,0.09435303041261893,9.81253026550401,-0.0023598424979964423,0.0002647620727198656,0.001257867460978
1681484296.6804912,-0.16483880537902645,0.03759131497931896,9.798850137701871,-0.0009047551116967417,-0.0005566725676668899,-0.0017454398370805
1681484296.6905296,-0.012486605508791956,0.262371382172426,9.800636955162991,-0.0014113833988921038,0.00012768904054916776,5.015590754414517e-05
1681484296.700498,-0.12076255855006089,-0.043128112533477356,9.745408690555571,0.002220036776912149,0.00015900764633159192,-0.0022453486494246
1681484296.7105217,0.035245506435440124,0.275153612035654,9.791947239231394,0.0018184221307188748,0.0012795566729247112,-0.0001040853134814
1681484296.7204814,-0.06426093478411547,0.3915966934063798,9.866365897693823,-0.0009379044937067241,0.0005959571920105066,0.002917510686117
1681484296.7305455,-0.0804248206994501,0.08184702930616916,9.77200947498285,-0.0008328617078505542,0.0017857963328017602,-0.0011605767108026
1681484296.7405012,-0.17504774358037237,0.2911910132277029,9.906547905278577,-0.002867978148334315,-0.00048103191603933557,-0.0010715331922743
1681484296.7506225,-0.002252608731461583,0.02035793772924407,9.71476663079592,0.0012168153186884174,0.00045326729468440593,-0.0001517572713542
1681484296.7605064,-0.05292190653489561,0.39242777798914824,9.87231932687615,-0.0032371447102431798,0.0008623093471110733,-0.0006677128880742
1681484296.770601,-0.06855537079057973,0.07062411849803801,9.765320703658965,0.0002840065462816608,0.0005121327880116755,0.0010071972460959
1681484296.7805276,-0.17096710638933466,0.21965027956705566,9.869825619450292,-9.747258832152563e-05,-0.0017114872513483911,0.0014352160210787
1681484296.790548,0.13920489742799863,0.19163014374883802,9.689653549536647,3.588488332347649e-05,0.0027432154742746185,0.0016199911292882
1681484296.8004582,-0.17260917046217308,0.11398438954460403,9.848384310902132,0.0021395571402963954,0.00019474111580657541,0.0024272797705147
1681484296.8105168,-0.2118721793381047,0.33986543702361904,9.94240876608792,-0.002634396455800575,-0.0018612425751704997,-0.0002486138877916
1681484296.8205123,-2.4872418437421514e-05,0.04050374849686026,9.732308008790753,0.0015114804014559969,-0.001029020567583857,0.0012415015913088
1681484296.8305533,-0.036501174869286036,0.15877844009094816,9.786769754825302,0.0013434799362681226,6.807540790583151e-05,-0.0002240288344669
1681484296.84049,-0.06130778619382512,0.280535132109987,9.838000618077617,-0.00033068134642033587,0.00023981685984589865,0.0002628611360218
1681484296.8504925,-0.03926161268102365,0.17776699752286632,9.79921621470811,4.519442458191068e-05,0.0006220368328410539,0.0012512067146839
1681484296.8605502,-0.019537565923360513,0.0447730070326907,9.72581651460598,0.0011467831390378012,0.0029469992520500085,-0.0024044141213867
1681484296.8704965,-0.2025149855885505,0.29950004055802615,9.920505057374502,0.0004147554611299503,-0.0009630921841940323,0.000780693658768
1681484296.8805022,0.047558814354496756,0.2849923309089175,9.793105079107006,-0.0015626235191514147,0.0013227629311239359,0.0007870144868742
1681484296.890446,-0.28017693648772346,-0.07485718515329255,9.827894726074218,0.0024744527366152382,-0.001966668261651398,-0.0017514037940177
1681484296.9004548,0.0669265776975508,0.40404911842638996,9.822565759827794,-0.00032173531284083274,-0.0001371790021609253,0.0015071131688695
1681484296.9105587,-0.16565492541077245,0.19240037354923858,9.878400510042649,-0.0008518448262488441,-0.002155930268278127,0.0003027371090378
1681484296.9205885,-0.08990002892029801,0.05267259651078479,9.773022793241854,0.00150738078725131,-0.0022829437759766657,-0.0004728748503599
1681484296.930513,-0.007376937066130694,0.20868043837760827,9.78079888379523,0.0011274042876572698,-0.0008230086676840869,-0.0006818580481681
1681484296.9405236,0.007479506105357786,0.21263573895903673,9.772769785615804,0.0008502388952127159,0.0006507132270181453,-0.0004363717784631
1681484296.9504535,-0.12898971456282118,0.2613879324894201,9.866806582483708,0.0009441190772334402,-0.0017017767883272447,0.0026239521062474
1681484296.9605296,-0.09576198409473657,0.2623259765234498,9.854580733488467,-0.002550580865840925,-0.0011784160696736018,-0.000697888205153
1681484296.970551,0.05346109752167005,0.0057429392631655135,9.690952393949523,0.0004184504751838799,0.00189162816573137,-0.0024461497127536
1681484296.9805317,-0.1877880657294049,0.4114912303786962,9.953502916110013,-0.002857923751310439,-0.001473075240651483,2.8931648145267544e-05
1681484296.9904575,0.0461179047359068,-0.11368434584787267,9.651680957367113,0.0025791209245978057,0.0014162754484774477,-0.0015923364594105
1681484297.0004945,-0.16575521156961295,0.35353158863619966,9.915632590179092,0.00018416029823859753,-0.0012979822494702821,0.000289323037165
1681484297.0105746,-0.012354665633381948,0.14317860903746524,9.769500140313784,-0.0005929691825911825,0.001023218170917432,-0.003155863615078
1681484297.0205116,0.06909593159878892,0.43569661042842905,9.8155912214012,-0.0026925182631544137,0.0020223629316424387,0.0024436591152575
1681484297.030586,-0.15688816501192165,-0.02356048722059245,9.78873200111246,0.00012155414984452718,0.0013000408011135285,-0.0008718555368009
1681484297.0404382,-0.03537943257699311,0.17548424551740743,9.774350049185177,0.0011158139185587176,0.0018755968324645294,5.832255878562647e-05
1681484297.050554,-0.1991326865871094,0.3134446553152657,9.923260274361375,-0.002419826479182535,-0.0002847227128448493,-0.0015308642800424
1681484297.0605285,-0.044018109739322527,-0.15434022440191436,9.67258423688349,0.004949529557009801,0.0003147364475443225,-0.0012030471156809
1681484297.0705197,0.024786581288403064,0.39257969040220736,9.828281743029883,0.0009295817798096104,0.002090159555295682,-0.0004829559515688
1681484297.0804973,-0.13897873687157783,0.35686622203309276,9.895178462419354,-0.0015805273129769737,-0.0001066420633657213,0.0013629556301988
1681484297.0905118,-0.012969263200402158,-0.06401004004183096,9.70206614650774,0.0035820132974215555,0.001158080334630903,0.0008901989745449
1681484297.100554,-0.08541220140193603,0.2578659306418306,9.84197706118467,0.0019894202866643043,0.0007103355630444683,0.0008812751580503
1681484297.110539,-0.20268448271648354,0.176634542315938,9.877268036537194,0.0014950962071327695,-0.0016801706943488804,-0.0005726951680604
1681484297.120593,0.01377777390721803,0.20072774839563864,9.768516741331064,0.0018527213065994005,-0.00019789930561584765,0.0003787327982958
1681484297.1305428,0.018046708578196537,0.25014349173017936,9.779458929215034,0.0001994270273854129,0.0020272197694942615,-0.0005469953216138
1681484297.1406243,-0.18458079831973245,0.28620553265419246,9.902142804481093,-0.0020275442407530655,-0.00045010279147588756,-0.0006170463788781
1681484297.1505225,-0.010507837029592643,0.18905198528491413,9.780504468964159,-0.000723713963090537,-0.00014126938985718312,0.0019254672766205
1681484297.1605537,-0.06038052138036334,0.08253692409784938,9.782959148183062,0.0003864462443053698,0.0004987238774152655,0.0001876390265774
1681484297.170599,-0.0525720959084721,0.1824538038020392,9.798731380622685,0.000765679104428752,0.0007416112500671676,0.0004610480932992
1681484297.180467,-0.11504818554899082,0.18945610857459996,9.83794489711507,0.00029592439267641377,5.056690693398975e-05,-0.0004359968047115
1681484297.19055,-0.02220814936687446,0.1556194861477864,9.77356117093716,0.0008051514153993457,0.0008921133156995189,-0.0005723568651351
1681484297.2005072,0.0435313013299295,0.3766194263868038,9.810169712895851,-0.002094609969639951,0.0026307079164464256,0.0013797385795864
1681484297.210479,-0.2669480901816646,0.26568157440284085,9.948041410067537,-0.00312985862110662,-0.0020545914495406254,0.0024280169705402
1681484297.2205842,-0.04837440676886946,0.135911645459778,9.777371683751394,-0.003129487202387565,-0.000846497208850179,0.0001585460227456
1681484297.2305906,-0.0501052248895018,0.06745453226173166,9.757453849479777,-0.00037836277840499024,-0.000587938929296577,0.0006316734903034
1681484297.2405283,-0.0901673505818183,0.1312191854145997,9.802703661766744,-0.0009945190511718599,9.563518787107852e-05,-0.0024517572059754
1681484297.2505212,0.003003709883372435,0.2820324553826386,9.79678482275063,-0.0017682353681730684,0.0010303385057857024,-7.538218456243557e-05
1681484297.260548,-0.0727266024835873,0.08911395864696874,9.777387452445932,0.0004438008644739967,0.000786701309707114,0.0002554310445215
1681484297.270517,-0.08481730067114435,0.10855832039017826,9.797938233973024,0.002401066173122873,0.0004804638922260818,0.0001641174272176
1681484297.2804778,0.0008807075508261524,0.25667632342248803,9.796923217975369,0.0010461764009043388,0.0019072627793654347,4.046852295363861e-05
1681484297.2905433,-0.19464996980130297,0.19777530167414883,9.882855090603638,-4.352221142655447e-06,-0.0001919423720657854,-0.0014515090774271
1681484297.3004775,-0.10956864913374877,0.2399603111121349,9.842837764137995,-0.0007091890949808772,-0.0011672236709476533,-0.0008167175150934
1681484297.310534,-0.021407574178806017,0.18075181694443085,9.787203009417684,-0.0007561047672194346,3.345071372556359e-05,-0.0011110082309219
1681484297.3205435,-0.1006572251268895,0.20071566274760308,9.821974297909087,0.0004710008306088001,-0.0014037718456517457,0.0010891375673476
1681484297.3304875,-0.011269650394969789,0.29484987526693635,9.809061323976335,-0.00281358936436653,0.0005676216148230784,-0.0010801141656461
1681484297.3405862,-0.012028391962549182,0.13832180128985147,9.768032540581526,-0.0028001962925390785,0.0024272651469422445,-0.0032873607746783
1681484297.3505485,-0.062388684218330465,0.20523464433218078,9.805405523808869,-0.0015905912972810864,0.0017783539860496294,-0.0007165144238147
1681484297.3605258,-0.09232252810417338,0.15049468128377372,9.815311692854422,-0.00043313839264019424,0.0010657087905259343,-9.141746382152124e-05
1681484297.3705473,-0.06896098328555855,0.17620803406338972,9.809277571031242,0.0005797880732593512,0.0006011796525602301,0.0012955373345416
1681484297.3805609,-0.1320869195512297,0.19102868429920297,9.848912923808255,-0.000507625270097765,-2.313742083575829e-06,-0.0005015586543354
1681484297.390528,-0.08207761656649061,0.18237141467624468,9.809458347634296,0.0010350153817027836,-0.0010573154699511699,0.0021683445043403
1681484297.4005697,-0.04280666457902678,0.06560481826373663,9.757941283832272,0.0018333480814485,0.000536362462139545,-0.0008923276368055
1681484297.4105766,-0.07377234657596562,0.33109012212193195,9.868571896980825,-0.0002584147020624795,-0.00018784592540697722,0.000600009628712
1681484297.420514,0.02244901769191681,0.21354319944312766,9.765835909450233,-0.0010578803308702025,0.0020149104022766456,0.0001391792862218
1681484297.4305174,-0.18432067556655687,-0.046609539831197935,9.793406040678338,0.004449241031696618,-0.0008386486332826629,0.0012702082126874
1681484297.4405382,-0.049219308108529605,0.40198052211727653,9.880053281255249,-0.00027665547416979853,-0.0004493466844329246,0.0011252907529946
1681484297.4505608,-0.11533382886563777,0.07966225534914714,9.789154211116164,0.0011642776641384329,-0.0006866649239734915,-0.0002944360062006
1681484297.460659,0.0010880496864183924,0.33502331166879695,9.82914980238793,-0.0006983716676920143,-3.175160860014112e-05,0.0018908229499597
1681484297.4705477,-0.0873758600854667,0.20725079128189383,9.826244383407198,-0.002229468438038757,0.0003679671626162038,-0.0003454658476162
1681484297.4805317,-0.10874291913643794,0.02789780573503915,9.787785767643806,0.0007205996417106028,-0.0003711214401774523,-0.0007515209767494
1681484297.4905682,-0.13095105939851331,0.33280950435693674,9.888981002005371,-0.0025688257196697668,-0.001568821710132334,-0.0013390097341958
1681484297.500527,0.09612731946958188,0.09258843638268387,9.694759489514752,0.0002672444051106904,0.0012884841730565622,0.0002326782519471
1681484297.5104997,-0.13035257991723992,0.08765290876414294,9.808709077859524,0.0024159795451547325,9.043861040451245e-05,0.000236048126268
1681484297.520506,-0.056307494005758664,0.32291528740220693,9.843217231300587,-2.4096609333386314e-05,0.0002469031755436527,0.0007572262507405
1681484297.5305252,-0.07145611213157008,0.17626278319045235,9.802873954578708,-0.0005676056482372632,0.0006458793929377192,-0.0007761088240418
1681484297.540501,-0.03477947211490209,0.1609743449860861,9.777706658537234,-6.0608551221335835e-05,0.0015056747123897683,-0.0006755334365639
1681484297.5505276,-0.06395242319690767,0.16687854402464783,9.797828972678364,0.0009344286056000234,0.001304146132582002,0.0002330838429283
1681484297.5605905,-0.15535813409557522,0.21861446693800365,9.876124014883231,-0.0002487306411422694,-0.00020758295337202148,-0.0011505039914969
1681484297.5706422,0.032603745308795465,0.1744925048461475,9.750305519338518,0.0023321416626261937,0.0005259557903004644,0.0032505481463399
1681484297.5805418,0.06816364753652403,0.3356725622119376,9.796309169927044,-0.0010775808821793286,0.0034603318333721526,0.0029029849643361
1681484297.5905929,-0.17717161231425418,-0.011188871961031556,9.801937677734395,0.0016034844813478208,0.0022600466883609107,1.550896153862196e-05
1681484297.600542,-0.18828063886016458,0.2978796825389375,9.91245064886221,-0.00016751558798529088,-0.0006460505701443291,0.0010563638602856
1681484297.6105218,0.05210616737116038,0.225999885895861,9.73865380291272,-0.0017362873711602007,0.002688452263897819,-0.0008524679619345
1681484297.620547,-0.06812918634696337,0.12638803981592178,9.780774626901898,-0.0006331545254967768,0.0030453198409635352,-0.0013937810476395
1681484297.630595,-0.11140070993240739,0.34556409238727254,9.889950837022898,-0.0026068317928188726,0.0011372416346820656,0.0012150673388045
1681484297.640525,-0.1284563736591893,-0.02461584326974821,9.764533894412548,0.0005175414903157401,0.0007799999409681626,-0.0013684346381101
1681484297.6504903,0.07325598593914115,0.1805109108205976,9.730313628885142,0.0005753064173407199,0.0036778973638395863,-0.0012205238494548
1681484297.6607158,-0.26483036432139373,0.10138183616665895,9.901425731405746,0.0026815979884350764,-0.0009209693755853906,-0.0008796586229923
1681484297.6705875,-0.08476994826050795,0.15955782984717382,9.802442443856684,0.0028935715617297354,-0.0009705358959915545,-0.001376988137466
1681484297.6805966,0.10261144563336885,0.3224081792304349,9.767360982677884,0.002018471950465222,0.001417014827853155,0.0024012142053347
1681484297.6906257,-0.19043928507970567,0.09296334281925138,9.847650444802051,0.0021414246595111703,0.00011279451308281684,-0.0010655645787242
1681484297.7006032,-0.055327794199208205,0.21242367905568338,9.812738384293414,0.0017759559095698613,0.0004048607264613005,-0.000928117664856
1681484297.7106216,-0.0007449703512139423,0.29052630113316263,9.819284225593858,0.00017073536360808864,0.0012382099602300778,0.0002483618405189
1681484297.7206435,-0.12324549014929584,0.2917263723279259,9.8787917101397,-0.002483542300449407,0.0004495510444368829,-0.000585369071317
1681484297.7305264,0.008104546721043394,0.20294249033554615,9.779614589584028,-0.001682592896011952,0.001480710031986278,0.0009296964813497
1681484297.7405715,-0.2779573091889777,0.13098783096024103,9.906791442259701,-0.0023397450354543567,-0.0019677700727893732,-0.0022449840366367
1681484297.75067,0.0547808949210404,0.0841344234396357,9.695144185159732,0.0011609109176359434,-2.280004092909645e-05,4.010169827456194e-05
1681484297.7606027,-0.058617288273893405,0.24935694724426907,9.827432398321651,-0.0006168004896750606,0.00041973435067269385,-0.0006829998496446
1681484297.77072,-0.06769453693914373,0.21357638329328457,9.819977795895788,-0.0007479145864233941,0.0001749963999785033,-0.0001756148453328
1681484297.780561,-0.022961244263587526,0.2416751941662852,9.804849311303737,-0.0020070690320492246,0.0012299973667030326,-0.0006971408187869
1681484297.790634,-0.1944325790319423,0.07124676062495824,9.850089001725559,0.000515700380463453,-0.00172006082050049,-0.0004129051271352
1681484297.8005674,-0.08751741156718779,0.28200434273699937,9.845667099131497,-0.0010038498793356208,-0.002291878883756463,9.039847240860182e-05
1681484297.8105524,0.07888614742645793,0.20807403840110486,9.728177920372957,-0.0009181487427639417,0.0006350718612456033,0.0010548631794758
1681484297.82054,-0.09809537438870472,0.1628266153239435,9.82622582622417,-0.00044913596770644,0.0001388683961771692,0.0002583913697403
1681484297.8306062,-0.001841450755794977,0.1962676704497867,9.769810126050235,-0.0002941831157228572,0.0016584075023565255,0.0003720002674039
1681484297.8406632,-0.18961717335612766,0.09209155409544843,9.842455788772007,0.0014157424711315916,-0.0006535096386939295,-5.265709883456511e-05
1681484297.850694,-0.15706212069879366,0.2447199923807596,9.871916948893649,-2.705773526405111e-05,-0.0024345700441742012,-0.0002053937682408
1681484297.860572,-0.016718801950027368,0.15863652224330396,9.756391809919082,0.0009221434872999861,-0.0015315512780594465,0.0004055536078762
1681484297.8705451,-0.06938857437234873,0.1331726079466585,9.793896822247646,0.0012373228984032193,-0.0009843108265843513,-0.0015531925059381
1681484297.8805804,0.05056736596597747,0.2135249372379146,9.751171729177008,0.0012123261311006,0.0013231281554013062,-0.0005686325061592
1681484297.89072,-0.1566044027903466,0.22319249501343888,9.874069572146796,0.0012238860062015993,-0.0009832082927273475,0.0005511988961611
1681484297.900601,0.025468457690092424,0.22886944180740404,9.776008398823125,-0.0004148743100742222,0.0013607569529046563,-0.0005477576091412
1681484297.9105866,-0.21034765715627377,0.2200342218275704,9.891738296023673,-0.0007780864627304944,-0.0016913732319543508,-0.0003674475050989
1681484297.9205873,-0.02995402857255811,0.18722297948515337,9.78533819471658,0.0003264623861804634,-0.0015010044596712288,0.0013249448052615
1681484297.9306698,-0.04527098727221766,0.1588686440465662,9.796315604023999,0.00017559973623536027,-0.0005886919470080049,-9.58712812039761e-05
1681484297.940624,-0.06420081334096686,0.0885157619838285,9.781209141751692,0.0023869148028022296,-0.0006888951075453671,0.0002174107317354
1681484297.9506292,-0.06753511067176857,0.36873277737870214,9.869106508932882,-0.0010384860605664058,-0.00043147767354973,0.0005821264890495
1681484297.960596,-0.08201455490063149,0.020738010162601902,9.755061592214606,0.0006848284815778303,0.00041530005259393107,-0.0026272002182427
1681484297.9706748,-0.007751368168603968,0.3731353510728754,9.850569118647412,-0.001439704516984121,0.000524807472351136,0.0005553203477997
1681484297.9806778,-0.06015660125305332,0.1848089206233457,9.797275179269997,-0.001359218139696836,0.0008004726487580359,0.0004826516338166
1681484297.990644,-0.09390725420266335,0.008044664189500174,9.765211742365215,0.0020099086848323674,0.0007103286324929726,-0.0005172074347261
1681484298.0006936,-0.15798355391602548,0.18136169887494644,9.859750735737135,0.0018266315307895722,-0.0010986682825912819,-0.0014444328885052
1681484298.0107112,-0.02165885155159069,0.2770050740121354,9.811590479559257,0.0007444284851595112,-0.000818895217225453,0.0006022432312842
1681484298.0206952,-0.10469393971559411,0.19051384381205821,9.824914626540593,-0.0009520828489576945,-0.0004780358895907135,-0.0023910272906992
1681484298.030702,0.05089412335977177,0.1819054729776924,9.741291807733122,0.00025531700582719004,0.0013577868809818811,-0.0004877599462393
1681484298.0407777,-0.05363468327384465,0.2628007020136769,9.842382461393235,-0.0012288515355416588,0.0012456449525346934,-3.73887637156753e-05
1681484298.0506663,-0.15834794690194628,0.08309782462223836,9.823337633410466,0.0009575216139854336,-0.0007328474307881984,-0.0002486130728844
1681484298.060712,0.059768464903339626,0.23154096410528635,9.764498128042035,0.0007526484361240201,0.0013816184170735723,0.0010057063732769
1681484298.070583,-0.07100756515556755,0.2588880057208344,9.836684890523498,-0.0014333626190695065,0.0019072545698714989,-0.000503428284404
1681484298.0806785,-0.09021061662127705,0.09983434928743531,9.791032068812953,0.0009019831874461161,0.0011733999985409113,0.0005038868944633
1681484298.0906012,-0.09603183523727722,0.2823497125461914,9.862171352458567,-4.8678418818424505e-05,-0.000120049159956978,0.0024809131823953
1681484298.100663,-0.13354447774665099,0.14875938492867494,9.83923555352119,-0.0008399299579244066,-0.0005327988727697393,-0.0008032994850996
1681484298.1105871,0.006765423167250477,0.2532288117039655,9.789593624856861,-0.0016769986392056342,0.000655934965700337,0.0002554043854128
1681484298.120669,-0.08860048208342494,0.06304800453875381,9.775667824995597,0.00026014685345204097,0.0008280378076698505,-0.0012212991754982
1681484298.1307518,-0.058463430455712846,0.19108230541904314,9.805680817495249,0.0010152425611487294,0.0005762281151667268,0.0001507169759374
1681484298.140648,-0.162060884171018,0.24780520398391712,9.883599189439044,-0.0002829981951083569,-0.0014119616561821934,-0.0001979434204745
1681484298.1507316,-0.003626734251881461,0.03376105272058375,9.718475070476973,0.0021752963875922102,0.0005546298648473444,-0.0018706093582782
1681484298.1606667,-0.0900068230759479,0.30032734914626524,9.862854350193157,0.0005112301442536705,-0.00035845554308206926,-0.000575319402245
1681484298.1706078,-0.033889995548325905,0.2096289518052082,9.809011147121577,0.0011374400270302441,-0.00039942637031036005,0.0010284185660079
1681484298.1807263,-0.10852667914565894,-0.009543687174773373,9.755920924580245,0.003482526810417939,3.569410869577333e-05,-0.0019994881044599
1681484298.1906126,-0.18584487626434293,0.4378311211402145,9.959622620271052,-0.0018144343741111997,-0.0023723211117148884,-0.0020792351610485
1681484298.2006917,0.09330408199723395,0.32891229576489783,9.771811177479385,-0.0011912296536538052,-0.0013758438843524945,0.0042515329510446
1681484298.2106972,-0.14170006382335246,0.05241526149823309,9.81505470198518,-0.0016416112632096009,-0.0009999796447171135,-0.001728673702431
1681484298.220672,0.06350922024977289,0.01894117155741082,9.668521864836633,0.003100668611032398,0.0013060250034225773,3.749783677125889e-05
1681484298.230667,-0.193450952101661,0.2769108903714847,9.898021834432978,0.0005134787692929836,-0.0009086845230748779,-0.0010823281522366
1681484298.2407334,0.02934331340586317,0.17697036338103447,9.762360566458275,0.0008993986587494369,0.0011704367560808218,-0.0015814940019968
1681484298.2506258,-0.08267142525709822,0.49594168394614147,9.924796201606515,-0.004109615063969372,0.00012843462202016383,0.000966564224242
1681484298.2606778,-0.1566287760964547,-0.003616433854349776,9.789641576436747,-0.0015056432880541635,-0.0007373329301094576,-0.0015330943319473
1681484298.270613,0.03589244643521627,0.16658215584799865,9.759819618790992,0.00016477127670265284,0.000629124980603193,0.0005862214562025
1681484298.280584,-0.1505490196593299,0.24924592410837654,9.869968191262627,-0.0007114032956112702,-0.0011057566779366173,0.0009963707084775
1681484298.290618,0.008242229044934648,0.10055094737376756,9.73637846655154,0.00013983064254744266,0.0012177000596527532,-0.0007496716029468
1681484298.3006496,-0.1766506533862362,0.21609373685053299,9.88421311919381,-6.20576748575378e-06,-0.0014272652000381864,0.0002688313793864
1681484298.310696,0.04791689118748038,0.16676222139193814,9.738036186147443,0.00017037978489652767,0.001233729599210602,-0.0002977749140459
1681484298.3207407,-0.15137612539484835,0.2290661335843859,9.877784742936155,-0.0009368075615506106,-0.00046573889861182345,-0.0005466337356243
1681484298.3306386,-0.02344837175362663,0.17553255689171215,9.778730633513186,-0.0002923143953241655,8.18637216781493e-05,4.492920884008127e-05
1681484298.3406436,-0.04571922528501639,0.14797179285345627,9.780494200489926,4.930586946470078e-05,0.0009930694710519484,-0.0009474763687226
1681484298.35065,-0.030752310855158452,0.27786314680526597,9.823668700845603,-0.0006048761572504826,0.0009632691380236944,0.0011397976445973
1681484298.3606172,-0.11957701429587168,0.22508302921902174,9.84178433869254,-0.001854339124209045,0.00022453889362871712,0.0002930551959675
1681484298.3706412,-0.03436185280549448,0.04887029348073205,9.751126782300803,0.0011717199867010797,0.0008898779500898304,0.0003336289624225
1681484298.3807385,-0.114729721918295,0.28606626035549176,9.88140000018336,-0.0019519255969076596,0.000462211224394386,-0.0015502357895944
1681484298.3906188,-0.1014397663476963,0.1478551566422298,9.829768877314455,0.00016851122151475105,-0.0012301805523727738,0.0005757951253567
1681484298.4006443,-0.0012539703768866459,0.22351823372957363,9.78692306491569,-0.00017348407144760034,-5.8946115511180896e-05,0.0015842400785426
1681484298.410715,-0.05844174741107478,0.16135049319866715,9.79629173304797,-0.0007676470839899616,0.000828782001031151,-0.0004862865939263
1681484298.420669,-0.043177990203891126,0.0917241914593688,9.762312093787878,0.0016310463684586023,0.0010839775037138123,0.0003396032803233
1681484298.43067,-0.1823395803698545,0.25927100925149704,9.898206861555822,-0.0002081224362927252,-0.0011650015444353743,-0.0003041214117306
1681484298.440646,0.00910020601530035,0.24238486725000682,9.791155492363124,-0.001324227022200445,0.0005192342788332179,-0.0004393218591335
1681484298.450666,-0.12308944122663953,-0.06289711388773558,9.757188003196447,0.0033331461901128243,-0.0002381598281205287,-0.0012365637853268
1681484298.4606605,-0.10569091690511222,0.31661352524643577,9.877356733972096,0.0010156447506974625,-0.0013445231797564899,-7.16553808647899e-05
1681484298.4706316,0.0014603122787069512,0.35044125335602627,9.833569421982993,-0.0020472984642069935,-0.00016549555453549124,0.0006838350632701
1681484298.4807515,-0.17555417032687012,0.12023239424495387,9.841087395691154,-0.001837934058917327,-0.0015933753417901695,-0.0015822604804757
1681484298.4906695,0.03461302048320433,0.18128763542623672,9.753263926771787,-1.3658642658059526e-05,-0.0005406236315170382,0.0011710835347425
1681484298.5006146,-0.08213275299486679,0.2884174085349718,9.845906584521517,-0.002129621230719244,-0.00068405944216307,0.0009457086521674
1681484298.5106645,-0.04877083313772337,0.0895756718460703,9.768696422447178,0.00019533425787070303,-0.0003145012154472143,0.0010448147327646
1681484298.520614,-0.13677770776457265,0.14715124608514077,9.835110324134815,-0.0011126270580969811,-0.0005819823923156541,-0.0029092168010297
1681484298.53074,-0.012706979114748223,0.11666808148803633,9.756471867590298,0.0015949129049023137,-0.00014052330138708904,-0.0006684637669
1681484298.540749,-0.12538401137604932,0.20606178441910922,9.846954403283545,0.0020512733998390674,-0.001755053534319222,0.0004491166869651
1681484298.5507877,0.025066740392399735,0.29094204651948297,9.797642181358773,-7.252878043947615e-05,0.00014520820981167977,0.0005113597685944
1681484298.560678,-0.10007618450458257,0.16407640284443153,9.821616660289884,-0.00014181406270238932,-2.8396555548680783e-05,-0.0005980418104205
1681484298.5706403,-0.029904853221870583,0.17936921698242791,9.791994999968203,-0.00034558334860272297,0.0010612568352931899,-0.0013278196606311
1681484298.5806646,-0.012307068159136604,0.2629713453178881,9.806347050076324,-0.0009043941388940444,0.0015827890093057166,0.0006126776529949
1681484298.5906088,-0.10147597089713371,0.08297176214762676,9.791473093581045,0.0009496847580818769,0.0012009642465316093,-0.0001860149245235
1681484298.600654,-0.14094629955359653,0.35279688624291805,9.905128691970527,-0.002252923908916224,-0.0006866597891555075,0.0007039403385956
1681484298.6107423,-0.14920351268705861,0.26100484634389626,9.879457172757037,-0.002943587378093086,-0.0029229651460151137,0.0018509691831663
1681484298.620827,0.055662644600197715,-0.09294984427615889,9.644662648731321,0.0012160397654274533,0.0010653443630287609,-0.0019421426154199
1681484298.630725,-0.10631774495974827,0.31781086973576794,9.872886955652774,-0.00011611084138457247,-0.0005544050327656955,0.0005892025033485
1681484298.640626,-0.07796809260217719,0.16767734458059538,9.797695969815878,-2.0363672136310467e-05,-0.0003096585611870228,-0.0002061415038529
1681484298.6506145,-0.07076046598153805,0.2861421353304018,9.838085943481847,-0.0016155400390226405,-0.0004564413273664653,0.000404806920002
1681484298.660618,-0.19620522684430683,0.12359379512111972,9.861333658016816,-0.0003977312018094038,-0.003045138482506079,0.0001011913368951
1681484298.6707077,0.08801206352237778,0.15681387960717455,9.70828518934026,4.7794606925709434e-05,0.0004730398961324466,-0.0006699278059873
1681484298.6806805,-0.04221053187714263,0.019722392718079816,9.736911262576514,0.004606820279818385,0.00041454863808533385,0.0008339883602697
1681484298.6906035,-0.1048559748042676,0.34790135417207924,9.90687378675222,0.00038009909730796226,-0.00022174332503149564,-0.0007370014249805
1681484298.7006652,-0.08182886410465989,0.2910192175656557,9.858386380186374,-0.0019526718913491286,-0.00043185809997392115,-0.0011538595467332
1681484298.7106087,-0.059559871670995725,0.07568475560069347,9.761484561903897,0.0011262951937653187,-0.0006017244478372881,0.0001537377207082
1681484298.7206705,-0.0734524261577045,0.36069637701037777,9.86492733196178,-0.0022056295961630193,-0.0007328611795987645,0.0005724442267332
1681484298.7307134,-0.10096139209024402,0.1136452856908947,9.799656388158878,-0.0014270163790339582,-0.0008691935625319586,-0.0010845691471818
1681484298.7406116,-0.07661741507204448,0.07913326258860938,9.775893111045281,0.0013393715476670797,-0.0012134210314195038,-0.0005026727489653
1681484298.750613,-0.02801386687436199,0.13862620293371716,9.768183369331831,0.0016772586708543962,9.008600719299628e-05,-0.0016563807188991
1681484298.7606945,0.021737595270653103,0.31230185608666594,9.809801071478834,-0.0003835753273077976,0.0016584314795331655,-0.0008178066968444
1681484298.7706535,-0.06388456657844849,0.13408269870529274,9.796010820707933,0.0010625850553629826,0.001412901899138432,-0.000340266972174
1681484298.780681,-0.1563557533498922,0.29771203446487243,9.894882998098437,-0.00018539617482404004,-0.00112549739985866,0.001028415801144
1681484298.7906094,-0.06263902685383411,0.18728795273705162,9.803623965451422,-5.6871841947756825e-05,-0.0009988370722443561,0.0012720503396362
1681484298.8007066,-0.12229146049915521,0.15329683590276427,9.833187904575098,-0.0002826115508306126,-0.001664177821857286,-0.0003346656489643
1681484298.81071,0.04321783736935246,0.12334809409072721,9.728673597162915,0.0010331342536425818,0.0009066520988929027,-0.0003354145487297
1681484298.8206964,-0.03024013300652004,0.30414743749783013,9.823243227312696,-0.0006845920905737589,0.0012743437049290024,0.0010537719604566
1681484298.8306844,-0.13250157178554128,0.09698043591788875,9.829520203479822,0.0007284070814627796,0.0002256628686059913,0.0001883407781373
1681484298.8406649,0.006109162095892299,0.19874234291423792,9.776748000277538,0.0013501676621811808,0.001159224828438409,0.0016892747330952
1681484298.85067,-0.12593196824566122,0.1359483286107841,9.82300666720974,0.0006948834681104097,0.0009998076731628988,-0.0020885160233352
1681484298.8606503,-0.2498630703605638,0.21636750421444667,9.930647988371032,-0.0006275489524338593,-0.002504608084773113,-0.0034035600296679
1681484298.870751,0.22004229108493162,0.3431526935905143,9.697204659733853,-0.002254395719729739,0.0027685502184034753,-0.0001334955490652
1681484298.88069,-0.14130916333730634,0.21443238422059538,9.864241804869012,-0.0033295247425920048,0.001495606590067992,-0.0008823110296848
1681484298.8907075,-0.15424679148116227,-0.004325956955184668,9.794170396256408,-0.00046365655594819715,0.00014559087681970811,-0.0025098535738412
1681484298.9007254,-0.06411646270279092,0.23229651632476483,9.819629826624457,0.00043599269753795167,-0.0007205589656019648,0.0008764247136663
1681484298.9107046,0.04072646951969327,0.30698928604765896,9.785432576484428,-0.001519055155771792,0.0012836428419896624,0.0019217574695598
1681484298.9207006,-0.2392657712465547,-0.03196994097373399,9.821060731972965,0.0018959265473959856,-0.0012592444087200984,-0.0009206519502673
1681484298.9307494,-0.024196914646950424,0.10376368825341108,9.75648975665353,0.004358354536124576,-0.0006170016686947594,0.0003295990132268
1681484298.9406571,-0.04291531083894549,0.45646256319248335,9.891048020082966,-0.0019899608641599474,8.74611221071387e-05,-0.0009511930442873
1681484298.950698,-0.05873559719889586,0.11935466224426011,9.77803210581006,-0.00013288125345281814,-6.117582684223843e-05,-0.0001994356320697
1681484298.960776,0.006605041432918861,0.21088191785107507,9.776291110112538,0.0008055268544446894,0.0005851556825287994,0.0022384038853001
1681484298.970672,-0.15521273144086245,0.11490101262894543,9.81391246506652,0.000701595027132505,-4.6644863905123026e-05,-0.0005347067530724
1681484298.9806793,-0.014842862361461599,0.1796616918991907,9.773003327765041,0.00017671748337428782,0.00161034412517998,-0.0013986153102937
1681484298.9907055,-0.09504602217391574,0.2724441110431407,9.85218592497481,4.966792196481702e-05,-0.00010402258370667546,0.0015190308945843
1681484299.0006158,0.016052325256343227,0.22605818973334324,9.777213618609094,-0.0008462859696624209,0.001626749451668116,0.0013484329934239
1681484299.0106444,-0.15474786894232231,0.2333279049519432,9.87951216977356,-0.0026455746602041773,0.0002465199648961521,-0.0003044958034056
1681484299.020722,0.03594707165193181,-0.10579165022517358,9.652328564966364,0.003008270401989633,0.0029104749263293814,-0.0015804572071406
1681484299.0306938,-0.38420370632743917,0.3707594803950056,10.045039700291118,-0.00012318204720709967,-0.004274853054693474,-0.0002016825641963
1681484299.0407186,0.09753683878215393,0.19830298206374428,9.722367559115384,-0.00028819432459788815,-0.0007138686361067316,-0.0001487836747888
1681484299.0507429,-0.0936236295420472,-6.482723985007658e-05,9.767679312550108,0.0040241781239266075,-0.00142760567187093,0.0001968982356142
1681484299.0607357,-0.0909986781418491,0.3836794111662101,9.897009798046154,-0.000604497718241602,-0.0019219578470912422,-0.0004035842179778
1681484299.0706518,-0.05926605397400121,0.27643690518250386,9.831470815807645,-0.002132210369402179,-0.0018452367206072704,-0.000111525300284
1681484299.0806272,0.02065863030182987,0.09358303200581032,9.727084621375075,-0.0008235585743655264,0.00038211954587781825,-0.0015692324418101
1681484299.0906942,-0.04477207215712567,0.13659519432116107,9.782661682099066,0.0007958549308133835,0.0005058095346431023,-0.0006665757432106
1681484299.1007764,0.02631981841798968,0.3547801908288824,9.817992405629697,-0.0013883014283676443,0.0016580343982919373,0.0016568709648221
1681484299.1106508,-0.23621258699874348,0.1007462911833888,9.868176707102053,-0.00035117800106501695,-0.0012771174459618557,-2.2490396489551487e-05
1681484299.1207066,0.07992459029986554,0.3119915005918312,9.767443445544254,-0.0026262406331144434,0.001693026257542322,0.0009051140473697
1681484299.1308837,-0.15153554325255017,0.05136327818608425,9.810934866900753,0.000263129984356957,-0.0001327060540723264,0.0005504655960489
1681484299.140681,-0.182782019113466,0.18107888973505087,9.87493806528102,-0.0005463996995352651,-0.0017379462983276848,-0.0017297877970609
1681484299.15064,0.032408821390464464,0.1670881426556735,9.743108299451952,0.001170235881683014,-0.00041023416534675293,0.0006421036628548
1681484299.1607864,-0.10860867658302041,0.18781477010879355,9.826047322980703,0.0007105360999882889,-0.0010219389952512551,3.1894418085763035e-05
1681484299.170731,-0.023511755360083552,0.21573668356482809,9.798099575660132,0.0002147157564997069,-0.0001304855602799195,0.000250569540682
1681484299.18073,-0.05834587218067869,0.1538226239480828,9.792417352660161,0.00036409318778155995,0.00042385689180155926,-0.0007351178250733
1681484299.1907146,-0.14538148517731778,0.1395514456241479,9.842947175562745,0.00223940418188524,-0.0018038604789155706,0.0007032135577414
1681484299.2006977,-0.12319260526905132,0.1688618624022044,9.838707992654031,0.0003257240304367151,-0.0016138603558891193,-0.0033681679091874
1681484299.2107315,-0.14797453300417818,0.3309579736474183,9.903097236344895,-0.0009017456185244783,-0.004139256649293043,-0.0006788817740503
1681484299.2207916,-0.018523039263802207,0.19449028188891512,9.78457963062178,-0.0022741491367704912,-0.002252018126852467,-0.0026890572666648
1681484299.2307534,0.0757568472088926,0.23645373259345626,9.735826674897847,-0.0006398831167690643,-0.0006438296879509743,0.0022115833085503
1681484299.2407217,0.06888715113338607,0.14780861890949007,9.731929538403218,0.0003454577704282539,0.0020916592972604776,0.0021784321248073
1681484299.2506888,-0.2690923705499794,0.13628480867269574,9.8908960347765,-0.0005806445126313127,-0.0006870364953755712,-0.001176211288524
1681484299.2606933,0.07089313097241468,0.2135843755003729,9.736155677629293,-0.00015745554781253617,0.0019165758379645133,0.0006037578528288
1681484299.2708156,-0.04770024276628199,0.267236372711412,9.833158246774017,-0.0014531107424294051,0.001976920472847926,0.0013286818535074
1681484299.2806978,-0.23938746853666693,0.03610304703033222,9.84673422640523,0.0005600339706241599,-0.0006952242176959194,-0.0012734383385155
1681484299.2906778,-0.08278360579392989,0.12397323428638543,9.79006852898201,0.0009560511099470926,-0.000182991443421677,-0.0030448033980551
1681484299.3006904,-0.05270563730506426,0.2418121001801168,9.824382784302344,0.0009914377758441376,-0.0005842118667543942,-0.0008565725333515
1681484299.310686,0.016394413084941276,0.2296633377785919,9.773654175843735,0.000990298129340165,0.0006656224432830519,0.0008767729118939
1681484299.320829,-0.17158840629118022,0.11598679478614045,9.844595662161655,0.0012652314747395779,-0.0007581689258103418,-0.0014373494818333
1681484299.3308065,-0.07513872697486992,0.5360172143784724,9.926409418808486,-0.005194417253179317,-0.001106506996403101,-0.000105943767679
1681484299.3406758,-0.06957929772122706,-0.06458945584742612,9.72764924502002,-0.0007590850976825056,-0.0005793710733990073,-0.0014623107894781
1681484299.3507578,0.011866980713433945,0.26780764289475084,9.80469961784701,-0.0004998143715791136,-0.00021541126946967342,0.002258136573388
1681484299.3606894,-0.0316252022452929,0.10442869667621216,9.765793639160146,0.0005443774809318743,0.0010254968756800377,0.0007248244906317
1681484299.3707004,-0.19605798112108677,0.2509612779262175,9.90047766638715,-0.001702349409285739,-0.001034987231940961,-0.0008923406753215
1681484299.380728,-0.016996993819973327,0.09866488611799873,9.755477108673679,0.0006829695783263572,-0.00029289253924002904,-0.0002676124026525
1681484299.390772,0.06820440315226452,0.34719754528863167,9.783711530160232,-0.001472489079960171,0.0019616485938471133,0.0018557967228356
1681484299.400689,-0.11896580315632006,0.04938245748479989,9.788267540600849,0.00045496547251495305,0.0015652858475614453,-3.1784297292283e-05
1681484299.410735,-0.19212071889397686,0.12660747382177753,9.84987953842459,0.0015777867337689081,-0.0008121931876479867,-0.0005373200442168
1681484299.4206874,-0.12424775510363321,0.24835728934123427,9.857043954689578,7.278002432651323e-05,-0.0017468804625515207,-0.001379982572374
1681484299.430738,0.16889842515475623,0.2035864651375396,9.690703455718278,-0.0004942370064943157,0.0033731709015690004,-0.0015133218880269
1681484299.440652,-0.15849573992994706,0.2352071714386187,9.876697194389997,0.000286982974605392,0.0004540205955600908,0.0016579987237004
1681484299.4507997,-0.1798821728913597,0.24156840904173763,9.878657691161088,-0.00161403410147748,-0.0013516271851099766,0.0001276386861231
1681484299.460727,-0.041055669794721916,0.10470320126408379,9.765534414577171,4.258472974419917e-05,-0.0007332241339150774,-0.0001342515501651
1681484299.470672,-0.12060692112220951,0.123937459892609,9.817343288048466,0.0008491294858403043,-0.0014220128612493696,-0.0011806744191322
1681484299.4807596,-0.009565900918223482,0.3128883318440206,9.807969851357297,-0.0014497467512584574,-0.00021504975948913923,-0.0005540985188904
1681484299.4907358,-0.05890497687593435,0.002170699750808235,9.742555253337537,0.00207286409210921,0.00014743371016091693,-0.0013524335849556
1681484299.5008075,-0.08513254611621442,0.3021814744935341,9.863457228709159,-6.209399607045433e-07,-0.00045346973189551654,-0.0007068268063936
1681484299.5106845,-0.08641282935797286,0.03347846001759567,9.769592433270606,0.002981845268543313,-0.0006795719211946227,-0.0011169782414559
1681484299.5208597,0.0003343953558700094,0.3829795101564084,9.833162474956715,-0.00021742735017025362,0.00013364638686897334,0.0004990645643797
1681484299.530717,-0.02841998804258339,0.19079872820619648,9.796997408224378,-0.0004204557379180735,0.001047084933825232,-0.0001409645232829
1681484299.540749,-0.09685028976912023,0.10031724036859328,9.792969980175924,7.425751950074016e-05,0.001013172367867163,-0.0023072215303305
1681484299.5507388,-0.07297837269228848,0.1756554832713807,9.815605622372676,0.00029516177665710484,0.0007885507547437543,-0.0023128022480282
1681484299.560805,0.019022889623200572,0.2576810122903788,9.792149048127394,-5.799719323895259e-05,0.0015980551666327663,0.0003068002366002
1681484299.5707211,-0.2229709971824143,0.23002145893343942,9.916589283802235,-0.0014627986983244666,-0.0013613259263312886,-0.0004665476776186
1681484299.5807843,-0.06560410639794102,0.020062066864545477,9.75507288546527,0.001360216234103791,-0.0008840859305699972,-0.0019533089402589
1681484299.5907974,-0.05878168534570158,0.35367263202921106,9.85025455086849,-0.001795094942772532,-0.0007249802863196707,-0.001352018447918
1681484299.6007428,-0.045433071464596235,0.14489352856278867,9.792501720138151,-0.0003008770310183707,-0.0006318914448523434,-0.000724699817923
1681484299.6107123,-0.0032197708473009914,0.18091081517007795,9.767519366609088,0.0004989313954314367,0.00036313036112883704,0.0004666357959162
1681484299.6208296,-0.07049213448802621,0.41056781462070024,9.880961895015936,-0.004593538618806831,0.0006410030149720626,-0.0002724782138589
1681484299.6307032,0.0039636900378291805,-0.02640981897762819,9.695069778982525,-0.0003869327975960688,0.002248502319910394,-0.0005309754091772
1681484299.6407962,-0.13316134017101766,0.2080600767672792,9.83336525238796,-0.0006585070945892359,0.0009684830051432048,-0.0005894862155887
1681484299.6508062,0.010097596089158336,-0.040625077549998875,9.688821595518139,0.004039076590437829,0.002571099990184767,-0.0007683339103583
1681484299.6606953,-0.1494299835432121,0.31001994522055887,9.893405304062584,0.0014902161123504316,0.0009387008200852706,-0.000657658096728
1681484299.6707532,-0.025808977445060412,0.4133523483352707,9.867447557668704,-0.002325576156470797,0.0010705643412893169,0.0012106003664907
1681484299.680704,-0.1765817646400996,0.12783645212671157,9.855650493428753,-0.002228328530758148,-0.000760785899494424,-0.0009679624385658
1681484299.69081,-0.057279317058313683,0.21169057633076926,9.8058065425006,-0.0015723180204264904,-0.00099660917906676,0.0005880863714505
1681484299.7006996,-0.07201871004370207,0.019506565447547253,9.751756648209346,0.00240592182397992,-0.0012622306800135483,0.0013622107467621
1681484299.7107303,-0.10527225887271455,0.15973719450476487,9.815266699173284,0.0011713499777098655,-0.0008494694044756455,-0.0021772040094706
1681484299.7208035,-0.05219576483604467,0.2813345484049991,9.838159729470856,-0.00020216134043736603,-0.0009861616336735417,-0.0011508758220348
1681484299.730737,0.08867861212909389,0.1466828263169346,9.714675550466575,0.0022457174491284353,0.0013305963793561865,0.0012757888139698
1681484299.7407403,-0.13307528948803496,0.2892875969768255,9.874812799957265,-0.0005329678927198994,0.0004789811243756261,3.971636355931479e-05
1681484299.750764,-0.09224227288771926,0.06570356045033068,9.789858264084506,0.0020635551081524795,4.053380279157381e-05,0.0001075046562131
1681484299.7608714,-0.12279587407273108,0.2879697332373815,9.864609190249041,-0.00021259285616829894,-0.0008967605149571905,-0.0002504735061425
1681484299.7708104,-0.09011266240446289,0.13220811867222776,9.79508538819282,0.0007667956423521793,-0.0012320401547290475,-0.0007224609184536
1681484299.7807188,0.0073222986440152,0.19612115878315978,9.783746368788506,0.001374383097522279,-0.00046424765539927477,0.0011550763697836
1681484299.790862,-0.02574435536174802,0.19488093504488804,9.789196490781457,0.0007846639199918983,0.0005080458432790581,0.0007452984532814
1681484299.800847,-0.08886764663424288,0.24490603645831613,9.844341348898352,-0.0008324797769170964,0.0005102839439720574,9.188540885994016e-06
1681484299.810742,-0.08293245565441372,0.05093685909387936,9.766326149429359,0.0029807301418549813,-0.0002906427694284421,0.0013509912055691
1681484299.8207726,-0.015147415260692824,0.24029572653505604,9.789704827364105,0.0009809856970574588,0.0015511211285514942,-0.0006099713541093
1681484299.8307617,-0.23133297538846181,0.21366688228155495,9.91618179741959,0.0005272540967982058,-0.0020564455980218504,-0.0006136933847788
1681484299.8407886,0.07968800824814286,0.2677702192795093,9.750159317058266,-0.0008350875546211696,0.001075775553779976,0.0001958125463228
1681484299.8507886,-0.20431385672407726,0.12069804868351987,9.865651415441755,-0.0002163163820461936,-0.0013423244530635695,-0.0013535327784243
1681484299.8608055,0.07666319956793148,0.16551673359563668,9.719283877878569,-0.0001399380978440287,0.0020153095815355873,-0.0021097469184074
1681484299.8707185,-0.10168819146523392,0.22734041358814724,9.850041575731746,-0.0003824501821821756,0.0008392289700132549,-0.0007388445123556
1681484299.880786,-0.1039520874368457,0.23664836144211934,9.853232606824244,-0.0003314313454344607,-0.0005633503753906189,0.0009803557145882
1681484299.8908105,-0.026297945475899184,0.22849845373936425,9.813799892715537,-0.002524509461959552,0.0012057881259463037,-0.0019968850578639
1681484299.900788,0.03822125809513083,0.11674853526011518,9.720111074019487,-0.0002793121127656938,0.0030099500798547256,-0.0005592894780907
1681484299.910727,-0.304497969400758,0.17115231054690794,9.938863795535529,0.00046243303984887994,-0.0021600082145955104,-0.0002325963036615
1681484299.9207475,0.08727048286393381,0.36599663647353786,9.779106454869645,-0.002989056538489208,0.00107427553095896,0.0003451999469202
1681484299.930915,-0.05696910712870452,0.10281392469743064,9.775645375070011,-0.00038656462768002584,0.0008421994124470147,0.0018494804640308
1681484299.9407606,-0.10350174119089202,0.16396718160835017,9.82287101774203,-0.0005571771052890111,0.0003277359038307742,0.0011770650121856
1681484299.9508097,-0.11606374709955698,0.24240791724160507,9.85474954273373,-0.0012746788898420082,-0.0008721795605415627,0.0014679983537884
1681484299.9607446,-0.06158507332078635,-0.06518583950267298,9.708147201982028,0.0022956654328126097,0.0004570021998972705,-0.0015204076230052
1681484299.9707482,-0.11225904503052854,0.2682832552442169,9.85501882450934,0.0017908783711083045,-0.0011292410782455093,0.0005608995520983
1681484299.9807513,0.04537895720014084,0.20596864397116982,9.752486422308209,0.0006989910192527412,0.001894964674802506,-0.0010216145351055
1681484299.9908571,-0.08499362689519636,0.31187087764739657,9.858102052826577,-0.001079486228568527,0.0011264386204748276,0.0005873474251952
1681484300.0007424,-0.13436305708745705,0.15353273225439057,9.841681117209385,-0.0008008184974417203,-0.00010217185787125088,-0.0002005627652156
1681484300.0107863,-0.148714850684643,0.12482327726400165,9.832175443081136,0.0006494453171989964,-0.0018191460570972397,-5.145597729591753e-07
1681484300.0208418,-0.00286401960894887,0.1917009663554014,9.771696844474606,0.00025381658885608507,6.287829755700215e-05,-0.0008386918384108
1681484300.0308027,0.026782094620119566,0.3685788172808119,9.82248738541699,-0.0037423062946931444,0.0022209379094490327,-0.0014421695418182
1681484300.0407026,-0.14578190798779994,0.04249428471345461,9.806795380192693,0.0004653917589194099,-0.00010699542635755533,0.0006823408144068
1681484300.050817,-0.12921639047528521,0.09183272437130345,9.814788058032999,0.0009791351860860898,-0.0005648501687354526,-0.0019141938577864
1681484300.0607812,0.007484891706463552,0.28334555882124646,9.79886581563592,0.000541778001379552,-1.1640248458365263e-05,0.0010056899296127
1681484300.070763,-0.17493989048693262,0.2796966096461276,9.898056695385673,-0.002210463549868171,-0.0015073512573701216,-0.0009683361317489
1681484300.0808003,-0.043291849637364765,0.10840057368396856,9.756231966465807,-0.0009975194054991376,-0.0005965409870149134,-0.0016079945530269
1681484300.0907855,0.02045978315301239,0.18459156911001387,9.762755666834845,-0.00033886191259078867,0.0010526709903136936,-0.0006375359411809
1681484300.1008136,-0.16282263153199408,0.2454417197625975,9.886560414850372,-0.0008686125211674711,-0.0015323008843242155,0.000669304044592
1681484300.1108506,0.013992085468197867,0.20801491670704264,9.776840467467656,-0.0012035115795157268,0.00018989984466452503,0.0001961861230906
1681484300.1207354,-0.0881521825798627,0.13107624434084217,9.80616437155468,0.0007835462207594549,-0.0006780779759874334,0.0011975559423685
1681484300.130791,-0.12717175095082192,0.03537100084555123,9.785174218046365,0.0025702229795164927,-0.000919136013394971,-0.0017934842075679
1681484300.1407576,0.007828034549271572,0.20351172764428924,9.779601394610443,0.002902124089213522,0.0005363550536843506,-0.0013926527503404
1681484300.1508176,-0.1361142819355574,0.3853699334505205,9.909395190922679,-2.8188394375291808e-05,-0.0016980739706020142,0.0011416704469833
1681484300.160712,-0.0175776719608549,0.17683390000022783,9.778104695700547,9.735998480877069e-05,-0.0005953933697945343,0.0010243200772915
1681484300.1707752,-0.21974036361171184,0.2354870242375808,9.92144254359167,-0.0010690217455925437,-0.004093068848579004,0.0009151726804215
1681484300.180781,0.005195564691184717,0.04554695764443825,9.720467621266382,0.0007235793274078466,-0.0018761226816460875,-0.0013814743183079
1681484300.1907246,0.08916702663810902,0.26242709266241143,9.748414615205311,-0.0004472839815104082,0.0014576144146631238,-0.000835347691876
1681484300.2007656,-0.19781820350123833,0.23951923084219887,9.89254607468713,0.00038980039832367915,-0.002439029507474929,0.0030031909659978
1681484300.2108014,0.02158290532807345,0.2777873928103947,9.787199672674678,-0.0029879309740363604,0.0005247914896303117,0.0003619452432271
1681484300.220875,-0.06815071322433214,0.13084474663094536,9.796588445688046,-0.001950456194293256,0.0005467790433592755,-7.277809022848887e-05
1681484300.230749,-0.14383788624409133,0.03885030176093317,9.79741773613965,-0.000873444707436262,0.00040521202239946597,-0.0040391020051661
1681484300.2407424,0.04358475924389611,0.29237952612975154,9.78269625647808,-0.0004141613771427491,0.000974813853076129,0.0010477930441506
1681484300.250917,-0.09857187599373488,0.14825215990401489,9.805947415018952,0.00018749041817733936,0.0004782419362377438,0.0006927754107404
1681484300.2608595,-0.13951171507795032,0.195905263737707,9.851013993498023,-0.0012400194119039577,-0.00031933975260247933,-0.0015576737973365
1681484300.2707846,-0.06148116888937512,0.20363650022887117,9.822947146026035,-0.0009419956228369604,-0.0008613617152784029,-0.0004624339093912
1681484300.2808776,-0.09050371800010788,0.007585267568828743,9.74951955630272,0.0024554940732730876,-0.0008401491622627475,-0.0014920861035112
1681484300.2908263,-0.03334416018850165,0.429537302347207,9.86577198146382,-0.0011476402349576331,-0.0009373764602693144,0.0010928716470029
1681484300.3007429,-0.12125535142298428,0.11830305014120132,9.80918151229229,2.1729026913315484e-05,-0.0017587855198682681,0.00047855625921
1681484300.3109543,-0.05794675690555299,0.21895682180183776,9.79943563546751,-0.0016192224988369516,-0.0005622165313811755,-0.0019149289041284
1681484300.3208442,-0.04636524361539328,0.21325396828080911,9.805305509311887,-0.001925129828029577,-0.00036703634588055483,-0.001703697493625
1681484300.3307953,-0.08453251035901571,0.18949625060969494,9.827310164103048,-0.0016084636176974057,-0.0009388599411907444,-0.001157581344572
1681484300.34074,-0.024277454144177223,0.12652587477631708,9.758527341592643,-0.00020813003177307736,-7.943064747608715e-05,-0.0010867947753045
1681484300.350755,-0.032799485269874244,0.20822064129230244,9.798889330300677,-0.00039139604237004244,0.0006134642469936167,-0.000427803727192
1681484300.360772,-0.054831793464044376,0.1679109006563979,9.790411499546378,-0.0002453889604725519,0.0011823176271668217,-0.0009627575095269
1681484300.3707795,-0.22486127057701732,0.21849540344791957,9.897658240147699,-0.0005117381789017135,-0.0021577950377222052,-0.0004926170262966
1681484300.380806,0.004247880629103568,0.06301681354799568,9.736211260436368,0.0026354027258237993,-0.0009962391050647328,0.0003485614393379
1681484300.3908074,-0.02588856025197278,0.2718234410140665,9.822449733322767,0.0002031421677127808,0.0001928724008837619,-0.0007787342223796
1681484300.400799,-0.09619845268394743,0.0551514955035215,9.778525162471531,0.0031673695190579548,-0.0004679890261899201,-0.0009873407002065
1681484300.410786,0.04638451916787774,0.4058738205415794,9.815973161593444,-0.0006663317207423867,0.0016304666047575874,0.000188340661722
1681484300.4208095,-0.08242966362752473,0.1803964442502073,9.816846242552133,-0.0014348786388732394,0.0019516060094970605,-0.0020181038457426
1681484300.4307752,-0.19409223752786342,0.1598385406987046,9.871609598729213,-0.0004882819194788753,-0.0008848469532411332,-0.0018627818248692
1681484300.4408488,-0.05379454688924778,0.22498830550629473,9.812058367744418,-0.0004215747364537535,-0.0010752027076370032,0.0003511632053654
1681484300.4508512,0.10785703456665086,0.227998873653371,9.721114692714742,-0.0014530858096691503,0.0026932977554317093,0.0006823315593887
1681484300.460812,-0.2295189333774886,0.1692470404698982,9.88386352869708,-0.00101538899108948,-0.0006263114590230681,0.0006640834576923
1681484300.470837,-0.07076396110178505,0.17423298156823636,9.803332518111478,-0.0009379053792565185,-0.0005454835133919621,0.0006845613202553
1681484300.480768,-0.10046849930966785,0.19138897758155493,9.919567875080595,-0.0018565564226266623,-0.00129127119911782,0.0012306953972678
1681484300.4910724,0.3929002946622909,0.3112926657781594,9.569496989792764,-0.0016010735916122387,0.008653915974179027,0.0165288660169121
1681484300.5008154,-0.8747675168582336,0.007443060098464094,9.837541940194788,0.0014122092459893023,0.003039228365285242,0.016686196202087
1681484300.5108333,-0.8472463954481716,0.18782050526509458,9.973273973963671,0.002689028707556334,-0.0074748939401859844,0.0153722779319163
1681484300.520974,0.20839130142658646,0.3694479096620748,9.704987094482084,-0.002715684238601041,5.7554894125278474e-05,0.0084357971750673
1681484300.5308278,0.21871127303534818,-0.3723809950546178,9.665002913789403,0.001370319919244909,0.00876774917278582,0.0007561138441328
1681484300.5407546,-0.3242962950615819,-0.014449983532720843,9.597318101478333,0.005475576418924613,0.011715192055477143,0.0026906899834525
1681484300.5507765,-0.807718675156213,0.33328995795754673,9.93834307694001,0.0038334360178451507,0.005162466324150167,0.0041426746134188
1681484300.5608003,-0.8081232151354485,0.32818359908591166,9.944839312794242,0.0021399636601760557,-0.0025243399482759612,0.0041248539887842
1681484300.5708814,0.08570808429800826,0.2721662625969883,9.790540169078055,-0.0019035058733738413,0.001679272075295455,0.0045301879249986
1681484300.5808303,-0.1540862052508239,-0.06442932537526326,9.806828573879185,0.0026674056732028713,0.0013190581788135132,0.0048170450568672
1681484300.5907614,0.09274428799243158,0.005722072019957226,9.70015817745167,0.006752921590973474,0.005245146644893576,0.0066402128391441
1681484300.600871,-0.22280517735741867,0.16372050321122575,9.730467377763345,0.006747739978764963,0.006899515456406428,0.0040306749247487
1681484300.6108267,-0.4690724437506759,0.22620465293031342,9.942771077041794,0.004849695421047352,0.0024511589694946,0.0037382154219325
1681484300.6207824,-0.047739543394199,0.12964929764220978,9.696436610169432,0.006095777552482778,0.004381247286918821,0.0044859037694063
1681484300.6308074,-0.049200338995208856,0.3458157528293648,9.830185568965787,0.0032243239212901495,0.005384829614038906,0.0049608468503233
1681484300.6408012,-0.3777742951079523,-0.040023674310775616,9.72977569682321,0.006462793067150162,0.00265864701845798,0.0040965024341371
1681484300.6508727,-0.6227022867784497,0.44258724822847406,9.886670809390852,0.005072172411132662,-0.008024902514483113,0.0151519987226005
1681484300.6608558,-0.32648583419651317,1.3151029974363804,10.29861771542328,-0.0025037737033883935,-0.024143238597831546,0.0325367196888204
1681484300.6707935,1.3236423959008397,1.277421704116573,10.07723829930642,-0.013494321827117847,-0.017189145427494692,0.0457540850580212
1681484300.680836,1.3239107220276551,-0.8029885321219957,9.51411692250564,-0.0013403156133791054,-0.00884957214280809,0.0543565403163906
1681484300.6907976,1.1195625499229673,0.059320412644397455,9.344173059459946,0.011909305856018515,-0.0029836179292413393,0.0617911841214176
1681484300.70093,0.8269454397329548,1.6367042769577893,9.994469417290759,-0.006642014487402601,-0.001389145411256242,0.0655183631420608
1681484300.7108712,1.0404085373172707,0.9396262834781831,9.895303827614494,-0.017005714813819184,0.005802814039270871,0.0614782411098953
1681484300.7208884,0.21958306280781256,-0.9666898613250396,9.789965113246268,-0.005753558162224506,0.00573017279738146,0.0445612508297439
1681484300.7308416,0.12594224640070603,-0.33668980724304326,9.71730300391206,0.0011848465770908372,0.002094007991880756,0.0360856305301662
1681484300.740811,0.6653137602109392,0.07912139882190797,9.615808395470653,0.005134456171998222,0.0063019243201185805,0.0303924370050903
1681484300.7508674,-0.1631744459007886,1.0677240945249373,9.991598431183382,-0.010630601909685783,0.0014656102706336353,0.028156424635696
1681484300.760821,0.5180412535086603,0.1613093971809216,10.0728950372486,-0.012928063286922488,0.0019463491618414667,0.0344039190054413
1681484300.7708695,0.24851184129862133,0.16532418398510815,9.943654335405165,-0.015166382146351473,0.0017971208985898615,0.0505501467228409
1681484300.780854,0.46055643869488255,-0.13812516189967908,9.678175477205198,-0.009691394949126075,0.005398216630641986,0.074810324931192
1681484300.79077,0.42956647276850923,0.2906014740880222,9.570672638952614,-0.013484428071634169,0.013225989103303767,0.1014447871089455
1681484300.800815,-0.6364192781919388,-0.46301340096341975,9.88317100650309,-0.0047824288641873025,0.008136469366321824,0.1200201797724243
1681484300.8108587,-0.8599175206101253,0.6188507336273336,9.995241657966615,-0.008475016483087912,-0.005282691039998537,0.1385285991669174
1681484300.8210309,-0.8088181383551409,0.31279367142471304,9.818627204265509,-0.011269014975448199,-0.01193792840819685,0.1409561920404907
1681484300.830912,-0.38420249897488307,0.0013116496087045772,9.834793246503512,-0.009938710355752918,-0.01359056982529111,0.1375540483236786
1681484300.8407896,-0.007471923614364127,-0.24513249763406986,9.769122536518033,-0.008827784888979067,-0.008374152768459863,0.1288282710552689
1681484300.8508615,0.26446664847631296,-0.2619872026172801,9.645796604389522,-0.0018764338077616846,0.0012285918819289253,0.128177418136644
1681484300.8609347,0.1519521312198372,-0.015609810632677615,9.621015211894832,0.0015920110526846335,0.011209783722487047,0.125323145413446
1681484300.8708768,-0.6943432064162046,0.5887134072672361,9.876136647806327,0.0029577955897072197,0.007882627204345141,0.1320170003414627
1681484300.8809164,-1.0141349139717242,0.5558715983089055,10.008148301688031,-0.002056338436602257,0.0009212558862342566,0.1358180034399506
1681484300.8908017,-0.8184313389141031,0.5494567845881341,9.72616496194529,-0.0032044321173686496,-0.004008811708159674,0.1468180555344101
1681484300.900838,-0.5131921876660145,0.399686705307712,9.889974555083937,-0.002408487524338276,-0.008220107553290754,0.158787398362207
1681484300.9108498,-0.020997802211383042,0.4811185653108422,9.672743992578981,-0.0036264306436419942,-0.0049854391235704945,0.1671256709337708
1681484300.9208372,0.4661416457511728,-0.14905365030712162,9.632371324078207,0.0011542420308967587,0.006088452761515108,0.1708594250917908
1681484300.9309545,-0.7441774925275587,0.23009685766658652,9.801323401444511,0.00013520400868940018,0.0027962717879189227,0.1744213241577621
1681484300.9409351,-0.9123935616106194,0.3735009972662855,10.02490161473992,-0.0027682845735959153,-0.0065039003294884885,0.1777151960373398
1681484300.9509356,-0.6459460761053792,0.0029048696162715087,9.866640554014072,-0.0034588115785695287,-0.011513660448059638,0.1826296735048767
1681484300.9608192,0.10260463170488898,-0.5431064431563971,9.807411301503151,0.004072907933580288,-0.01081060460815994,0.1858267623425003
1681484300.970915,-0.1302900289035042,0.17124437043228002,9.434098480267828,0.008330729145846238,-0.006674355528139666,0.1952620285988327
1681484300.9808204,-0.747806731601577,0.5944004116762414,10.199787736417147,-0.0005262531080542702,-0.016446890695749783,0.2015633869410034
1681484300.9908702,-0.22229120134921193,0.1907585677291262,10.012659697272467,0.00026335272721790906,-0.020635613393968244,0.208905561590242
1681484301.0008874,0.13851512327625426,0.13485123916372058,9.997747989955311,-0.000783985610449592,-0.01928804828705572,0.2110059398651596
1681484301.010882,0.5141352850326585,-0.2337126706724389,9.699075882812405,0.007043408388278297,-0.015750960304186046,0.2133228022099014
1681484301.020942,0.6642615221609429,0.22588140943187235,9.49807257831196,0.011915915400629069,-0.006473804790194607,0.2187003928661819
1681484301.03084,0.15029450298249308,0.7307212908195916,9.841848287491583,0.007487511661352485,-0.00706749975808446,0.2247913766146179
1681484301.0408185,-0.16325291206945589,0.6922335952215186,9.571677031417314,0.0012167917533072528,-0.0075125842805422735,0.2245002973318573
1681484301.050909,-0.5774551462515876,0.486060597770439,9.928918589998002,-0.004177146919323142,-0.01547993143756203,0.2251006055117126
1681484301.0609343,-0.648544954295373,0.4274502959753402,10.250734519444682,-0.006479028485666446,-0.028900325648390113,0.2245870965958115
1681484301.0708694,0.5370611353831051,-0.38547040476128086,9.992705578584626,-0.002670298271673515,-0.021548296812704305,0.214851259017038
1681484301.0808089,0.4967152503631031,-0.1802260470491135,9.643619531956736,0.005298924321715129,-0.014521324836900832,0.2096383261919495
1681484301.0908835,0.5709763538276075,-0.31004202355531035,9.503924638636695,0.00934867428593457,-0.008173492530746309,0.2056188422680374
1681484301.1008606,-0.05321540900954436,0.8424053508977803,9.531817768689839,0.0018444784945345187,-0.007778064031056078,0.2048746484756943
1681484301.1108558,-0.4596912735062754,0.3212705394991867,10.095067859989419,-0.0024449685500837815,-0.017054606118913934,0.2069371032953735
1681484301.120999,-0.04674845266000556,0.28215592323776395,9.840686204611087,-0.004361611716918344,-0.01738630267117175,0.206044598245668
1681484301.1308353,-0.2505557957474604,0.2522812087523354,10.227114726056273,-0.0071885739696513,-0.02445631697547292,0.2041940677404877
1681484301.1408749,0.32984178326309976,0.14875722580091835,9.874652458891678,-0.006938958444315318,-0.0218695045321571,0.2034497994423386
1681484301.150857,0.5307461135950814,0.04499777033058184,9.742233136638431,-0.004696902712921197,-0.015029342191373815,0.2071428138256546
1681484301.160828,0.14465939279210033,0.07077107276462652,9.775494860832634,0.0005832463049043673,-0.016376133312954514,0.2099587309599396
1681484301.1709056,0.04709347778068908,0.6343942207185815,9.599204151382821,-0.0058418855182093025,-0.015055385940197391,0.2126659292221542
1681484301.1808765,-0.2535051601351713,0.6456032570286893,9.77596188918694,-0.011816294704342421,-0.01750625258606646,0.2150567013264175
1681484301.190876,-0.26344274934274897,-0.0024435350661797203,9.8187775361998,-0.008845417790872102,-0.025155908538368636,0.2237614232540604
1681484301.200868,-0.16585279025950553,0.5174523334397266,9.984401217651385,-0.013969971606297609,-0.02804754648321792,0.2227873790503021
1681484301.210881,0.08476785023356746,-0.1413872231071155,9.875047272622398,-0.00916704332397598,-0.025581786441397667,0.2159512478352066
1681484301.220965,-0.18571770950749258,0.29896971787026955,9.724664607314853,-0.013656801292919053,-0.024209198381094154,0.2102323311806198
1681484301.2309153,-0.034950644762508275,0.12471614309658953,9.888765282760774,-0.014005897892009754,-0.02750159969737462,0.2096070486546036
1681484301.2408795,-0.11068134356506135,0.07958832941860411,9.541982301340818,-0.012204823506713716,-0.02571013075320261,0.204397259974527
1681484301.2513196,-0.18323337772300105,0.43054119174313993,9.805222687654851,-0.014827639220121975,-0.02749019317639998,0.2048147160053726
1681484301.2608793,-0.08684693335323047,0.18130240780707496,9.79253762737056,-0.016365422414217675,-0.027092990041615972,0.2021808165550705
1681484301.2708447,0.23651436714868268,-0.42309876764712717,9.921986364229983,-0.006792295678775712,-0.02711484140574235,0.2026815700769897
1681484301.2808764,0.20309399406312925,0.25178435447633,9.502575572937827,-0.0036085815174498456,-0.021078441475692596,0.2005025583744522
1681484301.290898,0.11718159406965752,0.612319947487596,9.684782200964214,-0.011057017522474101,-0.016687157954814496,0.1998142886400696
1681484301.3009553,-0.13755590523351285,-0.15128288311176802,9.877442557308806,-0.009587915633569572,-0.01849177035867887,0.1998591709375854
1681484301.310903,-0.08597599491257735,-0.6422864990769793,9.939751262545187,0.0007171432237051149,-0.020183009907626323,0.1943261313677307
1681484301.3235278,0.40537425946854916,-0.06080570923143579,9.782015245195668,0.005035786562881445,-0.011181125014096842,0.1903700965881821
1681484301.3308885,0.22679737884529214,-0.03616734160668637,9.821082803931914,0.006762480748582535,-0.006535879007701019,0.1861898291349884
1681484301.3408842,-0.08507460983441131,0.8645337673044411,9.753805866057174,0.00580500868150742,-0.00783314916796419,0.1914182293653961
1681484301.3509128,-0.3804071594659413,0.8218097713302666,9.85752199679824,-0.008085260956810046,-0.009252022441860927,0.1892178344965454
1681484301.3608785,-0.2662264242785371,-0.16456587927552005,9.940082390490153,-0.002035811854104006,-0.01496004938699143,0.1937503206968781
1681484301.3708756,0.0551644295403823,-0.5147176708994541,9.662586623537226,0.0058366475630104225,-0.01326974601032842,0.1934144187212463
1681484301.380906,0.2928536992014067,0.1817018313252162,9.938930234398095,0.005179246190299356,-0.011041444873672547,0.1965086299419876
1681484301.3909614,0.44520151316676004,-0.24807963241752248,9.634942836291506,0.012763507421436905,-0.002964986067834718,0.1958049375057693
1681484301.400881,0.015274442304905645,0.4705574416156497,9.89569830451914,0.0073002280371679,-0.0020626266393511537,0.1992231446743484
1681484301.4108942,-0.0963952887727752,0.041310435003678855,9.763374292863327,0.00894620225673618,-0.002540212054871246,0.1980037975550171
1681484301.4210434,-0.13428701720987177,0.34930558398280126,9.77181189128571,0.00902125425271952,-0.004108003537456255,0.2000378805637833
1681484301.4309149,0.21082447577175495,0.16581316825248685,9.874402374676636,0.008450454142562194,-0.0027211861686458187,0.1992332625627991
1681484301.440873,-0.015214592519750984,-0.20369785960582354,9.621313542002893,0.010671113218665209,0.001656478959703053,0.1891428816557404
1681484301.4508505,-0.2961627715590446,0.1607389435461849,9.91460078655796,0.011175083005842574,-0.0020070985885880625,0.1871449637651916
1681484301.4608743,-0.49812895662142775,0.07111951633653796,9.802815598934458,0.009864887603727418,-0.008815557982386079,0.1851158130407806
1681484301.4708335,0.2415906654129109,-0.05535742141834931,9.737146685616516,0.014800792305631767,-0.007874157041175828,0.1890915173531052
1681484301.4808707,0.18177880822001005,-0.005003213355315755,9.785746609440071,0.019282171412596204,-0.003724438697265759,0.1934560823679443
1681484301.490877,0.5760247510538319,0.507027236496531,9.762745808705574,0.017759991701492648,0.004705596890069477,0.1983174818993088
1681484301.500865,-0.6464560726660983,0.9859595738577087,9.986070111202592,0.00744667991048394,-0.0004838301778593987,0.1939038175583359
1681484301.5108373,-0.27224219636777347,-0.34053513520470696,10.091179964528575,0.011354129258737715,-0.00532379449747473,0.1898005295038696
1681484301.5209615,0.6386043815859216,-0.7078122665931208,9.2560922950986,0.025908510176328416,0.0036210957030579144,0.1852037745953079
1681484301.5309174,-0.10013813630543547,0.8003990637154442,9.768885231415364,0.021057114486379223,0.005185374600950635,0.189047231102037
1681484301.5409398,-0.4225685251963372,0.18421515164648156,10.09911916547731,0.020656237521054326,-0.003110101502472695,0.1844881314278122
1681484301.551006,0.13577954311298568,0.6885931555022232,9.724634814664489,0.013442364915484848,0.0006556277029688465,0.1814515429974075
1681484301.560923,-0.7016020918080166,0.1652450903721607,9.867532867495365,0.011729401345134612,-0.011407647742974673,0.1825355428696152
1681484301.570889,0.49632241550163264,-0.02648738395658319,9.800145759359307,0.011157577362624438,-0.009187435381453338,0.1825469571590897
1681484301.5809498,0.7580433137870153,-0.39771789125145074,9.620462307718734,0.02420439677758884,-0.0034582399068647327,0.1857569504023071
1681484301.5909662,0.47402709676829025,0.988272245736615,9.837379595390475,0.015052151654707187,0.00018195642378783956,0.1928350317717072
1681484301.6009033,0.5145540478042958,0.860283926045682,9.985825842945426,0.009625978834153176,0.0021830513251393712,0.1956394750118729
1681484301.6109047,0.17772647068974473,0.041749719166783814,9.87291694734216,0.01154114784354047,0.0021600979087641266,0.1906874615192886
1681484301.621025,0.4204914658297853,0.49111214960858623,9.823265652748503,0.007816618161956718,0.0050709595497641265,0.1911899584770676
1681484301.6310675,-0.034716522971196324,-0.1857239403410554,9.72896070624327,0.010314828903907346,0.0035411682673413673,0.1872764665127274
1681484301.640947,0.2469451207852284,0.5060741006447256,9.900979931314266,0.004971266738560024,0.0025535670567387683,0.1937454927206512
1681484301.6508996,0.16001707454289382,0.002087189354356348,9.806389702224612,0.00926287351351323,0.0005578235510265766,0.1954233932734009
1681484301.6609926,0.008794958108792973,0.10593727361681991,9.983462692836182,0.008710790386580385,-0.003743730225507919,0.2016549992800232
1681484301.6709156,0.6243004261039528,0.052268894863105216,9.72163049699991,0.011669927729525126,0.0009844736992374785,0.2040508675814148
1681484301.6809423,0.2578556627611076,-0.34322667114610916,9.466057266896755,0.02010796207551376,0.004006438774756835,0.2017723012209412
1681484301.691,0.20606811581850834,0.3223457305128102,9.800135433040653,0.014985527511587543,0.007597523538921402,0.201558588767099
1681484301.700905,-0.19420716380517863,0.29602167176447985,9.766277689736341,0.017752141796601926,0.006380129293903545,0.1991904962301727
1681484301.710909,-0.1058292176578273,0.6757543842534588,10.057711965686847,0.010243854340739971,0.006123202175134781,0.1934265482664581
1681484301.720911,-0.368518501064549,0.5257392205256635,9.807434638223281,0.0055095657120061365,0.006196042320674354,0.1831144231796738
1681484301.7308626,-0.4907626524734844,-0.005234306240488976,9.931876806219371,0.0043026470731441085,0.001114287501317881,0.17893253149991
1681484301.7408998,-0.324012134610053,-0.12621805455281634,9.811309619429068,0.006473592275641013,-0.0021011058429972087,0.1758235532284256
1681484301.7508757,0.16540009929285848,0.23302857809584432,9.671910475290625,0.008037863345943842,-0.0023721406592491167,0.1804612714291092
1681484301.7608588,-0.2929341127537818,0.6114496063121234,9.494303515300441,-0.0005624607491985172,-0.0017712405190852393,0.1835627842188354
1681484301.7708678,-0.10563595669548126,0.2076344020566833,10.10484046166026,0.002546874504954834,-0.005136474183358992,0.1808921087027069
1681484301.7818596,-0.18036578236477757,0.08222748364736647,9.842185370135976,0.0026088613177224435,-0.00376187833672988,0.1770196843386169
1681484301.7909317,0.03448647800865567,0.7887960587157771,10.060241206442608,-0.004031754301171214,-0.003945402943395354,0.1750373828649994
1681484301.80085,-0.1423648484658362,-0.49569741289923935,9.698812295888096,0.005661051236654822,-0.0037516081104354273,0.170922859334993
1681484301.8108785,-0.4204084578973901,0.7189591777433285,9.882343462707487,-0.0023443868136279436,-0.007821422158838059,0.1691913146019455
1681484301.8209617,0.15695342178301072,0.25137520094978394,9.634413166554438,-0.0017284174136164817,-0.007902879584619533,0.1760946798563477
1681484301.8309374,0.5785658990613648,-0.0672586457693907,9.492017477885215,0.00713203883520271,-0.002139665827094374,0.1840459394693848
1681484301.8409965,-0.028214233645849542,1.0694929449254231,9.887682314884703,-0.005747370593141874,0.0005177110050859782,0.1902898836374756
1681484301.850903,-0.1779075715439367,-0.17988843518866232,10.018601373111839,0.001495190813905639,-0.005920992842971264,0.1965066778898712
1681484301.8609383,0.1811047226735568,0.3096306728441462,9.813499681027707,0.0005559179346003796,-0.0019464119643836956,0.1970944988966461
1681484301.870931,-0.24973899916430983,0.3925365590877036,9.88943679278657,-0.0015178463170563649,-0.0045444061887031945,0.1947867560625549
1681484301.8809173,0.11648006071763967,-0.17816016490909076,9.78290885465507,-0.001530345825210788,-0.003910143883588829,0.1922117758036133
1681484301.8911068,0.010287826500055785,-0.8675799366722994,9.624377071318174,0.011031415392467915,-0.0016823718901072316,0.1887520987034317
1681484301.9009528,0.08979717872527712,0.272967274380006,9.826197398051999,0.013243733563223536,-0.003278544456994634,0.1913630652666565
1681484301.9109523,-0.01874850695517045,1.1181473097683745,10.092635066821819,0.0005466321320321493,-0.0036382181409694635,0.1882957804441925
1681484301.9209874,-0.20970710706178738,-0.28905453889057214,10.016049648814027,0.004696665175611247,-0.007033774194532191,0.1786058980465408
1681484301.9309375,0.5632289127250366,0.10237235530450775,9.734283334439242,0.009085193811677056,-0.004662061370096844,0.1788409191608902
1681484301.940979,0.7759021531621465,0.05407602306905888,9.62762975919127,0.010769496051728198,0.002792691597652435,0.1725616890430923
1681484301.9510334,0.564939780679415,0.7749776556211476,9.842893276056273,0.007604078161563612,0.006154638483015967,0.1738084542990204
1681484301.9608924,0.15373140637938887,0.9857510048045148,9.980688215817644,0.0012248229486860008,0.005322149092879414,0.1727042782545563
1681484301.9709444,0.19244441394120154,1.0023231241639112,9.963587634116427,-0.007058243817619108,0.002064450153968815,0.1682719427586075
1681484301.9810543,0.44106323070858183,0.49750581610380673,9.699078692510204,-0.008142800656930353,0.003130993231840311,0.1635825622320648
1681484301.990951,0.31203634317784784,0.662122024773895,9.71145605186785,-0.009045521721522462,0.0025562688816239843,0.1698998797178741
1681484302.0009136,0.5989401013703199,0.9494971555229074,9.883988507773894,-0.016048721090985936,0.005737706886225518,0.1781945216894623
1681484302.0109382,0.15318039086029078,-0.08557922840172424,9.803822653790546,-0.012879196168417557,0.0069760730382345615,0.1795025754213806
1681484302.0209348,-0.21969445032776072,0.004340133001900114,10.039670540586787,-0.016822282580711095,0.0012891822527073818,0.1774030912161346
1681484302.030885,0.9564735448899525,-0.7748798405173428,9.427049188698323,-0.0031797047714167623,0.013176098489135363,0.1852285850286957
1681484302.0409176,0.4852396493320114,-0.9135951594669071,9.482009336959973,0.007823477169188828,0.018827837310721355,0.1961311239243027
1681484302.050971,-0.47090429560150504,1.3512783026262862,9.681710840522712,0.0033812178043904585,0.013975023961414557,0.211505471491861
1681484302.0609696,-1.0073210427009542,0.7212304982076317,10.387300946993928,-0.007541365912633455,0.0008007980392587058,0.2075220334768768
1681484302.0708709,-0.9689736036093485,0.6715600585190311,10.231034180969191,-0.016496192190683732,-0.008850317371476487,0.1941859263420578
1681484302.080884,0.1691726551762193,-0.3226997690465769,10.17470788149057,-0.015064967758415372,-0.005878486986711178,0.1827133584261414
1681484302.091033,0.3907080930846697,-0.2902944307077327,9.547214410948762,-0.007128244091814017,0.00021207916962248012,0.1820800888777252
1681484302.101011,0.8424705171057707,-0.804306858565286,9.358425017145732,-0.0017352170967530646,0.015955570284905102,0.1772697854280945
1681484302.1109614,-0.5994743078447841,0.9933194950396902,9.452579485866213,-0.012925852886616039,0.014090069807619319,0.178933455371904
1681484302.1209376,-0.9482495064615584,-0.3819389986924773,9.801515514763194,-0.016509385697774475,0.002528163646369219,0.1823514837265488
1681484302.1309571,-1.7406879900795316,-0.804817385981946,9.636848497245403,-0.018136858223424566,-0.018067216120813075,0.1873690474272247
1681484302.1409252,-0.466195155341099,-2.69825722275118,9.522246703962788,0.014422471584033187,-0.025850104933474723,0.1899662006140228
1681484302.1509635,-0.5816858442294974,-0.35944082257130033,9.754883452671166,0.013582811115612504,-0.030566084398234276,0.1957196730614182
1681484302.1609366,0.6998459629107012,-0.047670366238669944,10.200854262690328,0.0149154727766814,-0.023744241723007476,0.1983827042818542
1681484302.1708944,0.09517886313165873,-0.16367249672142706,9.758443503470142,0.015288650790361588,-0.019125895904243344,0.2010906923056122
1681484302.1810095,-0.274756307242318,0.33910636125467225,9.977871705532662,0.010718229768656896,-0.024669674575554645,0.2072548854589935
1681484302.1909206,0.5612222938518137,0.0059308720535116285,9.714524346096905,0.012419563738355935,-0.01885760811032732,0.2166327077389236
1681484302.200951,-0.181428481058319,-0.09279979461784847,9.759659874661091,0.01316169902395751,-0.01980353930417403,0.2164846498013016
1681484302.211064,0.26835593984188905,-0.7784604113819921,9.519393781924638,0.027636850334184424,-0.017827757793006202,0.2182136315346237
1681484302.2209892,-0.003876759180151017,-0.8073364316333096,8.92566857793025,0.045918259304534116,-0.011304348783373481,0.2211790371180054
1681484302.2309003,-1.0840908285353517,1.0605726009021836,9.938741929440175,0.04013523704368492,-0.023633619359910537,0.2126167702913757
1681484302.240987,-0.7577818783422369,1.1178913723622252,10.212578318963024,0.02918676195837044,-0.031492444457884045,0.1968359190464493
1681484302.2509568,-0.08526342748115397,0.5184682862471065,9.828673729800833,0.03151851580929451,-0.027152035488387242,0.1817110467195984
1681484302.2609558,0.1619939892087448,1.332454034188335,10.426877857961312,0.02488303460730462,-0.02726121527784862,0.1604430216789719
1681484302.2709403,1.0530397299879193,0.874949727863334,9.77056828519339,0.026134192248621332,-0.014025508847047972,0.1525434690952774
1681484302.280997,0.8590046212584062,1.7006326271197565,9.78875904691485,0.013162364607518715,-0.003892415587010726,0.1506151992321487
1681484302.2909818,0.0593773724494709,1.1217157988507516,9.75882872260362,0.010993604884037878,-0.008096544622966693,0.1473766851664062
1681484302.3010263,0.4087755838376361,0.8143613708369615,9.6467404166279,0.004196285975532129,-0.00683197421855852,0.1505157339811798
1681484302.3109405,0.05600805800936601,0.35173326768963,9.798035297617647,0.010250768433407716,-0.009301965318720861,0.1507984090090271
1681484302.3211818,0.11857630529896267,0.7690968495930893,9.925491305903995,0.006012577219127573,-0.014508608527370043,0.1558230805635925
1681484302.330989,1.265525235181506,1.1652924348170144,9.8190110331103,-0.002240053355907994,-0.004995153330098709,0.169917776012468
1681484302.340905,0.33448186031101446,0.37437970264409015,10.111320878350874,-0.0066104388956010895,-0.0049105854707112715,0.1714288282633301
1681484302.3509967,0.2984627120420622,0.10327294090121587,9.78480785118188,-0.003619130219174832,-0.004817355170084172,0.1736244100571152
1681484302.3609486,0.005704399462355374,0.12226607776569545,9.949266809326613,-0.007925868729771659,-0.007707974871858303,0.1713565278292175
1681484302.370975,0.02076211146125897,-1.0524560990249414,9.744359226756085,0.004122456109505243,-0.01202101741855677,0.173870845460939
1681484302.3809896,0.4860775818487187,-0.2956706013494998,9.388045588129698,0.007235245218738769,-0.008460759930448323,0.1785675573587891
1681484302.3910103,0.1876819733270453,-0.686871943304889,9.534556508061373,0.01730199127223235,-0.008555234984741675,0.1898444432259079
1681484302.4009652,0.051280570475149376,-0.04194217688896945,9.970068283291418,0.01923160631913553,-0.013602166547709352,0.196420951509523
1681484302.4110534,0.6474930093696475,0.40399625482450513,9.732188209567711,0.0209338225355845,-0.008248194371531525,0.2034184623003479
1681484302.4210556,0.28868218469804824,0.6683125206974516,10.248853608508542,0.014861978198200343,-0.0099279774069108,0.2023195910692688
1681484302.4310155,0.7056519433725889,0.34540262323691806,9.97269681825894,0.014243407032127285,-0.0030026497151492484,0.2004755872726913
1681484302.4409907,0.24230879276861783,0.49844228824187575,9.810514598138782,0.012085438283086688,-0.0035990404250249956,0.1950672108173843
1681484302.4509566,0.10251932392028654,0.11066988531385628,9.701343939819065,0.010151046681038296,-0.0063481279576486855,0.193674756908464
1681484302.4609842,0.30983273078333623,0.219419649990891,9.69726356330093,0.009987924183681742,-0.007594816812328969,0.1950861650944229
1681484302.4709432,0.4619637598591963,0.5602056270517356,9.603249423713521,0.005392667975219179,-0.003108403459308846,0.1951283651829239
1681484302.4809444,-0.17674468262006585,0.7089453700524558,9.871630202742754,-0.003491856210839013,-0.006019718353216095,0.1996399748564239
1681484302.491003,-0.07866278746156323,-0.14578761998931883,10.044886528965442,-0.002581114263213924,-0.008246615780151399,0.1944492447615143
