time,ax,ay,az,wx,wy,wz
1681483941.99067,0.02015308655562764,-0.3794650455830343,9.793962632285087,0.00016963980162592075,0.0010761407372264348,-0.0004635674453798
1681483942.0006394,0.04512093974954482,-0.39485280569212927,9.768425936551944,0.0006087995564389694,0.0021479384222618516,-0.0002798687241498
1681483942.01067,-0.16811876256175357,-0.3778314816370421,9.892056789491424,-4.308325338483392e-05,-0.0007607880169917601,-0.0014053115196052
1681483942.0206504,0.030167526738495366,-0.24681649884204537,9.824546307995806,-0.0030355940555175398,0.00029457354498043465,-0.0019708250224116
1681483942.0306933,-0.0074767057474726785,-0.5072254758683541,9.76199726627938,0.0016724142345646625,-0.0009895384662103408,0.0017026822566062
1681483942.0406458,0.03075508994626687,-0.35501652522452437,9.810502765747163,0.0006598803947379407,-9.21039936190056e-05,0.0004871331580456
1681483942.050779,0.005220672617045139,-0.3093494617415919,9.80622801777591,-0.001723923481174038,0.0008675350554248003,-0.0007265647913787
1681483942.0606503,-0.14176653022610602,-0.5514766547409571,9.80898288840854,0.0016437064389250337,-0.0016876635031549123,-0.000948237957758
1681483942.070671,0.043181888802737926,-0.3025881242599378,9.794568668436327,-0.0007378804320599397,0.00020330770155083257,-0.0025389238766852
1681483942.080798,-0.0027551872594047625,-0.26499618948247006,9.840333202414575,-0.001664703917294606,-0.0006758552356413035,0.0005228958284955
1681483942.0906527,-0.1110163517730008,-0.40195468224274944,9.848955267361799,-0.0012612466546440301,-0.002748615000328527,0.0001529717078905
1681483942.1006706,0.21439789008114007,-0.46124757033354175,9.649679206728502,-0.00038171693542834626,0.0027238493758366266,-0.0018202953546765
1681483942.1107633,-0.14512073068208425,-0.3366508455974697,9.894872344565197,-0.0017880160173092794,-8.91469044841811e-05,-0.002463314453465
1681483942.1206815,-0.0038562098275907145,-0.39904941223347756,9.788665094987058,-0.0003858303784524572,-0.0005574062369955167,-0.0006282294675234
1681483942.130726,0.07151613941306821,-0.4468769451493881,9.737166450891337,0.00021693322231450106,0.001804820916452139,-0.002613791967136
1681483942.1407502,-0.05086559443101855,-0.2109138897768438,9.889091801049023,-0.0016363939412203064,-0.00038379705773071155,0.0008201902342502
1681483942.1507125,-0.0032427730572357426,-0.6238725614098312,9.72247806828258,0.002844384840851019,2.599734732697491e-05,-0.000331306484853
1681483942.1606965,-0.02725722394323828,-0.12003183383640893,9.910132533122603,-0.0021277604418300684,-0.0007742073879121169,0.0005381663755055
1681483942.1707363,0.017775032248022116,-0.4476219569612122,9.768685482924123,-0.0008857542193626625,-8.987932376285733e-05,0.000231187902997
1681483942.180642,-0.20339786671139146,-0.5013772420674154,9.880294731169796,0.0011367029942350917,-0.004037923576798753,-0.0006975373293731
1681483942.1906683,0.2571023792952471,-0.3930254880076451,9.647744543123341,0.0018698124258931296,0.0013991395591970949,-5.492614987229389e-05
1681483942.2007167,-0.0368319751709292,-0.3858228804858708,9.814007594854539,0.00214179289841301,0.0005888777666405482,0.0002934028121184
1681483942.210659,0.019133789117526046,-0.18114101384045114,9.855751828382138,-0.0011685069575436819,0.0006104831167744135,0.0019981193432126
1681483942.2206964,-0.13007088493280503,-0.4075839759819926,9.841634100646106,-0.002069266938033744,-0.0007466418307154552,-0.0011434273369136
1681483942.23077,-0.03605515899821352,-0.40635479533872676,9.812204668539213,-0.0007043296316988851,-0.001807595697979686,4.792119902635533e-05
1681483942.2406728,0.17453596118346493,-0.42599119006437675,9.701634413485467,0.00037151490850222645,0.001867404108187144,0.0001485133503105
1681483942.2506998,-0.04395892745265817,-0.32217123208934845,9.847276457965274,-0.0005381893954572816,0.0008131450053979763,0.0008440181805294
1681483942.2607028,-0.11178087541018793,-0.4159124779473777,9.842490975337862,-8.77890015480112e-05,-0.0012454468900548834,-0.0001491457264397
1681483942.270669,0.005422186208852487,-0.4339138394794808,9.773183296453732,5.005920754471507e-05,-0.0002627271671334228,-0.0015695963561061
1681483942.2807555,0.16623178893480112,-0.43523132874117465,9.690693925020197,0.0023846733096978038,0.0026575386331468115,0.000421935688379
1681483942.29063,-0.09264946049546065,-0.3194284562434765,9.861213182785306,0.0019521378917006775,0.0005933832348206737,0.0014795342936362
1681483942.3006976,-0.07788751598564807,-0.3131553789052555,9.85871161626031,-0.0001522416652111079,-0.00040465509431675365,0.0001257797662642
1681483942.3107862,-0.048839563841437145,-0.39342202579066793,9.827871895966481,0.00024711450542000884,-0.0014086236117339301,0.0002002847573261
1681483942.320659,0.12187655714121363,-0.3697452698621348,9.744951342033263,0.0003368644576928035,0.0012139927544994608,0.0003731499851223
1681483942.3307245,-0.07718168915422942,-0.39757759641795676,9.831568901532298,1.0925448374266375e-05,0.00028265860476265345,-0.0008353500201824
1681483942.3407304,0.023881733349036226,-0.32827884087401554,9.814801508758055,8.696026286919798e-07,0.0004167816016784361,0.0009625086636755
1681483942.3507187,0.020743574920842722,-0.45309537038713255,9.764012243673049,0.002583993351910069,0.000458490054322299,0.0025546654319864
1681483942.3607085,-0.09591652464994294,-0.3060894744222493,9.873183255905573,-4.1604412208061186e-05,-0.0006795821560809362,0.0002971423050862
1681483942.3707786,-0.02025816307183212,-0.358724152606513,9.812095951967049,-0.001364065087475027,-0.00016624916053767892,-0.0019365462980691
1681483942.3806963,0.16862069909850935,-0.33612360960547183,9.719877624635664,-0.0009572908942917826,0.0027856844078250616,0.0005720778677154
1681483942.3907027,0.028597701403840693,-0.36511567794140204,9.786233542660398,0.00023221606441456753,0.0026553010068581274,0.0031380405376207
1681483942.40078,-0.17502716785809888,-0.47916415760727205,9.866017854275379,0.0015099868889785547,-0.0003633021730220825,0.001377109157644
1681483942.410739,-0.03268577936764914,-0.37656271739726577,9.814634861668713,0.0019834647692952108,-0.0012417141244381047,0.0021612945088658
1681483942.4207432,0.07329962812827487,-0.4086906026036717,9.745697921572544,0.0014887249696781018,0.0014132969793879606,-0.0004251991671968
1681483942.4307914,-0.041586480585574376,-0.19351422506832802,9.897857839537673,-0.001657622143167105,2.7107644549608076e-05,0.0012161752925262
1681483942.4406965,-0.05817699731045157,-0.5131031904994532,9.792893679759706,-0.0006775299729624673,5.129541200649652e-05,-0.0024282860144499
1681483942.45069,0.17018939501379005,-0.3191148053920321,9.732589119438247,-0.0004271823275632547,0.002789420418039957,0.0001239376102116
1681483942.460736,-0.106955336452692,-0.35418850091252235,9.867159624181587,-0.00118601553108607,0.0008299045315392138,-0.0006293344817582
1681483942.4707448,-0.12661071960995773,-0.3173920281914889,9.899268188040926,-0.0030676548880115766,-0.0012648569241783536,-0.0019745421636376
1681483942.4806893,0.1799901063165577,-0.38253181575522166,9.705450167176997,-0.0018744529120984454,0.001984742464405372,-0.0003272125072303
1681483942.4907174,-0.03459877273657735,-0.33610922248689595,9.822905079595332,-0.0027488019130890674,0.00162188918575911,-0.0002221475628662
1681483942.5006576,0.012844007130444873,-0.4632104611205349,9.766785414645321,-0.0010440753563608766,0.002241807160779884,-0.0004847638815168
1681483942.5107026,-0.09884925524820451,-0.3956173937523778,9.8407390536424,-0.0008056489362211569,0.00044059500955655705,-0.0004296879091758
1681483942.5207195,-0.1153407090676761,-0.36224057665298925,9.87212127923881,-0.0004294025862050094,-0.002173406725074772,0.0010198503983214
1681483942.5307558,-0.006198790008209272,-0.5066292606292563,9.757639926241314,0.0016068570492406061,-0.0015188859479212823,-0.0003346502821419
1681483942.540809,0.14166823757525512,-0.23018891855331328,9.78608665449042,-0.0013197777489277886,0.001266513554675195,0.0003273246070843
1681483942.550729,-0.0940015016672046,-0.43488962330801056,9.831949929069795,-0.00022749647957698456,-0.000385653170276294,-9.550014915799184e-05
1681483942.5606666,0.01560552889879107,-0.4460234611546733,9.772969779324965,0.0005525707784643921,0.0004600057463550974,-0.0008621562778476
1681483942.570808,0.13471475835726007,-0.3188629117531159,9.749939594358326,0.0007369565418524111,0.0024496733066757823,0.0019254636095378
1681483942.5807168,-0.1764025261900319,-0.3152279835914238,9.928900743509894,-0.0018036652667330118,-0.000394972441173033,-0.0005615339654955
1681483942.5907216,-0.03897657248993924,-0.3688446105967542,9.82370674277306,-0.0019798706678189606,-0.0010148644740451695,-0.0002039087743956
1681483942.6007905,0.1719768143319754,-0.4547782346457614,9.676021734468177,-0.000772923718662059,0.0033113177702393673,-0.0010860629885915
1681483942.61069,-0.22142061397741591,-0.516255458915751,9.874530171067445,0.0021663910692580456,-0.001107988290166271,-0.0013028672005507
1681483942.6207204,0.11306467842333603,-0.10760766751103959,9.838246398800402,-0.0017749731540578988,0.00020293568013136944,0.0019090740202468
1681483942.6308794,-0.0032380450312639213,-0.4861264460645716,9.758422360997686,-0.0006279711959558953,0.0011715188580203688,-0.0006371527019414
1681483942.6407242,-0.18137277512050456,-0.4754938393435911,9.860505837146903,0.0010353802051898744,-0.0022773599160964735,-0.0010093222412738
1681483942.6506722,0.06615409386717079,-0.45103728253808634,9.730553543316748,0.001745044856406132,5.059659650670733e-05,-0.0024953300639513
1681483942.6607475,-0.0883898282390281,-0.1257291503986448,9.935747734389441,-0.002327437109137603,-0.002374980642264619,-0.0004292824346098
1681483942.6707015,0.04616961789987068,-0.3568888569948491,9.79437207389672,-0.0014940863389663274,-0.0019629426319470707,0.0013905257033424
1681483942.6807194,-0.010178363032222523,-0.3268059285216207,9.810196323157086,-0.0034446359319959983,-0.0012424723058819256,-0.000177490878244
1681483942.690765,0.12511073799808864,-0.45818243602017755,9.714729921295662,-0.001387906672055603,0.0013100988047198335,0.0009889334865387
1681483942.7007213,-0.07671692973865354,-0.38620381995675085,9.84498078826638,-0.001617394473471636,0.0002003330516844387,-4.9676517349830094e-05
1681483942.7106433,0.0005337235184049135,-0.5611725982854712,9.742505138127601,0.0015747957750636692,0.0007732848839260179,-0.0013580101117018
1681483942.7207868,-0.11029588769990088,-0.12622080061230811,9.955404934886596,-0.0036603242747820903,-0.001560238627291029,-0.0011181100312147
1681483942.7307627,0.025715059589610987,-0.4812826715741911,9.755775818306118,0.0006468453146418671,-0.0020888684466519297,0.0026563781971585
1681483942.7408032,0.06831429441238775,-0.4083983999219036,9.755404449800022,0.0008863692501748366,-0.00019976370015980792,0.0014944554873604
1681483942.750743,-0.009237817729105513,-0.3306659522479638,9.812227823228332,-0.001172968357440922,0.00037504149844305924,-0.0002247757551718
1681483942.7607524,-0.0030269403508109485,-0.4029249287975932,9.79366919436544,0.00016068648614094418,-0.00013494138367905556,0.0012716751767097
1681483942.7708895,-0.05175382513207526,-0.4154257941063826,9.815757474385308,-0.00033961206663128804,-0.0002843317416786148,-0.0007835687178645
1681483942.780744,0.023908235382202055,-0.5169490732621173,9.75865998289522,0.002327319622880824,0.0004823486934239954,-0.0012842291075262
1681483942.790745,0.02098141898699272,-0.24686696245448314,9.843981964604843,4.1842320641847414e-05,0.000571742843779468,-0.0004434498300302
1681483942.8009562,-0.05063948445198016,-0.3718104091958534,9.826658097530727,0.0004005916002297555,-0.0007157173463072382,0.0006674294086646
1681483942.810949,0.07511133646671954,-0.372134216179598,9.758749913801342,-0.00035935149499355834,0.0014002449445726707,-0.0004885029088232
1681483942.820754,-0.10917270855954574,-0.3875626279782484,9.859600592962687,-0.0012023748074815846,-0.00019605070461990718,-0.0020844440482083
1681483942.8307254,-0.05723475676552771,-0.41768843606442274,9.817043034938644,0.00013460985358346855,-0.0014261470646587874,-0.0017439459956709
1681483942.8407316,-0.06365061090489274,-0.5338615279561603,9.78245507449605,0.0032117151219504835,-0.0024785163828619596,-0.0020095419644836
1681483942.8507743,0.041944635152958015,-0.10155702075910031,9.87653741363752,-0.001504145921475235,-0.0022632048765759334,0.0001827746123548
1681483942.8607812,0.061596259739665225,-0.3510922756079385,9.772678333157986,-0.002660867435058578,-0.000414362872779026,-0.0008651448919895
1681483942.8707695,-0.17487320610857632,-0.5841596355379881,9.823070573847446,0.0012849782000570965,-0.0036132368296820853,-0.0017782244871828
1681483942.880761,0.0620902514764172,-0.2659445620768488,9.802370596939985,-0.0006830895319898338,-0.002260221563371568,-0.0008301297243211
1681483942.8907833,0.11674806885314332,-0.4604600386829642,9.707028520379428,0.0008729477277152216,0.0005460435729312028,-0.0012164476833764
1681483942.900751,-0.07047650501702876,-0.3798996776175578,9.825119151671911,0.0009236338113576396,-0.0005570112574874066,-0.0012588996946338
1681483942.910755,-0.025918670318755475,-0.3796377914263728,9.812325035117578,0.00147534016929859,-0.001369881058713008,-0.0002180683699894
1681483942.9206896,0.07485634153244852,-0.36687903961026097,9.770460352276068,0.0025072422929611374,-0.0004813893665318368,0.0023374922998722
1681483942.9307835,-0.07234727238329348,-0.2531324015065041,9.879656517916157,-0.0006070948246715874,-0.0016872766323546707,0.0013987097950543
1681483942.940833,0.14712654764259933,-0.41003248181675356,9.711626284684558,-0.00026961000401257916,0.0017824606658252207,0.0004189516144346
1681483942.9506817,-0.18377188014552248,-0.5394937668954163,9.838732586952498,0.0019633595673339433,-0.0011377486597238973,-0.0014801779802415
1681483942.9608035,-0.019679699293179063,-0.30872567800815304,9.82006476022275,0.0014690122834977194,-0.001978583600421164,0.001003838518542
1681483942.9707525,-0.020477166315163203,-0.2998841743269653,9.83369977752163,-0.0012254958700304759,-0.00151590650860047,-0.0008297567296299
1681483942.980755,0.006200930021135865,-0.39560770089143904,9.783514970739656,-0.00018502082490073064,-0.0015524176461283383,0.0003913918003913
1681483942.990763,0.08563674685601134,-0.43331598111611774,9.727145348282487,0.0010405817425817965,0.0006678689267651427,-0.0002355768851462
1681483943.000757,0.006819441242763243,-0.24938084539010372,9.828433918326542,-0.0014292881378739943,0.0009409121817831983,8.033541557455975e-05
1681483943.0107949,-0.12201554335129293,-0.6579893407206152,9.76628647189593,0.0036672803460951657,-0.0008762543706349893,-0.0017979759763452
1681483943.020794,0.032014471013994523,-0.20630077569144353,9.84996123371264,0.0012913128490060267,-0.0009906414649334917,0.0008808996604297
1681483943.030811,0.05411759888466533,-0.41244626099833703,9.771655419029948,0.0008766454009863978,0.000907033293060682,-0.0015778066630933
1681483943.0407696,-0.0512234293664852,-0.3209889526807246,9.826546640023341,0.0007034658875212257,-0.0004225467899073886,0.0003362492384862
1681483943.0507796,0.09044997361608696,-0.35689994572977224,9.764845595417963,0.0005741745373870155,0.0015183430823504376,0.0009095722303267
1681483943.0608535,-0.0467610560135934,-0.36782251145079753,9.818141902200399,-0.0011346325707141396,0.0013555331172856637,-0.0013211164664003
1681483943.0708127,-0.16047044568227764,-0.32119220711307916,9.90316085738081,-0.002101688160635053,-0.0017915787732395597,-0.0007530073675784
1681483943.0807967,0.20870305532298397,-0.5669473737198399,9.6180464131533,0.0013497989440917168,0.003057266520960365,-0.0016399906057391
1681483943.0908444,-0.16756552597071273,-0.31421175066885515,9.90585974929096,0.001134478294507807,-0.0010536005677208864,0.0007065558998387
1681483943.0958524,0.03210009118442424,-0.47742788963439214,9.761337398044828,0.0006598659644855814,0.00021301462767073833,-0.0021086400415275
1681483943.1097386,0.07085723829817545,-0.3163254376766292,9.775168730604546,0.0010610919074766426,0.0014147743192124366,0.0017433151329409
1681483943.1198325,-0.008560135437940725,-0.3701589761593107,9.820284151059752,0.00030372906428168954,0.0019098761958348692,0.0002450066345285
1681483943.1298225,-0.048478634739702375,-0.4900331215750208,9.795135894986048,0.002100070451058539,0.001338797452291528,-0.0012805073096874
1681483943.1397958,-0.0346018304211602,-0.08032366673124457,9.922259753410463,-0.0025345650545720573,-0.00024709153170262936,0.0012742999638671
1681483943.1497412,0.10442135643794874,-0.5982718587060991,9.67162227958348,0.0017476729580270108,0.002102831438479227,0.0010675356275409
1681483943.1598663,-0.24569949032741645,-0.2852399647512021,9.966025831923922,-0.001590941826543901,-0.0021909323796304066,-0.0012283672153476
1681483943.169709,0.15576940185015528,-0.5061990918899106,9.659194429252324,0.0014738380951973063,0.001381625220258591,-0.0008279033977064
1681483943.1796994,-0.10310275679359887,-0.4044461465181169,9.864663873256275,0.0014220685015854588,-0.000310782681616933,-0.0015897175803307
1681483943.1898525,0.03665631511043568,-0.22001826927267149,9.819984196004263,-0.0022149440214020823,0.0009036790800705337,-0.0015896989538792
1681483943.199919,0.04298083311788072,-0.5539301659760416,9.719062811355652,0.0028048771073350483,0.001116047451807093,0.0005448617699098
1681483943.2097678,-0.09973822117106729,-0.19973209459889607,9.904322975418582,-0.0014866338331221782,-0.00018782799700812732,-0.0007187339983407
1681483943.219772,-0.10872117478157109,-0.46209680511715095,9.822531400402488,-0.00026025519711420997,-0.0018008855846268752,-0.0022807533427599
1681483943.2298455,0.18331373973562534,-0.30433368129656035,9.72224233453713,-0.00047894876954524744,0.0012802921422448413,0.0004550953122329
1681483943.2397394,-0.03454728760370301,-0.37849383504697554,9.824871818046711,-0.0017511487654375036,0.001521696890914867,-0.0020736223127219
1681483943.249942,-0.0007240734773063269,-0.44066325770221576,9.775259231490637,0.0011944569262634693,0.0008537431601904139,0.0009732837748255
1681483943.2598825,-0.018565680690214758,-0.22145034576562309,9.861822207905439,-0.0017164882840836318,0.0004789845030560953,0.0015577676781926
1681483943.269772,-0.04841194034228868,-0.5574883704631515,9.766018829593524,0.002120551930447112,-0.0005287111254965026,0.0018528485048104
1681483943.279771,-0.04988739090521816,-0.37873330523556037,9.831606185381874,0.00017260786399636222,-0.0003260439713281818,-0.0016891777090254
1681483943.2898166,0.1351440454054754,-0.23368728282858028,9.76406372749667,-0.0026746496629176273,0.0024563651195968024,-0.0010569931514087
1681483943.299776,-0.04602642898888105,-0.3974363781028731,9.809673546686621,-0.0007933752473996538,0.0008708809727609074,0.0012109392514925
1681483943.3097806,-0.1953209931737038,-0.5185513168850195,9.850525902754569,0.000637884590285316,-0.002043412958421256,-0.0016154281369868
1681483943.3198223,0.09726819766667108,-0.25790785274165007,9.793942136281014,-0.0006555268968532169,-0.000532060077468656,0.0004740927793558
1681483943.3297913,-0.09026221651632751,-0.4508648993542899,9.823013494716335,0.0014623039974137476,-0.002691981788998616,0.001050030401117
1681483943.3399563,0.1414597381281241,-0.4227826809078067,9.700161991622013,3.215431376405469e-05,0.002012699773852145,-0.0029989841900292
1681483943.3497417,-0.11907818994969174,-0.4651300591828132,9.837106512934767,0.002013629987029046,-0.0003312742830332852,-0.0029889505862716
1681483943.3597853,0.042361109379562126,-0.2942462527596563,9.806234215162592,0.0012675053189683302,0.00028713391738278835,-0.001674629751918
1681483943.3698578,-0.09627739665596836,-0.1706255011480477,9.915217397856424,-0.0029819563253531164,-0.001574052852056011,-0.0016493301413479
1681483943.3797927,0.1789061192480658,-0.5218128929018927,9.6455746183685,0.0012309702387542,0.0016010383536010984,0.0008287570049528
1681483943.3897965,-0.06556077892017145,-0.3314584315000781,9.869931957332492,7.127753329395926e-05,0.00037206969019664484,0.000640617737687
1681483943.3998692,-0.03832558420421629,-0.4093622808736783,9.816174827941506,5.489593334855007e-05,0.00016903713450808357,-0.0008759549859437
1681483943.4097707,0.0529878776613915,-0.36547530581407184,9.78310572170024,0.00037748563681073755,0.0012020742616426652,4.904646952713448e-05
1681483943.4197395,-0.10514887697156486,-0.4090250351688871,9.842804662124164,0.0008956765335834159,-0.0007242711617253424,-0.0004780902567777
1681483943.4298797,0.044605166415541485,-0.293285491615049,9.79945355721494,-0.0009546571947654952,0.00047449335888198244,-0.0004796003963324
1681483943.4397824,0.0003488603197287811,-0.5306005239573385,9.740574391349057,0.001994267108814988,0.0008031113696523729,-0.0010230792726848
1681483943.449788,-0.0449949798197339,-0.17650320300795336,9.894195901179177,-0.0007427005493816415,-0.0006881477604067202,0.0016911363741623
1681483943.4598572,-0.07233021129410791,-0.5419462889742216,9.779755932730664,0.0017394599820575504,-0.001190714267172038,-0.0005541003815356
1681483943.469804,-0.02608823470091437,-0.3032522059556108,9.831100988872425,0.0004963324753417179,-0.0016306441112925504,-0.0002929428632829
1681483943.479879,-0.11508956561169376,-0.439779477808142,9.832233803347922,0.0010845606830326474,-0.0034657286713737434,-0.0018914686556432
1681483943.4897702,0.18857300273091201,-0.2832944483809795,9.73000929030242,0.00027168987917325615,-4.218229201220988e-05,3.524927483017164e-05
1681483943.4997728,-0.020544471534603172,-0.3155032118435909,9.830710660048666,-0.0013003903298514712,-5.670997355809911e-05,-0.0008770574390414
1681483943.5097911,0.06840882528825337,-0.5303598253578408,9.70895175678723,0.002966933018498171,0.0009547283764131368,0.0008414209546994
1681483943.5197935,-0.03534251680395828,-0.26987897560993174,9.857984736672368,-0.0008492706491466823,0.0013257534382118412,-0.0018728200852397
1681483943.529746,-0.07915124055802697,-0.37944228721133405,9.849634162845339,-0.0002949211474841479,-0.000572665599729563,-0.0010502943809602
1681483943.5397658,-0.06752834679284822,-0.36367737543009854,9.832184991445358,-0.0011617997022816023,-0.001314746309602461,-0.0020948660134795
1681483943.5498395,0.11357519426919885,-0.5436479112443688,9.69316260574074,0.003584221124764606,0.00040821875178533105,-6.97942491147427e-05
1681483943.559776,-0.08047410211656716,-0.16960341978790694,9.921700325474305,0.0004233212648085982,-0.0018709266670638997,0.0016926334606491
1681483943.569805,0.0189963412747287,-0.45586536220542384,9.76231045659411,0.0013971008854885992,-0.0010044168420778863,0.0006216039142113
1681483943.5797937,-0.13027649365373176,-0.39823705601700765,9.864574590043974,0.0005108745670602833,-0.0028860836379924243,-0.0016996089875224
1681483943.5898056,0.11809043048540155,-0.3086486191309626,9.772935526765592,0.0005388002678558449,-0.001084888649731728,0.0008138393709909
1681483943.5998669,0.038326822050708594,-0.5165845567107881,9.718466836310247,0.0029777488772189374,0.00036163937219370096,-0.0003763907629523
1681483943.6097944,0.11893385828343472,-0.26595586317713793,9.771256845096838,0.0013393740749705104,0.002572224848871131,0.0011714854004334
1681483943.619818,-0.2732781956803883,-0.309933947686768,9.9672649844623,-0.00048304887175816915,-0.002740042846771503,0.0008093811880339
1681483943.629902,0.13948132857847736,-0.3353504560801206,9.733112846846254,-0.0007769681722060069,9.304575708185572e-05,0.0017917262698997
1681483943.6397865,0.04016158071581404,-0.42068304883589397,9.780045065005718,0.00040023230701695427,0.0009647654137482616,0.0020513689337771
1681483943.649762,-0.1133760395169533,-0.3352276117433168,9.866179732409055,-0.0014803046537302902,-0.0005491923150360538,0.0001540998887744
1681483943.6599033,0.023701077167086956,-0.5505610573691345,9.706453744213746,0.0017040510028784746,0.0006876226421641695,-0.0007522790733251
1681483943.6698067,-0.04746446305181472,-0.09506998371311694,9.919923642650986,-0.0032699347490703157,-0.0006166309883946461,0.0007169846754063
1681483943.6798258,-0.012469646414095483,-0.6744021211609433,9.712423919716635,0.0022330646132954174,-0.00020347144704255065,-0.0006736423860762
1681483943.690308,-0.02493243691906151,-0.29426623991316314,9.839346871339416,-0.00019322550193605432,-0.0001643832920451985,-0.0019246223423156
1681483943.6998186,0.01114510844639305,-0.36816278161657867,9.795419159726874,0.0006222412627126161,-0.0003692716288857364,-0.0002456454135004
1681483943.7098062,0.012660063497029734,-0.42133217848410764,9.773014020526706,0.0011683774134585703,0.0005602111702242515,-0.0011095122940364
1681483943.719852,-0.0011205343829340695,-0.3051852209181113,9.826351332290788,0.00033128075041146006,0.00014706726989283583,0.0002177820966121
1681483943.7298143,0.04704700182711947,-0.33117424986626526,9.789988655175552,-0.00025096025795614434,0.0010981283799437872,0.0013625520983136
1681483943.739756,-0.07016727398977422,-0.6003827788375334,9.76360131320525,0.002122808154869268,0.0011901407345899432,-0.0031643889419261
1681483943.7498136,-0.061961978255331854,-0.19591432238854287,9.89209954107798,-0.0012105897783105657,-0.0002262296523729762,-0.0022468681022051
1681483943.7598135,0.022178916989588706,-0.5357978030890646,9.734487529366445,0.002711762697904805,-0.00016995828015638125,-0.0007884090341154
1681483943.7698305,0.04386000500744076,-0.07455418034727167,9.879447610923986,-0.0028087307441373027,0.00033817797143435575,0.0009796192130547
1681483943.7798164,0.04260105619151325,-0.4747710244805677,9.739970438868696,-0.0012634992856773847,0.0017351310091764007,1.5097782621929226e-05
1681483943.7898278,-0.11574609047080968,-0.40379523239693377,9.853943736831006,-0.000398105393624995,-0.0006307826140855301,0.0004718545783784
1681483943.7998986,-0.1731484372248153,-0.4559726809641261,9.779748490877559,0.0011296201454828398,-0.0024494683688501355,9.224027921522575e-05
1681483943.8097684,-0.029304762883097857,-0.12652432591348373,10.0225996631146,-0.0036588661529746228,-0.006261922736098926,0.0013722518811359
1681483943.819809,0.39138789824259784,-0.26496902882469575,9.560168950154269,-0.0035888087579325633,-0.0008412847675131523,0.0042429983109709
1681483943.8299146,-0.9937281475113117,-0.31889970767969295,10.010299005111696,-0.002102002631206772,-0.01915209172715396,-0.0082663551479104
1681483943.8397863,0.751154022520606,-0.0028879985120441928,10.044387703122194,-0.010173846696811087,-0.01684623295756687,-0.0107898081227663
1681483943.8522224,1.2469970542970483,-0.833129460566101,9.688691182768277,-0.0039016907981840347,-0.0027601636548206963,-0.0053075866348568
1681483943.8598804,0.8177750296741626,-1.0737231964571556,9.483384374059009,0.006704561061214194,0.003393245570209148,0.0027777765604209
1681483943.8697553,0.15301253476666163,-0.22043816252832846,9.594121554414578,0.005484140777522321,0.006482265620064616,0.0066376051359351
1681483943.879823,-0.8208361634315261,0.02644054566934105,10.005958286351248,-0.001587896640326811,-0.004799074902803015,0.0099035350099679
1681483943.8898427,-0.7670541555488483,-0.7312506597964967,10.084768754100503,0.0008697574078122022,-0.017105875012626944,0.0052312524017419
1681483943.8997908,0.18036354691113599,-0.43331559250434576,9.88226739366425,0.0009490620359251375,-0.017876613150552507,0.0034677910112317
1681483943.909812,0.3144183596616639,-0.43343185588769234,9.702438761399367,0.001976805474662972,-0.013749068866374076,-0.0041477445087853
1681483943.9198804,-1.3054542316644444,0.43644988819881175,9.458260370111898,-0.0019210761921111422,-0.028113938299059057,-0.0131142216309431
1681483943.9298642,-1.4805563599418423,2.478437984827412,9.798498156322625,-0.038525756736703665,-0.05629492521825465,-0.0210804541170123
1681483943.9398768,-1.3520931601161508,1.1305737744015143,9.818780162531732,-0.05036741787817671,-0.07074311880948107,-0.021276648393226
1681483943.9500475,-2.6269466257086673,-0.31172631492279435,11.699035308357708,-0.058057845208951415,-0.12918985200884603,-0.0194436975329641
1681483943.9598513,1.4795633673164081,-1.2418188632977787,10.462268605213266,-0.020235420200301252,-0.14028628875687382,-0.0216372490435365
1681483943.9698167,1.4053049828332767,1.0163970225077692,10.655861506975462,-0.04605783075849,-0.14372129845157083,-0.0384874132036689
1681483943.979904,0.6187273715369572,-0.6343192425926011,10.410391625947248,-0.037636612280256665,-0.16986451405362116,-0.0524817418813232
1681483943.989795,0.738185365857305,-2.3758728485444482,11.072614569410632,-0.03164077234032962,-0.2099145875025459,-0.0599328253924373
1681483943.9998536,2.331561857978356,-2.4566734827330508,9.805448600612422,-0.0022475905154423523,-0.22642432555568626,-0.0474607658147338
1681483944.0098877,2.636529818427971,-1.8433135143131332,11.013172249361723,0.004108218331378885,-0.2542943229999581,-0.0348135319113258
1681483944.0198956,3.8367063542128164,-2.628488303257468,9.744716403304201,0.02775272004635587,-0.2530304629739725,-0.0134667626156929
1681483944.029869,4.122993454399964,-2.892654266877933,10.561879525960203,0.04906250074406872,-0.26524247426908254,0.0123730597511407
1681483944.039873,4.7395521366485776,-4.418151442660928,9.18406705264092,0.10047692112529107,-0.2545449432268124,0.0446349892259117
1681483944.0498264,6.024042733002485,-4.48002424558344,10.352437513440048,0.1483454857744014,-0.24047762829791675,0.0894262331963058
1681483944.0599108,6.409540064154502,-3.8944891601790745,9.082634371480781,0.20067783133241954,-0.20263406832763525,0.1294006395578857
1681483944.0698423,6.534438285332579,-1.8223521068541324,9.089138032133457,0.22532060597194892,-0.166761647832201,0.1620302784681793
1681483944.079846,6.75600024135011,0.07576171697206424,8.509216921014264,0.2302169113530075,-0.11336927671497093,0.1898468721151825
1681483944.0898004,7.143783630145559,2.1648269578470725,8.57811343362655,0.20613121365894047,-0.052661015272073654,0.203116832995462
1681483944.099789,6.156053642849007,3.8505938242175755,8.048573355149243,0.16496102302823443,0.0075586429827810215,0.2102385896683212
1681483944.1098242,5.276203887571707,2.191705838363716,8.413811383655563,0.13069688043388342,0.061946927081510644,0.2107064116240021
1681483944.1198356,3.1503525810652664,-0.5929911054924322,8.903609951685544,0.13258264894320748,0.09686153740518964,0.1979618507862564
1681483944.1298149,1.6826736794548933,-2.2138616565383544,9.50102375094137,0.15459368477596558,0.11028142512248361,0.1819582271814819
1681483944.139803,0.5969348995962468,-1.655708971882213,9.853500961303892,0.17392056272252718,0.1225026265083638,0.1626041221857544
1681483944.149919,-2.8975573647300545,-0.6109374330514407,11.226073761412549,0.17246056725335532,0.0923889851866716,0.1397470075130936
1681483944.159785,-4.3936991737824735,1.1458476614968107,11.591697538158371,0.15600906450047367,0.04556063059427754,0.1173619467258926
1681483944.1698017,-5.828830317190498,1.967113440778205,12.625212596844332,0.11532648816090864,-0.013498802035107942,0.090496360087442
1681483944.1797726,-6.359340467543344,1.882917015008209,12.964373306847527,0.08817741603762351,-0.08150868366872417,0.0651874530554291
1681483944.189773,-5.609612884319794,2.936661769841071,12.188557100612424,0.0499528423517128,-0.1350413408005997,0.033288220638084
1681483944.199851,-3.5344205742159645,3.251831357696249,11.289735594292464,0.009035187753422987,-0.16168605179730994,0.0016717864742044
1681483944.209875,-1.7436933355162079,2.9422232604075798,10.12104355218171,-0.018318945916631958,-0.16506210166172755,-0.0131740302353624
1681483944.2198746,0.6587783533448448,1.0358824477862587,9.507866398862719,-0.025188323585526612,-0.13835073046772728,-0.0135948446154121
1681483944.2299297,-0.9032961083920331,-1.9429732008782268,9.102075483716913,0.008510317579500534,-0.1272709571454385,-0.0187760267912868
1681483944.2398243,-1.938266938757257,-2.201518539873863,9.005257078233074,0.04113745744844192,-0.1352290145159299,-0.0187523451208594
1681483944.2498024,-3.1940349016927363,-1.1284875342491447,8.856647433725245,0.06383887163002894,-0.159751303514171,-0.0092509782447937
1681483944.2598908,-3.2273219947871925,-0.5085208021907202,9.849942025444825,0.06492339114076759,-0.2039582775270207,-0.0041405151172999
1681483944.26985,-0.8112220588096479,-0.7629187443688491,9.131068823149192,0.06909504955985117,-0.21944294222224253,-0.0008605367078903
1681483944.279873,1.6729351278420588,-0.2966796764517374,9.315432482033566,0.059918877378606114,-0.20826281904335162,0.01136934174751
1681483944.289876,3.138707293609526,-0.6755824941124116,9.047495275355105,0.05701439495089941,-0.18009431237963905,0.0087437888101216
1681483944.299792,4.402231219234911,0.5211004150316169,8.618082098913376,0.04151675331864679,-0.1344707530209215,0.0127713938668843
1681483944.309867,4.07432068069876,1.403424084724966,9.07791162417538,0.014418995555725433,-0.09626919481161131,0.0116519515827771
1681483944.3199892,4.824866570477537,1.8886116065471037,9.246100085829559,-0.015741447020364046,-0.05603988353827355,0.011542306044745
1681483944.3299036,5.214522844197079,2.1740867038625624,8.721174503561247,-0.04329781820139473,-0.0036564243794294272,0.0135924888268586
1681483944.3399436,3.0010086293946863,1.5234293825185132,9.28814621859157,-0.06060084635365069,0.017755675517571363,0.0123903413728352
1681483944.3499107,1.7088605600466682,1.0216226693485682,9.303861253245426,-0.06844758379385402,0.018517787623327064,0.0102590525016661
1681483944.3598285,1.615589323141262,0.8499571750775147,9.266850803128962,-0.07083982576596946,0.01931047462203977,0.0090755543165382
1681483944.369867,0.6401390668737358,0.6409992709489969,9.535179639029053,-0.07009607116805229,0.005124887323080538,0.0040265701205011
1681483944.3799317,1.124442866532172,1.5645058018212263,9.776533578380288,-0.07984511546679744,-0.001681221977909471,-0.0058855891733888
1681483944.3899033,0.7814747377206217,2.1034081418226345,10.167470117377283,-0.09838998905209112,-0.013477486795757368,-0.0182795201003078
1681483944.3998554,1.559758160908612,2.13226010386976,10.123922208139225,-0.12222909660069155,-0.016698775979771083,-0.0315904889761928
1681483944.4098408,1.9649125635021556,1.5238837948099884,9.252795460778094,-0.13674266720828315,-0.009757738124715976,-0.0386348639189723
1681483944.4198802,1.3095712480781585,1.290618597848182,9.211584469975405,-0.1528897963736455,-0.012592738065583501,-0.0399471607565406
1681483944.4299004,1.3376605752527042,0.7954244300128092,8.74075624663829,-0.15998285319514402,-0.012673732591542072,-0.0391474079846862
1681483944.4398012,0.9659848016716431,1.136487623965958,8.80614385680268,-0.17526926191200287,-0.015348806329864738,-0.0385294307529452
1681483944.449919,1.3055695932563198,0.7770074395959543,8.67134199271675,-0.18291782127570652,-0.014618048535345426,-0.029815779304457
1681483944.459835,1.6379267994354325,1.3655325756684962,8.68799932786452,-0.20011352295703258,-0.003356147061868247,-0.0292265184729818
1681483944.469903,1.8289615004631101,2.3147449305353103,9.170074430617303,-0.22521318479550512,0.006711037262802127,-0.0215965893625739
1681483944.4798682,1.683655914783394,1.7921345328946878,9.037766024549468,-0.24654966895171276,0.019140729306385506,-0.0243921664118293
1681483944.489882,1.2908167511799717,1.6642091065690263,8.920199522290767,-0.2651056471652149,0.02822831899594931,-0.0344354708253863
1681483944.4998722,0.966600434224262,1.5328503827364859,8.793447552643466,-0.28106658962882647,0.03225516644319487,-0.0410766613244537
1681483944.5098069,0.7696906137493441,2.053530562003645,9.014820321802116,-0.3055421079286164,0.03354057251734295,-0.0500582878052714
1681483944.5198886,1.2750853173074572,1.1885736582993396,8.800272102985131,-0.31688009693875047,0.04231481552851703,-0.0485313360154155
1681483944.5299065,0.5412495244083019,1.6061396987929155,8.651705553793468,-0.33109202028028273,0.042487221503818715,-0.0432090733706477
1681483944.5399797,0.5535827067768205,0.9366718348896571,8.800103781403037,-0.3480858405217061,0.042326720705454804,-0.0372140195726874
1681483944.54982,0.4045128202109089,-1.3958447877406166,8.946160147543988,-0.33616087079424983,0.0357474016692968,-0.030476630902243
1681483944.559836,0.5323342049847538,-2.437258861777437,9.221729622470118,-0.31075368818239596,0.02921932438719897,-0.0290974651038173
1681483944.5698905,0.20185635011446298,-1.832552265094529,9.515305636935274,-0.3017245739727211,0.020248407861135992,-0.0316057924687389
1681483944.579921,0.13252143986733111,-1.4089709323292154,9.626116257347647,-0.2952751954422982,0.006396827069933266,-0.0318792176007751
1681483944.5898926,3.402646830738317,-5.3721986234685435,10.609253401384773,-0.2680868998604416,0.03093314006252201,-0.0297910694539073
1681483944.5998662,11.14586215716137,-15.463139552773269,10.705179857420333,-0.10073112167519943,0.14797190118122672,0.0165770032868262
1681483944.609912,8.428751762888492,-12.014218803885088,9.15158012924557,0.040314149263058235,0.267833013973794,0.073330915296125
1681483944.6198614,6.272504480388773,-5.449296025276606,9.402220512581565,0.10270693877477467,0.3578158679659516,0.1460676181555267
1681483944.629856,-1.6254007001932143,-0.17663342916036448,10.033849231339586,0.09396356753580404,0.35900284146301464,0.2011024046183105
1681483944.640344,-5.081979979640451,-0.28748954811999283,11.35824103377746,0.062268135910248455,0.29392160801643574,0.2271903890610214
1681483944.6498773,-4.1667499274774995,-1.8813314628048137,10.349105609057846,0.06347066623899403,0.24088746954753462,0.2553261506796356
1681483944.659968,-3.6355685489995437,-6.485003718242657,9.238254545210523,0.1068639340752846,0.20208606363247966,0.2470328945160385
1681483944.6698947,-4.142505361338583,-7.745327560358883,8.398528566385545,0.19149941076935414,0.15325942981884635,0.2349169689655777
1681483944.6798377,-4.283229433810488,-5.475719298293551,8.45581915359699,0.2412234786611351,0.10996601860601125,0.2130336153746124
1681483944.6898584,-5.295491803690195,-4.1209388869351,9.43755996017789,0.27162008994642367,0.0478993319011898,0.1773250091314789
1681483944.6999092,-3.6571739681552025,-4.5639698468001635,9.206729879644495,0.3022580951581849,0.004519916418716884,0.1428687858820435
1681483944.7098172,-2.618800906632884,-4.86597123055888,9.265255170584181,0.3395801426912788,-0.019132966510695792,0.1092466327786919
1681483944.7198985,-4.927175455439739,-5.723148296442526,9.933150988693354,0.39383848554918677,-0.07389339410070817,0.0748069647193428
1681483944.7299294,-4.861201031900552,-2.685191218361257,10.586175604298345,0.4148514477129939,-0.13016089786947516,0.0496604393661495
1681483944.739927,-4.440964834827264,-0.1916032182164316,11.219024981344178,0.4005507027202928,-0.18209946960092796,0.0247304241598125
1681483944.749934,-2.936559244217685,0.418069099743071,10.746616253297356,0.3855022032116244,-0.2174380454384814,0.0019522267935339
1681483944.7598755,-0.3064718741033493,1.845196226837887,10.508462804767861,0.3467923206563421,-0.21606871654375004,-0.0286377065389875
1681483944.7698734,-0.24590629292534413,0.9679456283437168,9.582177892800797,0.33488209280765396,-0.21684980741374854,-0.0456058878957751
1681483944.7798924,0.4323498869936967,2.5951095904530406,9.462345715835086,0.2994764409260135,-0.2108022352929583,-0.057848402535868
1681483944.7898512,0.25861386948966836,1.9410061283103222,8.994540558458386,0.2835366246258752,-0.20538741913024677,-0.0586938944220069
1681483944.7999609,0.015336227347322488,2.5498423503985217,9.512147655367633,0.2581840055532115,-0.20838953394446585,-0.0555642407893661
1681483944.8098807,0.07964750191765324,2.2417389294710603,9.496504607724535,0.2345141140040947,-0.20539727967414015,-0.0503813673316959
1681483944.8198698,-0.2063038215902545,2.8714426553476495,10.245893911626334,0.215480122878789,-0.21369806672909045,-0.0337543909012797
1681483944.8299742,1.0135516051187483,5.0687426395489155,11.064589144608002,0.16738521070079954,-0.2085293987676079,-0.0194794398307326
1681483944.8399312,2.5728806695270277,4.6893628314014615,10.69024104302779,0.11902105274406675,-0.1821435194395631,-0.0046460924244943
1681483944.8499067,4.171682164664088,4.162465180824851,10.15405132325375,0.08377466235075247,-0.13318003641360043,-0.0001990344648707
1681483944.8599176,5.2150851402584,3.755194494613619,9.872671550035223,0.05078213098670549,-0.07393501440393094,0.0052178662695463
1681483944.8699155,5.373197495530337,4.9653371090154135,9.239666360663511,0.012683796842482437,-0.00977991034812679,0.0002226778265562
1681483944.8799214,4.827446988243784,5.7966002418177505,9.344418317457151,-0.04719860452871161,0.04738334901939279,-0.007714580981386
1681483944.8899188,3.965766909023391,5.714599665152056,8.544165715075044,-0.09980417993468123,0.09739221419766039,-0.0142992560326579
1681483944.8998597,2.4301154085355168,4.379873049816891,8.82974281940948,-0.14375533497645693,0.12595436767430962,-0.0203752901911262
1681483944.909906,-0.3160690372681886,2.9732853335751486,9.401281380384836,-0.1690810697415783,0.1219676438043823,-0.0288487442343953
1681483944.9198847,-1.2528472770902412,1.0107832332509832,9.825897481667795,-0.17502552079967185,0.10151390674530923,-0.0420084719120982
1681483944.9299808,-2.3662212896573345,0.09593959206724398,10.054525549673333,-0.17301871763887838,0.06624653666081436,-0.069019721126509
1681483944.9398518,-1.8274287747802374,-0.6333865404904403,10.601002437850006,-0.16966265982325707,0.0312760459911539,-0.1001124542712691
1681483944.9498887,0.6567578417994351,-1.9293931685469812,10.973421461551087,-0.15896198718000631,0.02574412073859743,-0.1134347182273391
1681483944.959935,1.2924384825122157,-0.8235512507426749,10.9252783885125,-0.15532027629153244,0.025290721594686576,-0.1042933922767165
1681483944.9698884,3.6959534116284884,0.6786463863087394,10.317875858259285,-0.17487310993195548,0.05591518042996682,-0.0734009605407241
1681483944.9799771,1.9973742802683552,1.2138525469982173,9.759356143897387,-0.20264073684809353,0.07219056850927626,-0.0320690211414817
1681483944.989894,1.945667839138248,-1.191338926942324,9.726364542022162,-0.1977661331007683,0.0771325664555932,0.010601309822547
1681483944.9998755,2.233194002074304,-3.0687673642554665,9.52925138342866,-0.1701624630048065,0.08868716400693372,0.0569124917924877
1681483945.010027,2.4519172796634923,-5.200936040700278,9.83944482485087,-0.10302965298798998,0.10206692342252238,0.0869940209627624
1681483945.0198898,2.0999657987647877,-5.275916767974364,10.505673547879674,-0.04747091128996428,0.11306982005730662,0.1023621323943611
1681483945.0299008,2.5117672729954625,-1.0521531071962777,11.228074907946134,-0.027327096878269168,0.12709844505685405,0.107434539818811
1681483945.0399203,3.6963479418083165,1.048865042723061,10.81957876789473,-0.054026226915775306,0.16520840688609975,0.1002982023597237
1681483945.0498395,2.65476869126555,0.6151771252264396,9.990553794535014,-0.0743683052860964,0.1976143253874562,0.0846817407250877
1681483945.059903,1.17624073670116,-0.22297135513264638,9.05760159295703,-0.08075310567597954,0.20997415110290146,0.0736711833119865
1681483945.0699244,0.1400126562720477,-0.02946433125813788,8.314595726074652,-0.08113799058329983,0.2138426554402844,0.0678320291877266
1681483945.0798488,-0.47611991059864334,0.6619185927048027,8.729780273535836,-0.09274936707926557,0.20421839674698877,0.0700972664595123
1681483945.0899198,-0.1271813507372785,0.18240242674992155,9.255878540207467,-0.09736020342100209,0.19854105699800584,0.079617536389875
1681483945.1000383,1.199918229418094,-2.692274085160992,9.919732678567064,-0.07177195210690175,0.20428327246363656,0.0899382147431847
1681483945.109932,1.086684291125867,-2.7797566797092315,9.448037450621216,-0.03226528740498737,0.22035158253556397,0.0991785589099403
1681483945.1199205,-0.10338537153110082,-0.5425593830851533,10.422059678715572,-0.025021536678218704,0.21750245503374963,0.1122595656157013
1681483945.1299715,-1.6695613130361842,0.2278455202187382,10.890820468454733,-0.035315148671560624,0.20055679740670038,0.1209269899368759
1681483945.1399047,-2.473158431376353,-3.172193097844306,11.306722499023806,-0.010004611094244123,0.1630789242493839,0.1229900929570671
1681483945.149861,-1.5230555253052158,-5.904448392440737,10.542887802619452,0.04644553916130772,0.1464780926901546,0.1243504944682594
1681483945.159932,-1.126608875673744,-8.21912778853185,9.902835788833185,0.13953944111732458,0.13381198017933763,0.1250246602535721
1681483945.1698914,-2.7641428624748032,-5.906711685715234,9.658506294302146,0.20839470248993117,0.10926606120353143,0.1227774831891533
1681483945.1799054,-4.320441854075151,-2.0614390718968965,10.332731931155138,0.2226211182399724,0.060974266745799525,0.1150956291199203
1681483945.1899931,-3.0597997710367997,-0.42072915015870993,10.231073565915281,0.2080634345686705,0.025111886592382053,0.1037984404206749
1681483945.1999528,-0.7959899597525639,-1.6992330351259692,9.617683923687435,0.2122847484644984,0.016238679123498787,0.0962494153023239
1681483945.2099109,2.2893601333301703,-0.785834432896349,9.446531568742776,0.21676237736940068,0.04662276403932501,0.0800004366279121
1681483945.2198837,4.077387149070988,4.881879963386724,10.193260491552358,0.16344660595477942,0.11318243647805572,0.0447040300310131
1681483945.2299905,3.6708457002506836,7.909334095913326,10.762821278974872,0.062226634236060334,0.18234333711295336,-0.0078403309493783
1681483945.2399902,2.96699383643283,7.70038514213148,10.93227921821627,-0.04640910113388182,0.23732137480148865,-0.065627926266146
1681483945.2498956,3.6431675207346017,3.5229544340410825,9.579533410109311,-0.08834378548717065,0.2880242526256267,-0.0990767192601684
1681483945.259948,3.6106279254174884,2.100405875120593,8.329639439642774,-0.10316775840651105,0.33565795061471954,-0.1275081944226745
1681483945.269959,1.6974286403120704,4.2841453884045695,8.416919285524694,-0.138920102774488,0.36213975238162693,-0.1450255822896484
1681483945.2799118,-0.5385255502546537,5.445519060594712,10.012698515909644,-0.2057524761086383,0.3433439953639973,-0.1426771145820144
1681483945.2899797,-0.2764256962149515,2.107628413999362,9.648977098208602,-0.2285936647826673,0.32214175794346656,-0.1369298708199981
1681483945.299905,0.025932654561406795,-0.30196016305433576,9.722983716127677,-0.23179692748032396,0.3070964046137091,-0.1318890613078597
1681483945.3098843,-0.3515760499996106,-2.8678981738406217,10.203207268664363,-0.19841397994800555,0.28078309889017505,-0.1076443728565696
1681483945.3200722,-0.41291579302287984,-2.6221700358758397,10.461076651707616,-0.15885744560381063,0.2578517174887308,-0.0881708723067764
1681483945.3300736,-0.5358691761046961,-0.7340501307489185,10.727933711947252,-0.14393528398501418,0.23362287131609713,-0.0681087535380843
1681483945.3399544,0.4063036623257311,0.32759182681018173,9.936546620912683,-0.14812111983385798,0.22625933219535063,-0.0474387903272632
1681483945.3499002,0.27074032773934953,-0.43998367101121455,9.783038062393851,-0.14403276614515798,0.2219259959620109,-0.021069840764952
1681483945.3599408,-1.0074075193616798,-2.6571187335404725,9.403813973264528,-0.11656470811893893,0.20412259359017204,0.014753971011984
1681483945.369984,-2.1790222811003983,-4.528253695763353,8.961297102804654,-0.05796070110107394,0.17836552573338524,0.0460166137159344
1681483945.3799448,-3.332532160704555,-3.768799802273885,8.850138248642747,-0.00705455086313185,0.13866795411791485,0.066838859343576
1681483945.3899462,-2.3469342197257426,-2.2264921252627676,8.849774394610394,0.019574617140316285,0.11728580469129239,0.0832154292107101
1681483945.399905,-3.3436403475443015,-0.8425735613878613,9.02606606588304,0.030269159153109248,0.0930523651932234,0.0767426702619072
1681483945.4099371,-4.365509072101797,2.0981295012769507,10.422167096083458,-0.009668076209111278,0.05723379043673166,0.0636752087116714
1681483945.4199994,-4.488362452998671,0.6110347568938066,10.588086637318696,-0.03098782684653944,0.02351869437108687,0.0407019245863434
1681483945.4300938,-5.747626201143648,-1.3800020997510924,10.949644412395607,-0.04028448401021069,-0.020134591215052792,0.0069077846087988
1681483945.4402852,-5.127496658998876,-2.2037118565393574,10.909220418197036,-0.023155094515326383,-0.06643422682830936,-0.012292224219394
1681483945.4499946,-3.734104436660682,-1.7978904609279744,10.611628540634067,-0.014547113116332135,-0.08982557744186465,-0.0341593523084644
1681483945.4599397,-1.909619014738919,-0.3533484875512694,10.349751801440707,-0.018354267308891576,-0.0983586555457905,-0.048834708756161
1681483945.4699092,1.1130306572775583,0.6572553669921883,9.018368632794036,-0.03882945266768435,-0.06786881066034353,-0.0528297547757152
1681483945.4798968,1.702761281894992,-0.01121900035925212,8.138964630768253,-0.04723729530745545,-0.027054185520122145,-0.0516670059918883
1681483945.48992,1.0443306518517628,-1.258074051199501,7.955230349620272,-0.03953667493897616,-0.001138902796398091,-0.0412395272910121
1681483945.499937,-0.23183354160956743,-1.494260383194042,8.034307061300527,-0.022685666963968346,0.006568593389488016,-0.0356546950101379
1681483945.5098894,-1.195407304366649,-0.9375894511984949,8.885280170295875,-0.016164517625242188,-0.003885141082460764,-0.0297110744326833
1681483945.519984,-1.09859802934581,-0.4511123626341702,9.389589655947855,-0.01343069286312006,-0.01686620729325528,-0.0247024141758207
1681483945.5300453,-0.9466459570063406,0.04756788512917619,10.100888856251176,-0.022348003894468282,-0.029567023358214636,-0.0293526642530683
1681483945.5399616,0.13546564041884374,-0.13884608971014367,10.096859012673793,-0.027759092048349324,-0.032492631122995136,-0.02812043694253
1681483945.5499525,0.5508683418213426,-0.5726889504642908,9.77109004644288,-0.028550492527683935,-0.028353258281445394,-0.0329351101576808
1681483945.5600612,-0.3191133119549988,-0.22976088615908383,9.87731072823499,-0.029405061977943587,-0.03503558197839829,-0.0364950199186328
1681483945.5699124,-0.5811608859517685,0.9440762936270068,9.876393621735707,-0.04509111065376636,-0.04819106533399777,-0.0387508657335761
1681483945.5799778,-0.8377064475262229,1.0816706100892546,9.569351594871168,-0.060317682811411547,-0.061049880252125814,-0.040443198060942
1681483945.589963,-1.3088207199300679,1.272309033579358,9.735145856234517,-0.07839323621533108,-0.08572929844179253,-0.0356478963553432
1681483945.5999763,-0.8319806553238728,0.9575955236754827,9.208388642204586,-0.08939711564339548,-0.10062148853411369,-0.031310041671944
1681483945.6099062,-0.8801488846889071,0.6653407331498539,9.263233553115466,-0.09779593660803948,-0.1155930427487776,-0.0272307742893222
1681483945.6200657,-0.1881411041985358,0.919396379669983,8.944566004047246,-0.10394075795504816,-0.12132037996413307,-0.0183144689112428
1681483945.6299484,0.2574934802861897,1.4061568157770128,9.191266455017375,-0.12175138124493097,-0.12021911965528306,-0.0144075036555055
1681483945.6400263,0.6320374609346423,0.72725056087296,9.052368366495797,-0.13140225964584706,-0.10906631156453622,-0.0112736581399563
1681483945.6508129,-0.5034461529234445,-0.2946547089857883,9.594604769216263,-0.1328318640712794,-0.11395761406943704,-0.0092909608542445
1681483945.659903,-1.252858965597457,-1.3790117675418465,9.72941119015163,-0.12326339134747315,-0.12426036328680698,-0.0126565333961967
1681483945.669891,-2.314826185340641,-2.899003460550176,10.171124983564818,-0.10036950429350994,-0.14814145480813043,-0.0110977117478374
1681483945.679988,-3.893169958150848,-4.041116813505182,10.322846025216641,-0.06540224385386158,-0.18815331930729431,-0.0040558248333159
1681483945.6900144,-5.663694028602337,-4.796699779416228,11.229556378041885,-0.01981099009517226,-0.25131655331989755,0.0115809354424949
1681483945.6999233,-4.537261542662779,-2.41284027167543,11.04208349073299,-0.0005182220784435449,-0.30417489948960774,0.0353918026626583
1681483945.709969,-1.3924990391562775,-1.439188199376073,10.50661247845603,-0.005034320717655006,-0.3092015499813417,0.0683024513960358
1681483945.719967,-0.0015800310622008874,-4.723342775430615,11.180321451585638,0.03667663918744208,-0.30680414048468957,0.1085292834282394
1681483945.73002,2.19855645880607,-5.033862295782486,9.877161647945076,0.08523202313790125,-0.27259461122307743,0.115295118415403
1681483945.7399328,4.743198585450526,-3.8912826297841208,9.054485589466609,0.12070480385201776,-0.20530236325733503,0.1292914140463348
1681483945.7499876,3.228098167700824,-3.453269758944801,8.412509118813531,0.14241559035836668,-0.14756958944287435,0.1313983786345001
1681483945.760076,1.6828033774427373,-3.0276876782026054,8.516510832014424,0.16401616021058305,-0.11783302071443529,0.1133779275656219
1681483945.7699976,1.6565727664964451,-3.0947868788026316,8.075068805025664,0.17869878033755185,-0.08390018414190512,0.1089966061950203
1681483945.7800682,0.010471368175489328,-3.8093357824789558,8.474349041209967,0.20528965663647356,-0.06986812221800606,0.0887220192194458
1681483945.790043,-0.9454639766653484,-2.8319988109827507,8.893604800988625,0.22779028958516495,-0.08062996424685351,0.0701432439923759
1681483945.799991,0.2946110658208152,-0.2549255725045553,9.40951428420076,0.21632112994332203,-0.07347250502387116,0.0538985680282589
1681483945.8099885,0.6705321246411311,-0.45867060053443276,10.40040860932519,0.21116643577299354,-0.06970993079737169,0.0382772486150738
1681483945.8199732,1.9560507883998963,0.4303310400269664,10.52540439990195,0.19707108236951149,-0.04637998380387936,0.0235981352121111
1681483945.8301165,2.6647620194507873,1.3758233342914212,10.251106918868908,0.18164861948287075,-0.012887052585657137,0.0096189777791973
1681483945.8399298,2.1712766009390077,0.03602090513960657,10.225778149074424,0.17360945945831646,0.01461057061800379,-0.0116947034880045
1681483945.84999,1.851260438174932,-1.1162871699452226,9.489414645481165,0.19200065983337328,0.03951652827360868,-0.0288648672908071
1681483945.8599637,1.7000206083452538,0.23836145476437276,9.490338633223223,0.1944127544545289,0.05675667153618015,-0.045254864966822
1681483945.8699946,1.5933591640302245,1.6125231991768698,8.83764489852242,0.18157172736984487,0.07775990612055059,-0.0571152803062919
1681483945.8799713,0.31389589878270996,3.0332696356668625,9.437418691114715,0.14761982724851486,0.07465890673342614,-0.0624010798096183
1681483945.8899798,0.049966025706026596,2.017634363116936,9.744788714555979,0.1188211735114343,0.06868976041546301,-0.0624702286481383
1681483945.8999925,-0.3901135972925582,1.5471805254302808,10.098014921733698,0.1041360466146996,0.05287508554446128,-0.0516649608075145
1681483945.9100227,-0.9604718792335689,1.87122240775942,10.570175982318087,0.0873193479667302,0.02784406848368276,-0.0383789998054031
1681483945.9199915,-0.07441418194527658,2.6714843361427256,10.695324292740967,0.06017156563769223,0.007247719475814545,-0.02014037152226
1681483945.9300454,1.7691376474670086,1.9796080986636042,10.092482733068158,0.03712330572491392,0.013087349812593347,-0.0073631231247905
1681483945.9400082,2.0284347493142416,1.980733151463381,9.59782285128521,0.016260584233326592,0.025942536458014493,0.0071521720342811
1681483945.9499197,1.8630548753479474,0.9377176166330393,9.263118773979029,0.003940673107435432,0.036241238296866936,0.0153664031491156
1681483945.9600112,1.8051383682003344,0.7677521067469314,8.600713608698472,-0.005254363913186703,0.04776076144892141,0.0250904213130947
1681483945.9699557,2.235234898108285,-0.404634255481937,8.037064397975508,-0.0014317841333249756,0.06529675983397594,0.0327314871788498
1681483945.979972,1.1047735951426294,-1.6917153363637998,8.355066242641932,0.016633821028988454,0.07298694688756528,0.0369215521455284
1681483945.9900012,0.9831947681826597,-0.6683046368911276,9.278818860774024,0.02603207030080718,0.0746310541940895,0.0343872297049042
1681483945.9999902,1.5932965013388476,0.8534827775863011,9.533758571025263,0.015625842121200845,0.08881942053074099,0.0339901137590881
1681483946.0099947,1.2198146742907443,1.7099990992783716,10.081044464435013,-0.008073078648335215,0.10791687954472465,0.0213009964168545
1681483946.0200691,-1.7184415732025442,2.6807431489294418,11.326627505021095,-0.05337224261333097,0.09701629170508602,-0.0076746998860958
1681483946.029997,-4.436047099477365,1.4993992508384348,11.989490748849562,-0.07556372768972477,0.045656866192259504,-0.0302713897585395
1681483946.0399933,-4.567598705925045,1.8133085976903172,11.618755078658328,-0.09937557000650375,-0.006636546983544844,-0.0551278416573527
1681483946.04996,-3.4330051472768695,2.1702035983241283,11.056666911284884,-0.12488648821594055,-0.05020909919481773,-0.0589382995426181
1681483946.0599692,-2.9958471228882444,0.9780750579144152,10.329131150100244,-0.13320117943966225,-0.07838454976840889,-0.0499697972595218
1681483946.069967,-2.4054712059998242,0.22750825406489275,10.753368323458437,-0.13077678864433143,-0.11270725218032968,-0.029215262508345
1681483946.080099,0.13102943680605605,0.48652881930017616,9.503972199276506,-0.12419242105914964,-0.10669194885852668,0.0076017973438378
1681483946.089973,0.25069449252153214,-1.671113814134659,10.134940574127251,-0.10602834430203845,-0.09858755396592735,0.0347559701145168
1681483946.0999978,-0.0927759497857078,-2.032265695402062,9.640263584677655,-0.07979197052116,-0.09712701408615892,0.0524280692875858
1681483946.1100492,0.3554600240222006,-2.955542706015826,9.339043518928202,-0.049838393185697216,-0.08756786204750668,0.0711476716638084
1681483946.120027,-2.212088325879864,-3.658940740566722,9.20460828950297,-0.020771460851392073,-0.09842769903984196,0.0793956953526016
1681483946.1300488,-2.854824999719782,-3.0127588699885126,9.497709887310366,0.005294628825161307,-0.1302511979173375,0.0813448566437241
1681483946.14018,-2.1370330474383814,-0.9762592007543586,9.177457447556254,0.0005821575447551591,-0.14354121336443518,0.0871145415544983
1681483946.149954,-2.6742063434796104,-0.7279174608731315,10.24933312915096,-0.005876831827363769,-0.16954626018237978,0.0754839989781853
1681483946.1600482,-1.203779533232321,0.602136987510029,10.13209698269147,-0.025797212650345885,-0.18058783506899992,0.0632566835225101
1681483946.1699831,0.323321639300252,1.3111878767926777,10.223566538262403,-0.05060697464407954,-0.16546253683870754,0.047736215168285
1681483946.180003,-0.8208015476646716,1.61544707560094,10.551371957859077,-0.0759531117283501,-0.1670544802461413,0.0287488854915376
1681483946.1900742,0.0038261907343475855,1.3471325641096812,10.489769630652054,-0.09507845842040273,-0.15700219275439992,0.0145384238526698
1681483946.199967,-0.9279807924950157,0.6347979878141989,10.555597426252145,-0.09705553837039607,-0.159307452340939,0.0050438858993824
1681483946.210004,-0.5921054787663812,0.6773845310332227,10.118935677873964,-0.09776102369355309,-0.16032606778990033,-0.0034047106787089
1681483946.2199492,-0.20807674228484574,1.6231889888592275,9.897111197028408,-0.10577890430868549,-0.15830580453255869,0.0022769174498047
1681483946.2300718,-0.6415705757877465,0.7904547991313237,10.02478405053958,-0.10903279932225318,-0.16280977854488474,0.0043389983434703
1681483946.2400386,-0.31785652930823294,0.3546209211531052,9.87230110752498,-0.11043200687223648,-0.16433056496693466,0.0042463233653929
1681483946.2500148,0.7865350235438474,-0.5863073813466168,9.875979091902677,-0.10403602074346445,-0.1551394968690524,0.0150296322495218
1681483946.2600155,1.4306075977942496,-1.4892453486465047,9.498934538108081,-0.08955690968350428,-0.13938787308303383,0.0202384393156048
1681483946.269959,3.2049251074582332,-2.8816326674281174,8.995947923060685,-0.06356971838483179,-0.10225049689689969,0.0329066726804253
1681483946.2799978,3.4107642753587957,-4.36265044633121,8.371309226980662,-0.02323514587658381,-0.05643354367344534,0.0431366811931606
1681483946.2899988,2.370106877675443,-5.657203101470697,8.829590127485309,0.02811335638082658,-0.027820374642346,0.0518578279257294
1681483946.299971,2.222741127869297,-4.880785401788122,9.018471710223718,0.07040759279726555,0.0007643771311134126,0.0595148939133163
1681483946.3100731,0.9374473703895325,-3.4026518453930468,9.679142629454413,0.0921124591888499,0.018021815026256195,0.0689901772380348
1681483946.3199966,-1.2440325880178897,-2.532112220753897,10.233900337047139,0.09897586417688652,0.010654778307072281,0.0718838560820099
1681483946.330031,-2.9995078958760293,-2.108107555002252,10.62527165811815,0.10467279107088534,-0.016255386801683702,0.0735111820936676
1681483946.3400345,-4.982096781101532,-1.495637099066581,11.939462804067553,0.10456185550969553,-0.06814522667838907,0.0581592048943516
1681483946.3500187,-5.952727533744746,0.043134626219512515,12.527520795890208,0.0904418149657823,-0.13339402919877916,0.0414769079030033
1681483946.3600593,-4.915608122032932,0.5831653081549883,11.83947945385033,0.07372786182757383,-0.19006509691978957,0.0174989073962446
1681483946.3700824,-3.4216053929350103,1.585877886435146,11.28410578366718,0.051190207110723245,-0.23411698272584877,0.0010350622720092
1681483946.38002,-1.6069443999213247,2.819121364086285,10.282674630952256,0.019445365178353616,-0.2564107836327985,-0.0195623741060022
1681483946.3900142,0.13365413961104955,3.8644990053480424,9.540709420852261,-0.024665418470562375,-0.260168556305312,-0.0324078362941268
1681483946.4000268,0.6977074223693064,2.939954601321563,9.097646121164852,-0.05632735669978079,-0.25900843591255107,-0.0388468888163093
1681483946.4100134,0.6589397237306643,2.387578000708895,8.826598368168106,-0.0812281406040729,-0.26142016552128267,-0.0433632594108108
1681483946.4201183,2.1118216835290307,0.02673314963087331,9.201400078985426,-0.07437387108486118,-0.2515424506994892,-0.0408277262508395
1681483946.4300144,2.8956019500212373,-0.45754075799869703,9.408439515628297,-0.06554052963371212,-0.2347527972039379,-0.02976345573957
1681483946.4402127,4.273640382843594,-1.2158659434095247,9.302887133555261,-0.04218995395080803,-0.2044731584625701,-0.0161124870687249
1681483946.450121,4.535069780062547,-1.2716087033212164,9.30835880346027,-0.024044442225685476,-0.17108112799473704,0.001800071647764
1681483946.46006,5.091307808715378,-0.3262624648653811,9.177141363833307,-0.020054005503221888,-0.12924758256883848,0.0089460948907312
1681483946.470016,5.161963838544216,-0.9335313344164483,9.201604059397404,-0.014812550406824436,-0.08802846830391961,0.0173315301031347
1681483946.4800715,4.9867199230882635,-2.626561822553394,8.545149369527374,0.009334661678063953,-0.04750877927847982,0.018849261799502
1681483946.4900746,5.376686796299178,-3.047782212364199,8.224134150924105,0.04130187377650413,-0.0035068659205851472,0.0160441517323728
1681483946.5000658,5.522769943024892,-2.21397827662993,7.729201922138207,0.06530034351885901,0.04679574085699922,0.0078192234464463
1681483946.51012,5.483503371069375,-0.7014632843809931,8.036087282849751,0.06967320910995879,0.09709778484226403,-0.0079714071511748
1681483946.5200148,5.776625546289486,0.28202220347584084,8.762387165807121,0.05844461525194154,0.15706051197817486,-0.0350920830428126
1681483946.5300477,3.9266402215474816,-1.5001824488423259,9.625245372966528,0.056343354425580736,0.20185527449746482,-0.0673512902616981
1681483946.5400631,1.5136838898897216,-3.845894753371352,9.89588915197954,0.09262908958607254,0.21187318303700114,-0.1087027799844268
1681483946.5500567,0.9140411421325612,-2.860908065618849,10.046455060923757,0.11723707175262066,0.21058991563098925,-0.142756642079306
1681483946.559959,1.7383938611080185,0.26169148797211333,9.706469962590306,0.10969918911332505,0.21475034453736125,-0.1548195045947555
1681483946.570101,2.1792582083708174,2.64452064841367,9.670057685460947,0.06454518847259653,0.22703724540049788,-0.1543714564799789
1681483946.5799875,1.9536459858490232,0.9262604086029158,9.348911125492739,0.03836342483432922,0.23638854864368117,-0.1301335406064513
1681483946.5901098,1.5064910944275103,-1.795247916658051,9.219822155485623,0.05187650085245692,0.23818146241436935,-0.099218555962992
1681483946.6000426,0.8429373248386058,-2.5993901670118893,9.203374028093279,0.08003811305217301,0.22945993220042993,-0.0597250175237182
1681483946.610006,0.9380224075912065,-0.9401989065993768,9.075348760220702,0.09514496395172091,0.2260767083422238,-0.0250882499426129
1681483946.6200657,-0.016213898479732557,0.6874295790983482,9.666745478422637,0.08287374462041561,0.21534675193506628,-0.004870376320881
1681483946.6301336,-0.6526597826771943,0.8638705740072233,10.271679564808773,0.062103296142407914,0.19963535949080366,0.0087600357324358
1681483946.64011,-2.0440465751236436,0.3086089431414181,10.847619938777424,0.05007239991501481,0.1731231368660696,0.007820119378763
1681483946.6501875,-3.4406024526752077,1.3476771017498146,11.530829390935715,0.0292734918946225,0.12729910527662378,-0.0008903562597457
1681483946.6600828,-3.0367637835250876,3.661241626544033,11.458520879706224,-0.02313239300671171,0.09516529755167187,-0.0155168708920005
1681483946.6700718,-3.1034605043297603,3.939369846183591,11.262652984025102,-0.0681197271462196,0.06295202671870216,-0.0383446340023997
1681483946.680025,-2.2034041889272933,6.741660409185943,11.280347819414814,-0.155240941803001,0.04187095888095254,-0.0476438824593547
1681483946.690255,0.1917407378465752,3.0967916820310104,9.346423270345507,-0.1854701327338966,0.04559404182279463,-0.05185150471921
1681483946.700088,0.42651306339554534,-0.019792279953879964,8.422802064102159,-0.19197438039825687,0.060598182583261745,-0.0526942212640765
1681483946.7101214,-1.8036638103612008,-3.318309595404158,7.944144335048779,-0.1274080728018911,0.04624811472822705,-0.0505121324717525
1681483946.7199883,-3.425158408577729,-0.8172176740679815,9.31878712169227,-0.11287465345781765,0.011082828486669475,-0.0426038105546954
1681483946.730115,-4.76842783742876,0.5248501779145366,10.133271515951888,-0.10553067256694267,-0.04066275674929187,-0.0375326660036567
1681483946.740187,-4.365454759735195,0.5643682315374371,11.302504362019492,-0.12856383782522676,-0.09370200729814185,-0.0333379108964923
1681483946.7500556,-1.660943669939646,-2.16049282230299,10.467614001965593,-0.11321132680343467,-0.1081574489226271,-0.017530688321543
1681483946.7600985,-0.8410831722056253,-6.1380632256673335,10.548437985917982,-0.05158971097217206,-0.10892264629595798,0.0015468662927982
1681483946.770012,-0.7862386591519221,-4.066025849598743,10.435260762152502,-0.004517089957765377,-0.10995739957886703,0.0166918474674698
1681483946.78007,1.401280907583814,-3.48940721992062,10.2735569620819,0.023955498369154213,-0.08466111278153242,0.0315932750195738
1681483946.790231,2.643966171832459,-3.123529740763154,9.929008315591776,0.047321600345034597,-0.04428420130481783,0.0409668262541767
1681483946.800041,3.177021144991495,-2.18300969327378,8.8584893058549,0.06003866591682745,0.0016282772655720162,0.0504122439265724
1681483946.8100982,3.1103141005165913,-1.9003519733554937,8.664404679614515,0.06469480866477298,0.04823425637362398,0.0640374037862297
1681483946.8200245,1.1702132541106645,-2.336212987956538,8.796148862263667,0.0755187293275778,0.07058549789549717,0.0787546473980423
1681483946.8301766,-0.2734185325631284,-3.3977217971176246,8.563241285149314,0.10754155451758278,0.07103156717489212,0.0966395575047012
1681483946.8401058,-1.9463573156364555,-1.3429704830000202,8.864994362775905,0.12216383688777914,0.04992329903198675,0.0986293766141411
1681483946.850037,-3.4895118483364094,0.34300570605751796,10.077933814233965,0.10930942948267373,0.0003855456941144499,0.0878886047244545
1681483946.860098,-2.2161440891507977,-0.08511418967989316,10.493017322466848,0.09979639736254452,-0.04016504582811115,0.0748414981604095
1681483946.8700356,-0.8045968114749985,-2.269586858880316,10.618949601296416,0.12021652173841924,-0.06178236323049905,0.058794400417852
1681483946.8800464,1.986965605099789,-1.611482441112859,10.416611859748981,0.1382195687277419,-0.05634651714058417,0.0445646445692058
1681483946.8900406,3.1672596685449856,0.5515252270634927,9.365383522427328,0.13490187992109598,-0.026433350093157403,0.0311275429517504
1681483946.90006,2.1667236846439044,1.4397550455622883,9.381764537116652,0.11180250366456468,-0.01015028204746874,0.0248730003327604
1681483946.910061,0.9857354399479166,0.6752870284273288,9.190731707587872,0.1032797777623295,-0.010411511774468026,0.0169873905793305
1681483946.9200628,0.20540171554614495,0.21544883192561007,9.529406314549458,0.0919248594085835,-0.020679235455194227,0.0084487248637255
1681483946.9301229,0.24494766321305655,-0.2250552732455942,9.594365401293057,0.0922101343006612,-0.03176381362956231,0.0048819351900842
1681483946.9401283,0.6201774638994837,-0.0006796562884688632,9.489179278497293,0.09110346020713071,-0.036586186231145866,-0.0018499004695091
1681483946.9500542,1.5950849047313636,0.5235593222849749,9.504071237856783,0.08114123911960107,-0.02625316262436688,-0.0020336378406259
1681483946.9601014,1.7265208195184756,-0.12495436600801993,9.248721701459855,0.07945467360465956,-0.012238240360733477,-0.0034647437318686
1681483946.9701428,1.4212997883685987,-0.47406499371783495,8.868694849728056,0.0858002859126895,-7.161562989790563e-05,0.0012221956526868
1681483946.9800615,0.6977019242313474,-0.6525916431280302,8.932085913866832,0.09197307158534465,0.004790227525755788,-0.0003204165299881
1681483946.9901068,0.470008317921876,-0.9868939470437363,8.91937501334831,0.10345553837211732,0.005902229675591271,0.0061870797031101
1681483947.0002089,-0.20098300883806033,-0.3121594357015811,9.039322190985246,0.10494677684757275,0.0012973142847981557,0.0078728098847445
1681483947.010058,-0.9845660026173628,0.2471309408804863,9.344130225209597,0.10123781226104568,-0.01330281837045912,0.010392398336577
1681483947.0200665,-1.2303737760522504,0.9676980076148856,9.707088032708219,0.08844088294790783,-0.030773172083696943,0.0180548231542583
1681483947.0301175,-1.6496610503952773,0.7283409884588788,10.044363120135502,0.07805131204133474,-0.05154488936643068,0.0187519572169061
1681483947.0403438,-2.68333413874956,0.33064788041677057,10.197588983376262,0.07261963484440602,-0.08138383087014692,0.011534890854406
1681483947.0501802,-3.333307876951858,-0.753053234374456,10.647652063021392,0.07671445958169218,-0.1237042651842501,0.0032392200042035
1681483947.0601704,-2.1334431375568497,0.9044744579129288,11.187550880944467,0.06977992363688361,-0.1555461204554926,-0.0132815216242793
1681483947.0700574,0.8138108375490493,2.2834167664991165,11.47164750453989,0.03772958091663685,-0.1480171255898354,-0.0270621248095754
1681483947.0801115,3.292400208895609,2.987808070103314,11.379123772408553,-0.0002994059151313755,-0.10852307711614487,-0.0393568363546851
1681483947.0901854,5.195185011097722,2.2967415679991645,10.685995403457712,-0.02866054987216669,-0.039874169581652595,-0.0489159461616996
1681483947.1000934,4.979950922552793,1.722351813442083,9.478175273980783,-0.04499751853670642,0.029804171877665417,-0.0464644667267326
1681483947.1100452,2.7518927453004762,0.705592962311322,8.616830227291118,-0.04624925362961417,0.0776486381035142,-0.0441074569284442
1681483947.1200447,-0.5210780808173396,0.7335141214349818,8.882452494084411,-0.04770822495937756,0.07853896371217711,-0.0390185464679721
1681483947.130041,-2.4766746436172644,0.33457770717448815,9.186216766951516,-0.04862499525740057,0.055589925068588605,-0.033826225674105
1681483947.140096,-4.060228921887806,-0.14780765249933306,9.925867676677806,-0.04605011155302272,0.011955835740589095,-0.0268344332038882
1681483947.150107,-4.05003851983511,-0.10777446536023677,11.02279311089475,-0.04494913155509061,-0.040082456532551436,-0.0206120212137225
1681483947.1600711,-2.8547780806003833,0.9100748942692354,11.197289257404192,-0.060069115099950894,-0.07142021606555368,-0.0138113352044943
1681483947.170097,-2.524619043049018,0.1532780476861486,11.700586547569147,-0.07046251797730652,-0.09972112503128432,-0.0008959118317339
1681483947.1800294,-1.31205722026848,-2.227785098794432,10.961907529014221,-0.04826811902712623,-0.11881768651739952,0.0169823968276854
1681483947.190112,0.6518295645977676,-2.9589788911114376,10.014542691400818,-0.016955578750858295,-0.1160486249502281,0.0293811510742184
1681483947.2001655,1.7247680184342447,-2.439541510803701,8.957668816707445,0.008022988776665366,-0.0969763091355432,0.0353391978383537
1681483947.210118,2.364394751461344,-2.351052795821341,8.12606567589058,0.02819521468410129,-0.07158030344151421,0.0311203196138616
1681483947.2200496,1.7988153266767297,-0.35515787812594185,8.033279780708945,0.025730137417347497,-0.050325494821515056,0.0192976433277603
1681483947.2301788,0.8291611722271994,-0.5370720710387242,9.004570242428272,0.02054944600790828,-0.05066118330186958,0.0072937791660901
1681483947.2401254,0.6377371269321297,-1.0839159026141085,9.076706210220554,0.019619928756377285,-0.055031040695505455,-0.0079225145786527
1681483947.2501094,0.910471603336001,-1.6690999145846321,9.416640775474058,0.04072033123544479,-0.0629786643127811,-0.0186320350080255
1681483947.2600946,2.084078362088913,0.2729740384879239,9.597511597029515,0.0342151264225768,-0.056492358844123645,-0.0324591298162463
1681483947.2700615,3.5081734402570715,0.4921361493826704,9.819857328162042,0.02335035718889681,-0.03082464019201662,-0.0378225084900382
1681483947.280125,3.884700729221745,-1.5685726929198243,10.070013213059534,0.03874085450303181,-0.0015744456913056482,-0.0329782005905631
1681483947.29026,4.247212871977351,-2.1639592289068412,9.71112493781853,0.06648726676481599,0.035167831485203395,-0.0249739263712886
1681483947.3000984,4.25956693147625,-1.490948709120052,9.428094006061322,0.08485514379492609,0.07525344552495125,-0.0052697949617627
1681483947.3100898,1.4689194631994782,-0.3420848536852424,9.272903951284542,0.08879466464493387,0.08778186057233546,0.0094932911411401
1681483947.3201602,-1.5490774593234549,0.826397087372454,9.956383525702389,0.07323446188911935,0.06549151497869247,0.0168171448126908
1681483947.3300898,-3.8518301075139587,0.719255695087016,10.747794792918455,0.05616757770144749,0.010515195430600728,0.0188099171460148
1681483947.3400912,-2.460903492662578,-0.3800135250325441,10.823719329646252,0.05705090976386661,-0.029698572458634512,0.0152740653098102
1681483947.350105,0.4229201969314606,0.473312864079102,10.485773153860407,0.04808342173142304,-0.031468632549731756,0.0035688925959643
1681483947.3600988,3.171469740843832,1.3251102049677757,10.059750382706122,0.03333061580431286,0.00950509873469137,-0.0100682706146958
1681483947.3701706,3.5593811591681463,2.8243736643372688,10.507347712445418,0.0017176393277084957,0.05812243649638722,-0.0205440234899047
1681483947.380119,3.663576971136542,1.429461376452422,10.27941087014187,-0.02240551175982674,0.10962659329713384,-0.0234100271522525
1681483947.3901467,2.5115686487000963,-0.946007024969799,9.870253309254544,-0.0033362206221520508,0.14088074171864864,-0.0106545977800611
1681483947.400161,0.9553953604749725,-0.9229609505680432,9.224951853424514,0.014179576984417203,0.1545786955270442,0.008134138067859
1681483947.4101431,-0.11626405049116273,-0.5048922994552845,9.27323086728991,0.022765699034530764,0.14954191721129512,0.0367925639689442
1681483947.4201164,-0.6168128392889947,-1.5064291773682783,9.710007234679907,0.038848014603060844,0.13801172447738635,0.0759388122201439
1681483947.4301567,-0.5119584339732751,-2.580143678961908,10.655969328506197,0.06885261914813665,0.11877433794074829,0.1134759176016327
1681483947.4400966,1.2807049992839319,-2.723646364887533,10.134268234508749,0.10045687992418015,0.12698285310902213,0.1389765727758881
1681483947.450079,0.6953035437617102,-1.797953824919297,10.105231293537814,0.11692065195453764,0.13519206570812864,0.1361745584249969
1681483947.4601798,0.31134388005534386,-0.1558889664480109,9.831084304072478,0.111050119447677,0.1366948173353872,0.1264123457909103
1681483947.4701352,-0.9791005413009976,0.807182775267914,9.941550236246954,0.09252302969819935,0.12516237209394052,0.097352630221891
1681483947.4801288,-2.4102363109458635,-0.028113287228600913,10.503147887147756,0.07665001115617846,0.09002412527954262,0.0627190943301197
1681483947.4902508,-0.9057154943990965,-1.6564463759997974,9.713013095504635,0.08672988713177107,0.07303181402561071,0.0318980652332779
1681483947.500065,-0.23538433346880014,-2.555521659046131,9.35851011692464,0.11818566148921068,0.0686328735462171,0.0012849931622863
1681483947.5101497,-0.04448934347830505,0.3735043716246656,9.60199038388535,0.11785335651572622,0.06643875118442019,-0.0164623439818147
1681483947.5201318,-0.7961818651241604,3.41790556852936,9.976229296348386,0.08111595945577411,0.055112351855470434,-0.0318475675343993
1681483947.5301323,0.015671474579081753,3.9227664439581367,10.371225652768482,0.0327629476668544,0.049171864460592754,-0.0280240096657994
1681483947.5400856,1.1608911611439983,1.6037338644061128,9.843821116729524,0.016056270939306453,0.05603058620689896,-0.0218778152524951
1681483947.5500731,1.7883189893008833,0.5257342266741173,9.17808004372873,0.022495482778243505,0.07039740884741265,-0.0120945947750929
1681483947.5601692,2.039931895613557,1.7288974755526556,8.698587506258415,0.01650652202784031,0.09062714233678094,0.000959911030392
1681483947.5701442,1.4045674707753715,2.950919171165952,8.653819242805698,-0.010153066672558804,0.10340169552366775,0.0142939460888978
1681483947.58013,0.8238291060594909,2.6503955969319075,8.99301201569355,-0.035952259929151874,0.10544606637899497,0.0224768321454998
1681483947.5901282,1.0304646188783413,1.9045339613543337,9.069512052844921,-0.05562453749973925,0.10937717891836993,0.0305922038347002
1681483947.6001394,0.5888739362999137,0.9052412876344105,9.533251562209411,-0.06158485358864255,0.10961193834732652,0.0293539192021366
1681483947.6101458,0.01221773720601263,0.5871534449462977,9.94313969527042,-0.06759477937714936,0.10423450310650305,0.0269164896995302
1681483947.620132,-0.5527887091337084,0.2435615755740616,10.409966960961258,-0.07265831431419012,0.09343846427452701,0.0231485578656669
1681483947.6301937,-1.7410931309227953,-1.155847281904793,10.505765478914505,-0.06319517260264504,0.06850503201116269,0.0143930127338048
1681483947.6401303,-1.3308177125090264,-1.4647431314010178,10.140511066223025,-0.05109182683202725,0.04444125714754446,0.009874735721993
1681483947.6502004,-0.47134614444996703,-1.7320791646568898,9.141929474665918,-0.029519908460273147,0.04058778469885721,0.0046061763965066
1681483947.660163,-1.826376888612087,0.18813847122527627,9.722287829034524,-0.032628080718800995,0.02042478613422334,-0.0026451328344169
1681483947.6701548,-1.6246623268483107,1.476929713703228,10.107803583786847,-0.056144547183632175,0.0013307375961246265,-0.0042892356909338
1681483947.6801257,-0.6212852436496884,2.047208555595668,10.589993968259822,-0.08264374141862862,-0.0038803104680587746,-0.0177410815417293
1681483947.6901653,0.48676278296002046,0.5297251132045347,10.061187310720335,-0.09413781246480843,0.007635012139257056,-0.0311220486223224
1681483947.7000923,2.962805891028231,1.8267540003139187,9.843144827532136,-0.11085502810733946,0.051722141195989974,-0.0485737372695926
1681483947.7101054,2.1607279429076387,0.738665291691207,9.54003089463484,-0.12138781524357922,0.09035358598302666,-0.0626997288822654
1681483947.7201712,1.984283903051353,0.4697931197390626,9.006413694366936,-0.12361971583870664,0.1286146062046404,-0.0755748238920692
1681483947.73012,0.17537727930700808,1.3498833037538844,9.337082477008282,-0.13906769291173818,0.14092633672412108,-0.0790590357541564
1681483947.7400987,-0.8736348194459532,1.550937258930036,9.398441222355187,-0.1547161199128558,0.13620612887402905,-0.0706433963536742
1681483947.7501574,-1.2432777787703186,1.6498743321323297,9.938312772779678,-0.17573582277132568,0.12149608634999713,-0.0667914312839034
1681483947.7601483,-1.3537174658709854,1.1558982591543439,9.894113125821091,-0.18829717597909754,0.10545870808470591,-0.0546033245086196
1681483947.770116,-1.7110420828569814,0.9881127764174152,10.230806729884886,-0.1993579249049859,0.07904017163477083,-0.0435380351304534
1681483947.7801185,-1.7256520678296434,-0.3167386902839116,10.224863397843164,-0.19628795424513365,0.055210939429214345,-0.032183443432999
1681483947.7900882,-1.2233761739542182,-0.8467396103984635,10.54682129037249,-0.18077093293357666,0.028970516305014134,-0.0178312391548875
1681483947.8001423,0.04276652819368826,-0.5323641184965282,10.396063097328222,-0.17264371802476522,0.022456498980685528,-0.006269267531437
1681483947.8101373,1.0738034249970234,-1.258294646394111,10.609454679288449,-0.16663606584111587,0.035297117469505555,0.0033434777247261
1681483947.820184,1.599288803752401,-3.9925892219372883,10.560099686111618,-0.1297993631070378,0.056220475818452416,0.0278916775674101
1681483947.8302882,1.4159514570850755,-6.809670956678499,10.5120509416047,-0.062074713151735,0.07546311730273295,0.0446202557027813
1681483947.840173,1.4806762702800484,-5.241639830932106,9.551149776626005,-0.005919087991369568,0.09691164756193853,0.0738659936428543
1681483947.8502154,0.11281420734232658,-3.4723879184889737,8.726724152023623,0.023838516270811447,0.1022539865295222,0.094925402426767
1681483947.8601117,-1.6611154865474602,-2.1112061030805536,8.615177840450638,0.0365772873689902,0.08143657660447486,0.10427442821269
1681483947.870168,-1.7615553903978798,-1.825557110936293,8.59007009797284,0.04502205726768288,0.05524241399479844,0.1011854025960442
1681483947.880185,-1.5978525024092944,-2.1286906604847076,8.845449515683926,0.055998924797072296,0.033565716483554955,0.0827098104596611
1681483947.8902698,-1.4445022330734578,-2.5972949160694863,9.595283462942122,0.07390745475041775,0.01334397929449196,0.0530040960252758
1681483947.9001677,-0.13725654291007516,-1.3948768217392071,9.960727363581594,0.08046031810168645,0.00932639309945522,0.0285892642528292
1681483947.910196,0.6226230401418258,-0.8610595594124856,10.06513481145282,0.08303047828502738,0.01758000688726311,-0.0009534198365632
1681483947.920251,1.2529021362061408,0.5271759392191107,10.040565809039942,0.07422555495651394,0.03387712833799151,-0.0221240420400623
1681483947.930184,1.2838151279794137,2.247469222631433,9.944246357420505,0.042606509261267585,0.052056461090572784,-0.0416943889617446
1681483947.940159,1.0930147346492796,1.8424694023999926,9.610949255754779,0.01955988059822753,0.0706919746625903,-0.0535202522336963
1681483947.950164,0.8866445004335939,1.672891045665953,9.731833645832708,-0.0034242790680436785,0.08184327960790057,-0.057336081987572
1681483947.960183,1.3281922080102702,0.572067691620418,9.368357914060013,-0.00929228526589009,0.09848897867729513,-0.0488992531358722
1681483947.9701755,0.8160714244117727,-1.010911993020155,9.400034865135934,0.005503272867711187,0.10688501760869544,-0.0296724506228688
1681483947.9801445,0.498782268636682,-0.6317713141403901,9.256742824365862,0.019055799455945998,0.10684338992484352,-0.0032014485954764
1681483947.9902225,1.159104895505076,0.273961467834566,8.812117121063018,0.0166279927022123,0.11514448510743522,0.0281382377684589
1681483948.0001116,0.8937301560570915,0.011956338958162619,8.693136742622547,0.017613167780474667,0.12087034086682841,0.0522534947336193
1681483948.0101323,0.9325309813254884,0.14422345464454506,8.793827826004998,0.01369525722094229,0.12277624859164554,0.0656621966004845
1681483948.0201592,2.241406187655323,-0.12398806485855608,8.370160934452546,0.01065867999417699,0.1413670335474534,0.0779714498162743
1681483948.0301774,1.221510223995052,-1.2078555651071115,8.411855949467688,0.025000749312386904,0.15552166972234666,0.076086646640348
1681483948.0402892,0.665092020812261,1.7987929922737507,8.921291627711481,0.01167492170124424,0.1511154355018362,0.0596399966121193
1681483948.0501912,1.4052940196903467,4.276291155277544,8.461703731603498,-0.049093870246098494,0.1772651432116311,0.0428149613976951
1681483948.0602162,-4.537084946989986,-0.6749117173038994,10.645684379774782,-0.04657649188567399,0.13148766511696997,0.0118305839092012
1681483948.0701294,-5.870217916153613,-0.8143253311916933,12.494363419372748,-0.034089774802797845,0.05344091444642668,-0.0206173390656236
1681483948.0801687,-2.514340204435583,3.0502857436809867,12.144088706127713,-0.06327271109134446,0.02369295787415157,-0.0347974908113006
1681483948.090168,0.48343831107766205,3.245732169633902,11.86839961224104,-0.10691625004249197,0.0325089185047324,-0.0326446194707873
1681483948.1001575,2.100714152195638,-2.6812852776956206,10.685592699762347,-0.08263577685887166,0.06635489187510588,-0.0191160191356662
1681483948.110205,1.6399106133759749,-3.767855446017377,9.744366532582502,-0.024385247271593392,0.09236583542535433,0.0044657702051576
1681483948.1202352,0.9187280943217604,0.4937571800022388,9.535390323211189,-0.024637086530803855,0.11986253772624736,0.0344708065927502
1681483948.1301954,-0.39095103323311786,1.6186838806443564,10.294260919871535,-0.06157779619511383,0.1314355606524505,0.0650699201465126
1681483948.140142,-2.6389870494819054,-4.163641287608368,10.3177161953862,-0.023970704750643775,0.11565510722448634,0.092538042688417
1681483948.1501412,-3.76949991353709,-4.8475426756635285,9.928391690511878,0.02181739005235673,0.08391677611384192,0.1086169320583816
1681483948.1601598,-4.068115128917808,-5.525608898399649,9.283634664871979,0.08093601814243308,0.061610155453482376,0.1125432911754127
1681483948.1702528,-7.356212045082445,-4.113031124726547,9.987243640790314,0.11315255357948015,-0.00911778166247763,0.090370408022451
1681483948.1801944,-4.565212249139423,-3.6844945379530385,9.698757904477882,0.14533051111310993,-0.05783714338167248,0.065676419758844
1681483948.1901236,-2.3385377395846647,1.3973262399190038,10.118284988111894,0.10880416558309224,-0.06033837413697418,0.0290886450052734
1681483948.200203,-2.529898644593006,0.9773202462882749,11.567174155061336,0.0754660005008167,-0.07782210306501043,-0.0009802852332118
1681483948.2102156,-0.5354341694850363,1.0723219903713521,10.706584924304199,0.04146589997950994,-0.060291368298188014,-0.0340436261653426
1681483948.2201655,-0.28240355471763035,-1.0476600758365986,10.201007999682227,0.053001336705054795,-0.05357746677505692,-0.0481308635830405
1681483948.2301888,0.6040739350227433,-0.0188813317211368,8.581168223824402,0.05588294840877634,-0.03217086446450775,-0.064357945001078
1681483948.2401464,0.25566276101835117,0.9919580949180229,8.515398734387853,0.05132307335064498,-0.016531031282651196,-0.0793319281696799
1681483948.2502203,-0.8231187071256953,1.7391611667172893,8.976468685046717,0.0354342990475542,-0.021619609513755533,-0.0830359917640212
1681483948.2601988,-0.39897701228013205,1.4734718761011587,9.248908249981275,0.021284534325441255,-0.027171262791374422,-0.0784760427236083
1681483948.2701883,-0.4509191724355939,0.7717829302976238,9.2958475998633,0.020885600399991353,-0.04189757109314196,-0.0559949514030936
1681483948.2801824,-0.10877529646982732,0.9409196583205536,9.741602176156505,0.013417278968640227,-0.05345284909571557,-0.034732816046429
1681483948.2902858,0.31932814220331246,-0.14061321372558497,10.187131343471197,0.017400505198630883,-0.06770126180424905,-0.0132178219541433
1681483948.3002632,1.6183194217463248,-0.39115577629552634,10.248542827882433,0.02525567984879337,-0.061930196318084274,0.0098723710939761
1681483948.310129,1.709821305153338,0.4069822180599909,10.67496882836481,0.021745323678386157,-0.057635310997437156,0.021703648144054
1681483948.3202703,2.9230852847934337,0.5460475449336611,10.313414537674388,0.012200239827581831,-0.028594837667057293,0.0309783618391033
1681483948.330171,2.1699989230598007,0.044112553475926464,10.18467180588752,0.009398592772760601,-0.008723491463982259,0.0325091581285473
1681483948.340134,2.01086912169498,-0.16270351447490722,9.84793163004283,0.007205500012870715,0.011780072576532666,0.025526034408855
1681483948.3502138,1.9327222255246295,0.1936744616205997,9.384342143609533,0.0044618786676259604,0.036694380266548886,0.0127791545778986
1681483948.3601751,1.282079763832036,-0.24311426203849879,9.307731465265872,0.002414010718057577,0.05388034969855971,-0.0107316284015301
1681483948.3701496,1.079735244545123,0.616331509676649,9.234781810720325,-0.003493105432988171,0.06999696058424132,-0.0285430543630841
1681483948.3802345,1.1331130787439265,2.039855658108262,9.531779728832738,-0.032067597653188465,0.08426246672475714,-0.0343447264790061
1681483948.3902931,1.0886494046859811,1.1001750315038148,9.105905506621644,-0.04789417535870582,0.10055194946158963,-0.0367269378661636
1681483948.400212,0.6137141238347842,0.18576545284654933,9.227000722057971,-0.05441112591602612,0.10700213075905435,-0.0310758177697185
1681483948.4103117,-0.0027764797034727654,-0.6673957251975123,9.023316924700001,-0.04145026902411508,0.10345045848012462,-0.0202168442815068
1681483948.4201388,0.01848851519170002,-0.06560721141372007,9.162132929480213,-0.038232738613943724,0.10030179950379518,-0.0040489842690054
1681483948.4301708,-1.0401073807621823,-0.5907889035562243,8.773252838760119,-0.03214024981463812,0.08625046769974931,0.0151335454971071
1681483948.4402132,-0.35721739519251533,-0.31508729765763915,9.294676385251593,-0.026210405203016304,0.07425817046730493,0.0310527316719766
1681483948.4501655,-0.02872881321479795,-0.6694794909714754,9.008138171218691,-0.02401213045330015,0.0751217581964557,0.0501948769629475
1681483948.460215,0.3455383244616907,-1.9130153256394435,9.379407147087154,-0.0074388372299187275,0.0768431470633938,0.0643736931920525
1681483948.4702492,-0.3668088188111799,-3.906212171817547,9.1531621032223,0.03168591131945988,0.07969622720661136,0.0719863909721847
1681483948.4801865,-1.3734288248969002,-3.2032540326569254,9.799601402391106,0.06645461328880709,0.06794916785520719,0.0772639352322098
1681483948.4902024,-1.5162057184441398,-1.5793059701590764,10.35065039712444,0.07996622732617414,0.05913932801255976,0.0751772660255905
1681483948.500209,-1.8706956057832769,1.1303707594098464,11.580502577653554,0.062015191293942985,0.048670637219162614,0.0604133370757576
1681483948.5102215,-0.9431047517209505,3.0849339989990345,12.689684056742564,0.012767833499750072,0.05350869378440845,0.0250295016408439
1681483948.5202024,-0.6214932289491821,2.741150719656917,11.753674239090122,-0.027768014041440626,0.07276840039194805,-0.0189770471810821
1681483948.5301998,-1.0797639759775641,2.6579882345789727,11.084048117556126,-0.06501949762620848,0.0860808871937129,-0.0561612744390491
1681483948.5402198,-2.3521574499198823,0.9421363138033083,10.125545069056999,-0.07628582035490757,0.0811380229202077,-0.083387659168196
1681483948.550244,-2.414219954190937,-0.8353240604235249,9.272006549409275,-0.061168483973853244,0.06978783365286226,-0.0997773644089225
1681483948.560232,-3.338076702805323,0.4129195003040732,8.704498667066733,-0.05342518630407658,0.04923390770526936,-0.1045772966503623
1681483948.5701332,-3.8068305596128327,1.017305943002237,9.758677434100003,-0.06150994345840723,0.009186271416296594,-0.092922822809172
1681483948.580214,-2.751202401359544,1.149131590474064,9.741319487875199,-0.0728880334766268,-0.017792651050782735,-0.070307375168753
1681483948.5902991,-2.187586720659006,-0.4156052946342666,10.200672185275277,-0.06917721065527183,-0.0436465433053889,-0.0451849710702422
1681483948.6002214,-1.390241152750328,-0.010443398874176007,9.48833710012525,-0.06691454894462659,-0.061374687192174995,-0.0117344961076501
1681483948.61021,-0.08795656092735142,-1.815266182706746,9.52785239615872,-0.054864987136629885,-0.06364687368339376,0.013434969583201
1681483948.6201627,0.0013674284143905602,-2.562691899360958,9.108673641159543,-0.030358192775037172,-0.0608665537221468,0.0294431920588489
1681483948.630221,0.5873068080384078,-3.629618440022728,9.877334606517492,-0.002740275179331264,-0.05725657355346223,0.0401140141726013
1681483948.6401815,0.6770407426542648,-4.028844251283112,9.21261863837194,0.03822316619413954,-0.04383472074504495,0.0484524208546158
1681483948.6501708,-0.44409338262303794,-3.5961666996043946,10.103653813537244,0.06578489736168285,-0.04786955423327834,0.0429463076830383
1681483948.6601863,-0.8987078561066102,-2.932457396417421,9.779463761309955,0.09121703454211672,-0.052559962508725605,0.0312388546258684
1681483948.6701958,-1.8585364771828696,-1.0226188787045374,10.491238470747703,0.08975302909427285,-0.07366013357873792,0.0155262032017585
1681483948.6802287,-1.2428882836506212,-0.26394581158045466,10.286949228948309,0.07947112324563883,-0.09038719859059002,-0.0033108352258328
1681483948.6902585,0.6809231282426695,-0.49685097194159517,9.632130627448852,0.07201235285377472,-0.07855071940731154,-0.0196599264204028
1681483948.7002995,1.5832466424090923,-0.7998303744855925,9.167332874870567,0.07744273903516231,-0.05916449544970623,-0.0258812357246402
1681483948.710179,2.6215106201722995,-0.5869679589506093,8.688930579912803,0.08663232754033978,-0.024602427218532785,-0.0267019339411977
1681483948.7202444,1.7864064998839424,0.8545739915741941,8.915350184342394,0.08014059432041322,-0.0030290230159424427,-0.0194426376878741
1681483948.730316,1.6075837215915545,1.9245785029785012,8.912742080685573,0.06035591509997431,0.014362564361737846,-0.0143866010516408
1681483948.7401917,1.0807359571949693,2.575701531200531,8.870362225851244,0.03707701034681331,0.02476884026754293,-0.0045704555272582
1681483948.7502472,0.09420732821114358,2.5171288723568517,9.506160914578274,0.010940355000388424,0.021955779992815668,-0.0020554869010571
1681483948.7601972,-0.1342203640969291,1.4680413600809692,9.569698560718134,-0.0010217245053938681,0.018557480698095017,-0.005663971187872
1681483948.770234,-0.4628314448679005,1.2790509794734353,9.774994716648804,-0.01129042702803938,0.01368842359193537,-0.0160388660192016
1681483948.7802613,-0.7545107541209204,1.4199060813866675,9.905009521703526,-0.022691878249794146,0.006329013434652867,-0.0293966077774289
1681483948.790237,-1.3816400492436085,2.263157878465268,10.106283820675513,-0.04785710669185822,0.00011291795119834065,-0.0566175926982883
1681483948.800325,-1.1345320321271393,3.5199166644147,10.671163774829493,-0.09520510777547407,-0.003731541154336006,-0.0801167201756957
1681483948.8102343,-0.2540201177576835,2.1084268365312853,10.737868033894056,-0.12666689873024334,0.004974533968136688,-0.1052028324961188
1681483948.8201654,0.9192920181020223,1.2933801456669916,10.739193949648389,-0.14556484036498893,0.024039297673128974,-0.1234114926814559
1681483948.8303847,1.6015617048431432,0.6905081300319578,10.23977779070609,-0.15341747836100536,0.055571940687536354,-0.1252854329108718
1681483948.8405316,0.9155478260089628,0.211926833518377,10.218669986620176,-0.1572606559404062,0.07399913110479053,-0.1221706133841994
1681483948.850224,0.5996424348906344,0.2716945913524989,9.746013203569085,-0.15441440283832047,0.08628389436440907,-0.0980790269135955
1681483948.8602457,0.0005533979434146376,-0.5205362173267412,10.049618538214368,-0.1456610940686551,0.08287097053341017,-0.0615634259342673
1681483948.8703954,-0.33075163867321944,-1.0529989563962225,9.634915710475916,-0.12854630246188647,0.0816225221584156,-0.0205323223530772
1681483948.880248,-1.4808937046019166,-1.210724419006719,10.012008248112183,-0.1079053327298535,0.0617967011718876,0.0188297766685959
1681483948.8901772,-1.8812009204691422,-0.07989169756890763,9.784072429611928,-0.10091016272585651,0.04544189811177004,0.0554054628551479
1681483948.900217,-1.9365932269085022,-0.5479422244032115,10.423979190624737,-0.10543206087503762,0.02830299332773222,0.0722253683448311
1681483948.9102168,-0.8512259128976445,-2.8792871507022277,10.036932171903976,-0.08150819787212778,0.029602350523636977,0.0801053110003944
1681483948.9202192,-1.038963403788672,-3.5615127230722194,10.108507007660606,-0.04972543220468889,0.029328806701701092,0.0624870571732994
1681483948.930289,-1.5687070746555034,-2.4276396804599556,9.756790930235791,-0.03355806879386526,0.027125454013057763,0.033193322593021
1681483948.9401934,-2.7590131480471505,-1.1686097572447671,10.275650767367905,-0.04026663220068326,0.007860462511168054,-0.0057326492428306
1681483948.9501858,-3.3324349061431455,-1.8542922550884113,10.013005793218445,-0.036626111491925156,-0.02139127838710094,-0.0485806439578059
1681483948.960299,-2.4854809821579065,-2.8344093941010993,9.945852291612129,-0.023200435307872875,-0.04456712307386495,-0.0817871626972678
1681483948.970256,-3.0152359322737445,-3.4301982226506755,9.451893880771113,0.007337242232527296,-0.07706064824926481,-0.1032593485474113
1681483948.9801867,-1.8543192195866254,-3.328377602036314,9.028142513209877,0.04138956329969709,-0.09613008050768773,-0.1046687823295119
1681483948.9902167,-3.140623571710359,-2.0490697978837042,9.070876529537133,0.06535419803073957,-0.12793033169953957,-0.0980547976254943
1681483949.0002544,-3.195408840553668,-0.8202473933065938,9.466550722008499,0.07341277191783273,-0.1629653840726852,-0.087638900852156
1681483949.010255,-3.9965596922340265,1.2695326022425153,9.892707149204227,0.05942272972804085,-0.20317966174765476,-0.0759008389472488
1681483949.0202098,-4.740230238256381,2.7785786899086253,11.318138557104117,0.02270609948402139,-0.2503744784932714,-0.0776975241064552
1681483949.0304265,-3.302796415600265,2.2513052113954655,11.562175190986395,-0.015667840596996628,-0.2761998572929214,-0.0946984898805144
1681483949.0404682,-1.743682156733336,0.7633942419440194,10.844097580325629,-0.03474541792449016,-0.2808757730903422,-0.1245024513959411
1681483949.050192,-0.5102184285893823,-0.2459384758771861,9.567785172000988,-0.038879479275240734,-0.2673371254414705,-0.1510240745305541
1681483949.0602772,-1.2973106509856114,1.2574941367128938,8.3038369074787,-0.053964970094464694,-0.26367720186437404,-0.1839001339435104
1681483949.0704072,0.06281400003182001,0.091791399557946,8.264930321360913,-0.06945926256112109,-0.25319919346315567,-0.2116519671439651
1681483949.080249,-0.3764416499534798,0.996603249223473,7.920609447408778,-0.08475651663274059,-0.2400417918436418,-0.231555880284262
1681483949.0902216,-0.8630162761880154,0.3040179833160347,8.993356403822808,-0.0912113118970217,-0.24297566879716526,-0.2305797052144531
1681483949.10033,-0.995653691943217,0.655448060378965,10.000517260390716,-0.10187815564549943,-0.25271052140243955,-0.2152085315942291
1681483949.1103246,-1.0933685288710517,-1.10757632745732,10.45638108935176,-0.08219588358446847,-0.26348633329809934,-0.1880327623843673
1681483949.120289,-2.1565393226666134,0.7078267683594153,10.82654003588316,-0.08044347753402141,-0.2886397867664598,-0.1434544187545303
1681483949.1303718,-1.6336522367730084,1.575269659297905,11.954288938982009,-0.08784505799473166,-0.31864594687782855,-0.0869403493165496
1681483949.1402633,-1.0866234771165395,1.3788204041359062,11.747035628671426,-0.10198485192210621,-0.3382571046231095,-0.0372059766709331
1681483949.1502635,2.1639330876227443,0.17446088422643236,11.406197724790609,-0.09603484855789107,-0.3240306820215233,0.0157426183537122
1681483949.1603,3.075856479118601,-0.7496879897878209,10.398799956312248,-0.08774113137395123,-0.29280050836000027,0.0498546089470859
1681483949.1702533,4.355448384594067,-1.25654975112621,9.001323007213243,-0.07202989118948361,-0.24215347613099195,0.0782579991460319
1681483949.1802137,3.7049971331113785,-1.0494845091850373,8.525569653731505,-0.06565483481002206,-0.1988669419515962,0.093311629021215
1681483949.1902108,3.7748014755476125,-1.5765939145294943,7.669817244043298,-0.05119618468361678,-0.1530163435150242,0.1106682333589073
1681483949.200255,3.4770878851886518,-2.047905517818745,7.699062703384379,-0.035748836792077944,-0.10932128482851873,0.1215252343059059
1681483949.2102778,2.120606118522706,-1.7996061124725127,7.855532323795563,-0.01792354362997893,-0.08433002325205464,0.1336794334888931
1681483949.2202413,1.3716386047725382,-1.1521407924836506,8.507489028435808,-0.009603894720318874,-0.07309741646019007,0.1444720912218567
1681483949.2303195,0.062048508382306085,-0.5804175849337111,9.283683432854978,-0.012438445083728383,-0.08212519563370067,0.148291348242807
1681483949.2403207,0.9373260547762573,-2.3001483109441416,9.93003734682661,-0.0003835916448804437,-0.08844503668004097,0.1423852879047867
1681483949.2503016,2.203802394731445,-3.9989388126393317,10.118231159105877,0.03505687235253754,-0.07678182612086358,0.139026223444986
1681483949.2602456,2.3344096394066884,-4.803386784241809,10.44222090317947,0.07980922837468553,-0.06989702816817905,0.1286983031273361
1681483949.2703264,3.8632706767668408,-3.922519553828813,10.001808381864635,0.11567284296454161,-0.035833854537660005,0.1248123261571403
1681483949.2802825,3.332726788614051,-2.548596978922373,10.151190915179251,0.13816215152029424,-0.01589508937115076,0.1193201902747627
1681483949.290357,3.6316707124573737,0.35136732748466626,9.538687023191763,0.12309735744836547,0.013398347257093787,0.1023203122854706
1681483949.300275,4.831014573098736,-0.4018069500152083,9.932180381489438,0.10637708047051388,0.04874070098806319,0.0898342418909546
1681483949.310263,5.243183109587394,-1.024415687531431,8.306929717270677,0.11889862665119458,0.09512615656424975,0.0770626279950615
1681483949.3202343,4.669530297110961,2.2581048990933756,8.79192986986601,0.083351410800867,0.13316576143347,0.0606933708727833
1681483949.330332,5.018916232255454,2.1329437628672827,8.353181273614139,0.052700679690198475,0.17385322623314112,0.056716858172464
1681483949.3403025,4.474087015199891,2.24113755085728,8.35506677704212,0.023541960479972715,0.21117863539878715,0.0474217671394821
1681483949.3502471,3.686329319126128,1.6004759736062253,8.711847326773183,-0.000539618624284086,0.23858705214047726,0.0421616311610218
1681483949.3603437,3.067235740015376,1.369231228722131,8.664538200266518,-0.018031365136712038,0.264693124880533,0.0377362992108341
1681483949.3702884,1.7014824627396592,0.2176526905451473,9.239282526118048,-0.018338368637861285,0.27258963681271026,0.0288117330015179
1681483949.3802664,1.099187302852513,0.7010814524467365,9.375762152455396,-0.025168666446113607,0.274845326667112,0.0252503033221241
1681483949.3903413,0.7619747129905747,2.5188756467970594,9.628965207312381,-0.05057393596566969,0.2813147175935694,0.0220009412110325
1681483949.4003084,-0.6508311176958067,3.4913334862126875,10.71176761967944,-0.0936682544259646,0.27152534499723785,0.012219739840972
1681483949.4102235,-1.1336028487418426,4.481525831828222,11.070490353384494,-0.14963682935947475,0.2573938590752978,0.0068772553891416
1681483949.420287,-1.5079489918726814,1.6226706220464142,10.624459047228976,-0.18058329158029615,0.24573866981549938,-0.0121929796918753
1681483949.430355,-2.5991701610024314,-0.560223481442831,10.034651496834657,-0.17772875459281476,0.2191523534136592,-0.0274013851344112
1681483949.440294,-2.147695965755281,-0.9007229146048404,9.649556219728918,-0.16585173033963316,0.19890672855922167,-0.0391225714742664
1681483949.450276,-3.192848338931646,-0.3953365067833081,9.883489135960918,-0.16232212353601605,0.17137430942221682,-0.0523755673825267
1681483949.4602654,-4.037567715187153,0.11151127540581171,10.385375428091194,-0.1668755786470186,0.1275723489109066,-0.0646398749708656
1681483949.4702888,-3.9959051095969307,-0.8243707487390596,10.577049699067016,-0.1655319696879451,0.08786588389400052,-0.0743129637598518
1681483949.480332,-5.2892745724004575,-4.572995372517557,11.005703906082688,-0.12231728839065097,0.03356441256573506,-0.0802099716424468
1681483949.4902928,-7.519329809680202,-6.158763570731362,11.051017016093429,-0.0490494547140349,-0.048341532862394,-0.0828013431787017
1681483949.5002534,-6.917884552837797,-3.5672792532284445,10.4669637328003,-0.008016171493924338,-0.1262103512473407,-0.0841601651668075
1681483949.5102515,-4.4659480122348425,-1.0401032613147834,9.818426579469577,-0.015240964148868875,-0.1762079534508071,-0.0827968430280212
1681483949.520293,-2.6446160226449296,-3.170502959205022,9.015742772706531,-0.002725533023156837,-0.2024760895239462,-0.0898720410227302
1681483949.5303,-0.4072977731408415,-5.202647046929133,8.046874090510048,0.03889741875444379,-0.20147997055834468,-0.0948151957749847
1681483949.5403814,0.9600243917444534,-4.755667347048527,7.7228542260475415,0.0836116175378369,-0.1738799956476674,-0.0966656368731979
1681483949.5502794,0.6784948344704153,-1.7652023034383886,9.310913401269577,0.0874559043606007,-0.1526622965283187,-0.0962350380181792
1681483949.5603216,0.804383918395356,-0.0027585643543210294,9.763252163147534,0.07471673350680752,-0.1286039436493037,-0.0824176457285407
1681483949.5702598,1.0269373152290073,0.39368400386562236,11.197080160620457,0.04932678733725678,-0.10505010315247644,-0.0657765653490546
1681483949.580272,0.5712095181842335,-0.06293923051245369,11.216942421395027,0.04306717659431006,-0.08755206615252911,-0.046124597316933
1681483949.590263,1.7142513371274959,0.08170156062617603,11.299541809091602,0.03941361162770591,-0.05754040704617845,-0.0259503976016763
1681483949.600298,0.8980916049290149,1.8419826475616417,11.184481978027632,0.016638172679707002,-0.03179404745693464,-0.0147667520254377
1681483949.6103294,0.49819824413226305,2.436392606619025,10.371202875897398,-0.009744053015602928,-0.01279298558716947,-0.0033186150289598
1681483949.6203427,-1.251391525447849,1.7511583620508704,9.788028991193007,-0.0330368677036334,-0.011975537097357306,-0.0073108470573547
1681483949.6303823,-2.3969834428064027,0.4989517548368964,9.44840095791794,-0.03778128346602682,-0.03105603304178583,-0.0149739712982896
1681483949.6402905,-2.0117647174566655,0.30939951772647756,8.832986422104375,-0.036755905780975,-0.04471069820501354,-0.0194660176097873
1681483949.6505008,-2.3297652014412904,0.6852368342082379,9.382763080958659,-0.04087295801487552,-0.06746209633876163,-0.0233358603477004
1681483949.660331,-1.131561008314187,1.3540973150010467,9.527959251715192,-0.055746593280590416,-0.07579417224292179,-0.0296317946671966
1681483949.67029,-0.02164654324747243,1.4766299046147298,9.9194979179858,-0.07985250349392833,-0.07017815246891122,-0.0350153718649867
1681483949.6803184,0.2588237735669725,0.2736671249865418,9.648850529200915,-0.08748280393835349,-0.06290722561784101,-0.0446087617933276
1681483949.6904154,0.6759228892454768,0.07138864991172798,9.904821988263024,-0.09664436778131923,-0.05368682861460135,-0.0537744213401797
1681483949.7003243,0.260732287860329,-0.40729843533146604,9.728109778515776,-0.09806766404873038,-0.054834400617310444,-0.0530453037976745
1681483949.7103443,1.4225591965847915,-0.480954231071813,9.603868716435908,-0.09920420898923869,-0.05067983695779527,-0.0420513090252402
1681483949.7202623,2.2795024782304063,-0.4138998371780121,9.26046744482442,-0.0976588842619634,-0.036567919116452755,-0.0264154386281493
1681483949.7303712,2.7302481119403517,0.3612000421031154,9.253118019260764,-0.10493217116115626,-0.016793878651662215,-0.017717712795687
1681483949.7402508,2.6506896230479433,1.6229684378787188,9.427207559826623,-0.12915560972880377,0.002548296549802141,-0.0026512683875385
1681483949.7502658,2.2363593621741775,0.5236885215985319,9.637877129726204,-0.14990509995031304,0.0178074435932822,0.0063166886061903
1681483949.7603045,-0.03874601709733316,-3.7916629348468285,9.744791962860395,-0.11572219543355214,0.012807807289944228,0.0216631113976713
1681483949.770262,-3.06360802525984,-5.065001288342431,10.674064369028109,-0.05191990608540331,-0.03862283923595964,0.0418374601245399
1681483949.780275,-1.488261261944911,-3.937217817032189,10.575897183307367,-0.006943756739483192,-0.05955276424079078,0.0744635674596306
1681483949.7903752,-2.9506687478691376,-1.8808323726931775,10.75003101551495,0.011600347039765969,-0.09318113034880796,0.100840932452726
1681483949.8003125,-2.915062753699739,-1.8392914723400562,10.772505870664048,0.02079967795553312,-0.12945604571315197,0.1189095738769051
1681483949.81032,-1.39796996098086,-1.7880929627573006,9.909961846590221,0.025854271950423408,-0.14032747247256672,0.1255899283528801
1681483949.8202794,-0.707280261955659,-2.71328590225436,9.673407185482821,0.041634295918647965,-0.14093055509817928,0.1257861170411583
1681483949.8304162,-0.19059034386326237,-2.4579689369486815,9.754170050053002,0.0577703749210515,-0.13633295270836235,0.120302921855497
1681483949.840366,1.4254193033120701,-2.452723814340037,9.504138328598179,0.07009417509438289,-0.10814211349788845,0.116227484071302
1681483949.850345,0.8840734242517152,-1.3551428790600824,9.805257361026237,0.0761544826498762,-0.08486900192768793,0.1062411132693764
1681483949.860336,0.1584121033422029,-2.075573162603059,10.134258592191262,0.08124808465821905,-0.07838002444973358,0.0865434098482605
1681483949.8703644,0.807269943273627,-1.3853637389668576,9.503898576060568,0.08825081334627888,-0.062472256333654906,0.0635229374707218
1681483949.8803017,-1.3407030024632873,-0.8788184525729681,10.061923919204743,0.078773000548394,-0.07791442188434626,0.0289267066359993
1681483949.8903246,-0.33008075088334377,-1.1242048785913024,9.661075883859212,0.08275411287977935,-0.0887299050826385,-0.0041592854581299
1681483949.900285,0.685463079416158,-0.7259212997734878,10.005971608178541,0.07099896169133868,-0.08680715749075214,-0.028136301091266
1681483949.9103098,1.8037387153137392,-0.8193537242700197,9.744030637549361,0.07900436691045137,-0.07922690064719237,-0.0451150473713401
1681483949.920286,3.2366325864444025,0.3964342534499669,9.69816458125813,0.06643394007464133,-0.050784849214572485,-0.0613384482025626
1681483949.9304588,3.9429722578937785,2.4932590570893645,9.702487502820986,0.03706323666547651,-0.01826753868923649,-0.063194670951319
1681483949.9404066,4.6000605064611975,3.091937004402681,9.481828583056794,-0.0077260501715722685,0.0224600472219249,-0.0700335812329772
1681483949.950349,4.262036980172048,1.9082877863678196,8.640384508520329,-0.033329564100521,0.061153034791358786,-0.0714437228202346
1681483949.9604762,2.128466355375615,1.731920218084652,8.680127072848148,-0.05469330517314274,0.07459742412807978,-0.0694633063435081
1681483949.9703617,0.5338283771674188,1.304140369708818,9.02622736697133,-0.06435175700168025,0.05904374153296172,-0.0666644435882095
1681483949.9804711,0.8815757789826381,3.125624904716065,9.206033804200509,-0.09949736932034953,0.05127912628465015,-0.0630832028150085
1681483949.990343,1.3728972797827403,3.4493084992816163,9.601407837802995,-0.13731534358129813,0.04449240382420675,-0.0525334451853755
1681483950.0003743,2.9965542202832682,3.1031364629943816,9.102755459485362,-0.174397699476575,0.06571084370722215,-0.0472363580524448
1681483950.0103428,3.458374268276588,1.4015434023521396,8.790524663219001,-0.189520406714826,0.09773790658471303,-0.041194492256594
1681483950.0204074,3.3688450785778183,1.9723817397804795,8.807733920602585,-0.211191147334559,0.13022355022331286,-0.0348500695585731
1681483950.0303345,2.2287115545002267,1.4314703778124234,8.957188189783952,-0.2266891207389619,0.15487248840435672,-0.0265118156134608
1681483950.0412006,0.31821704155102093,1.2101783967487085,9.709370393097023,-0.24339679264326153,0.15420749465193245,-0.0186091859399799
1681483950.0503569,-0.9343453448239697,-0.23641674953558175,10.41101395406012,-0.24711317470466776,0.13836248404625714,-0.0203521635889533
1681483950.060318,-0.7291701669841153,-1.0344309854806335,10.712894588857237,-0.24056664489664537,0.12612885669412655,-0.0214295715599778
1681483950.070259,-1.2015225958077298,-1.9526748246014227,10.849793729209894,-0.23240691850490794,0.11507368450519691,-0.0313221898436072
1681483950.0803354,-1.5770470418706748,-6.3138685705477045,11.442163632627663,-0.1767173595866252,0.1036425256818312,-0.0336973380803588
1681483950.0903952,-4.229033436916331,-7.06444729040676,11.156260063953406,-0.10754640628887197,0.06378618595765115,-0.047520742988539
1681483950.1003053,-1.2988662025233317,-6.302070842632862,10.82339230539547,-0.0522810929279184,0.05172277718963502,-0.0452804800629142
1681483950.1103597,1.5555228479196417,-4.987224087598502,9.46001012046546,-0.007144326965866163,0.09386922207563408,-0.0240350731223348
1681483950.1203425,0.3469830806164366,-3.145231275691068,10.383947642936771,0.009300950375036218,0.11121115515572863,-0.0038021600380066
1681483950.1303484,0.994815968792963,0.042465424729879915,9.843755343189818,-0.005885205978672952,0.14006862166961956,0.0137201033026453
1681483950.140281,0.17268409284317843,-0.7821179924285491,10.23081082830544,-0.029148637107001975,0.168487175398512,0.0248829412699219
1681483950.1503322,-1.2903423535172576,-3.160686414722128,10.25540335965984,-0.008717346114392828,0.17317012813621704,0.0298352546483751
1681483950.1603563,-1.9370787876596867,-3.5886249218571153,9.449176280814283,0.0205909799136828,0.17301301355905738,0.0393166530371185
1681483950.1703348,-4.197418701733504,-2.8762301336941127,9.416707510644498,0.052194473689714506,0.14386459328367046,0.0314473255962606
1681483950.1803224,-5.156642305630928,-1.954260854373846,10.130826399706633,0.06487935036254891,0.09381112730491922,0.0054705201142009
1681483950.1903677,-4.6983517051532715,-0.6315130659207012,10.159630115814199,0.06484332833691732,0.051117918306106916,-0.0281216737389091
1681483950.2003417,-4.509183737469166,0.668723006877762,10.81763865650489,0.04661705994349134,0.00853487654529071,-0.0626940440892699
1681483950.210355,-3.844906101646186,2.098389424128645,10.843012448447116,0.011712573615906134,-0.02557384459589744,-0.0936623376369003
1681483950.2204218,-3.3833163636618977,2.9044901099717766,10.800081646125076,-0.032792253249607495,-0.058573446562047646,-0.119318493878794
1681483950.2303252,-2.38807789677831,3.5653128565555137,10.59327169690047,-0.07753432423303577,-0.08633244301365738,-0.1295799028634551
1681483950.2403257,-1.0873366661670465,3.5142885300219873,10.091766796961394,-0.13231820353056495,-0.09809597481599795,-0.1331482094287399
1681483950.2503705,-1.1643879107815827,0.996984559619555,9.80470058420816,-0.14531641657761116,-0.11319253217565617,-0.1184267711400512
1681483950.2603722,-1.5403477782275445,0.010057887003818575,9.627277358777572,-0.1427221831992132,-0.14157860406665387,-0.0958319914102081
1681483950.270378,-0.4665439635901966,-0.4442263548493532,9.289150918347564,-0.13439086208038814,-0.15559427145102023,-0.0664984595536712
1681483950.2804596,-1.1512843802076123,-1.2796402294798672,9.606064637037285,-0.12039333544410746,-0.17868154211819104,-0.0446487714111331
1681483950.29034,-0.5548161075071534,-2.2654636075638317,9.435637516472594,-0.09495971527541609,-0.1947245118039848,-0.0275651135056737
1681483950.3003469,0.3171872747341465,-2.699241906153059,9.343237713372222,-0.06873320103741556,-0.1979656831878267,-0.0123341896146062
1681483950.31035,1.2484202662858868,-3.5335916667144276,9.03335274210881,-0.030988621845626712,-0.18859744650400956,-0.0072734721511129
1681483950.3203592,2.762087181756361,-2.113824707268984,8.717155746778694,-0.01454960472086689,-0.15989965886962146,-0.0019888677674803
1681483950.33041,3.920889804282049,-1.8924867999980324,8.48015343968309,-0.003998866712102154,-0.11275567236315648,0.0015788008127369
1681483950.3404486,3.521449114151722,-2.049214994510978,8.183790740573594,0.010968882429752622,-0.07108349228486481,0.0144899745896931
1681483950.3502874,3.169427439764174,-2.2710878036139746,8.081948471752625,0.022757975241624193,-0.033887681618135,0.0322010822087999
1681483950.3603272,1.3118608257433928,-4.183739369304776,7.816494973635562,0.06661449409065802,-0.018635736883293206,0.0552681151271339
1681483950.3703518,0.46269087886673504,-3.8314179165742486,8.092324257671347,0.10015893451761042,-0.02026737158696921,0.072563743913221
1681483950.3803809,0.8734667863103068,-2.222208551855332,8.482785894615171,0.12605723538076025,-0.02055067265799137,0.0994466158986565
1681483950.3904605,0.9550726612735213,-0.5260499286945882,9.675436494578044,0.12445443076387284,-0.023936505719139262,0.1238535556436058
1681483950.4003427,1.4361293905116572,0.9038210472990936,10.547876973319747,0.09750400306932783,-0.017833111900916628,0.1518971312284943
1681483950.4103136,0.009834668365785795,0.08228832409601995,11.190898215067199,0.07926183693094549,-0.03161100119073081,0.1673950243235107
1681483950.4203377,-0.5811073463350799,-0.4587053900838015,11.107972923847013,0.06264802441614013,-0.04798249845794087,0.1697364288807388
1681483950.4303474,-1.0500672054218954,-0.2356403987535711,11.099219991861842,0.04630926206048402,-0.07167501930887561,0.1661117959261414
1681483950.440312,-1.4254718223542302,-0.7109115292182228,10.40267319263189,0.03204285542937156,-0.09361819421581878,0.1467187392950531
1681483950.4503472,-0.8483117765892239,-1.2320847686698486,10.405232935804204,0.026216779061083415,-0.1098095581093872,0.1240647274494644
1681483950.460376,0.3701921636681742,-2.752690407170682,10.805915248713038,0.04078678375274245,-0.10960363010235533,0.106436646306562
1681483950.4703858,1.9924612631746483,-3.813879664976313,11.169716706014926,0.07283009379958334,-0.09071338027995061,0.0883043471217628
1681483950.480369,4.09234046574918,-1.69384610346796,10.788588875066853,0.08741620574265084,-0.039627586345216785,0.0715021106839653
1681483950.4904203,3.3435045094632363,-0.3345905176959964,10.20398937298255,0.07953774870956183,0.009797342782190256,0.0617136086762424
1681483950.5003502,0.8009222336869529,0.34718646887236565,9.21534656009173,0.06727818523437194,0.03157388212026462,0.0524113576353069
1681483950.5103583,-1.2543805224444742,1.032132525268288,9.424493406961675,0.0422499684179537,0.02145754961891071,0.0583468067884918
1681483950.5204065,-2.804675290760461,-0.2873395628343509,9.369055466469277,0.03877139063741554,-0.012778939162528223,0.0680705818772789
1681483950.5303552,-3.2381243524254457,-1.1930397455005928,9.42000001527232,0.044787046106997,-0.05239485046368014,0.0802429232240196
1681483950.540499,-2.809465162427789,-1.7684956205906084,9.621918129825351,0.06297176508842228,-0.08936149859059452,0.0919210601091858
1681483950.5504005,-1.1479739243816223,-2.6252856355856022,10.297818170800136,0.08791252246818175,-0.1112340422618768,0.1025622698903557
1681483950.5603628,1.9341524227264486,-3.854031877801456,10.416003668014957,0.13021381045736152,-0.09372882070139901,0.1121165070176598
1681483950.5703776,3.5145950226243183,-1.6818551655906036,9.899018825697013,0.15054679594247483,-0.05755186543518659,0.1146098214626785
1681483950.5804005,4.387517505714285,-0.5202579081193301,9.62628208384227,0.14687523390196747,-0.00500427552317634,0.1084102976561066
1681483950.5904016,2.4794189245015263,0.6314519545495207,9.374129607129309,0.12540097452354418,0.023927326673720814,0.1014842900872703
1681483950.6004322,1.3256238099325552,-1.175664922829792,9.202652124115902,0.1234882324322928,0.03206340776402157,0.0930188882589813
1681483950.610385,-0.6642874235553581,-2.843168821137021,8.727898459724907,0.1412280310797998,0.019513844029634315,0.0843941408634659
1681483950.62039,-1.756081118682912,-3.7780037544957685,9.271338890995217,0.172500865004736,-0.016193575611100994,0.0755180630326744
1681483950.6303978,-1.7545622423479548,-3.119890865877453,9.17537937984861,0.20059033240642785,-0.05127728579509222,0.0673408347607132
1681483950.640364,-0.5614478948165056,-1.3836780946059573,9.678341895884563,0.20668204249517913,-0.07230089700086252,0.0640914353967186
1681483950.6503742,0.5727940096288014,0.7463526687896047,9.923879719189186,0.18781814211005457,-0.07833500092003219,0.0603727984667297
1681483950.6603775,1.776102450060602,1.989795572870547,10.429891817664775,0.15173986521798327,-0.06610845547880526,0.0619973640382763
1681483950.670403,1.5475969477156026,1.284608990572716,10.292644455612777,0.12166051346780483,-0.04855558953413166,0.0553119692445274
1681483950.6804752,0.4467415911935889,-0.15553942924733968,9.781850833139272,0.11246999574628323,-0.04179534079322388,0.0485535215080257
1681483950.6903267,-0.6578976903023415,-0.2589496275551113,9.401549313926374,0.11558023912578058,-0.04965678285446327,0.0405122588813778
1681483950.7003734,-0.7496599312366412,0.7980120020610141,9.39637147029247,0.10196718358579973,-0.05699702667391536,0.024713705056953
1681483950.7104335,-0.7837256175768981,2.1837155528199537,9.394865699038036,0.07467624404245271,-0.06289192395537493,0.0091134489007767
