time,ax,ay,az,wx,wy,wz
1681484543.9743078,-1.9065874889278769,0.8194595460382689,9.996692666210786,-0.018058204271451144,0.21917322150695992,0.0918474781752106
1681484543.984311,-3.140503000954262,0.22784341242385125,9.84231999556365,-0.019552884985727177,0.18940996599754065,0.079859717512178
1681484543.9943285,-4.189525740909535,-1.4199730952115306,9.910889251855755,-0.005828932134036084,0.14670871335739982,0.0602696563542362
1681484544.0042396,-3.9669926566565152,-2.936859164968699,9.605212748837353,0.028339030291262626,0.10290915782625246,0.0399095069110866
1681484544.014248,-2.3131517893596625,-3.551179625141064,8.948646519372783,0.07159369321708935,0.08021341084950301,0.022105769017386
1681484544.024328,-0.8433894918488835,-2.532727202851298,8.582841677936255,0.1064179570575829,0.07860759021578625,0.0151146554813262
1681484544.034309,-0.12919557104178211,-1.5591858422475537,8.382434529833139,0.12982832228828223,0.08974615112044329,0.0151939408347483
1681484544.044311,0.28009287885951306,-0.5364327930365427,8.647857400637115,0.14301845132368143,0.10897591112494527,0.0237840365112301
1681484544.0542972,-1.1278179105955428,0.2460495542906713,9.5374436626858,0.14755638376794702,0.10621735315131628,0.030755224400806
1681484544.0642478,-1.3777041038626288,1.2395904737919963,10.176704423584978,0.14153122675996577,0.09746971479227043,0.0508311379194733
1681484544.0742962,-2.0970933809869146,1.097008183633695,10.57409515302425,0.141079642077786,0.07688912382260678,0.0699345755815979
1681484544.0843782,-1.2975932094367275,1.7640161746427738,10.206733201808001,0.13509670138173677,0.06764319074526165,0.0885621372104164
1681484544.0943463,-1.3044118454761087,1.5472260724820848,9.988535815892241,0.1331172672775765,0.059636046525113236,0.0983725401998039
1681484544.1043043,-0.9781250259714651,1.4668858924407948,9.867333614881904,0.13096381533175408,0.058028686080361866,0.0989618140697952
1681484544.114264,-0.888081783094903,1.741012759969649,9.905663052762002,0.12782735531202521,0.05953871300409949,0.086785859191465
1681484544.1244316,-1.2950463373749013,2.9894811785194744,10.176032178753164,0.10505752482605642,0.062107121033818755,0.0675965163350578
1681484544.1342435,-2.4802402956014657,3.6804265464571215,10.797323275716886,0.07782133353203038,0.05007553456250917,0.046079753661203
1681484544.144246,-3.873099604026488,3.637841984937425,11.158888766985264,0.04899068415548705,0.019909413226410138,0.0229419104248758
1681484544.1543648,-3.537015976562459,2.8111539208231378,10.981046970608864,0.02923369087305824,-0.008166632261710029,0.0014002764687997
1681484544.1642392,-2.899631209432592,2.068865536444854,10.255789062766235,0.024155774201133465,-0.030098768965402704,-0.0178240940480951
1681484544.1743658,-1.758368004896905,2.3289186187963247,9.573094945233885,0.012057790554131658,-0.03640641603573784,-0.0298144419252399
1681484544.184367,-1.7699282383054131,1.8186267869273836,9.281529512705971,0.006461240505325049,-0.04277383862587074,-0.0425213177263263
1681484544.1942818,-1.4388708488213005,1.5102442749408822,9.093496072162496,0.0006687460798632081,-0.04359689728357812,-0.046468903547478
1681484544.2042456,-2.0844610803782424,1.0015824597117544,9.281715492380178,-0.0005589182232649045,-0.051896620083589806,-0.0466271315276149
1681484544.214387,-2.181278180427929,0.876255568732459,9.729571445340307,0.0005402218797354372,-0.0661696683394679,-0.038931922292662
1681484544.22432,-1.5434779845373658,0.9246133228968879,9.812833985082204,-0.003924522826832438,-0.0677929232805652,-0.0289423030375961
1681484544.2342496,-1.246648120419361,0.723474629642526,10.258221141093902,-0.004038864291823481,-0.06999939067602551,-0.018113567730737
1681484544.245052,-0.2209486562341029,0.595766014786427,10.100005164460056,-0.0005216849149973876,-0.0570704298111801,0.0002242774894934
1681484544.2544055,0.0037986363401160254,0.7741247321843046,9.973356018072145,0.0015448162634506036,-0.042656963238348715,0.0142002671450849
1681484544.264254,-0.6711962582234801,1.146284855316396,9.730620832574342,0.0010189676580481643,-0.039799842063448845,0.0285393788904424
1681484544.274307,-0.7132242983100945,1.2314662007902162,9.6029410439755,-0.00475947895859831,-0.04583295758487556,0.0401250894606586
1681484544.2842329,-0.16813097406202307,0.6796717399702444,9.024383089860375,0.0026609145503972116,-0.044994538960781524,0.0533496576786514
1681484544.2942417,-1.3863835754740297,1.6234863983520174,9.251330737130358,-0.00036228160118619354,-0.06454117498152478,0.0556085284293171
1681484544.3042967,-1.0157307027725193,2.7747485080630323,9.769098737346207,-0.02187166929756734,-0.0879605377408812,0.0469525705516811
1681484544.3143084,0.05766446413562264,2.2454148479753737,10.161820433284246,-0.037650473733301146,-0.09839994571361105,0.0339855875313755
1681484544.3243709,0.5457843053370566,0.2884259391840132,10.585151221219336,-0.02832112950924606,-0.10579967369347609,0.0063935134053703
1681484544.334277,1.4439701735817887,0.6109913145884073,10.352000542327932,-0.017350467259197526,-0.10190211921170401,-0.021963787502003
1681484544.3442397,1.9918149487034675,2.101713234418793,10.215955218122602,-0.026131721072465804,-0.08944755082201165,-0.0459667120635036
1681484544.3543797,1.3498808819545682,2.3747051457395685,10.394721997925648,-0.044998190160020615,-0.08771712903643378,-0.0667330410837653
1681484544.3642793,1.3305738034823025,1.876719277665203,9.831637855565685,-0.058070199036928616,-0.08538151846574826,-0.0783475872635368
1681484544.374307,1.0569044407830748,1.201721756656469,9.823085223787373,-0.06010445699000481,-0.09245525409419073,-0.076808930611563
1681484544.3842795,1.3333644451269488,0.5815660644176615,9.635070640569802,-0.056274978782855145,-0.09347835765989963,-0.0715107631444457
1681484544.3943348,2.291909471753961,0.6785871547356038,9.431134388461125,-0.049400559807489954,-0.08335981021742209,-0.0565173414110664
1681484544.4042778,2.8093129857361467,0.44326217698006876,9.16914381364935,-0.03806443450854627,-0.06505882215815946,-0.0331866603850845
1681484544.4143484,2.822683953629753,0.3972913091859709,9.258326100512177,-0.030021957103301897,-0.04482857459795187,-0.0172181197016957
1681484544.4243922,3.2381525968082125,0.4541982652018486,9.026921340298486,-0.02173336514952651,-0.018099909498900762,-0.0015007795340839
1681484544.4343235,3.0858223414213066,0.31892047757123315,8.99094575495489,-0.0142939275907785,0.008835465048892347,0.011695380085754
1681484544.4442606,3.03627052612645,0.19465750807689697,9.102056779944668,-0.00479303867466049,0.03523016015830143,0.0252886309713598
1681484544.4543514,3.013280685294708,-0.4722183658198029,8.991224861937214,0.011376770598591292,0.06313108140644642,0.0312535881489988
1681484544.4642727,2.9025585478829137,-0.3483201540446773,9.148906136601866,0.024591675399683145,0.08945885314921491,0.0323310967028614
1681484544.4743764,2.1193910444817288,-0.05265484679147534,9.245582034739888,0.03047651613160953,0.10714007254778886,0.0307347148150678
1681484544.484338,1.7517806192595373,0.1358329115930068,8.977784944569619,0.036158711788251786,0.12148456378944307,0.0278026431292768
1681484544.49431,0.957179309737063,0.1314846214151563,8.974566290365887,0.04068848173839472,0.127293577434199,0.0232679068536039
1681484544.50436,0.3964242072831915,0.2784768337260429,9.10530808414504,0.04303315358952161,0.12440508296552595,0.0171295523137327
1681484544.5143032,0.347252687339662,0.24589585487741605,9.147160879466423,0.04758655026540134,0.12143866128485845,0.0072092220612343
1681484544.5243866,0.40772647862978845,0.8191586286067832,9.305515290140656,0.0455119479910338,0.11976459972654753,0.0021771321731161
1681484544.5342774,0.7367798138500362,0.9702967538988198,9.343596793874598,0.04496187330272045,0.1219403019116351,-0.0023233559954438
1681484544.5443566,0.9262291567634098,1.3091310071001752,9.34095175353384,0.0368755768356009,0.13131743218163078,-0.0087895684450391
1681484544.5543132,0.4537600678050806,1.1074018327848558,9.39047065864011,0.03449707894543775,0.13295397570051548,-0.013517689196718
1681484544.5643148,0.40788131016404927,1.3452370801236757,9.515071063639565,0.02944294875686085,0.1332935001478914,-0.0141464558004859
1681484544.5743177,0.4455956646363242,1.074504437603117,9.619374655451857,0.028131840424151046,0.13675144523424299,-0.0180296239017966
1681484544.584479,0.43222810376916276,0.9129819979526262,9.76364376407644,0.030816851751017657,0.13922240761181776,-0.0126720874145153
1681484544.5943294,0.6031855828644586,1.1314970115867895,10.011339595510158,0.031908108362426975,0.14348160941161767,0.0025355635403197
1681484544.6043067,0.012378250027815169,0.6538269649576772,9.858107394637042,0.042978112954981426,0.14666738784083508,0.0267112913966652
1681484544.6144032,-0.7645718131221696,0.7096536106186634,10.318613081115583,0.0503936066060712,0.14607820070374533,0.0500576707959648
1681484544.6243525,-1.7450235832578012,0.43822832533363704,10.81783871801913,0.06437239899864436,0.13272711029237677,0.0800159636378761
1681484544.6343837,-2.256364485558938,1.0136142195820337,10.827343033701545,0.07175740092254289,0.11256897313648512,0.1013165030122276
1681484544.6443174,-1.0155221270619816,1.9607415405186823,10.40428079809989,0.06541757478235463,0.1099309590435475,0.1284780788660522
1681484544.6542976,-0.5741340533133067,2.536672323244769,9.996044984721127,0.055483352458822355,0.11484367416447162,0.1541209209204193
1681484544.6643486,-0.038561184020179835,2.319020245673181,9.791489568055338,0.04509950965073538,0.12969549241094122,0.1681361484766479
1681484544.674358,-0.9655104244006851,1.7224620548030252,9.546320793983318,0.03807496761236344,0.139726488451586,0.1683227110147949
1681484544.68436,-2.5846223965211506,0.79222348021904,9.86901433392584,0.04868377932849279,0.12118050902935058,0.1593038279057022
1681484544.6943393,-2.963484539580692,0.9142110877923847,9.80956889316739,0.051643878851694164,0.10199621062024922,0.1372627008200165
1681484544.7043266,-2.9451576395939774,0.6454956284275296,10.191797466510835,0.05728707804052816,0.07708099234046467,0.119007079625177
1681484544.7143102,-2.479068487614243,0.34456992542454945,9.928690573251645,0.06653726962439109,0.06248652904072956,0.0985745403409477
1681484544.7243872,-2.2554323779242704,0.38750267530113375,10.156716911429706,0.07377218998452563,0.04683902885933108,0.0791113588452812
1681484544.7343235,-1.2797063615018047,-0.029124369935374095,9.825621605709074,0.08310393845535162,0.046619976750090816,0.0624061438680168
1681484544.7442746,-0.9775287544930148,-0.02098724624022046,9.98718419027553,0.09087996915568883,0.04894070050353428,0.0503460045397755
1681484544.7542748,-0.8773682534458372,0.7885248617004407,9.56374912632977,0.08960457008325262,0.05502168218844464,0.0429924901068684
1681484544.7643223,-1.4922403828757986,1.518831800103739,9.79508780807823,0.07638382585854764,0.05853781823358277,0.0338740299880978
1681484544.7743585,-2.800975218817348,0.7912910581323469,9.886818592729016,0.07501058995701447,0.04338365403034725,0.0206068034708973
1681484544.7844355,-2.9596629344532275,0.5108215132862198,10.333952010069606,0.07621132090905818,0.02266165542552129,0.0039841770153966
1681484544.7943716,-2.2950862038731774,1.1215887565538105,10.627960104312773,0.0774964920017193,0.012149075878056671,-0.0197967917233232
1681484544.8042903,-1.278090480232307,1.4096364783515425,10.276881901484174,0.07474437457416594,0.017619428273023114,-0.0470497955142978
1681484544.814286,-1.7064694984166842,0.8203479135730893,9.488733980702307,0.0751537000494233,0.02117036862113082,-0.0728227954864028
1681484544.824468,-2.33861723717472,0.9490415163047043,9.265169244124706,0.07950151019106627,0.0149961995017422,-0.0967011761426452
1681484544.834377,-3.1908661668313005,0.5847327676343097,9.388660393345894,0.08432784186668126,-0.005421864932854516,-0.1184578922152045
1681484544.8444047,-3.262289117856883,0.2911290829997457,9.413872627395273,0.09201248922373488,-0.030435262012240994,-0.1408302646636489
1681484544.8543675,-3.2396230207734833,0.8199263155331339,9.862962032922928,0.09292005897649978,-0.05837284881727362,-0.1632812034844878
1681484544.8643613,-2.758554736353849,1.3506009537382426,10.233845862026676,0.08813095853047266,-0.08874967210618065,-0.1674368393182281
1681484544.87437,-1.1811811881080247,0.7015588004429592,10.514526527768705,0.09206047260156594,-0.11809266322344102,-0.1468606453895095
1681484544.884302,1.9248876306000924,0.5814514297836146,10.073544397998788,0.10147401007720278,-0.1170044362441059,-0.1144488018512252
1681484544.8943295,3.6825663821306147,1.7108173931087243,9.650367200055149,0.09712259150124398,-0.09028927347353188,-0.0840324547647956
1681484544.9044578,3.4782497050084724,2.7299871529221873,9.927795535247183,0.08133814325458255,-0.06844117321184152,-0.0592188735067371
1681484544.914311,2.8282442398443206,2.3708166783524103,9.66072668216921,0.06417758471431548,-0.05109363706427403,-0.0457482237874988
1681484544.9244456,2.5386353306837606,2.740119959814505,9.969141204884721,0.05441105156043586,-0.04297830805522415,-0.0352834959089282
1681484544.9344969,2.4829555143517363,3.2509180271966076,9.952220775598924,0.03249524864366946,-0.02816813376512524,-0.034338758563948
1681484544.944316,2.5696111699822626,3.5271411074800905,10.123479727803252,0.011058195465539135,-0.01568051931220509,-0.0410915550350669
1681484544.9542885,3.259285998184129,3.9357760700370257,10.001747525364207,-0.00863314610867803,0.007138948409423537,-0.046593082374287
1681484544.964393,4.0674794592054155,4.663448263007072,9.869205827647425,-0.043216861128041004,0.04442760250378743,-0.0516292464494231
1681484544.9743087,4.22814119821611,5.056786011439907,9.465764484978365,-0.07585887239015676,0.08679335745294497,-0.0566672359168056
1681484544.9843676,3.3339245570575176,4.939603247942891,9.194543411728871,-0.11177682638434937,0.11818242408592869,-0.0541552801191333
1681484544.99431,2.810540632549343,5.0286318135737,8.998842571423992,-0.1475288616839559,0.14330962089416355,-0.049328868514252
1681484545.004349,1.3239673235046108,2.8762913503774183,8.16986112086867,-0.16578877267637085,0.159501487117527,-0.0445747200905803
1681484545.0143409,-0.16340872045347926,2.9177206707621797,8.866091347256006,-0.167656988983199,0.14194783976782702,-0.0212902121752027
1681484545.0243497,1.1663137728079203,4.002158808732934,9.296830467301357,-0.19885503780832262,0.15102055249132712,-0.0111981306731227
1681484545.0344048,-0.3423082693751085,3.2593909403778185,9.48347162665868,-0.2104592692283781,0.14983114081428228,-0.0038806574925306
1681484545.0442955,-0.57437420246772,2.4052705025534786,10.419467941257922,-0.22612428336311985,0.14591784569998578,-0.0156251445918801
1681484545.0543826,-1.8470537465852555,1.9274162523932747,10.400545176344782,-0.23102146897958042,0.13223583981636525,-0.0291704640298608
1681484545.0644195,-2.1544436122089436,0.03924077005834656,9.993883640908761,-0.22140698517327329,0.11490544978230623,-0.047809005951834
1681484545.0744474,-3.426795802556904,-0.22032763635034391,10.049509214641185,-0.2094996326243731,0.08175842944899121,-0.064294264888716
1681484545.084353,-2.785947913063346,-0.5561389873937318,9.32484523202258,-0.19212544764679912,0.0547100069630731,-0.0693342846393111
1681484545.0943894,-1.9651230010972291,0.4171660124440128,8.899300143394544,-0.1909688987647917,0.04526684988557137,-0.0641039025544646
1681484545.104473,-3.297336354668784,-0.7448322684468204,9.502989516101561,-0.1764457016808628,0.010125518164829789,-0.0641579490661147
1681484545.1144,-1.0027534367855597,-0.014801040836900039,9.32823055950729,-0.16944336878045763,0.006720888702921716,-0.0579943109809878
1681484545.1244156,0.13953228977262405,0.715354486039965,9.749763795633662,-0.16875526843156713,0.025629691086180056,-0.0542368788778308
1681484545.13432,0.7758277195058074,2.046570372286567,10.505609134220096,-0.1832048143828237,0.05154005073464162,-0.060288273966265
1681484545.144374,1.9534243984783273,3.242225913963376,10.554490464171806,-0.21945114083900222,0.10091487393665154,-0.0639089208602431
1681484545.1543312,1.2957393114707967,2.4019567877124484,10.509646522412652,-0.2362327580338693,0.14171704742522936,-0.0640546765684608
1681484545.1644027,0.48753135252041485,2.2216682668852594,10.201647187689899,-0.24912381334294822,0.17022989342386508,-0.0597190831362727
1681484545.1743414,-0.32289821636444216,2.5058490737860386,9.860079864851473,-0.2638758469495419,0.1826795360369437,-0.0405619156121734
1681484545.1845064,-1.501323709239087,1.5546099363852048,9.15454306122402,-0.2622621237591785,0.17633340398752254,-0.0208305392920497
1681484545.1944366,-2.524362754181112,0.9605906779520709,9.210091497393368,-0.2551090219224366,0.15084848851963492,0.0023440119653482
1681484545.2043114,-2.3964228563475656,0.3345118900582193,9.351950293512061,-0.24265514769361748,0.12641055760446757,0.0300381991506096
1681484545.2143357,-3.4159006769246147,-1.400292132921396,10.103562870221676,-0.21360149199049358,0.08806093919710505,0.0498946222901817
1681484545.2244334,-3.1124613957545204,-2.1131151473580014,10.323651797355353,-0.17740101465690225,0.054872897101076075,0.0597195464611526
1681484545.2343647,-2.7538217003683565,-2.294987616949669,10.571344515525142,-0.15080324674632423,0.03247048371063585,0.0616717960179325
1681484545.244365,-3.1830970727548262,-2.6739998282709445,10.846023685122478,-0.12399152236987906,0.005152455344207818,0.0445839825511452
1681484545.254434,-2.4503762036463352,-2.317507282658878,10.386109105570085,-0.10302781177860004,-0.016203190637224817,0.0319241217762705
1681484545.2644093,-1.3497876287252666,-1.5005232266546678,9.468454361267353,-0.09200017450568744,-0.020190101162277742,0.020798292705464
1681484545.2743258,-1.5386217998725107,-2.284605440326882,9.082818901427952,-0.0727063016909455,-0.025169639918289896,0.0046162798494573
1681484545.2843933,-1.0518863045560314,-2.1083668511162474,8.837624211223076,-0.048650991385060606,-0.028245738274620125,-0.0007543079595539
1681484545.294346,-0.6197782235771555,-2.018952183341703,8.72301408073326,-0.022083230139143453,-0.02488336417495291,0.0004648287972908
1681484545.3044112,-0.8858635996208972,-1.6282555825435372,9.294404214496147,0.0021631706219247555,-0.026665761835804498,0.0007888466894168
1681484545.314358,0.3699906383071031,-0.3529205481316998,9.541757585023081,0.01199676880230527,-0.014784350742866905,0.0132211481646176
1681484545.3244116,1.294276353154199,0.03245417731542525,9.835101354286172,0.020280678788214514,0.009917380167069553,0.0233683127403732
1681484545.3343575,0.7288638729413179,0.5493491659988469,9.708929908601721,0.018046130555943365,0.038659730463444564,0.0167304768652197
1681484545.344358,-0.41857422383438936,1.0185735386364783,9.844791639767264,0.013288601913858214,0.053218498777353275,0.0142379400745507
1681484545.35439,-1.6539298521918075,1.1357098264020593,9.655224146510488,0.01117792335507554,0.05667397187450557,0.0047526687808808
1681484545.3644698,-2.851558232354397,2.0557381629706253,10.232953470434405,-0.008902694337813405,0.03914967246230831,0.0030105023138698
1681484545.3744202,-2.7533473942869273,1.6081178791923745,9.66515984791248,-0.017011302502215112,0.02255613134708442,0.0106056851760026
1681484545.3843882,-2.821659418888121,-0.1061725734133775,9.967148180982624,-0.007379612418240832,-0.002179651641568566,0.0085636230610784
1681484545.394471,-2.0726752551130523,0.7091521623863052,9.362146148661962,-0.0026659948976094257,-0.018902958847112104,0.0056485498749193
1681484545.4044156,-0.35921065406425806,0.20503844183727127,9.515354879862562,0.000993896276649311,-0.015998733307667715,-0.0059053686022285
1681484545.414413,-0.8533636442634642,0.7239157553325128,9.298282656826485,0.0028526928482672403,-0.0150322567552767,-0.0184947748243335
1681484545.4243767,-0.47759116144003455,-0.29504674859670965,10.171251345496728,0.011056847746915992,-0.01915444285739901,-0.037288879281235
1681484545.4344573,0.16032217399830545,0.3549707734002482,9.539732491449614,0.018172342453062717,-0.009420165920073711,-0.0525902260601047
1681484545.4443836,0.4862810579295268,0.46042812785484666,10.247764433333826,0.018367547822698314,-0.005970035755258688,-0.0717868742107871
1681484545.4543996,1.40319605356151,1.024797939634049,9.477485384804815,0.013628052453870682,0.015931061389653382,-0.0850312572478774
1681484545.464358,0.943643496494806,0.5375807997578148,9.756354003861258,0.012508999699235036,0.02917863216842406,-0.0943913694977287
1681484545.4743924,0.3118970476669119,0.24339716896547542,9.45347344465312,0.01646187426697044,0.034531445232385015,-0.1028338011860374
1681484545.4843786,0.465204461830592,0.4999235787617515,9.462934360335884,0.01833356705974711,0.04055639945171662,-0.1010231983422759
1681484545.49442,-0.723197319783349,1.4679639529531725,9.586499419400397,0.009068934614793793,0.03014675148267017,-0.0930472102522376
1681484545.504449,-0.24073402197099328,0.6644300369536001,9.569803165698968,0.009607522373481905,0.026566046717805342,-0.0827067804097655
1681484545.5144165,-1.3728966680254662,2.3065386423307546,9.340906860110671,-0.005079785565036066,0.00754907225357615,-0.068513066744757
1681484545.5244362,-0.47334443507562274,0.9055381339511808,9.783649826705952,-0.011307504443818062,-0.005005637075229904,-0.059834291464043
1681484545.5344098,0.17798447928762662,-0.13676411488334714,9.630709734456273,0.0004772582393778509,-0.006612651101751889,-0.037925766086531
1681484545.5443437,0.556155323827898,-0.05004791552417162,9.668768502824523,0.014179667059985636,-0.006416173198821807,-0.0184238844125989
1681484545.554384,1.0078059731132902,0.3590551121402638,9.657632275938058,0.02158604264843927,0.0029779696736475353,0.0028318545042079
1681484545.564438,0.21397503247109154,1.4300199413505854,9.887077887014366,0.01478971361084821,0.0014819029947878018,0.0210044633090969
1681484545.5743947,0.6319708160299439,0.8330707710942711,9.434528812978915,0.014938786757777343,0.005317027819695587,0.0323965388775345
1681484545.5843954,-0.29320129279502427,1.8332018777610162,9.487939942163964,-0.0016728667817168556,0.000704825919372464,0.0383118975401398
1681484545.5943832,0.322486686425026,-0.6558717743653444,9.437527209814744,0.014723542522090608,0.0010135509409694272,0.047388876551437
1681484545.604381,-1.7522667586313136,1.2787763141812905,9.245578341877602,0.013975651196674469,-0.018571848138184417,0.0481406066060539
1681484545.6146162,-0.6288494736885131,0.255019911839733,9.927558200750322,0.013330035871046671,-0.03184635558587299,0.0475517313421245
1681484545.6244967,-0.7907757555546521,-0.13618306931993907,9.173547402609385,0.028799982005766847,-0.037875905499320454,0.0487589526415344
1681484545.634361,-0.975539555348216,1.6952812190808346,9.823004252338505,0.019210145757734515,-0.050417787563591596,0.0421713243663784
1681484545.6443834,2.37567169661855,-0.12020730312902854,9.146223830106385,0.019824026126398997,-0.007960168580807534,0.0213793597609278
1681484545.6544938,0.7891209751413627,-0.6519492751508557,8.506778927939768,0.04008913739632777,0.03923140122523074,-0.0265192494302514
1681484545.6644866,-3.288665797865925,1.5138693878786966,10.479306547752806,0.02451954011732058,0.04055849457873809,-0.087367051517916
1681484545.6744175,-5.183795044015314,2.4609614988431745,11.457976826334766,-0.006404952310450979,0.022801510836334898,-0.1392049354075912
1681484545.684476,-6.1088071335383125,-0.26941893260240685,11.271272398656516,-0.004655718492009973,-0.012386729177768181,-0.1837650549172881
1681484545.6944897,-5.532211086615628,-1.6300355145147785,10.013908939715432,0.029412239848533805,-0.04308876591923045,-0.2063524287700179
1681484545.7044609,-4.453304386747223,0.7737521818513176,9.511183685358324,0.037964301592442365,-0.061470957235393205,-0.2035586994647506
1681484545.71445,-4.126152694720048,1.488220151884505,9.652654463851192,0.02737787239156762,-0.07698378703427922,-0.2009373020886901
1681484545.7244418,-2.6032840558100183,0.46544927798568053,9.599691117598379,0.03159683436320981,-0.07976442937521427,-0.1773287665605071
1681484545.7348409,-1.4700950238521515,0.45217541711676523,9.458495531987905,0.037076694847878226,-0.06691624622234078,-0.1414881211280349
1681484545.7444184,-1.679726803957031,0.9820393453761282,10.073056013390847,0.039071700711917796,-0.06173433604620263,-0.0965977769851211
1681484545.754523,-2.3883719532193806,1.9391981999995094,10.138877609925427,0.02873617273052458,-0.07132742184999236,-0.0586454879998687
1681484545.764488,-2.6706810313728573,1.5854785744798896,10.092487779052554,0.01170787476420141,-0.09108058042519479,-0.0447194103657725
1681484545.7743528,-1.631858871823328,0.06985477145397194,9.711107553572287,0.01168925937143841,-0.11033962351255161,-0.0483264450490001
1681484545.784413,1.2758023310891817,-0.7482308174137579,8.948375244990276,0.023595548921155306,-0.0949174786783237,-0.0556400057434562
1681484545.7944813,1.1033432724254966,-0.5569334323172053,9.506404993238219,0.03266314157126038,-0.08209713627535205,-0.0711938005446914
1681484545.804435,0.9575513671051967,-0.043022030482863495,10.129905823327645,0.03815596664875332,-0.07929557673532414,-0.0874342483043197
1681484545.8144617,1.885788690349227,0.48869432682245756,10.15637323998281,0.03546835420741021,-0.06459533502962231,-0.0985408958553794
1681484545.8244946,1.6157350196288625,-0.18949552297898462,10.339618201014448,0.04148827092151014,-0.056295983217839345,-0.1096356895327094
1681484545.834406,1.829071133280094,0.23290904965457118,9.815941603409316,0.04734285752200364,-0.04172915129255611,-0.1097963985561851
1681484545.844386,-0.5228341630715231,-0.04646900228727247,9.68531282360608,0.05359690763197737,-0.05547738932391038,-0.0981879469513419
1681484545.8545,-2.3419910543935423,-0.7622017605098981,10.033623696411262,0.07577829577519439,-0.11028569005695117,-0.0948396113276008
1681484545.864449,1.9148509570762093,-1.7550857269485913,9.719973018401667,0.10151330243581819,-0.11905717540242824,-0.0942984458565238
1681484545.874435,1.223199517233306,-2.5370265497099607,9.441758529295615,0.14144565331122652,-0.1173954931076819,-0.1118228000163558
1681484545.8844907,0.3198096790501031,-2.0704166268300157,10.796281872578003,0.17538768432981264,-0.14066321606644183,-0.1418875765561584
1681484545.8944137,1.6358359956432604,0.11205940581701089,9.85382115299189,0.18883610178581997,-0.13514919939515133,-0.1760217857121948
1681484545.904374,2.040295366460224,2.189033682517621,10.331239061013683,0.1643585930886943,-0.1250289470084857,-0.2099966269492629
1681484545.9144893,1.5298798332087227,0.8211476122126538,10.031718609133518,0.1597937572204357,-0.11969725659128483,-0.2436138999223235
1681484545.924463,1.9071492046276108,0.950105416037121,9.437628097343694,0.15340017292200947,-0.10746027607203089,-0.2707676005124572
1681484545.9345465,1.9829125659692994,0.5810081472947507,9.208910968165819,0.15466145016712946,-0.08995745819373054,-0.291881979680014
1681484545.944436,1.0374229117272697,1.0785022640766808,9.318838558356477,0.1472668227741639,-0.07847918785418309,-0.3068305861711028
1681484545.9544387,0.4911336414273764,2.085897440554786,9.707233407570154,0.1291650642040563,-0.07592955035100081,-0.3006252360105041
1681484545.9645536,0.3725521372655305,1.4431890004492176,9.683533337290749,0.11903023467730993,-0.07089600224628448,-0.2885539841413024
1681484545.9744256,0.4272753083017321,0.8133668387515633,9.467767325743338,0.11700565704117384,-0.06468955477213408,-0.2809529912232879
1681484545.9845262,1.3580800254283176,0.9334927419369456,8.993184236746902,0.11507365419897421,-0.04494564052624898,-0.265991778349829
1681484545.9944725,0.4854314559383872,1.4138199527178,9.375992539381409,0.10480490438696688,-0.021728010194245223,-0.266683222031546
1681484546.0044012,-1.206233428910496,0.5578667698456515,9.9326096631798,0.1081812605027759,-0.02410554855849327,-0.2591140579938415
1681484546.014427,-1.2440823767674465,0.9740225717783584,10.214685751039974,0.11163361468338147,-0.027290562019719567,-0.2558860194444183
1681484546.0245786,-0.5639681548631921,1.2367851179472111,9.886738774807355,0.10839729958671608,-0.01645448250894842,-0.270719767785025
1681484546.0344772,-0.15177605795805274,2.4852937178175316,9.72796067110646,0.0954264162295768,0.0045876544717621745,-0.3094311368226531
1681484546.0443957,-1.0558911529322068,-0.20214003386857823,8.60451698934774,0.0853707015334298,0.027554736779098254,-0.347310126995993
1681484546.054505,-4.23312142650194,2.1135236499256775,10.087592708608591,0.10066282167962279,-0.002269931434140813,-0.3866459142922882
1681484546.06447,-1.8354535171110173,1.4003393644187743,10.31562820922044,0.06988000759920582,0.001569101765524349,-0.4187208723783019
1681484546.0744374,-2.688265106231521,1.5297030618309764,10.61165605499891,0.07103501735941606,-0.014675991160208837,-0.4158290338277343
1681484546.084562,-1.5912611354092303,-1.4388468881823262,10.42141164902098,0.10937322207063094,-0.027961975225723294,-0.4173862349748138
1681484546.0944526,-2.1187129315228006,-0.35525870665210335,10.055836769369707,0.13192432137170587,-0.040069164733754686,-0.4262403261422637
1681484546.1044412,-3.0873054057606186,-2.1731181476678185,9.180995019207606,0.184812898309203,-0.06992573229003436,-0.4321868431329254
1681484546.1144173,-3.140280381335033,0.31135433109956784,9.719622759662107,0.2001952772952146,-0.09227174846936526,-0.4711608600377563
1681484546.1244874,-3.9691260818835943,1.7487814618117796,9.006825479790916,0.21158760441335378,-0.1323168753138716,-0.4884043049573425
1681484546.1344926,-0.26664589433768227,4.85286022901461,9.706123900762218,0.16259913176124047,-0.1281121956434878,-0.5028432023286347
1681484546.144386,-2.5067858576594153,2.2864501915549793,8.66071195882813,0.15297615264233122,-0.143852571067784,-0.5193880808114533
1681484546.1544385,-2.0167112904367284,0.771207197239597,8.42842935953448,0.1745859795398112,-0.16033017306889913,-0.5354881894349579
1681484546.1595292,-0.7990296459068384,7.5723936234931974,9.782621984378878,0.12739240830062307,-0.15497327124742621,-0.5408333551644806
1681484546.1734712,-1.6130817101439,4.7755847234963085,9.698377446137801,0.08095528400771147,-0.17092844029184395,-0.539109946465445
1681484546.1834629,0.815759163834351,6.349995474499192,9.620236695186465,0.017287232020144466,-0.1574964343196538,-0.5181452047585968
1681484546.1935115,1.8180411141372,3.6678301723225246,9.656743880159617,-0.028324055351265295,-0.1368255304346714,-0.5006511819123749
1681484546.2034645,3.703342601159089,1.2490969949781436,9.084804092678837,-0.021420824129995665,-0.09122894233963198,-0.4880781185388091
1681484546.2134356,1.8484985297123422,2.7641098682845437,9.70192272798223,-0.04818346546187939,-0.0669003792137425,-0.4798578929662231
1681484546.2262442,2.014149960113415,2.6076474937538174,10.0650170050066,-0.06644586279132997,-0.04450198936991209,-0.4565960776566986
1681484546.233478,1.3369608325158506,3.023087942447981,10.356071756967602,-0.08456306459746708,-0.03702181843896916,-0.4473103296517852
1681484546.2433894,2.0084947780040294,1.6819049473202166,9.62850464188323,-0.0905663619821648,-0.01754881996977996,-0.4320862602948669
1681484546.2534208,0.3602684473371571,1.5641844198319546,9.451076125650829,-0.09196367180318324,-0.015444453754187234,-0.431024224734259
1681484546.263409,0.08356859142700929,0.8831231925795335,9.371879973779995,-0.08356867544431641,-0.013585315109308334,-0.4358331572770599
1681484546.273451,-1.049940349288327,1.8783844489346537,9.018230769566939,-0.08074269684325515,-0.023208016504666643,-0.443374158120108
1681484546.283493,-0.5366451718430427,4.194803125551726,9.354392105197753,-0.11154297224864469,-0.020437704149115537,-0.4528187823056701
1681484546.2934587,-2.03761556965902,4.094783647442014,9.531212165928718,-0.1447614004951497,-0.037376886587394624,-0.4613602769135955
1681484546.3034496,-0.7306045364259947,5.231779937538851,9.251868858709505,-0.186545520601265,-0.03831157594364885,-0.4628545057534698
1681484546.313434,-0.6971436109187438,3.6585827617733453,9.359311634315652,-0.21686189885230778,-0.03996805829332378,-0.4602415871381286
1681484546.3237145,-0.2822200754833398,2.795349387750642,9.205552142460693,-0.2308158378692996,-0.03999191110223212,-0.4573265623807434
1681484546.3335264,0.6217455237969639,1.7248049542226962,9.202066130161798,-0.24172254260265974,-0.02559026391082677,-0.4591796409844879
1681484546.343431,0.5189422179008796,1.0344071358127411,9.706781526145333,-0.24009678254726613,-0.0082410006001191,-0.4565085482358459
1681484546.353475,-1.1395125333937335,-2.8599995908230262,11.253696343934958,-0.1995489836200218,-0.0179203809093242,-0.4449647974729064
1681484546.3635747,-2.230219579414119,-3.7518569551748113,11.821830552652017,-0.13466609360853612,-0.04061639459388691,-0.4272140574216369
1681484546.3734398,-4.035299472545588,-4.539874516438644,11.156132360125051,-0.06600698694838053,-0.07796603626322805,-0.4093656551599029
1681484546.383494,-5.163207749262439,-2.849731225507921,10.093184481173626,-0.008203324076899016,-0.1288230170395769,-0.4022395622491363
1681484546.393527,-1.5148140195190458,0.1381899076375362,9.911397032166645,-0.0019939890705974977,-0.13696386255064527,-0.409334303116751
1681484546.4034605,-1.236402191944699,1.3633642646103077,8.667813094500648,-0.014707602007384215,-0.12961309386576303,-0.4299136113881591
1681484546.413436,0.829595108670413,1.8724710780662888,9.104278029734697,-0.04035945659190507,-0.10394670899089345,-0.4536852848290924
1681484546.423545,0.7689096545019477,1.741596314870638,9.254748913951627,-0.06259257057499143,-0.07714640373245833,-0.4713656913995269
1681484546.433495,1.6794262399223099,1.6909284555396389,9.742953713856132,-0.08519409128856724,-0.048340403154924494,-0.4701212358235839
1681484546.4435475,0.319456281756405,0.3023548664817109,10.102999620368601,-0.08099930858142247,-0.03768337211045789,-0.4592142712831024
1681484546.4540856,0.0717051794676703,-0.6859669723199237,10.494174690179806,-0.058571980781515966,-0.041845571997435306,-0.4348430943250183
1681484546.4634087,-0.5900024473621205,-0.15218542959427955,10.478833914706824,-0.04669819416757739,-0.049319974120007465,-0.406936706280661
1681484546.4735253,-1.3830207294900967,-1.1653274479295432,10.432487598066377,-0.014231376196933607,-0.06979790186936538,-0.3746413004159454
1681484546.4834635,-1.1816146370311265,-0.37692121806699114,9.926560126473072,0.007656414092714634,-0.09431956717786037,-0.3503368806600097
1681484546.493557,0.20278451860112223,0.7481116528687856,9.895972206224258,0.0032101505382189097,-0.08847983625627232,-0.3425684880971435
1681484546.5034895,-0.43142351932972706,1.7189300489919497,9.966009525232215,0.0007166540074917109,-0.09685460093776554,-0.3403079521417144
1681484546.513499,3.8542041650584187,4.3739564837413845,9.380261686138429,-0.05698887844705126,-0.051387727532721104,-0.3452393722295288
1681484546.5236452,2.7719057307894324,1.6731131855019856,8.72386013387379,-0.07703310793142665,-0.0052260313215229575,-0.3424692761659149
1681484546.5334508,-1.4765815428722409,-0.021072681830915426,8.595238072948392,-0.06463333039851156,-0.016367599436246685,-0.3515766572713378
1681484546.543424,-2.3099910404645754,-0.22588311488440804,10.357404913917769,-0.058701818378588295,-0.04042124112396172,-0.3569334161042694
1681484546.5534823,-3.888305397977004,-0.6252176222265297,10.821093208861775,-0.03535933511274413,-0.0883487636818758,-0.3389528703450683
1681484546.5635362,-1.3950556454176777,1.2805396567264011,11.337393614272123,-0.042649293619867405,-0.12156979687056557,-0.3321494173764709
1681484546.57349,1.5938019734667828,1.0717924398090137,10.11337939052487,-0.05571225180450889,-0.10733879791102938,-0.3265521836041931
1681484546.5834708,2.2736357706229144,0.6008654916984935,9.450164885187034,-0.06504400402883856,-0.08464722264889184,-0.3247088801621917
1681484546.59348,2.7433201617046814,0.5172491951452206,8.804111600092813,-0.07535930877349506,-0.05441786780444239,-0.3386463236569885
1681484546.6035008,2.1190601898337618,-1.0835984179819196,8.771259332586473,-0.06039897285132105,-0.029983777560665253,-0.3421125125646118
1681484546.61352,1.376713067024222,0.7524811555754747,9.773228956063972,-0.06976871864930055,-0.01596492408335651,-0.3409074258565429
1681484546.6235738,0.27646375329929446,-1.199050559547775,10.078350191311161,-0.05414935784389598,-0.01209054626663086,-0.3347668063401702
1681484546.633463,-0.8700904705187928,1.9315089340124425,10.128370854670111,-0.06149565877157902,-0.02803929069372477,-0.3237706434487823
1681484546.6435373,1.1311761876546869,2.0174182146587514,9.860865503252269,-0.08308970377278688,-0.01776751937380012,-0.3212328266858581
1681484546.653526,0.12198781519840145,1.4152869433976998,9.750723155101811,-0.09897481886749392,-0.014799678624938854,-0.3205790233373168
1681484546.663515,0.4287654651275232,-0.06376217633320307,9.611869285066604,-0.0920288218808187,-0.014615050638403492,-0.3274602305650237
1681484546.6734824,0.6524682402368849,-1.2986936082047622,9.51318221309709,-0.0684580445010435,-0.0039094215918092255,-0.331635088896704
1681484546.683574,-0.9242366590450161,-0.8459781885477137,10.39290316557049,-0.0519694708316976,-0.012040211810172556,-0.33165738103385
1681484546.6934922,-1.7666282073717885,-1.881423961993814,10.466785490134178,-0.020955368490625986,-0.03127928043055506,-0.3219230782746795
1681484546.7035344,-1.9443571731607092,-2.844442925807648,10.747370155066603,0.02124905760706933,-0.05355124675778316,-0.3110129844903472
1681484546.7134826,-1.0662880502339676,-0.7008008046981449,10.591842412771491,0.041946264422031414,-0.06569369733266946,-0.3127975773572448
1681484546.7235923,0.9400224232855241,0.7842844358858506,9.823538448833126,0.0280398422959584,-0.045667899793353756,-0.317952216839743
1681484546.7335124,0.8542856090082496,0.44167955200126996,9.029682867645313,0.02594453549015896,-0.023012453683069752,-0.3323933493852142
1681484546.7434473,0.009498797699428907,0.48910165853294174,8.922265958433345,0.023216951644477072,-0.015693539533737037,-0.3506005120038513
1681484546.753544,1.1701019815029776,1.6451892066097618,8.630822554399547,0.008532993225176424,0.016699534279838325,-0.3594867002725128
1681484546.7635608,-2.298046290806705,0.3710792803820204,9.746267534173505,0.012210105978575978,0.0009920479493337932,-0.3646283757447723
1681484546.7734573,-2.242181968722391,1.544954833263394,10.315788995611188,0.00994749233301796,-0.022556865189479393,-0.3504986476659301
1681484546.783537,-1.7254387395205015,2.3010223302024038,10.43445265094098,-0.00043541736983501484,-0.03806645717103881,-0.3244575273751739
1681484546.79348,-2.107822029129981,1.9109006370698405,10.7359759641487,-0.017245004975629957,-0.06654735566230138,-0.3094556343316558
1681484546.803502,0.5483700345032199,-0.5464501079490164,9.745122357765919,-0.006077606019518764,-0.06104574653530193,-0.3082001518964294
1681484546.8134944,0.7549158978842192,1.109683798933623,9.531228162046403,-0.011427235882434841,-0.0518059381048787,-0.3152676236390594
1681484546.8236933,2.481174345396976,-0.6578186316223303,9.603567562305741,-0.013886218648870718,-0.017186264955382186,-0.3263902377843383
1681484546.8335054,0.5222672332481846,-1.1593568579339057,9.15422337335516,0.010380070086985292,-0.004947642879259083,-0.3312177669763091
1681484546.8435736,0.23018178941656547,-0.20421760024689758,9.774476884035334,0.01344723906109379,0.003963844291447576,-0.3390911829232696
1681484546.853493,-0.34329154093318937,-0.5016563821508486,9.607119952386304,0.02909667627090819,0.008788174008062614,-0.3315026175736907
1681484546.8635297,-0.4282784864946229,2.029785806122722,9.848979165589311,0.015750989564725114,0.010889195803166484,-0.325786859965277
1681484546.873494,-1.1776666404986944,-0.20900648227669452,9.743135823024993,0.02919218080775658,0.006957671848272833,-0.3149561595677856
1681484546.88351,-1.3920319992453765,2.4610867422158553,9.369839135107233,0.01802190151919564,0.0006605672500920539,-0.2989018869161132
1681484546.8935375,-3.5248821321859913,1.3005266139629112,9.818782122859549,0.033012955957652544,-0.032378198441648326,-0.2914672505616668
1681484546.9035025,-0.8688225995912999,4.83137322733411,9.714372220174464,-0.019892317659376515,-0.034135642083364795,-0.2814041983842376
1681484546.913519,-1.2972869338525872,0.19892381954505015,10.018203684270627,0.0019796330804641477,-0.03879709939930606,-0.2737926852464202
1681484546.9235303,-2.104322623795837,1.6639847203885865,10.54934572880089,-0.014901949918246747,-0.06451562081948976,-0.2871271085500244
1681484546.9335003,2.664189419275284,1.6661425676384123,9.30889722555029,-0.01871497272056579,-0.024484775252074698,-0.2844909739255432
1681484546.9434972,0.12363864784332808,0.5860765814962666,9.095140926763458,-0.01902676786288776,-0.009924966960890546,-0.2838437270879272
1681484546.9535406,0.4273304237084685,1.302488386482158,10.024721895925452,-0.027122680204844162,-0.0065258631437611365,-0.2990987610578063
1681484546.9635892,-0.2046480316548757,-0.6589837687746254,9.004309659107184,-0.010079264336648073,0.0038482163717803806,-0.2939046931027892
1681484546.973488,-2.0829243591001956,-0.2445610376319313,10.952785497638935,0.006522709674719249,-0.0250563429020484,-0.2858609866857055
1681484546.9835415,-1.6228584375703343,-0.8698053639170352,10.505765492376412,0.024348586766672307,-0.044458870347352006,-0.2804400932549957
1681484546.9934945,-0.39884709985511985,0.4516129937821011,10.494980558074499,0.030642418581068562,-0.04882922266324372,-0.2561911356210235
1681484547.0034568,-0.5031874640703919,-1.3983703271991992,10.594877172110891,0.05244571041210732,-0.06228522256343764,-0.2464825820683959
1681484547.013527,-0.657098542557121,-2.134975336230093,10.040381606663695,0.08257039122165206,-0.07271587350423564,-0.2574699532746795
1681484547.0235767,0.1708358454045804,-0.5677700632290671,10.402217187401487,0.09209094175836985,-0.07738329425788164,-0.2568967354058746
1681484547.0335286,1.0363927532473045,-1.4427295453965525,9.726120451644883,0.10798322990186945,-0.07122686714133056,-0.2752859008073333
1681484547.043479,0.5522533434921719,-1.933112970036704,9.719806486111356,0.12379506630143719,-0.06212151906444412,-0.3202920865773681
1681484547.0535953,-0.48023243100931146,-0.5436660268255107,10.23728058040404,0.12456230768233677,-0.07726917695616015,-0.3550414156674865
1681484547.0634806,1.2911521995732442,3.234705861124194,8.63144351974717,0.08730127963224288,-0.06174854298175283,-0.3938335788011077
1681484547.0735152,4.18824775512505,3.82345318680069,9.068431590892866,0.03902741540397721,-0.008742760602067306,-0.402962894415808
1681484547.083624,4.324012036106401,7.4161342258595155,6.5548388295351465,-0.046596402579650684,0.06092393893673901,-0.3963868331670288
1681484547.093509,4.377812853559854,0.0381263923286836,7.765617447711407,-0.054793307064018484,0.1266152020210868,-0.3919367503880981
1681484547.1035173,-4.903553559115794,0.18489012230983073,8.362114444760774,-0.020852788319222996,0.08151438708397865,-0.3777081978082183
1681484547.1135757,-3.520424395406924,-0.06038907480576833,12.126450633300996,-0.0008104100037294099,0.021652538120486918,-0.3570148658513549
1681484547.1235104,-3.6071422039205125,2.94463983598854,12.077958954549194,0.004231688192007154,-0.02274499261579079,-0.3052260291337493
1681484547.133512,0.6636389626201471,3.3889167506032147,11.912415674049976,-0.016802012021753562,-0.02094350921813135,-0.2454252403735641
1681484547.143548,-2.244299709927428,2.015033804339083,10.450811204665497,-0.014228051791745069,-0.04191458453890669,-0.2207255673169616
1681484547.153521,-0.40411737767659245,1.9621258315175838,9.372851467486374,-0.022556431889283027,-0.05278162489166057,-0.2369478505610946
1681484547.1635387,1.432361225326648,1.5639464253576292,7.970278590269306,-0.04227753090430676,-0.02230799791913744,-0.2808758032083038
1681484547.1735108,1.5427389835003475,-0.5681478738132277,8.451500446402825,-0.038352202182694146,0.006604200982441287,-0.3226039123296264
1681484547.1836212,-0.41453846074208317,-1.384998067073183,9.183162751947096,-0.013340752604802261,0.0067829993305088335,-0.3683045816182617
1681484547.1934948,0.3108624591482323,0.1231206016085272,9.623321261965652,-0.004537789529564281,0.017003518673956084,-0.3951395463704589
1681484547.2035215,-0.6840701497386539,2.0771051001862633,10.207224370057693,-0.01885685067974792,0.01773609626713965,-0.3943569671868804
1681484547.2134728,-1.77916561695132,2.1114378509069605,10.942258058274819,-0.03902758054217934,-0.012350967261435471,-0.3857122075318817
1681484547.223515,-2.2796237388977256,-0.056587957291537386,10.858646626067756,-0.03204605398039839,-0.05484069625228834,-0.3582342874764923
1681484547.2335143,0.9029762857173871,-0.601034184762091,10.088816131260653,-0.02014211924375894,-0.06979078734842156,-0.3202181768178466
1681484547.243637,2.1588025362677943,0.15263352117111145,9.915308332745976,-0.013801880845623917,-0.06282134842203062,-0.3002271663903716
1681484547.253647,2.776057159533232,-0.1590298716063599,9.910778080773445,-0.016082508774087668,-0.0499788445782733,-0.2884219300508026
1681484547.263589,4.9094976705189985,1.3648380259240984,9.289855570430465,-0.035842779452554256,-0.0060795508707640255,-0.2839624595403198
1681484547.2734928,3.5526976987978673,-0.04714135940094214,9.274164305445579,-0.04795229401486753,0.030510113999045053,-0.2938064646481994
1681484547.283537,2.5872621108840814,-0.009468306587660907,9.414639829412831,-0.049250517631292776,0.0491092109650958,-0.3065682065248016
1681484547.2934966,2.669545663901671,-1.075265584653972,8.870621918205378,-0.04297787784191503,0.08010356093703445,-0.3277648699044708
1681484547.303537,0.768349089300192,-0.9107370136065183,9.537313661923701,-0.0289454969937321,0.084944471355054,-0.3492185187100891
1681484547.3135593,0.2155610679244859,1.1301703321142318,9.76507374405891,-0.03910555876814019,0.08608917394907499,-0.3543360244988922
1681484547.3236003,-0.41302340562464,1.4505105290243887,10.513890053030705,-0.04747118386241489,0.07820911968757939,-0.3528953504323486
1681484547.3335173,-0.16320109834657315,1.6058976916983014,10.030170211648349,-0.05317480471001156,0.07268218935988577,-0.3484928619622711
1681484547.3435462,0.2354828097397916,1.7183643811737677,9.779268482278958,-0.05905204947377361,0.07812664083182672,-0.3366979372262481
1681484547.353526,-0.14190699298364506,2.7241300096196017,9.99253090537384,-0.07426718871328856,0.07509407259309854,-0.3182653498410705
1681484547.3635497,-1.246889803268594,1.221500891813968,10.131889036653384,-0.07432725049272552,0.0620537533485521,-0.2994320404290679
1681484547.3735092,-1.666174152478619,0.8248768232901637,10.014041037983588,-0.06585621709346359,0.04560980428263778,-0.2750758540391448
1681484547.393532,-2.724716840506143,0.9120775051739111,9.843248969327144,-0.045952123412306124,-0.011195685570452588,-0.250786484456015
1681484547.4036236,-1.2316911629539053,2.009409027379427,10.230427456064886,-0.058136845610279264,-0.018973908911408134,-0.2113030266522887
1681484547.4135292,-0.3963838827606399,1.756135052774197,9.919445055322903,-0.06793815910926694,-0.020295664192682247,-0.1800267857074264
1681484547.4236078,0.8702062479086762,-0.41734099839505906,9.536112979940201,-0.06262822857890953,0.005502884872241741,-0.144538657045317
1681484547.4334986,-1.5439785124172394,-1.472028050957418,9.284697673494493,-0.022534685185410235,0.001847981593863302,-0.1095340561627868
1681484547.4435582,-2.7631576581898996,-0.2503494241221922,9.992106892365586,-0.009537858937144459,-0.018129755827868854,-0.0967643868684295
1681484547.4535384,-2.693496873629903,1.0878580354238638,10.137063055646744,-0.008982520510980552,-0.04132679804141535,-0.0828138527035239
1681484547.4636204,-1.8739913553269851,0.8810749919202868,10.155383016391378,-0.014081638617922039,-0.05418029244792047,-0.0837898638605598
1681484547.473538,-1.4503773352879854,-0.053307492298705614,9.991826957861539,-0.011344499795964462,-0.061701944320521805,-0.098369830524874
1681484547.4835975,0.5178001288809831,0.3947792692624115,9.521421170395051,-0.014567963791846458,-0.04867737314061692,-0.1085770365356925
1681484547.493538,1.6200381460784319,-1.1218772593868303,9.001765055056497,-0.0029143849436501887,-0.012793991918864087,-0.1066318985580924
1681484547.503566,0.6366038309240617,-0.9106488802980515,9.100071297593246,0.018320886364837335,0.003982994506032886,-0.0835279834031585
1681484547.513502,-1.1586579866377635,0.43842329512510536,9.311924910606562,0.030012376271374402,-0.0001224349503499831,-0.0510282602667335
1681484547.5237148,-2.1598155806811925,2.2544734633446946,10.2706540661738,0.016317020379631227,-0.028755913883251907,-0.0288631741463664
1681484547.5335882,-0.9479535236521683,2.1774737423118906,10.151663669221957,0.002652877940655532,-0.04236439089912653,-0.0095708270132068
1681484547.543678,0.28644054546091147,1.5544900891053182,9.956397729383122,-0.009274743482377553,-0.04237046124571482,-0.0054086518980089
1681484547.553575,1.616943206298975,-0.021400283998134553,9.48849544712057,-0.001957205661256345,-0.020577938754082915,-0.0066053059458259
1681484547.5635648,0.9690546055827269,-0.6362198179489321,9.453423380412481,0.015475810128003562,-0.0039671299238982684,-0.0146147359668735
1681484547.5736914,1.1037260436507967,0.627067395634248,9.841938842030203,0.01698079856705386,0.010411414753311915,-0.0197709810494903
1681484547.5835695,0.8752526646830447,0.8177561053631198,9.479440955926236,0.014871510055624702,0.02981764493303538,-0.0094531739636782
1681484547.5935252,-0.12407797639634023,0.4966207710274453,9.857175057175926,0.014413426801505211,0.029518908963145376,0.00575694697504
1681484547.603619,-0.2866007096822906,0.08836819429327396,9.663012150921302,0.02435179231053629,0.029270000261875675,0.0181656877935406
1681484547.613582,-0.15471411893458933,0.6326446408315699,9.686001357788733,0.024220787756135537,0.030347186230498823,0.0328969645739075
1681484547.6236403,-0.14896202442399922,0.588874287801058,9.584180888110186,0.021492187066790496,0.03479784663943506,0.0360336478293415
1681484547.6335433,-0.8092432684653362,-0.039217878682239395,9.651029508201685,0.026888736701800767,0.029516360441323487,0.0303843549877878
1681484547.6436574,-0.4166519249579103,0.38144130012141614,9.610013175505765,0.028584441881668473,0.028964362600472405,0.0291598092258449
1681484547.6535883,-0.5898603463244277,0.41237140375405523,9.925795847170168,0.025924304078161826,0.02307415935225274,0.0205924685538288
1681484547.6636112,0.25410783725176567,0.24113613962826672,9.44018413032941,0.0326211932457958,0.02939509137666424,0.0144617527217146
1681484547.6735394,0.2769078562251292,0.9618103749384268,9.790856644628237,0.026815201597014608,0.03503269933965771,0.016287420639443
1681484547.6835546,0.23092844846456578,0.5594121213868699,9.59383147153683,0.027782107917499833,0.044243411387894276,0.0149296584964271
1681484547.6935616,-0.30974627580589253,0.60494529271759,9.780617194132212,0.0295082620706034,0.04287153311250229,0.0134185885504361
1681484547.7035751,-0.20318348922281657,1.4200631363454774,9.725588351925584,0.02195582195122647,0.04246069178259873,0.0207697178662296
1681484547.713554,-0.7427965610265203,1.065989058211417,10.021528596572022,0.0171536839219203,0.03279038049310762,0.0237778171390768
1681484547.723735,-0.27082070522094814,0.5965041208994134,9.466207773382898,0.018751907706180338,0.030782404834485976,0.022639707425284
1681484547.7336056,0.2419409951649012,0.7428921447628807,9.56443317692269,0.01990648237408938,0.03460448496397328,0.0277012183756109
1681484547.743688,0.2109750514569809,1.2970297774233517,9.539102161242285,0.012122240933755028,0.04183530865648411,0.0384959566832062
1681484547.7535589,-0.6954634486338694,2.109358439405312,9.25293481225465,-0.000539538304758244,0.042651385578873824,0.0624448161066051
1681484547.7635236,-1.4628879086588706,0.3898722871404406,9.935154591689056,0.00040528855618663024,0.02992614287846374,0.0799221161246773
1681484547.7735984,-2.145117028500026,-0.7608204485680249,9.921399202374275,0.023581524549740794,0.005653582769331062,0.0849608543754097
1681484547.7835712,-0.7682731327716144,0.7769880300556278,10.003698083139238,0.025542198010020566,-0.0031548133247233682,0.0880032468080994
1681484547.7936225,0.11662973721659954,1.2447475989912307,9.729072358877563,0.017775104335629965,0.0057348625090120325,0.080452269637632
1681484547.8035722,0.4354153081747654,1.5150783197589721,9.690821945692884,0.004868651629453918,0.022079415579237708,0.0739760983229156
1681484547.813611,-0.3355378007966024,0.833636664205729,9.527999046562591,0.006334448666020435,0.02959584829712763,0.068425348722982
1681484547.823615,-1.2026655978398062,0.7855172671070796,10.128404196226546,0.003147409037428829,0.025294379380188255,0.0574962708592888
1681484547.8336313,-1.3073004646598905,0.5077808732795382,9.898506469211545,0.010314408568094676,0.01910028930132015,0.0406689073384281
1681484547.843587,-0.8653828363629099,1.2350538707094567,10.031184689819261,0.007120428629078786,0.017642205928274746,0.027112922394323
1681484547.853573,-0.4225855953083974,1.5204262815709197,9.90952146946014,-0.0025634091666062947,0.02313765583649116,0.0144730179995771
1681484547.8636055,-0.3742179875131172,1.3766864794415405,9.7554531994636,-0.008856553531257355,0.029212464438855296,0.0034957416315105
1681484547.8736134,-0.28802470003370967,1.1025580984969818,9.659114865801495,-0.012516947608462005,0.036306562293959906,-0.0001304824877056
1681484547.8836217,-0.7561818758811077,0.8838199953178345,9.795991497479157,-0.012895876893416924,0.03603336712439837,-0.0024427420034531
1681484547.893546,-0.9074751098327907,0.6947263922337392,9.791182843776472,-0.012771284686125914,0.03362436005473219,-0.0037446033715728
1681484547.9035444,-0.6564360296013817,0.9876472577128723,9.79591024033381,-0.01643769108252264,0.03428824176026544,0.0015419013321174
1681484547.9135785,-0.7804724993207063,0.5030003470981759,9.790732693430742,-0.016318227862828796,0.033356278752721735,0.0035490898840602
1681484547.923669,-0.5578255355228448,0.4647211516605739,9.724576594788333,-0.014457460065380153,0.034335874851452224,0.0105562012136455
1681484547.9336133,-0.6152457282803224,0.08902412277977503,9.665394182956677,-0.008824222556236473,0.03583869053261017,0.0133157658815857
1681484547.9435663,-0.6499270878265845,0.33299044532646094,9.58678471267671,-0.004134486123946226,0.03552251523787348,0.0219729568303104
1681484547.9535806,-0.8852415401058021,0.6960013753556562,9.673915674411912,-0.0047884819087568595,0.03389994841177493,0.0285965118051048
1681484547.963584,-1.127353066182076,0.9898323732111484,9.94316555249851,-0.011553342404901345,0.02956487719550021,0.0276945612818476
1681484547.973648,-0.9569098770526185,0.6708427552702639,9.93795499640012,-0.011257704631780878,0.02758480795526581,0.0313744030386682
1681484547.9835355,-1.3865396218769785,0.535042290425289,9.905200752723795,-0.010424568640548072,0.019176036475575267,0.035325596803474
1681484547.993651,-0.9933997276134143,-0.4332660200227182,9.72409103647559,0.0004722728667182785,0.006725196196115538,0.0463244605303284
1681484548.003677,0.012845348494017184,0.1263417133809841,8.922882129280646,0.01535974583685975,0.006240281135596752,0.0645332697272774
1681484548.0135586,0.17313802746103063,1.0332537887485764,9.52160753563175,0.009325288756087768,0.0020120881078697474,0.0827259633183952
1681484548.023586,0.9203282289615272,-0.031786599089357555,9.651437266534588,0.019018624040168842,0.009554883720310478,0.0986693117261406
1681484548.033601,0.3198118892678465,0.7538630611048726,10.204568776830566,0.015287965035740746,0.009766910825202967,0.1072263854980942
1681484548.0435767,0.898973904376671,0.35412945728970735,9.882156140200868,0.022430052142898685,0.018317317584593023,0.1174468684435364
1681484548.053665,-0.21827879463614316,1.3350575831275135,9.981931248729333,0.017739213172224377,0.01971853396725384,0.1194539207458969
1681484548.0636744,-1.1967545906738843,1.5164889168086848,10.210655261794733,0.007627246083348858,0.00637694244908791,0.118309906446981
1681484548.073628,-0.9119715027296342,1.0792544835006301,10.023222480365952,-0.0007361689176876847,-0.003043807007222543,0.1213895964861389
1681484548.083635,-0.4481845619866907,0.15959133672421885,9.757162895898277,0.005336768905478766,-0.006032273834020641,0.1277866649866577
1681484548.093627,0.09014572598947312,-0.5862949932372453,9.521745804189838,0.024098013085505007,-0.002538853095414975,0.1320037085056778
1681484548.1035583,-0.08953886875576667,0.8835700482043672,9.655247140842114,0.028987213357822453,0.0013855618211711825,0.1398281890392776
1681484548.1136255,-0.8586418711190201,1.5612536318314956,10.143576177510027,0.015946549472545472,-0.001342751066440708,0.1442504662514206
1681484548.123706,-0.33583754589234566,0.6781152843946695,9.77074250066642,0.016808141443041037,-0.002512854313807469,0.1568968284368988
1681484548.1336975,-0.6926757832897124,-0.14681063533356553,9.387036209637586,0.02749548340014369,-0.00042343891525597696,0.1646048861980911
1681484548.1436114,-1.8086394913599284,0.9603674232862022,9.987905442568502,0.024301143092251447,-0.018396931397567096,0.1698443579912659
1681484548.1536405,-0.4520155101985284,-0.2089697931666236,9.738976567862556,0.030825218209086954,-0.019209714686475615,0.1725504535675522
1681484548.1635876,0.164848309802811,-0.5629994386116239,9.177763839462367,0.04891389054068591,-0.007986841766550928,0.1679966587067123
1681484548.173654,-1.5119072368385238,1.8371734353564702,9.700396844668095,0.03475289937768312,-0.007818041737105048,0.1607892799616333
1681484548.1836088,-3.6081366525984895,2.175950418415387,11.271179353775654,0.004968582113446116,-0.04654873512557311,0.1595185685396667
1681484548.1935875,-2.2636759206123145,-1.090976015127827,10.3914643807288,0.017451242887188512,-0.07092252764128398,0.1507998991251465
1681484548.2036672,-0.5854931595753583,-1.2805320941617748,9.489937034322923,0.04354210982695257,-0.07480336153164865,0.1442242402077194
1681484548.2136202,0.6376412407122185,0.11787273928531088,9.129390100235913,0.052178444441200754,-0.06135477614125322,0.1429541695356842
1681484548.2237086,1.1763331638567904,1.4281527001136176,9.352233161961816,0.04787547546206792,-0.041082830638872705,0.1434891212225433
1681484548.233616,-0.7201417155200488,3.103857941688956,10.20070234300766,0.019464138083193746,-0.042760676198502705,0.1414377230644699
1681484548.243591,-1.021903121154253,1.235059020848287,10.639788439914303,0.005699883530132177,-0.05599573038051459,0.1370110202074524
1681484548.2536445,-0.45446411258732783,0.1081767570621586,9.754341714741676,0.015184165616983235,-0.05769694843488624,0.1338503498077866
1681484548.2636776,-0.3898308601713252,1.2919705809757835,9.806319795733156,0.012879361713456161,-0.0631905209447619,0.1376609641552444
1681484548.2735996,0.4449079690139252,1.7241333026570727,9.737104404137364,-0.0035608805161805195,-0.053388506231267466,0.1326381105423447
1681484548.2835886,0.9009467036315116,-0.36502099093732654,9.763498707234833,0.011314736410001813,-0.04015753574361303,0.1300970155239578
1681484548.300787,0.5459498081651267,0.7147080686326341,9.73366728923506,0.019978376925824774,-0.025125584557262666,0.1260257798672195
1681484548.303636,1.750952734907319,3.1543331867183926,9.363627891350072,0.009209240117570882,-0.01438621773917507,0.1268496650696274
1681484548.3136923,-0.7747375632148776,1.754983404662143,9.90611155250574,-0.0023987581092704503,-0.018355994252546862,0.1256868976593491
1681484548.3236516,-0.5019243267529799,0.9220280210067164,10.2199289967023,-0.004629670212844217,-0.029102160694613587,0.1347937572241302
1681484548.3335867,-0.26540601166313793,0.6333169957080916,9.637167076097983,-0.0005006378880324998,-0.02830582795836315,0.1384847897530075
1681484548.343635,-0.38609964383228845,0.7483194951290557,10.11299542548492,0.0009572380945213582,-0.03703978954627487,0.1435091632843491
1681484548.353628,0.4429987060587444,1.257553794504521,9.589339567822563,-0.002388691436038419,-0.03134461000694857,0.1502183068037506
1681484548.363599,0.5612791049343385,0.7192543137081632,9.786811979589656,-0.001962358900172256,-0.02487793332586854,0.152669354105043
1681484548.373701,0.882712888152259,0.30161400614172373,9.591198126484931,0.005707323035290497,-0.01198721365409195,0.153377561593103
1681484548.3836622,0.8896524165975067,0.6859637749179577,9.787875241432458,0.007698690603074533,0.001825277246883333,0.150848909044313
1681484548.393606,-0.03806365672161377,1.0543963790125983,9.782396006419876,0.009282599622703242,0.005559643761602589,0.1478492903948303
1681484548.4035947,-0.4107814040173302,0.9805359596564346,9.999753635244689,-0.00015749300090583834,0.005172656044360191,0.1414289313793655
1681484548.4136498,-0.9930540890350452,0.19552524503067883,9.528811371839954,0.008023220010824339,-0.0019645413561076865,0.1405735004187103
1681484548.4236956,-1.5265735190885439,0.08189907896882757,9.694596410337576,0.014962544390046484,-0.02190517194851505,0.1394652861595627
1681484548.4336724,0.36574206876601584,0.5305046405086574,9.57355764426156,0.017755915451172513,-0.017461322549680264,0.1405568409204956
1681484548.443626,0.22063692870795287,1.4964379256278149,9.817995158310355,0.0071289119783652655,-0.009356613832638878,0.1383264947176453
1681484548.453664,-0.1408878074710869,0.7515102470725655,10.011418655989182,0.001569952615809286,-0.005174675902429482,0.1341397303581711
1681484548.463617,-0.5386521738983087,0.1927686655712518,9.991461016974146,0.009242662057264591,-0.006852530483590828,0.1334836918354507
1681484548.4736707,-0.8395405241036301,0.48650656437693734,9.94287755972886,0.00615004853334113,-0.011244499489827973,0.1225182700396057
1681484548.4836257,0.15685240334658487,0.8713603625192583,9.672534020908072,0.001978079321769561,-0.0025296756920500075,0.122511646473455
1681484548.49374,-0.6525793542799612,0.29892953531919714,9.591852161211413,0.003940813805280481,-0.0006359787069651479,0.121333292448568
1681484548.5036802,-1.1440191608113865,0.37550860933533053,9.78563380890812,0.006233925878770125,-0.010758014538496691,0.1197426232934471
1681484548.5136757,-0.5341954088434441,0.8676753350069762,9.384006353219434,0.0067249738012411945,-0.008368611106692424,0.1220704528928276
1681484548.523662,-0.855754264451774,1.8695209639641228,9.97809512621946,-0.009423535923705302,-0.009847275694387115,0.1177710506558891
1681484548.533686,-0.6434690166669975,-0.35455278742599133,9.690902052362318,0.005249830014223366,-0.008340347983995421,0.1194036740303512
1681484548.543692,-1.179975326860288,0.7965912433243479,9.755437163328592,0.010098807456384341,-0.013212915641349528,0.1221632051706787
1681484548.5536444,-1.113245109669295,1.4420965430358246,9.856373330635272,0.007014027860732683,-0.023261221061004058,0.1329906124115463
1681484548.5637057,-0.5200659582065214,1.9949025914297445,10.044264425319609,-0.011050493958730713,-0.02568006832266709,0.1409294146538254
1681484548.5736542,-0.6182675029839296,1.0492079795510532,9.812143781393747,-0.006320433085730665,-0.03136201009529135,0.1492476749659058
1681484548.5835917,0.09366746790517051,1.435658160765321,10.051057344666084,-0.011489229999041927,-0.02910684854846054,0.1476386773825165
1681484548.5936434,0.9910850797175251,1.1475641414047417,9.744477254047233,-0.008646506140580826,-0.011383329100497021,0.1412759858608719
1681484548.603674,0.30483452800494343,1.9493592596015035,9.829670951367296,-0.019015265189645435,-0.002520035400450298,0.1406053442001816
1681484548.61363,-0.00692354388213387,1.07671474703734,9.749111562714821,-0.020488337151453453,0.0006299463174374701,0.1416600185871597
1681484548.6237102,-0.7315528587813346,1.201481520223329,9.93981066611028,-0.02306540242861136,-0.009628380774415066,0.141340641999292
1681484548.633631,0.42230447792006953,0.29377343491468616,9.785482486312956,-0.0186210881083721,-0.0054745545813983205,0.1395255911589142
1681484548.643684,0.6014437624112347,1.1135826090682759,9.55682699457721,-0.019233095747427095,0.005124179445622971,0.1426076728344437
1681484548.6536927,0.44193935760491193,0.9619657586617922,9.841641304421069,-0.025056970204014387,0.008487054790059496,0.1440947938204285
1681484548.6636171,0.38345975668284693,0.6469652788166284,9.336350360001457,-0.022325502459275833,0.01650369583944495,0.1450368154287811
1681484548.6736472,-0.299684656906424,0.706372599548154,10.131281613804306,-0.028444402022612444,0.01242475215249906,0.1446669090033051
1681484548.683667,-0.3367555587877359,-0.04685128785487421,10.003469554933414,-0.01870305596923858,0.005868853344280238,0.1404687303543564
1681484548.6936617,-0.1397529622740213,0.4155439497731076,10.037469038943671,-0.016546385055122726,0.003846903275332245,0.1306025523186203
1681484548.703693,0.7502930949204871,0.9620639350452193,9.427046063288405,-0.01899129889696672,0.013761039798542634,0.1287452715874191
1681484548.7136896,-0.06182220834882236,0.7709508599562042,9.560650192110655,-0.02101974924176465,0.01585740427843138,0.1297570902348038
1681484548.7237632,-0.6019524047373637,0.3426185059311452,9.748685969473792,-0.018937413641336352,0.009250177188720916,0.1307510721922394
1681484548.733746,-0.2676247548410151,0.023569448612580358,9.648764959999601,-0.010143352299062653,0.005225993398188969,0.1391912091017242
1681484548.7437513,-0.3720172854307765,0.6484058211585829,9.739527387009458,-0.009842074738693515,0.0026578973438542855,0.1459972846746918
1681484548.7537458,-0.22925655303971482,0.6464233852998379,9.903537707406905,-0.009671683553581101,0.0005022944207091061,0.1534575659275528
1681484548.7636375,-0.39286374907796345,0.47998532609591527,9.790661185789691,-0.007276964306033074,-9.884932015316432e-05,0.1548058080912109
1681484548.7736626,-1.3697233669335356,-0.8016676455217074,9.199096695312303,0.006064914036373734,-0.013360810125949056,0.1637533444405075
1681484548.783802,-0.6703270983424566,0.28262532249222266,9.368917394421365,0.008886835982508582,-0.02463303561730147,0.1781364816666122
1681484548.793687,0.12921641984336624,0.0025471659252432654,9.332731665455356,0.023936546640089266,-0.02244724306620258,0.183283327841806
1681484548.803722,0.48991540334921524,1.2000340013863207,10.01208907731513,0.017139434113273178,-0.014023173675364847,0.1858673531055923
1681484548.8136685,0.31609535009702106,1.6843591381438103,10.12650861425707,0.004670905579321182,-0.002065517718781201,0.1871193486690994
1681484548.8237193,-0.7775737902390004,0.7810726005395895,10.277196536023565,0.003696260785614749,-0.004915881560794714,0.1816848206758972
1681484548.8365684,-1.462610564672462,0.11780259266932484,9.621706535027336,0.005670251978282999,-0.015235635227766066,0.180639981055307
1681484548.8436494,-1.6297135228218025,0.81721237850254,10.046323502171006,0.00517345725914544,-0.032339004031221676,0.1900066274643417
1681484548.8536954,-0.021128545570162714,0.4502802463326401,9.734192705461696,0.01236978595893572,-0.03272653806073856,0.2006222892046448
1681484548.8636425,0.18230603462499018,0.8607635373395124,9.778734402973337,0.01079357824438503,-0.025655809009036065,0.1973234254360672
1681484548.873644,-0.24979375539788135,1.0970945432043933,9.494304553232793,0.01076286209930034,-0.019615789176014947,0.1893527794123169
1681484548.883631,-0.216346843792392,1.9381817879090029,10.312914907989123,0.0015641666948003519,-0.021727904173202625,0.1896369594574448
1681484548.8937073,-0.24973379752205963,1.4532517822720907,10.189191549045416,-0.005255441305217459,-0.018101404318143537,0.1852763879538055
1681484548.903655,-0.7941560371141989,0.9749038302814677,9.799623256559233,-0.007431672516857796,-0.021621384741933362,0.1749013054609772
1681484548.913695,-0.3322114076991628,1.314688813132679,9.903757974008045,-0.016306313987757465,-0.024351811387084702,0.1775631892920013
1681484548.923738,0.1480376238867355,0.16431183513513734,9.544928989578596,-0.00736517918951819,-0.018170178775432293,0.1865229445934769
1681484548.9336338,0.2954459561558214,0.16724672187775846,9.748127945455986,-0.003013168981911108,-0.012161049526801672,0.1921336341143127
1681484548.9436443,0.4404654614235058,0.4896950434653442,9.434297687738871,0.010354503356447753,-0.0028180166031370993,0.1938058573246475
1681484548.953677,0.08606352923814874,1.032939792185708,9.759947258025644,0.005360029044655362,0.0040109058440694866,0.1897058028221603
1681484548.9636934,-0.7576709882469275,1.580858175668059,9.949286256668719,-0.0010349095012513034,-0.001765616657179306,0.1786811787128921
1681484548.9737573,-0.5709841273902733,0.25423833181099065,10.020234450083612,0.008869908974463188,-0.0077036159509271005,0.1613463300705429
1681484548.9837153,-0.3967198818748358,1.51242971634162,9.634625395737253,0.005818282373196088,-0.006786539067932974,0.1430076945066925
1681484548.993721,0.41076802539836355,1.8437566593541475,9.807805087626388,-0.0036976972052463167,0.00015196278596117226,0.1387683439493652
1681484549.0037258,-0.38028838540837273,1.4624685116023652,9.40036352273826,-0.007534773063650905,-0.003066048732865992,0.1390530902386185
1681484549.013791,0.4695919834410129,0.2935301850360999,9.835318661227268,0.00040161360845349,0.0029701476255743296,0.1425584542990204
1681484549.0236998,0.08589308875583697,0.8935858997507289,9.779726572489063,0.003240014696526088,0.006668799851480408,0.1426031428814407
1681484549.033718,0.1443001434714252,1.4805788712241283,9.840779959848467,-0.00028370336599506905,0.010954002175862312,0.1411721098661896
1681484549.0436597,-0.37527527915319403,1.375893658884609,10.063847945167803,-0.006326561372591508,0.005909957511960623,0.1437229949474808
1681484549.0536947,-0.06630989097695374,1.0050963009815583,9.692612548959724,-0.008710282347869651,0.00833440038077421,0.1463575649500366
1681484549.0637643,-0.4769717595772786,0.5449697672334768,9.933127948111105,-0.003852837707553913,0.0005365958036317731,0.1489153194666382
1681484549.0736716,0.31651766554804067,0.7464360120852636,9.590376862566307,0.0007442979265072714,0.002580671762518867,0.1565312880516525
1681484549.0836515,0.5082567169158213,1.009538318635035,9.657455314196598,0.0011869026354171075,0.008437450478370226,0.1632636475801941
1681484549.0936952,-0.09091617151377447,1.4839723676272907,10.042043570465037,-0.007516224701044689,0.0051280853049641036,0.1653130489826675
1681484549.103716,0.32748710782149976,0.505227031139139,9.848423935395456,1.6097237293496706e-05,0.006914683739289709,0.169634668850946
1681484549.1137147,0.014883890724503355,1.3011888745485267,9.863445478436523,-0.006287693436352835,0.005864769843779722,0.1764225054026123
1681484549.1237023,-0.021400808450952328,0.9554528170005013,9.895204244001818,-0.004821568502345994,0.003176065019123617,0.1781488794327255
1681484549.1336834,-0.16408339387550916,1.1428226195381064,9.806058700300563,-0.01013687719728591,0.0004571962189065425,0.1835764783859726
1681484549.1437032,-0.1937006256062175,0.9488298113679606,9.869920589132521,-0.009939253870843972,-0.005309542627003719,0.1890892970800873
1681484549.153746,0.08788667851671551,0.8340012940439047,9.724939387710283,-0.007505807018558869,-0.009051472694977162,0.198634206080484
1681484549.1637137,0.6200308144978978,0.9696021891866453,9.797354372006492,-0.007582765124437254,-0.005142760715122046,0.2059737581253525
1681484549.1737175,0.25449489888087085,1.071197810112684,9.640340742588966,-0.01103643922844963,-0.0011656264412093955,0.2096725839615341
1681484549.183638,0.12397461822328222,0.8020640435902814,9.915529812666625,-0.009416914631700324,-0.001970927475254491,0.2155436116695877
1681484549.193643,-0.37925226368744247,0.5194992968736828,9.886110981957886,-0.009358430027265038,-0.004205128252502907,0.2121618229389664
1681484549.2037544,-0.122175020464995,0.23835524495064092,9.856399582308697,-0.004423955510961602,-0.003912982782668867,0.2110543388367172
1681484549.2137053,-0.5777863570832119,1.0480974267562564,9.84297838905683,-0.010768514681094155,-0.005655256889494458,0.2052052903414246
1681484549.2237532,-0.6468885163854087,0.574659675220559,9.935712386576162,-0.014574349236603175,-0.0085551361009263,0.2008972305298325
1681484549.2337518,-0.6828750774645413,0.8715922915325126,9.854110577744052,-0.018857217078511946,-0.010545643646859301,0.2008068251848694
1681484549.243807,-0.7899171011992422,0.17039305801331106,10.013539616486202,-0.01704472232331067,-0.014555243291296333,0.1968051332474228
1681484549.2536528,0.12976395880730263,-0.1614570768582149,9.549152867645903,-0.008367347143542751,-0.0028515534416104172,0.1963475632906433
1681484549.2637255,-0.19120589742413552,0.17844340398369424,9.597968300411438,-0.0035197962516214853,0.0046462938709957505,0.1937376696110245
1681484549.2737706,-0.7832543970338238,0.18030276212623247,9.690135751409764,-0.0018678891981444774,0.005499960633568454,0.186294956827211
1681484549.2837515,-0.6362457991603988,0.45017062289284615,9.659976040605862,-0.00032771445822738724,0.007286554343064313,0.1808694142342087
1681484549.2937212,-0.7149104798313506,0.06799714581060239,9.599291965161305,0.006975307745422237,0.009346158205801045,0.1724832642317291
1681484549.303757,-1.1567863262799822,0.7751165281031236,9.77538237804595,0.00440998319154532,0.005052294721798875,0.1601984787226196
1681484549.3136945,-0.7451459271434969,0.6637533083499201,9.838211208238597,0.004953378046536082,0.0016188725812694266,0.1581455010414597
1681484549.3236978,-0.6449993579922595,0.5419437578662691,9.597061327462505,0.008828618380072102,0.0012243313154593333,0.1512399304152008
1681484549.333858,-0.19541222827776097,1.1552612786201657,9.78046096956674,0.004680044478897885,0.00642132146233017,0.1458491224289413
1681484549.3437414,-0.6989623654167354,0.5636917479423826,9.914227979115056,0.007102434562059224,0.0035973268761171273,0.1382911342621323
1681484549.35369,-0.5666572315178768,0.614028137448748,9.875363208200616,0.008116451012078158,0.0018872029247571083,0.1300619977951523
1681484549.3637283,-0.2724939443044353,0.6058133529093959,9.733873115124306,0.010882076154689292,0.002103006551695319,0.1302098620176788
1681484549.3737087,0.18978738766662556,0.7701979432140094,9.662779941553065,0.009468426166645427,0.005302651843840704,0.13222803058629
1681484549.383708,0.5322513853511021,0.6646194856828317,9.494302034705479,0.013885299178197743,0.01538109746551683,0.1318716097116943
1681484549.3937302,-0.22159647493771126,1.5036321771724193,9.982095483934893,0.0046274398955745664,0.014402750199286487,0.1301857966423508
1681484549.4037156,-0.22934926283693527,0.7890269850106437,10.08737783993829,0.002241024623437604,0.010502494378053744,0.1316809791565414
1681484549.4137318,-0.8380154422274435,1.0826864794560471,10.162662783372138,-0.0001939389716624644,-0.0023290478558062756,0.134743614816713
1681484549.4237862,0.12109677984183542,1.0641524289964046,10.131222667870396,-0.0018655075898890107,-0.008883508602764876,0.1418201315641876
1681484549.4337184,0.6924767289251615,1.008900835348016,9.667628004296745,-0.00218533382660669,-0.0013616617809938314,0.1431649911642548
1681484549.4437523,0.67244858396169,1.2403908949145153,9.849996756756774,-0.005615835065124513,9.73319017184974e-05,0.1502992350101944
1681484549.4537537,0.9199963029179486,0.7848555649213688,9.447225378799699,0.0003900089364061525,0.006101381216180014,0.163282244229364
1681484549.4637268,0.7514354725829464,1.4878317810025152,9.675318075254491,-0.0025827740002609344,0.006934142416083588,0.1824187475681778
1681484549.4736786,0.6241954463796494,1.7137463019284518,9.69757130336794,-0.006780832177513494,0.007862269658895424,0.1991821813822266
1681484549.4837458,0.37555066852163854,0.9906265294895711,10.080829183780272,-0.007566213508160705,0.0028723962852168737,0.2078718382359024
1681484549.4936783,0.3529089107228923,0.6812510831609702,9.967534720085629,-0.004074018895873577,-0.001308585364156967,0.2114604103804108
1681484549.5037212,0.9649771625979163,1.2417991961505752,9.947145790479992,-0.007889514927759085,0.002611269806852007,0.2141939538956161
1681484549.5137627,0.49328571798208065,0.35480588121439127,9.839925605760069,-0.0016283898989982123,0.0023055248381590016,0.2140471774578567
1681484549.5237217,0.5074154834436314,1.4902587658502784,9.78575048725782,-0.011617719683076785,0.00379550501956299,0.2136726218700882
1681484549.5336902,-0.2506044637883471,0.8074159187449813,9.866715941267369,-0.016965444220360813,-0.004101642178777564,0.2085450428963181
1681484549.5436792,-0.016306674953860442,-0.45842330670046894,9.894059327826218,-0.009659427352471784,-0.005813615338527901,0.2061548519373413
1681484549.553747,0.03361108465548364,-0.5982698093249583,9.630072583014405,0.0035313662119377987,-0.006073965088920049,0.2073730218649384
1681484549.563746,0.15663132682795203,0.08827509119217616,9.444665373330839,0.004328119460172518,-0.002664683289649958,0.2069214719772812
1681484549.5737605,0.10761084337798589,-0.12239285594531,9.526130300545002,0.004634618432540716,0.0026820737775485114,0.2002535450697418
1681484549.5837622,-0.8495750331701569,-0.6349519433666175,9.521270891043654,0.010548602817920943,-0.0016632644256748842,0.1882122296333786
1681484549.5937808,-1.1055010089574826,-0.13708472865921864,9.362386773955985,0.010336076320965105,-0.004966394710379157,0.1731430876493927
1681484549.6037886,-1.4106117448014388,-1.2555006094155128,9.761561221331887,0.02003379363097925,-0.011520021440119358,0.152233033204126
1681484549.613777,-2.1402632624323767,-1.015126720587948,10.208505532760704,0.032208784841698826,-0.03372561386216003,0.1270280617714401
1681484549.623845,-0.2111985516404315,-1.7124600765885294,9.548003199053309,0.05044042610647796,-0.02942489478456261,0.1049897361040588
1681484549.633747,-0.7151846974450499,-0.5503651971783348,9.286227266639639,0.06140133634692076,-0.03074250646530911,0.0933324310422417
1681484549.643824,-0.028992515517113654,-0.529491534552117,9.701705154053645,0.07014511803872597,-0.03077843976486018,0.0862690347671982
1681484549.6537943,0.8470097390228801,0.4223723894686213,9.34511117329861,0.07492321400278765,-0.014449936746476412,0.0827075678349014
1681484549.663826,0.9057861142008818,0.5388719584500854,9.592762917566574,0.07947499612013106,-0.0028094511661160603,0.0835172447801109
1681484549.6737864,0.6892135161831137,1.0463845854832203,9.619747279978261,0.07915453431207489,0.01026277394725248,0.0845878336072441
1681484549.6837733,-0.25636143884961504,1.520180599568764,9.70409281475339,0.07499869590908333,0.010791702919003974,0.0830282333732124
1681484549.6938322,0.40921888897732367,1.6347814173583985,10.13524235346583,0.07225057862746184,0.013761769930086662,0.0865562770009514
1681484549.7037964,-0.34348593019616913,1.5571660688540776,10.10522580614822,0.07256882926083026,0.011299539220493626,0.0837360459805008
1681484549.7137496,0.16856781833771092,2.8284012565247205,10.334272215930872,0.05745607825141989,0.008784665533015143,0.0848650920629974
1681484549.7238574,0.1591486824125364,2.4155389545870545,9.95322360494969,0.04986060835227254,0.009382579616368448,0.0853101599455353
1681484549.7338245,-0.8681811555283188,1.9589495551369902,10.121762758658605,0.03746725730325619,-0.0048804417354583185,0.0813024628401276
1681484549.743776,-0.29231227550608924,0.9108456271586627,9.399103228575227,0.04133001482544667,-0.009199979859341493,0.0743006083608147
1681484549.7537866,-1.1637674081705147,0.29648274910802686,9.166287791055577,0.045485400804660035,-0.02314064681079915,0.0699542823672768
1681484549.7638085,-0.9274672395354864,-1.1789265424005277,8.645861360251839,0.06135772387708099,-0.03476707552622238,0.0771854508162018
1681484549.7737834,-0.10360055730566373,-0.6714719370657183,8.590858435579838,0.07632292525327307,-0.039898965927573526,0.0919992241502281
1681484549.7837503,1.5047923495631612,0.18218195521653407,9.32825710663858,0.07412576384262617,-0.025824947944879866,0.1146816525102135
1681484549.7937622,1.136947913063185,3.5901727791368057,9.846828375263913,0.051078875971112755,-0.010585749873702237,0.1220149609685417
1681484549.803848,0.7610075787040845,2.75851721622562,11.417475611660723,0.014514148695794796,0.004842243566613887,0.1101976621389862
1681484549.8137257,-0.11856638310260553,-1.21444235079935,11.008533242753108,0.042517520118687195,0.012525031556070826,0.0990225363016601
1681484549.823769,-1.4086794118738268,1.3407026187555633,10.930959720529192,0.044556534036508874,-0.012226314248255,0.0812494668603416
1681484549.83376,0.4731179923369886,1.4361731713436263,9.807092911573958,0.04385799674811178,-0.0035566655704819946,0.0783826697111603
1681484549.8438118,-1.439100304488864,2.958074945072852,10.12175449624303,0.021312585176929456,-0.023441340019977736,0.0786703291774269
1681484549.8538032,-0.04731263586627739,1.8093718602517173,9.438580249226321,0.007601019652620435,-0.027521010728578627,0.0810942861676689
1681484549.863763,0.35347694098923793,2.1507812556272534,9.062945488507197,-0.002468049628821544,-0.025479716199934815,0.0999533745885368
1681484549.8738356,0.47449887072743047,1.0769574849007626,9.441947234914192,-0.005556915251514825,-0.023651953552408764,0.1127717930317398
1681484549.8837848,0.8552031570233253,0.9493340176299259,9.61464371068126,0.003336212098666618,-0.018135458612425076,0.1181933123112198
1681484549.8937607,1.3645052366356392,1.4106579218440687,9.960959550382075,0.00399464796436883,-0.00010537720141170473,0.1187476504087921
1681484549.9038565,1.4884642519513085,1.8391546254597153,10.089719067964657,-0.002632666329802953,0.02333515750582016,0.1076020214200493
1681484549.9137957,-0.671907344411417,1.149972355231385,10.393973453535995,-0.002924855606094027,0.017402577913438886,0.0869445938110825
1681484549.9238098,-0.32403445811737047,1.4991892814675356,9.965805288398549,-0.008545801001772395,0.01237032072196334,0.0807120266795631
1681484549.9339314,-1.1104044405620568,1.671261004413239,10.011308491601472,-0.019766824953729174,-0.0007118779339960506,0.0723375070333954
1681484549.9437764,-1.6141585460010996,0.8889932674526857,9.885182288326261,-0.022115211208665303,-0.02579169434271415,0.0776082638144966
1681484549.953781,-0.10989988357718765,1.2687249188393752,9.506916994386064,-0.02261880306974963,-0.03574390184367391,0.0944120276213165
1681484549.9638453,-0.20238675233007397,1.1761891212427569,9.944940377153735,-0.029143227055101494,-0.043145601593311066,0.0982910308480736
1681484549.9737756,1.197652511519543,1.3035388257572496,9.823190726794724,-0.023751888755556425,-0.04013414084071978,0.1112191441894051
1681484549.9839025,2.096160659883929,1.3478160184581713,9.609616919270366,-0.026889556297845126,-0.016664991649763414,0.1218279960990425
1681484549.99378,1.280933286352759,1.3472940679567598,9.861957921039597,-0.02720581930474623,-0.008656663291203107,0.134037329578447
1681484550.003834,1.856947937964591,1.1514065581431379,9.194105374240335,-0.02673948809504553,0.004917446893364725,0.155959560298967
1681484550.0137825,1.1494053631205814,1.0188782910674496,9.418107096808344,-0.026678040345006572,0.014386816017163587,0.1678368288517471
1681484550.0238905,0.3273754675779345,0.6898005422508493,9.659857912698934,-0.023822719101980108,0.00812571049423905,0.1744145739317413
1681484550.033805,0.6251148410836564,0.5757613185720566,9.2560626338336,-0.020708743901795456,0.008332315906824685,0.1823678303003784
1681484550.0437512,0.3058274229170101,0.3041338685397577,9.799143882847208,-0.014803780924153208,0.003517664414603121,0.187112553739595
1681484550.0537646,0.5930944372475991,-0.29453911635841173,9.4744900541951,0.0026526925941962776,-0.0008575379448461264,0.1863124507904526
1681484550.0638208,1.2153633660866718,0.290979835936604,9.533869409922023,0.010908267619537788,0.007763669980083853,0.1853870290756699
1681484550.0737922,1.0142423414303607,-0.026913354763903653,9.567993813938637,0.024463937788296482,0.011970889558209267,0.1791726041079041
1681484550.0837915,0.9640137668256471,0.748653164347822,9.497579476603224,0.02914208645275658,0.017628512455584333,0.1729385692120071
1681484550.093788,0.6798099037060332,1.789320681976198,9.380588121122454,0.01669247595380772,0.01885169711538079,0.1710423219442841
1681484550.1037576,0.9340877528316124,1.1295065164152265,9.357581833892045,0.014266584936393073,0.02364094251223211,0.1618590045214172
1681484550.1137905,1.152224196969172,0.5010372423718608,9.236824701184485,0.013306174164809908,0.033543009308847356,0.1576953518629547
1681484550.1238625,0.9347629890149174,1.370243227194976,9.355822480816839,0.01504592380911447,0.041981530333664065,0.1545577037573334
1681484550.1338947,0.49546447137229993,0.7462124043255876,10.1846452157062,0.017559213781892197,0.042487062621697956,0.1302823412657257
1681484550.1437967,0.487376587645047,1.4049283264043009,10.004512231224112,0.006264574971653149,0.05392068618385865,0.078334836983728
1681484550.1538384,0.4279975369853905,0.7690190670206724,10.83379078885256,-0.002929329381446517,0.060546854267356925,0.028786171922135
1681484550.1638205,-0.41013132835719235,-0.3409665279642675,10.137105194099105,0.0010288941750994341,0.06522124727867612,-0.017975758066726
1681484550.1738186,-0.6516326240435392,-0.15837992798321437,10.043692397771824,0.007422997487243532,0.05911329689907519,-0.0409103718161109
1681484550.1837285,-1.3340588121116486,0.19333792091177765,9.04651066535033,0.014170450673587274,0.055360885765748685,-0.0536697779356959
1681484550.1937745,-2.0905276068224645,1.1858511447486864,9.681478570687284,0.010161588495382252,0.029033926350939137,-0.0491897400974754
1681484550.203752,-1.9300159016158858,1.158213299898446,8.968985692421166,0.0028920766175788044,0.012343068909897751,-0.0394993398844722
1681484550.2138038,-0.880623101228903,1.6391241454024408,9.465692289026794,-0.003163784683367524,0.002887717047938623,-0.0160515878855708
1681484550.2237835,-1.0482064830290276,2.177513594265131,9.67057655537065,-0.013899984121547977,-0.006108432095608699,0.0132440987468239
1681484550.233796,-0.7137227318165648,2.309766339379304,10.34090903529451,-0.031637356336705356,-0.007022630012306489,0.0379124793649193
1681484550.243863,-1.2537133379444134,1.506634569838078,10.490312831640399,-0.030526690661789858,-0.01761749470061099,0.0572638052940842
1681484550.2538383,-0.7366312661840251,1.5335220003697194,10.344103324027007,-0.03534646417994478,-0.01677214412668623,0.0659518751740929
1681484550.2637577,-1.3763224493241693,1.9553265666184731,10.234734376355993,-0.045313584650490846,-0.023049528734780382,0.0669367674232002
1681484550.2737584,-1.186510535632466,1.2022220618499642,9.849111759608656,-0.04843373146995858,-0.030020762156873583,0.0658064696431633
1681484550.2838726,-1.4211773673077643,0.49903514820311473,9.474756056288479,-0.04469077231224101,-0.03696750593512822,0.053558482551622
1681484550.2938066,-0.21293681320698193,0.16932694064826376,9.773221996183612,-0.04209722034452853,-0.03318423578680527,0.0459045942366596
1681484550.303756,0.5782327842683785,-0.3404915899837163,8.620020441088732,-0.02503140997211341,-0.004530321095655365,0.0433324824512478
1681484550.3137505,-0.25749221289462465,0.020945116514455058,9.537210982969809,-0.024146651995731256,0.013845135722709267,0.0409305568278309
1681484550.3238251,-0.7797101699715385,-1.221691653426385,9.828440381634431,-0.0007046405923932307,0.03005393974214663,0.0376113231719013
1681484550.3337898,-2.8644932709836803,-0.2007784342804582,10.532152803245591,0.007136226790775101,0.021451266871613403,0.0226127549499746
1681484550.3437405,-3.1864093622684293,0.6450315965477571,10.415586589734575,0.0033401363819500615,0.009181327746904238,0.0080725124530967
1681484550.3537583,-3.3206096811310757,0.46721028100989376,10.33031862838355,0.0011125454366440646,-0.011108171888983494,-0.0035022373817387
1681484550.3637986,-2.180886746171432,-0.12700299814956606,9.681764713150427,0.009713587660724061,-0.01931762531280444,-0.0130004950373891
1681484550.3737552,-0.8306557271397673,0.47445184080480807,9.238750164162338,0.014525626813618603,-0.006576528333006901,-0.019129659286094
1681484550.3837657,-0.6855550311460672,1.2999384279893258,9.515987122022606,0.01245808492439621,0.006128240917987777,-0.017333452826691
1681484550.3937926,-1.0800848421594007,1.5488536707187905,9.706625540324668,0.005729247806771382,0.018004984044433094,-0.0128210999577764
1681484550.403824,-2.316867772653098,1.3382645263018638,9.991371959145807,0.0007241482741978618,0.011319548960824922,-0.011759439720166
1681484550.4138222,-3.014117620828581,1.3766764421311701,10.043239362223193,-0.002018293659545717,-0.007157412512204355,-0.0116104048251632
1681484550.4239323,-2.605016876795641,1.2678306954159384,10.00767974568627,-0.005257757878251733,-0.02673471802487787,-0.0160344012587789
1681484550.4337916,-1.0891983118768238,1.4110815175497298,9.592272751070057,-0.010912393922597075,-0.028061271652346332,-0.0207739279180291
1681484550.443786,-0.5789984217120803,1.1159744905261861,9.617584319476572,-0.01343483537324385,-0.025996132003944048,-0.0253495380788568
1681484550.4538364,0.11967966426476558,0.9625772799545534,9.655870210747047,-0.014636260999284587,-0.015136123279114292,-0.0280353960155967
1681484550.463827,-0.1577907219899924,0.5712051159905364,9.851542814943574,-0.010619976888413414,-0.009600282809235978,-0.0303474266588214
1681484550.473835,-0.5491936420827241,0.6143275981779913,10.109315232031944,-0.011622539615382996,-0.012923545233057498,-0.0321366686880115
1681484550.483888,0.04616089674196391,0.31538390941325445,9.673604462644182,-0.006947810106804461,-0.00786583983479298,-0.0290979959576848
1681484550.4937804,-0.14237537066932027,0.4237687456837918,9.735752321451425,-0.00468791980344606,-0.009528145913472688,-0.0259773444890502
1681484550.503808,0.087156818521098,0.6954874973346673,9.64841030469315,-0.004514919995805565,-0.009397939573551105,-0.0176587321370366
1681484550.5138738,0.36598901569807263,0.7578301058642735,9.709222157926538,-0.00403475830142508,-0.00823748010344035,-0.0085675355553153
1681484550.52384,0.7069783878840913,0.5646027592560953,9.901281633704412,-0.0017257692628725857,-0.002482267231658041,-0.0037220751441541
1681484550.5338187,0.5950011616094921,0.8264532101064741,9.9431801387367,0.0003912659574254484,0.000980406254104103,0.0038641174283351
1681484550.5437765,0.444401419136629,1.1498503159034845,9.718950528158084,-0.0008484814139252792,0.005006347938610707,0.0077164161444183
1681484550.5539527,-0.020133850038442667,1.0934753484662152,9.751341869075947,-0.005408229682193005,0.0037535169862418305,0.0046441859990831
1681484550.5637772,-0.13691547197602935,0.5677143677473255,9.707397140574685,-0.00040780098917978115,-0.001989391566057347,-0.00036111579216
1681484550.5738428,0.40876486937484147,0.8685594915786539,9.802509293364587,-0.0001477521974873941,-0.001072988460095001,-0.0038628883234683
1681484550.5838113,0.4866698404917072,1.0057665425620341,9.87523601461153,-0.00025879380194742123,-0.0006948522316846379,-0.0038397924549404
1681484550.5938773,0.517416376794664,0.9605627638637078,9.833651232071668,-0.004067895723884162,0.0028307689299737933,-0.008852537026954
1681484550.6038134,0.19781318691936778,0.5700348974039406,9.745607074265191,-0.0016394984225486678,0.0021296338302552176,-0.0126407875254276
1681484550.613861,0.19642095693363912,0.7732635231629065,9.76317926907504,-0.001134659203317649,-0.0002228393202973654,-0.0119423011824015
1681484550.624017,0.34547758171654297,0.8456857948001447,9.794016134612159,-0.000540766793123722,-0.0027710019085412986,-0.0072312925517085
1681484550.6338294,0.5702684267868757,0.9156382109330301,9.800479439263505,-0.0021128571520376994,-0.00012862641400202633,-0.0026745258405331
1681484550.6438458,0.49825968779874547,0.9043252690166611,9.841006353217878,-0.0020182286943889226,0.00025472867697323275,0.003835418956029
1681484550.653861,0.3847262475235794,0.6520962732072543,9.70147176301337,0.0008349542896723106,0.0030531640758165307,0.0027751994744416
1681484550.6637893,0.18957770937491844,0.9201875262644056,9.759333607440741,0.0016269189225819442,0.002158380318671947,0.005066253473657
1681484550.6737957,0.14379601828962252,0.8293993238301832,9.721292177532492,0.0011314854335313486,0.002608741921032083,0.0022812062484685
1681484550.6839128,-0.062980099944095,0.9520893768654117,9.829763222877569,-0.000546404858658902,0.00032142016837607566,-0.0002575338625807
1681484550.6938338,0.0006986152385752556,0.7412493195929417,9.784406782575845,0.0012089904740455965,-0.0007354723946615073,-0.0045271047897163
1681484550.7037742,0.030142094610310356,1.0566991091567248,9.901577326560195,-0.003114208975895296,-0.0012398544708373182,-0.0052997276693109
1681484550.7139,0.06754927629873105,0.9418697657219542,9.788255191741776,-0.004765267064260457,-0.000406895641068977,-0.0039448414504054
1681484550.7238865,-0.07130926750035438,0.5827879776284923,9.713409102683782,-0.0006387698079068632,-0.0011538421249163051,-0.004398215333325
1681484550.7338164,0.053678930465318124,0.9843814108137094,9.763003773518923,-0.0016937728677233071,-0.00026422179425242433,0.0005046423134867
1681484550.7438953,-0.020241383898791144,0.7002977226657527,9.745316080530356,0.0001789300792205257,0.00042347898198132294,0.0018524551665418
1681484550.7538502,-0.08639824078808828,0.8716109862419882,9.847663798196576,-0.0010511549277032232,9.453677543657542e-05,0.0027439101791482
1681484550.7638462,-0.11002546894670606,0.7686384381996734,9.763251348809574,0.001050641194835446,-0.0006937467695448914,0.0045555459760602
1681484550.7738354,-0.12938326905674624,0.9027759935407718,9.787553586163085,-0.0021873814136357745,0.0007721587105453252,0.0002081326634165
1681484550.7838995,-0.22721186324700288,0.7702307141357555,9.79445745841609,-0.00048192900060387,-0.0009027289118923555,0.0007315049256671
1681484550.7938008,-0.22099641711862025,1.0240893593980067,9.857118703292866,-0.0044646347021010885,-0.0016496339189967844,-0.0015491077251258
1681484550.8038511,-0.07976485442339357,0.6928969027962462,9.664271886504332,-0.0007724963765340638,0.0004495520923912826,-0.0013896704226258
1681484550.8138,-0.18146108911855705,0.8772199725348343,9.7763055990348,-0.0014370994566305598,0.0004897965025468744,-0.0021898569579694
1681484550.8238957,-0.2831711282387008,0.7564381918066534,9.799941345601104,0.000950462615274412,-0.002078050940452422,-0.0008208071853492
1681484550.8338473,-0.05121142955498906,0.8713299031480097,9.716104879006721,0.0006304226974340329,0.0004208813244130172,0.0009874302736956
1681484550.8438644,-0.24492899153994754,0.6401196847406642,9.761088389016301,0.0036915139339256564,-0.0009172469933197324,0.0003254542785238
1681484550.8539553,-0.13556763819463025,0.9460793233062653,9.82325953338676,0.0006822224737526451,-0.00022360190884019413,0.0008261339349214
1681484550.863899,-0.041003114459593565,0.8014412928651002,9.728135791500137,0.0014030425888496663,0.0013276171706329677,0.001776106156782
1681484550.8738494,-0.21816987018489434,0.9273655618582505,9.861868531649547,-0.0009308255074335695,-0.0005130576365243723,0.0010593411239337
1681484550.8838294,-0.1769493992155765,0.7884247062548896,9.802397035121533,-0.0007724969753973769,-0.0013616787538316833,-0.0007746201049063
1681484550.893772,-0.20252663458945272,0.813832857315046,9.832962471432404,-0.0003038521811562729,-0.0037644879483195006,-0.0016813620499793
1681484550.9038167,0.10428575446966135,0.8476055348405513,9.688060120765808,-0.0007553519116508363,0.0005758553114877043,-0.0038919390685382
1681484550.9139936,0.11203984635467548,0.9378921727275634,9.726049131608622,0.00038606703347750655,0.001569006996910864,0.0010574926814537
1681484550.9238417,-0.15781852495196197,0.8208258872278406,9.833860784481038,-0.0007050701311119967,-2.13259358135456e-05,-0.0018694908398661
1681484550.9338274,0.061846170896320544,0.8805568464128692,9.752546617056991,-0.0011427882158441074,0.0011782167280171027,-0.0013751455157521
1681484550.943933,0.07492193685876071,0.8751291173454653,9.770541645641698,-0.0014874092881844386,0.0014620796746489422,0.0003027277958121
1681484550.9538236,0.04916797683701387,0.8342032088784623,9.77328651696967,-0.0020268036698942306,0.0020305656919373176,-4.2306532609967615e-06
1681484550.963868,-0.026558303376939225,0.7078259142913648,9.786240450427437,-0.00036532961193221596,0.00041900625805864583,-0.0007675488054278
1681484550.9738958,0.05583121708522404,0.7938042102133479,9.780458088366894,5.301159187757107e-05,0.0004704294127995754,-0.0011195670853826
1681484550.9838383,0.11863911925140024,0.8489240701289588,9.753977935504649,0.0015628791991169982,0.0005367305481655808,0.001479559452505
1681484550.993834,-0.012519502576835326,0.8232482230371523,9.827584082369548,0.0006092027519746997,-0.0006344967330829292,-0.0006643543060395
1681484551.0038972,0.08254529042372014,0.7880882019677224,9.761348226165241,0.0015543088472677383,-4.404025304830479e-05,-0.0017130277160081
1681484551.013789,0.11260897218695178,0.9193217951382976,9.783053993255539,0.00041958330662829926,0.0006216534229229687,-0.0014392295892808
1681484551.0238602,0.14839442704733585,0.8701383566122969,9.73850955132348,0.0004911184368056176,0.0021970895901825068,-0.0002925535704467
1681484551.0338027,0.009882777740583057,0.8569348801574287,9.807922869283615,0.0009437392866323827,0.0008153773599192093,0.0009747546242092
1681484551.0438626,0.008900770710577122,0.8635444125086844,9.812805484904466,-0.0006231223057743363,0.0004465743520057817,-0.000283256060769
1681484551.0538883,-0.10383488857200651,0.7313596128445375,9.836180365423948,0.0017461756480875897,-0.002995208664767668,0.0008205410518225
1681484551.0638225,0.17502496875518794,0.8510420677461259,9.699453974052494,0.0007314032483970881,0.0006697242322234527,-0.0003756359260055
1681484551.0738995,0.03687829715054773,0.9534314224489302,9.807522614712498,-0.000450262075551873,0.000278936514443834,0.0027483763365548
1681484551.0838702,-0.00818411297882995,0.7633313632485819,9.748607480008793,-0.0004655373507739511,0.001040755778810602,8.256488540286737e-05
1681484551.093843,0.1141322610916445,0.9277354008280023,9.72271801013921,-0.0013249743830778438,0.003361236126645435,0.0016315698117491
1681484551.103889,-0.25193753579537476,0.8407604836846011,9.90173637564185,-0.0016337914444248553,-0.0010759588404567896,0.0013376123347793
1681484551.113933,-0.04878159100047319,0.8050737061907972,9.763203829818424,-0.0020502745201868523,-0.0003793130228958758,-0.001118086282489
1681484551.123917,-0.09520576375860342,0.7527399318092948,9.762493984561,0.00074481757194996,-0.0013993104913757198,0.0004618013004314
1681484551.1338854,0.05501726611960026,0.8426070404616478,9.705592696302826,0.0006792425942456695,0.001178952651160566,0.0005839588080074
1681484551.1439345,-0.2181398357613246,0.7036180027916699,9.816136119714995,0.0017368348749310348,-0.0008617478577183372,-0.0023042378056321
1681484551.1538827,0.007502118809851725,1.0261368736922598,9.789845601751086,-0.00026958938449295585,-0.00030668492747241885,0.0019325504213579
1681484551.1638982,-0.12481180897570593,0.7130766765284859,9.764633941265654,0.0028101037148541698,-0.00196442222873038,0.0034971856471624
1681484551.1738677,-0.07338179363288888,0.9450289601464054,9.817485788271037,-0.0019865818525080666,-0.00041657472084619416,-0.0008941979653659
1681484551.1838384,-0.029717185551458383,0.7931441166178655,9.738967862276098,-0.001534324404315742,0.0007065767077861087,-0.0018307564354959
1681484551.19382,-0.03094240472395609,0.7887029162158119,9.75088518376456,-0.00040894190191410667,0.0012072936348011937,-0.0013743860221925
1681484551.2038803,-0.10825808365590936,0.8592968110123681,9.80951219869475,-0.001542900627460587,0.0007151692999323607,-0.0029431099578264
1681484551.2138124,-0.12127752676911796,0.7152473934034526,9.782393353621602,0.0010551276330531213,-0.0012294471114354109,-0.0029427434823933
1681484551.223883,0.14553299535858433,1.0067522160874574,9.732028400648431,-0.0002327026225800166,0.0013879532196456824,0.0010213302698925
1681484551.2338972,-0.08020088034874241,0.7992545545099965,9.788479234658563,-0.0012917725763331807,0.0012840257530212968,-0.00273524155314
1681484551.2439027,-0.010682400414139212,0.8122648854694434,9.774249306320915,-9.003149397567316e-05,0.0007885508967521228,-0.0012790337245438
1681484551.2539015,0.1670633367888834,0.8525844636884111,9.699608418843521,0.000619261386996016,0.0036641073871156965,0.00068047362906
1681484551.263875,-0.17888049491305666,0.7513242422753496,9.842995429882727,0.001243625599224933,0.0005166080111116157,-0.0011616833548519
1681484551.273893,0.02826663918900951,0.8724319235961133,9.788337152523276,-0.0006722963923949082,0.001321258413761207,-0.0025676174595478
1681484551.2840126,-0.019834048692414518,0.7750407439352289,9.762318992727717,0.0011564686817677641,0.0005262681560687432,-0.0022196727845344
1681484551.2938848,0.0816051981306907,1.1190887456849514,9.84499564932625,-0.003208110429836007,0.0010128030031420732,0.0005135795177433
1681484551.303832,-0.0247383358319148,0.5608451555011181,9.716245429719763,0.0026242143431435883,-5.409383511873442e-05,9.522912618781048e-05
1681484551.3138258,-0.060058289970307835,0.9854500325372693,9.875053190092588,0.00027767053419852156,-0.0021670896377257343,0.0012228895753164
1681484551.3240128,0.05009536031731055,0.8510318839024456,9.75638856971401,-0.0009073493068921922,-0.0007336017448172427,-0.0004788334521922
1681484551.33396,0.11286222819490793,0.989597611773073,9.770867168642853,-0.0037199521982452318,0.0011581065930159923,0.0002748082584243
1681484551.3438444,-0.10327876880260481,0.634211443740744,9.776093078147511,0.00034882124139078304,-0.0009791080224337615,0.000235673734593
1681484551.3538923,-0.031195353795719406,0.8702249136826388,9.803828456843682,0.0009843444033334663,-0.0023563364677866346,0.0026131630834665
1681484551.3638923,0.03916929455032434,0.7451808496147512,9.726211767234355,0.0007187332065551078,-0.0002589916041299108,-0.0009046334348145
1681484551.3739965,0.03697675991702596,0.8565372466975391,9.758621383716443,-0.0003102190999604846,0.0012002076961313884,-0.0019123205024275
1681484551.383839,0.13649239207136268,0.9559370603704548,9.7355558019702,-0.0005974480838382922,0.0029302308172326798,0.0021265913342599
1681484551.3938937,-0.16129615650944576,0.7914018536948962,9.838964236874274,-0.000942009219898051,0.0009010572924101213,-0.0003763901808757
1681484551.4039624,-0.11991313118482325,0.7076132076670956,9.773255626781186,-0.00027705010309845906,0.00042090615753775614,-0.0042577588505569
1681484551.4139247,0.019880422456446115,0.9090574333013711,9.758454868582144,0.000945600607690149,8.597390632019142e-05,0.000373517042632
1681484551.4239612,-0.030407552612616566,0.859985043774696,9.78211002473532,0.0011184571018457755,-8.287406496684763e-07,0.0011740733130377
1681484551.4338837,-0.09155982430100237,0.8944329436956643,9.833542405056193,-0.0004182331836999234,-0.0009641914343894023,6.058811736370045e-05
1681484551.443943,0.07929991292356624,0.6598300954828905,9.64356697406728,0.0024238081184482273,0.0023308130826892905,-0.0017119101289186
1681484551.4539273,-0.012414026687039347,0.8620087876029836,9.771170820833204,0.0026834282662297456,0.0022392018982559424,8.368084267790037e-05
1681484551.463935,-0.09214239521517302,0.9965814258127943,9.869602343608857,-9.1904159472518e-05,0.0005505132236133987,0.0012355549220469
1681484551.473941,-0.05042450216087526,0.8015493136809012,9.772464964358354,0.00041659236847144116,0.00035681088613541325,0.0009904252906803
1681484551.4839475,-0.1827513992416247,0.8505112043666416,9.866363492218234,-0.0006965059172504576,-0.0025619720922101133,-0.0003596294013309
1681484551.4938817,0.0642718166729038,0.8038939497031063,9.738635669612885,-3.378444659726564e-05,-0.0008986342107391266,-0.0001115254166994
1681484551.503853,0.04984294483842206,0.8937746030505567,9.756276994780219,-0.0003765027719774764,0.0003735548928005023,0.0011696053802974
1681484551.5139036,-0.18137232738501508,0.7465437527831508,9.826623761397238,-0.00041336178163687925,-0.0018865807701819468,-0.0026093295350197
1681484551.5239816,0.19674386864600854,0.8422723733059633,9.663384488524484,0.001247349479044164,0.0015745948895423902,0.0005508381250787
1681484551.5338955,-0.1575399574392104,0.837083048051552,9.853387215426558,-0.0008559466753088505,-0.00013007687321621921,-0.0036106726660851
1681484551.5439224,0.10862405088845695,0.6942680184510677,9.668938996882574,0.003724326607028112,0.0012448969728635546,-0.0005011532961848
1681484551.55397,0.029705102896712757,1.0588925497880535,9.851990755304579,-0.00018951339183419913,0.0012490060597157952,0.0012362987722976
1681484551.5638404,-0.10672646781456797,0.8086177382357457,9.820310987892885,-0.0002278628920270919,-0.0005410008034933494,0.0001179546775769
1681484551.573879,0.05991680857040022,0.8675145149040446,9.75584834204053,1.0551922476755405e-05,0.00017574649749549254,0.0019984794740107
1681484551.5839417,-0.07930550816382165,0.6952143102593564,9.76511682754511,0.0017521307661420404,-0.0007171945627703073,-0.0005585507064584
1681484551.5938845,-0.04220000283140018,0.8250689030770226,9.784578922151985,0.0019946460866994606,-0.001363901288251005,-0.0008170842233571
1681484551.603986,0.06507472111637362,0.8870703331106475,9.758142486167952,0.0017103986886349825,-0.00028655041651450615,0.0005892122240279
1681484551.613967,-0.07671840743185036,0.9692743040472026,9.85931585451898,-0.0013093130302237602,-0.0014205424134857948,0.000339613292041
1681484551.6239524,0.05326110651673476,0.7559925353951905,9.70942561796481,-7.849146358949407e-05,0.0004987307927338093,-0.0008532244286957
1681484551.633886,-0.012978508056933801,0.854272382481548,9.772892890943721,-0.0006179339116233478,0.0008593381606592048,-0.0014243158552322
1681484551.6438663,-0.10492871942238392,0.6554144457078691,9.769093266720343,0.003729515363138269,-0.0011713180936782223,-0.0005764346610281
1681484551.6539145,0.04623207540927454,1.0383406767442809,9.819362507615425,-0.00011572529206453436,8.859113322966262e-05,-9.064260343944116e-05
1681484551.6639287,-0.092726935583577,0.6991201423367156,9.763215820708997,0.00193619117173243,-0.0008420068990015332,-0.0013970795593682
1681484551.6739032,0.05818963522137198,0.8686335982293177,9.737359743102244,0.0011829108388540415,0.0010351773399423728,-0.0012097193434361
1681484551.683899,0.01425148509970825,0.9687180377129703,9.801069009513906,5.7501604114632624e-05,0.0005620566648954487,0.0020551072625916
1681484551.6940172,-0.04175182293457613,0.7570244676136603,9.75605620337797,0.000912819518515166,0.0007621060922639408,0.000952790894686
1681484551.703917,-0.09866146073033648,0.968408483237271,9.86538060236413,-0.0018390519672116465,-0.0007265250014535876,0.0005988883745398
1681484551.7138991,0.019300145318209568,0.8013518727389612,9.731680676073509,-0.0015473654733060291,0.0006376834827069186,-0.0002847418695214
1681484551.723939,-0.043522916180813866,0.8411643132044537,9.792160061934233,-0.000809760174222819,-0.00012973076431969013,0.0011874796723954
1681484551.7339642,-0.02017325860674069,0.9551834633612406,9.822720449640768,-0.003843633701998005,0.0002818942378890314,-0.0001141376601058
1681484551.7439969,-0.09326689028334963,0.7020920951076202,9.779325485859202,-0.0012400134252413455,-0.0012812105807677799,-0.0005071472882751
1681484551.7539408,0.0769373238793797,0.8964411809000735,9.74480906427776,-0.0017805609432030086,0.00014780183454747505,0.0009248580859516
1681484551.7638888,0.061075893125374314,0.7756664533620848,9.712002815450301,-0.0004737536390517266,0.0020115699012502614,0.0007404289167847
1681484551.7739265,-0.04167361020522527,0.9573642387302839,9.847157505672367,-0.002371019381603943,0.0009096258590414717,0.0017760905571289
1681484551.783905,-0.09803757645544843,0.7906301643355975,9.801912003855342,-0.0022391463869901674,-0.00020461463855351875,0.0005459905910779
1681484551.7939303,-0.005691709202912794,0.6617832436979944,9.72119834923859,0.0010942549867575151,2.4861844764026202e-05,2.110923701042849e-05
1681484551.8040133,0.03367921019672671,0.9465505994255754,9.796040755792442,-0.0006953769723376071,0.0007639688937015535,0.0005821314949084
1681484551.813877,-0.12181841331554351,0.675360914793254,9.780929904659832,0.001474233762700163,-0.000757429832402401,-0.0016381337813559
1681484551.8337688,-0.0009345494190464324,0.9419374573338469,9.785510195835219,-0.002587837997385792,0.00015188307619373804,9.000685126597601e-05
1681484551.8352222,0.1534623569164507,-0.382761066848631,9.27167076222674,0.0012972666380388655,0.000559827108850681,0.0003366296837579
1681484551.8439064,-0.015343962083328212,1.0303995006305682,9.852319787305383,-0.0010593746595459425,-0.00033500772782546343,0.0028381698025863
1681484551.8539956,-0.08492296648508031,0.6636677169909526,9.758246468982566,-0.0004637086781282772,8.970453728503244e-05,-0.0027218305080655
1681484551.8639948,0.12169450783632074,0.7927017080533938,9.697819778015015,0.0020292773449243446,0.001871883745010341,0.0002044170355897
1681484551.87395,-0.1117868849033754,0.9261167709611916,9.866838576527881,-0.0005106167893439226,0.0001273095885586477,-0.0008461563888463
1681484551.883917,-0.0041230016902564365,0.7841001342032703,9.751273311172458,0.00154872365775251,-0.00028916355460142717,0.0009240970207851
1681484551.8939178,0.027483281981751106,0.8299519515855321,9.751976658735234,0.0013144043394054923,0.0010102145185820963,0.0002650914207574
1681484551.9039392,-0.011974088785173174,0.8496363231060959,9.778243226285001,-0.0003757618146762822,0.0021602073815442896,-0.0023548910434815
1681484551.913879,-0.07941099951149823,0.9607212937117968,9.865503357846674,-0.0005601571608186869,-0.0008136931679450895,0.002104652110162
1681484551.9240549,-0.043056820123770705,0.726613246179753,9.745539263927965,0.0016701724273343382,-0.0011221392490108444,0.0021255071583677
1681484551.9339664,0.016115100907234323,0.9883533242696076,9.806038962597222,-0.0009975100856547982,-0.0006922608078103193,0.0030724939384039
1681484551.943929,-0.2032222573113851,0.6485688543029237,9.823948510036688,0.00037862402209283964,-0.0029505289499576477,-0.0010424591641399
1681484551.9539306,0.2415925020567176,0.8936373590512683,9.651143349719472,0.00013274642215578913,0.001919186639556808,0.0004655424232136
1681484551.9638665,-0.046400842636943926,0.83038660228256,9.798606101570533,-0.00041637869028140454,0.0016800308584676725,-0.000633045802218
1681484551.9739933,-0.06479733358203678,0.8369882594315451,9.798682492461582,-8.669819162041339e-05,0.0005538764760755137,0.0001112600980799
1681484551.9838934,0.031025203872562183,0.8384120483784571,9.750475431085395,0.0005391652761318358,0.0011789709059043248,0.0014110220322858
1681484551.9939704,-0.07404450031263099,0.9822078947026213,9.864980103607316,-0.0026876788502021858,8.148343934977102e-05,0.0010500443127479
1681484552.0040455,0.048762460570647294,0.7187071881464266,9.711500939706196,-0.0004077973832362281,0.0013678354889123418,0.000418205857883
1681484552.0139532,-0.09633387632142813,0.9186803300654564,9.84022106102862,-0.002597904603055849,0.00017312838005327077,-0.000439715226506
1681484552.024015,-0.06152205186515892,0.6476791008126035,9.736044390086882,0.0019059837595547255,-0.0010308798375765788,0.0004584405065056
1681484552.0339754,0.013058113880028505,0.7987534927515011,9.747364783327455,0.0006524476818797096,0.0008518786111097087,-0.0031077705829862
1681484552.0440075,0.028983791838443927,1.0148251891435427,9.801616989917102,-0.0010794715555220574,0.0007956298152107992,0.0007933546981316
1681484552.0540166,-0.15092598492577053,0.7046272839414055,9.81257140712363,0.0005797779232210557,-0.00140862590129918,-0.0012339560821179
1681484552.0640953,0.09852722995575743,0.9876527764957148,9.773358842853908,-0.0019791192632593515,0.0004979781300504765,-0.0001282907364416
1681484552.0739625,-0.018193482143232347,0.8709505263273205,9.791201144055863,-0.0007095378736109493,-0.000789468234359839,0.0034546952188488
1681484552.0839803,-0.10211303058453981,0.5419794346783172,9.72635191607972,0.0024495133223174773,-0.0009165055802661761,-0.0018657497170839
1681484552.0940075,0.10690473778444684,0.9568359743586751,9.74722717393848,0.0018132099110438763,0.0006928313533257524,0.0018953094218399
1681484552.103958,-0.027424816924756366,0.8479499094239846,9.77149144074533,-0.00026993872655129623,0.0016379107866383172,-0.0015327231999013
1681484552.1139555,-0.18165766092815097,0.8478907225106812,9.866182472955591,-0.0012876987008905263,-0.0011869396751650085,-0.0030705130233887
1681484552.1240876,-0.04205755355102413,0.8416283411580663,9.797905992104557,-0.00045360350466021847,-0.002412213671702423,-0.0010972332715514
1681484552.1338854,0.11647171269956841,0.8872022126113095,9.731147581568235,-0.0006123287108098253,-0.0001412848103549146,0.000257274248312
1681484552.1439655,-0.025948865564680446,0.850605951670295,9.78686542258315,-0.0009434914285800452,-0.00023626766963525685,9.226146680379826e-05
1681484552.1540656,0.040143258634733704,0.6378168178192721,9.68461830594539,0.002079602645494622,0.0017385066115047753,-0.0021570588036898
1681484552.163968,-0.10995718577362404,0.9890488361625221,9.88927428989212,9.25210035919912e-05,-0.001010756557034168,-6.461170827200833e-06
1681484552.1739533,0.08041207589565365,0.8766412987169444,9.729343654396967,-0.0016539188043985372,0.0015872529449506298,-0.0013878061476621
1681484552.1840255,0.035057257253458,0.8016735182069474,9.724293287452959,-0.0004994502880692924,0.002583395840281009,-0.0004345148376647
1681484552.1939456,-0.06307403818342602,0.8961440311868752,9.82399887894015,-0.0011886082230234893,0.0013696988560776737,0.0005478447961163
1681484552.204,-0.035316128116090625,0.6519058587316316,9.728989113694269,0.0016433215906837086,0.0016386802466494697,-0.0014541284221682
1681484552.213958,-0.14302587698515934,0.9474081385795223,9.88584635755979,-0.000556058093458699,-0.0009604636576462629,-0.0009351810480925
1681484552.2239451,0.16985313760433757,0.821663626773264,9.669065778959023,0.00035552359403402987,0.0027599712812432977,6.02794485935745e-07
1681484552.2339687,-0.18168663068564658,0.9093557066734412,9.898232682282789,-0.0014307548689302854,-0.0006330066750694455,-0.0005257776978883
1681484552.2439332,0.046297449929073815,0.7336463760026817,9.714704144071803,0.0010771097077977962,0.00045588557021223204,0.0002692021621864
1681484552.2539685,-0.04831704518498626,0.8447068173306291,9.811346452578523,0.0015051394759205297,-0.0008475880620417333,0.0010578390170362
1681484552.2640183,-6.818082634973208e-05,0.8761359691220799,9.782025225101552,-0.00010830407391229627,0.00012024308194343823,-0.0007518997922066
1681484552.2739325,-0.04035645764339435,0.8497452605295762,9.78471610382658,-8.2944491365707e-05,-0.0005007648389941189,0.0001693678746473
1681484552.2840283,-0.0136969302197021,0.7567413557354594,9.74731329886141,0.000757861869477497,0.00023871589831146208,-0.0015651152975383
1681484552.2940114,-0.07556141723472036,0.9384712268380294,9.840206646357663,-0.000980367802434019,-0.0013214404658612466,-0.0007045802235129
1681484552.303998,0.09192046589859688,0.8703508541792399,9.727670986758211,-0.0011037048923467983,0.0007639668788442526,5.462672156358677e-05
1681484552.3139958,-0.13024858662920338,0.6881415595260298,9.787132334102935,0.0016183955779225216,-0.0012208563778936111,-0.0011657718609545
1681484552.3239903,-0.03697628619220644,0.9262198434899616,9.829321423163604,-0.0001794336097435857,-0.00171968642533265,-0.0015152099117163
1681484552.3339276,-0.011052070688264238,0.885870820028388,9.776929279154254,-0.0013141244857248207,-0.001350873414971379,-0.0012313439551267
1681484552.3439207,0.017831606551448463,0.8911513270497115,9.77412835280806,-0.002097563737761769,-0.0008054803049309614,-0.0004125240997869
1681484552.354009,-0.0611959460706095,0.7208326501808241,9.756098862709395,0.001218669517737106,-0.0021547929260158933,0.0008820089238237
1681484552.3639455,0.02550168581531787,0.8311643600290173,9.766673342572243,0.0009538029507880287,-0.001343809310482856,0.0005508445279214
1681484552.3739476,-0.11155017742702178,0.8729927189057255,9.845944226638023,-0.000957649910741151,-0.0027232778551031173,-0.0014891342766109
1681484552.3840537,0.13217199752980147,0.8774271365048998,9.705149849861005,-0.0006451052418073178,-0.00026160420697520637,0.0004960729234393
1681484552.3939257,-0.0855804495789783,0.627900158509553,9.741604336972769,0.0034918393604943102,-0.0012890327755305513,-0.0004155091050538
1681484552.4039643,0.040517714386847446,0.941439646851176,9.77966959950303,0.0008651270045902344,0.00017314571859119895,-0.0011516199487719
1681484552.413923,-0.051740779705965106,0.8590496183215437,9.810496856406504,0.0002020404819807366,-0.0005350166136561228,-0.0017938523128155
1681484552.4240663,-0.08625200704384564,0.9478042830383282,9.853095060524316,-0.0021348354865362838,-0.0018634660281952185,-0.0018519796471569
1681484552.4339976,0.12386042907819202,0.887851755953236,9.722639645141403,-0.002043957004726897,0.00014518155803066536,0.0006179045845296
1681484552.4439626,-0.011525764776654202,0.6762924440936157,9.718172841141298,0.0005719399649540567,0.0005896421748495294,-0.0005134688730809
1681484552.4539506,-0.03652975373708806,0.8544424911420322,9.79752036200326,-0.0005310920734344665,0.0005814210246259416,-0.0018154731992158
1681484552.4640155,0.010801742314502105,1.0109718753843424,9.832826012625356,-0.0028389214542879843,8.484464684702691e-05,0.000569832274365
1681484552.4739857,-0.13135785555769852,0.6592619120700326,9.777246747879715,-0.000371665636892221,-0.0015095585601078553,-0.0015248945023391
1681484552.48393,-0.14140115680725948,0.8587334343962114,9.859032479252374,-0.0014888515024261578,-0.003932897846622998,-0.002626087287766
1681484552.4939623,0.10753918073179708,0.8250188928527161,9.703876953398485,0.0013401180036088155,-0.0028808529925865864,0.0024220488808591
1681484552.503992,0.001354296905659749,0.8096968333619419,9.766576035288503,0.0005931934162025577,-0.0016809425783542234,-0.0002143346977878
1681484552.513969,-0.046681976434086524,0.8046830159945475,9.790048526478566,0.0013091956834182514,-0.0024110893695988857,2.519948934281784e-05
1681484552.5240958,0.09976563433657387,0.8553613114544366,9.717968765957012,-4.383101635693575e-05,0.00067532617583184,-0.0013129061594132
1681484552.533969,-0.06517415523662494,0.812912649590999,9.793560269570351,-0.00029939642931726165,0.00010199074787605009,-0.0030921238980713
1681484552.5440023,0.0561355182618504,0.8583836667772176,9.734917389643224,0.0007414500941423877,0.0008124007818394623,3.599829101080614e-05
1681484552.5540812,-0.17437217239901537,0.9316292394193586,9.90509397221027,-0.003082897653534142,-0.0017755649060582988,-0.0027974678709629
1681484552.563977,0.05291349585009578,0.8185697210502771,9.73342265317443,-0.0015264936835730962,-0.0013061748605049572,-0.0003141759702462
1681484552.5740128,-0.004972274938749344,0.8668162187603969,9.799913573950501,-0.002791612708816076,-0.0009254680428152495,-0.0015729530754957
1681484552.5839567,-0.04437538124261288,0.7158166731892107,9.755719485938117,-0.00035114657703248645,-0.0013289019496179515,-0.0020039777777615
1681484552.5940588,-0.027258695884021796,0.8153137250410312,9.770556826247594,0.0005969128921312054,-0.0017710947319505778,-0.0011803067795458
1681484552.604016,0.1813537485144964,0.9137895966841236,9.686751167901901,0.00019380731751049348,0.0018271795817956526,0.0010093925480272
1681484552.6139362,-0.1547535309088565,0.7074044065168374,9.8040228946523,0.0014421881701374942,1.2244162057139015e-05,-0.0017495036631349
1681484552.623983,-0.02015098418344315,0.9354125998957455,9.814643169175971,-7.550977246577049e-05,-0.00020459516014148185,-0.000628962185559
1681484552.6340885,0.10600559566670639,0.7991585462735132,9.698536573280224,0.0008867644882706221,0.002385574031022594,-0.0003127063432235
1681484552.6440084,-0.17340360932722895,0.8759151954445683,9.881073503917138,0.0006829762349096755,-0.001265931787718291,0.0005813870189253
1681484552.6539438,0.013448919136058507,0.7305262627964979,9.715018797348282,0.003336506487728056,-0.0007969311286485446,0.0011547428398866
1681484552.6640308,0.07759870278752469,0.8676441822487979,9.738975077695795,0.0018903441692498658,0.0017355198234549037,-0.0002832424401763
1681484552.6740077,-0.07345716539018696,0.779623896206317,9.799290633776506,0.0031673599074700473,0.0003463822504342418,-0.0004251870600033
