time,ax,ay,az,wx,wy,wz
1681483698.9672208,0.7772675954315953,-0.573435780675151,9.809387324130839,0.002233441856454659,-0.0013657893185586942,0.0015145630564315
1681483698.9772656,0.9159593222065971,-0.42442347043478956,9.778485475161489,-0.0017481515748027946,-0.00019679185584236899,-0.0009582862298462
1681483698.9872189,0.9217007492919106,-0.7235718849647347,9.68924840906378,0.002115713032058316,-1.0128493462768327e-05,-0.0002031500957432
1681483698.997253,0.9764645769325269,-0.5576747967938613,9.706265242246479,0.0026949941108547317,0.0012806744906009747,0.0009475842194173
1681483699.0071616,0.807513267362334,-0.2865928786773881,9.89951239776031,-0.0021501052907615427,-0.0010904818577866934,0.0021512163762476
1681483699.0172844,0.9627304322491632,-0.7644236411294941,9.643751578453532,0.0011266420566388522,0.0011737565927474947,-9.439024547969385e-05
1681483699.027304,0.9090695229344055,-0.3820180710457402,9.79579392913456,-0.0027107622764600786,0.0014468204332770851,-8.395209847872538e-05
1681483699.0372095,0.8640843214810042,-0.7171994899752787,9.706605437206928,0.0015144661731414874,0.0003053787162911546,0.0013439506397357
1681483699.0472715,0.7755447927786697,-0.44657039669544285,9.865116118035878,-0.0010228443399179863,-0.002234890083458169,0.0005497132038239
1681483699.0572612,1.040829436483566,-0.5086983528788899,9.687253858059806,-0.0019955196688098385,0.000779232614621918,0.0006227053195711
1681483699.0673327,0.9571091709004839,-0.5969314769906675,9.706690962329539,0.00016626467293665356,0.0012355973557141894,0.0028437420219656
1681483699.0772018,0.752226500123382,-0.7464539426952981,9.76285141069594,0.002266592251069415,-0.0006516344911901311,-0.0007656803395125
1681483699.0872574,0.8155212374540579,-0.4405901523145602,9.84560882821856,0.0010450696967686582,-0.0031591159641828417,0.0009118008270401
1681483699.097204,0.9644385879240869,-0.649142124361122,9.68824720383116,0.0009277061476302752,-0.0005614956812932123,-0.0028295072301748
1681483699.107253,0.9236101958336372,-0.4975872174204853,9.757436835836423,0.001003716717646411,-0.0008170320004468392,-0.0003354082623023
1681483699.1172097,0.9851535558733845,-0.4287788682705614,9.744286185139357,-0.0010772309745122242,0.0008090401677389294,0.0006674278952654
1681483699.127257,0.767524254231173,-0.658903496559537,9.793324374154412,0.0005902107008828297,-0.0017103578568157302,-5.1916930218389454e-05
1681483699.1373465,0.8790587974700256,-0.523178807716046,9.77574038505012,-0.0006924046799596814,-0.001623577188595808,-0.0011538572184268
1681483699.1472683,1.034645473895596,-0.683239313953423,9.619828488554989,0.0022479463344383904,0.001419258294374346,-0.0011676510370794
1681483699.157383,0.754245377395622,-0.4621767762005422,9.86457736732771,0.001255181263880046,-0.0023965743849442473,0.0006048583850737
1681483699.1673703,0.9945977027918375,-0.3941085369827269,9.77255702731574,-0.0014918656402237566,-0.0009388623675475415,0.0012675756693592
1681483699.1773298,0.8946933591943697,-0.7816536379700008,9.681746974997594,0.0016642089739109648,-0.0002589863012573647,-0.0014954656403038
1681483699.1873047,0.9931800767179476,-0.4745585434995462,9.718863757656866,0.0011516021377992493,0.0010217624864970762,0.0008156940416906
1681483699.1972651,0.8984739397609917,-0.600586532710886,9.72980858656608,0.0009262185212275915,0.0017467047774885642,-0.0010927750303867
1681483699.2072637,0.8802479566347693,-0.42825479075684153,9.81116326622679,-0.000979251887538163,0.0007345260070319723,0.0003615798155319
1681483699.2172673,0.879280892220821,-0.67187520122827,9.726978228087157,0.0015531954170970813,0.00023201015795672273,0.0004264138365637
1681483699.22732,0.8146578055743251,-0.5552301180764724,9.799112615504407,0.0007384796023349483,-0.001059555156304795,-0.0010134147054973
1681483699.2373486,1.0507245549454933,-0.5709784668258887,9.665308370758247,0.0006729074622171367,0.0024235588517235065,-0.0014146657235447
1681483699.2472577,0.6773008606671517,-0.5334589420709588,9.88477296182517,0.000514221874207654,-0.002453931560866123,-0.0007247109937939
1681483699.257366,1.068284098064712,-0.5512075351269133,9.660845938461856,0.0011072675792333196,0.0008444471653778199,0.0002829787513714
1681483699.267348,0.8018532215866416,-0.5647193876054688,9.808791918194906,0.0007038455236294171,-0.0009511618733786513,-0.0007861654780331
1681483699.2773242,0.9185844296080637,-0.49930383615544405,9.767937933842267,7.463174691267946e-05,-0.0011404049141720734,0.0001898655860226
1681483699.2873127,0.9902049594679333,-0.49922424217818767,9.72069322124238,-0.00034075092085897654,0.0002062906174229606,0.0019224819221075
1681483699.2973003,0.7947263086976586,-0.6600511885524717,9.770671177480114,0.0006967604970900669,-0.0013497483381345087,-0.0002173157449338
1681483699.307308,1.0268170741007012,-0.516062613589677,9.692834623207133,-0.0010820763876077774,0.0020607449129187976,-0.0018065224907818
1681483699.3173673,0.9632786480834432,-0.4536995270425523,9.761654756396792,-0.0008075118059925933,0.0018461682218164136,0.0023926021490719
1681483699.3274753,0.7556678526064455,-0.6786034307338438,9.775076902375398,0.0005186806478196513,-0.0003294265479065868,-6.571738454436344e-05
1681483699.3373322,0.8835143221435411,-0.5722955334355618,9.746237562976699,0.0011400625786355668,-0.0006866382127063951,0.0002006684622269
1681483699.3472817,0.8823151509785109,-0.583193509169024,9.756458883296828,0.0008662577735018751,-0.0006266638609424201,-0.0016470777377012
1681483699.357481,0.9446276128769303,-0.4049273810016895,9.784799259730015,-0.0009237453360006764,-0.0006922486212907325,0.0009051147458616
1681483699.3673425,0.8504234121610565,-0.5908799958729528,9.766847673933205,-0.0014750828697264354,-0.0010003186116898694,-0.0014578311278942
1681483699.377274,1.019485952628218,-0.6475551153560287,9.658538324882645,0.0010741262376241247,0.0010180316355046053,-0.0002288691507179
1681483699.3873909,0.8972662057299909,-0.5311482911813294,9.762981743180827,-0.0003977559485698735,0.0012683805091372403,-0.0015010484534773
1681483699.3972971,0.7497262371310378,-0.6199154777423628,9.815114752114987,0.0006140398764311134,-0.001712961160320982,-0.0018292577046427
1681483699.407334,1.026088027312031,-0.5133269570779317,9.700541859300959,0.00018936034110426773,0.0006969104281235221,-0.0011330016463521
1681483699.4174058,0.9473834273941836,-0.6202717328113314,9.70517638202058,0.0019991145971058008,0.0014345294616556412,-0.0002825030864674
1681483699.427339,0.8965188446592807,-0.4720073637751238,9.79390456502759,0.0009064883071154162,0.0008801982435864185,0.0010701327660594
1681483699.437308,0.8258970781884957,-0.5867101372812918,9.782314941160577,-0.00041976416085179465,0.0005929438757683947,-0.0027382385491851
1681483699.4473317,1.0498090597447147,-0.42206697009869965,9.717228653960493,-0.0009144747089052332,0.0022984128251108387,0.0017608068842914
1681483699.4573174,0.7730732357968029,-0.6347690605156556,9.79387376925234,-0.00019732033269960627,0.00015712112420993233,-0.0001834215403992
1681483699.4674249,0.9783133476429067,-0.4895341146756271,9.74311862186309,-0.001963879071180041,0.0020223539221116615,-0.0004747475072268
1681483699.4773507,0.7932099012766615,-0.5936059259797842,9.808006434294578,-0.0002979001910434322,-0.0007354563698957957,0.0008060245850596
1681483699.4873548,0.9450159827289183,-0.4943184651872425,9.744470091859172,-0.0010071947252643554,-1.5737055850745014e-05,0.0017082841764444
1681483699.49733,0.8275745689034377,-0.5719359077130377,9.785313817104601,-0.00029379587051012396,-0.0017047802270564255,0.00250325910342
1681483699.507321,0.9615601019405208,-0.550661600682433,9.724875078988367,-0.001098853651732859,0.0001019744237752244,0.0009702960337985
1681483699.5174108,0.9758803005042563,-0.596005556673126,9.697475915677037,0.00016701616311223344,0.0014877911290119238,0.0018554397061474
1681483699.5273926,0.7357605906001929,-0.7290986717311074,9.778472956967498,0.00191642641469807,-0.0007555746285889865,-0.0015848625957492
1681483699.5372684,0.9951794358502271,-0.443328535357842,9.734434663221453,0.0007496552009473591,0.0006224058761160811,0.0006298041512731
1681483699.5472589,0.8705626322644597,-0.5696403364593429,9.766614492833725,-0.0006916851691955805,0.001173722198161227,-0.0025154633953694
1681483699.557328,0.833176760923221,-0.597490811413183,9.768230816398583,0.0021037963460600858,-0.0012581112524528185,0.0009356515325147
1681483699.5673065,0.9953796602983161,-0.45889143691614526,9.751451112366517,0.000604363047823547,0.00040709023057644843,0.001299254053762
1681483699.5773306,0.7464314141626732,-0.5310147057819073,9.839452064988388,-0.001170740803981613,-0.0019737403354820977,-0.0013688043731722
1681483699.5873606,1.0658488883055428,-0.5665062885164551,9.666901680891376,-0.0006581117062076888,0.001100738960860769,-0.0004471727920222
1681483699.597325,0.7421250605451439,-0.7297275254479146,9.783724773966709,0.0023649311362799437,-0.0017304986733587676,-0.0014638109173152
1681483699.607278,1.0497437717698204,-0.2536573106739459,9.762482698827665,-0.0024041862870400406,0.0006704556146099679,0.0009080924169633
1681483699.6173704,0.8305935877465402,-0.6229840744301303,9.773915220375667,-0.002460440490341163,9.184539556934649e-06,-0.0019641271832857
1681483699.6273944,0.9632120851009663,-0.5275531814764739,9.722809436052586,-0.001068666162962749,0.00030799074079736183,0.0013968511007501
1681483699.6373196,1.0444391027307445,-0.6090339660936192,9.657105423199846,0.0009366620884786208,0.002862797820503637,0.0027670032537084
1681483699.6473567,0.7148033375421862,-0.642015998197003,9.8231970517182,0.0014451674355042585,-0.00014984262884707103,1.84926862370463e-05
1681483699.6573389,0.9808090767640293,-0.3744998674922633,9.764991833056428,-0.001628951107056834,0.001087691815009798,0.0014642724268437
1681483699.6672993,0.8922360365385523,-0.6958377754461577,9.717721494643975,0.0012130843076158385,0.0009420360821533538,0.0010682766983758
1681483699.6773117,0.8668385201438912,-0.5473913345854738,9.77982433483452,0.00039348016460292236,0.0006779240964450355,-0.0005254095926407
1681483699.6873407,0.9069898387524529,-0.4887019680488307,9.787507166840554,-0.0009270946376464148,0.00048270420467023153,-0.0004143940791014
1681483699.6973217,0.9254536734494466,-0.49885977876439985,9.76309242876836,-0.0011658946819040337,0.0003899494304962449,0.0016047133499764
1681483699.707378,0.7632856586273898,-0.7479329063982642,9.761447057482384,0.0005991461971795658,-0.0011105874629300766,-0.0023958699352565
1681483699.7172997,1.0026959485432994,-0.5382882898021023,9.70116049552729,0.0002794888509711351,0.0011573516587355373,-0.0025028006679836
1681483699.727461,0.8278848134092267,-0.657116443325545,9.761318137875145,0.0031837539545583773,-0.0008728854301487749,-0.0008509913499925
1681483699.737365,0.9580930368808315,-0.495262284062794,9.731416606015184,0.003181890706517552,-0.0004702034399084532,0.0016788475436864
1681483699.747379,0.9121404503599354,-0.37035606512579317,9.81050049382241,-0.0007341204243619973,-1.610990799131126e-05,0.0014668852223134
1681483699.757327,0.814309928783618,-0.6408442107002189,9.769001111429247,1.2049171632160796e-05,-0.0011523265330645983,-0.0004367413971099
1681483699.7672756,0.9266657731856257,-0.6107592093833415,9.726657206997535,0.0009098621265255318,-0.00038714632190921076,-0.0010457986540619
1681483699.7773168,1.0421064302299727,-0.43972225711757024,9.73266226447486,-0.0016240987654307989,0.0025662639711329276,-0.0017603270284358
1681483699.78735,0.7421644411347283,-0.7143383084070336,9.771759928812498,0.0019447013027694177,-0.0009064521866916633,-0.0008662936783853
1681483699.797307,0.8572180160469665,-0.4832415614968841,9.792898285410304,0.0005369390083768903,-0.0017386883652355494,-0.0001484142889726
1681483699.8072774,1.048862254715551,-0.6703470345409153,9.637288295538987,0.0025765259085033685,0.0016364421937070147,-0.0009195366914842
1681483699.817437,0.7597785053460511,-0.3535278511073862,9.898929957132614,-0.0006432303322273908,-0.001872791147416338,0.0009095842211049
1681483699.827299,1.0890111002066563,-0.32565560029183066,9.729973198910262,-0.004976113167502358,0.001796994038328215,0.0017563327233314
1681483699.83727,0.8887635629606161,-0.7267482369266391,9.707761819505153,-0.0013298014386409188,0.0014568695759011045,0.0019001204305336
1681483699.8474703,0.7965812970222971,-0.5234121444448987,9.81308365581663,-0.0031071222596591565,0.00014519573346309626,-0.0004542741266537
1681483699.8573377,0.838195758915201,-0.8094902246116494,9.71757923153054,0.0022140928212187583,-0.0014119812233743595,-0.0004296180599827
1681483699.8673306,1.0349439063860242,-0.491971059674446,9.69105760577884,0.00018789487107869423,0.001894219890317781,-0.001248099146736
1681483699.8773282,0.9062098289624609,-0.454400535310647,9.788042886880168,-0.0007967510463780212,0.0012702532713880278,0.0007434588583659
1681483699.887319,0.8734390944977096,-0.59659143347002,9.759609564121073,-0.00037649327586142343,0.0009517285618828367,-4.968609986057701e-06
1681483699.8973472,0.8357257528217228,-0.7426318962403223,9.727290456427959,0.0027393076530660004,3.3463365160618636e-05,-0.001279793450934
1681483699.907372,0.9427159294966513,-0.44352474060902225,9.767927681199893,0.0015792728822053967,6.88278437519472e-05,0.0010813017102431
1681483699.9173288,0.8469430565694447,-0.5943390887595739,9.778711505011056,0.002203625991893688,-0.0009127618503390732,0.0005590323085438
1681483699.9273572,0.8263968634030211,-0.5479625826851127,9.794720076508517,0.0005518509285703286,-0.0014499785894681134,-0.0021786768961224
1681483699.9373653,0.989094119574519,-0.4576215242403626,9.739133197795201,-0.0007501709510323985,-8.167424492873275e-05,-0.0007794671732458
1681483699.947401,0.8101537413094553,-0.47035881429324966,9.825124194027588,-0.002122541937860936,-0.0020292551435873666,-0.0002296154893461
1681483699.9573414,0.9236695169643688,-0.6538374585946136,9.70649016002173,0.0005619012215542177,-0.0019044529233950586,0.0007803157746333
1681483699.9672656,1.0087127805930816,-0.5872048921708825,9.684175454770763,0.0005831306486740984,0.0008861569186828575,-0.0004237053257871
1681483699.9773295,0.7678157669039337,-0.5192112197209859,9.83607540243588,0.000329822230114191,-0.0018888067938412467,0.0002341857139494
1681483699.9872394,0.8920418010685242,-0.49129274236789994,9.765155216835787,-0.0012120769196993716,-0.0018627337610060014,-0.0005008166230741
1681483699.9973118,1.0337427533733787,-0.6470392656528962,9.646849988317522,0.0011381995316711027,0.0008686532524954184,-2.397911562507433e-05
1681483700.0072868,0.8872560516545352,-0.4827458049597539,9.79019885962688,-8.705677318228075e-05,0.0004965004852694833,0.0002248826163362
1681483700.017249,0.9581559097659006,-0.6002085550706188,9.696734888506924,0.0018080240253914345,0.0011499025731068486,0.0017641438712839
1681483700.0273356,0.6704410104854455,-0.4784056408964986,9.895794217993377,-0.002261121710432466,-0.002109005434637318,-0.0032962726003948
1681483700.0373018,1.1316353408563407,-0.6439274834781099,9.597194788112416,0.0011404373659838736,0.0019281186015700428,-0.0007187516934696
1681483700.047486,0.8299568600890695,-0.4629200009217733,9.816846694228543,-0.0003876698677911307,0.0003679666948892912,-0.0002411629579487
1681483700.057352,0.8852092989311247,-0.4772508006560896,9.779351207878074,-0.0021862592713970193,0.0003716862811466204,-0.0006393955595317
1681483700.062451,0.9136658513297695,-0.7762992341965552,9.66587108853578,0.00026649173876566924,0.000514368148544269,-0.0004952312487635
1681483700.0774295,0.8638425813360837,-0.5780395738072446,9.768472521459614,5.635216408220494e-05,-9.097473669912767e-05,-0.0022423893719438
1681483700.0873327,0.9642073181800356,-0.36997704782214175,9.780261284533543,-0.002633657565213852,0.00046295726738479573,3.578020865866718e-06
1681483700.0924337,0.9216605738122935,-0.8698545832840048,9.646355381356367,0.00045945107188946323,0.0009069930704498682,-0.0007426189299199
1681483700.1063952,0.8970679325066538,-0.5767330014355418,9.761239501673279,0.0025020315768403308,-0.0003185996658356668,0.0011506082915243
1681483700.116298,0.9231094914827096,-0.5789181735745643,9.719276934834243,0.0027214368592585973,0.00042610390933927326,0.0008805115899544
1681483700.126508,0.9426139486462513,-0.4263610171184297,9.776905758682902,-0.0008335985786232874,0.0018755886327250237,-0.0005101396277073
1681483700.1363385,0.746541980575101,-0.5060959224963847,9.84057952539194,-0.001755596520102353,-0.0011359285958640066,-0.0002921983872998
1681483700.146379,0.9940415253116561,-0.5944168704720104,9.69109240112424,-0.0007889075049751005,0.0007047386252399782,0.0001514928840574
1681483700.1563537,0.9027603342723766,-0.49160310828893344,9.77839590171845,-0.001451995119698929,0.00012880326024292387,0.0016166396485882
1681483700.1663308,0.915451873709367,-0.6812850513621437,9.701665535381307,0.0005935628925710255,0.0007855731769842993,0.0005232632934589
1681483700.17635,0.7927691988109331,-0.5791729739587541,9.819820484101342,0.00021099339473052147,-0.0011463541901768173,-0.0011922209564123
1681483700.186458,0.975771674817153,-0.4322032956482879,9.741894981730848,-0.0016665847124843077,-8.764936480128854e-05,0.0003884049324792
1681483700.1962874,0.9588457680891789,-0.7319814145434859,9.666296054070086,0.001791622027504431,0.001241550026029997,0.0001123637153309
1681483700.2063224,0.8653479754429403,-0.43027762240560086,9.814361647259526,-0.0006171433990070592,0.0003843627183787286,0.0004498868907343
1681483700.2163892,0.8562125583912176,-0.630678213897794,9.749717156936274,0.0006319530861329815,-0.00027836893189632083,-0.0002556707517701
1681483700.226396,0.9390947294156801,-0.38843204233435313,9.800644604786111,-0.00046627539130148524,-0.0013076587289879234,0.0041654824704405
1681483700.236307,0.901201840229258,-0.7435835427538999,9.689166279841718,0.001739090481091749,-0.00013829007292633655,0.0004655329935726
1681483700.2463822,0.7736858671295204,-0.5065101931836934,9.825547463194003,0.0006162905582942232,-0.0025995913048413176,0.0003791017184507
1681483700.2563057,0.9637375765004135,-0.4604669498117005,9.74133629636607,-0.000985215870201389,-0.0013560976110723521,0.0009714235161904
1681483700.266322,0.951139017880713,-0.6513293976485349,9.677193305873164,0.00029849916401112264,0.00044025637695838495,-0.0006717979017171
1681483700.27638,0.8414127879292264,-0.5647107031012367,9.777216494435079,2.0266859530261712e-05,-0.00029252491196499837,-0.0014634209259871
1681483700.2863507,0.8631918529730319,-0.6451013574468544,9.740937790079816,0.0015859755698032073,-0.0009686331813353258,-0.0020564876071635
1681483700.296364,1.0206800957501432,-0.3504223122733671,9.757940516806102,-0.0005452599854919843,0.0002386963750462082,0.0015834758192308
1681483700.3062992,0.9125109664535127,-0.6404186522479323,9.714624274846793,0.0011899748319456897,0.000629871129317986,0.0015272613486981
1681483700.316327,0.7406985491142689,-0.6068906749081903,9.809945994632788,0.00030968064149976,-0.0014093517690662726,-0.0021328737534109
1681483700.3263907,0.9163814431536527,-0.35724872118509404,9.810517909785421,-0.0030445576201149167,-0.0015289809345798095,-0.000508624598709
1681483700.3363547,0.9813037402340041,-0.8167795932538403,9.633554364037728,0.002027446828882231,0.00029310547882854365,-0.001740933167142
1681483700.346365,0.9008984884080826,-0.2920034096293295,9.838430902778642,-0.002714876762454013,-0.00012526768325060811,-4.2973788780322495e-05
1681483700.3563085,0.7758448492957957,-0.7344139420785916,9.757388195482898,0.0004516359856427075,-0.0022043433887499195,-0.0011408161412451
1681483700.3663788,1.0205009444701343,-0.43898249848307414,9.728626508190171,-0.0007765975863622781,-0.00017890031730805856,0.0009971238865059
1681483700.3763423,0.909051555178094,-0.6287027167680379,9.738570938263312,0.0008625374477114027,-0.0002601138154808481,0.0012184194015812
1681483700.3864071,0.833659407422614,-0.6057004570650484,9.776550081745606,0.00043596671714202635,-0.0007131052418602799,-0.0018098887562278
1681483700.3963842,0.9620551926010439,-0.4813170329374765,9.742065016289553,-0.0006708303073412405,0.00035007919496007596,-0.0008543613407287
1681483700.4063897,0.9141813231429826,-0.6499384270245957,9.705796718989427,0.0023124139681775795,0.000245399934621468,0.0005690698122147
1681483700.4164906,0.902132677565871,-0.39973411508734247,9.805349407583757,-0.0015510712229568904,0.0005125248947154386,-0.000351042257947
1681483700.4264474,0.8598227448226671,-0.6526334854004138,9.73992767061583,0.0009310715039977044,-0.00048213651162645765,0.0003139047144454
1681483700.4363608,0.9377476140158567,-0.5233583487513981,9.747716166434415,-0.0008529389920491209,0.001200199038225422,-0.0020684257655862
1681483700.4464672,0.8872615896597107,-0.6746474729633545,9.713685290668318,0.002244976217485382,0.0006782947864972652,-0.001250344798294
1681483700.456395,0.6928154114393782,-0.4786253608236483,9.888621063613968,0.0012432692002156632,-0.0038948644631430526,-0.0003141731762785
1681483700.4664922,1.0703049030663017,-0.48944675800557647,9.6827906218738,-0.0007009787475224823,6.510302185904355e-05,-0.0013062271795693
1681483700.476488,0.9802037285181864,-0.49396951934216077,9.742284410680114,-0.0018777724231576695,0.001650572507122075,-0.0012708399485323
1681483700.4863458,0.8772674118860084,-0.7068325848831758,9.715868088300232,0.0008442644178060731,0.001325014969575307,-0.001586733389971
1681483700.4963791,0.8617993051160806,-0.42412134299625076,9.814279523613997,-0.0006659538691139006,-0.0003424408498846956,0.0008961662493188
1681483700.5063417,0.8998117044866005,-0.6138277251839643,9.731289989527502,-0.000413382470587404,0.00027260059200145514,-0.0010003773536059
1681483700.516417,0.9209107865249017,-0.5358119029875797,9.739057345742172,-0.0003724128336978181,0.0005248082090296534,-9.400828680877966e-05
1681483700.5264463,0.8735316812029503,-0.5628923619490256,9.765710799292771,-0.0005430286125829813,0.00028378077548211523,-0.0005503583274308
1681483700.536522,0.9547145955823817,-0.46663586825849196,9.750572698434253,-0.0011215736947539888,0.0005926034776978775,0.0017366110073875
1681483700.5463514,0.9624572272930895,-0.670755880409829,9.679807513624421,0.0007649133076644325,0.0024150272497631487,0.0004927456571262
1681483700.5563958,0.7038746104048121,-0.5858098432350534,9.841909290977872,0.0012354240303426322,-0.0015479446344377526,0.0001604139065843
1681483700.566408,0.772785977962185,-0.5229203068002726,9.834830753326637,0.00018005653941656358,-0.004039040908467825,-0.0004579799755934
1681483700.5764182,1.0757857236525523,-0.414904819907184,9.709620101622413,-0.0013443289395651747,-0.0012726571253918338,0.0024179583374884
1681483700.5863872,0.8641520179284491,-0.5887809773239001,9.767246767950871,-0.0031619098373109862,-0.00048178578673036806,-0.00212020194563
1681483700.5963728,0.9055927434223437,-0.743323375593014,9.685911041283257,0.0014805562976154198,-0.0007645096134219119,-0.0009437501471016
1681483700.6063776,0.9325342408895005,-0.5314134603341573,9.74589270782225,0.0002031474287104963,0.0006231743968472375,-0.0028708328067783
1681483700.6164012,0.9530299808308212,-0.44136525187107994,9.755509575741847,-0.0005545599200477186,0.0006808948280549536,0.0005337009165909
1681483700.6264288,0.9124896504535549,-0.6195091429901359,9.69670020690949,-0.0005568296859148974,0.0020909197611418905,-0.0019838446791741
1681483700.636387,0.8041259645534609,-0.4067904808263787,9.841351416065924,-0.0029175255037958312,-0.00010625969441857283,-0.000620759561983
1681483700.6463518,0.9025481647525309,-0.7444486150106325,9.693077834946843,0.0014108908505916856,-0.00025414851985393414,7.958605014795977e-05
1681483700.656427,0.9203986677753758,-0.4709231165928376,9.770238387290215,0.00028399617540979244,-0.00022993828738325717,0.0013309207966326
1681483700.666395,0.8279426359055848,-0.6233797920316955,9.769985636120232,0.0005112386651718025,-0.0007179391883583237,-0.0009430018294129
1681483700.6764069,0.9004918875676654,-0.6106692241198033,9.735207615686475,0.000587618827273222,-0.00021766090393004388,-0.0027795715763691
1681483700.6863484,0.905277929649061,-0.5504220893075195,9.756045348558155,0.0018605337067363046,-0.0010755881565846326,-0.0003749054198611
1681483700.6963725,0.8373212761715857,-0.4493142226236066,9.827219304317607,0.0002936777704287492,-0.0029616885152898933,0.0007206962286968
1681483700.706407,0.8922801181974218,-0.5711792937182915,9.7475319385337,-5.165954053886264e-05,-0.00281194056150133,-2.8449580398550453e-05
1681483700.716412,1.1103604782631016,-0.552172204378823,9.637720247102841,0.00042964647833612174,0.0012802975800822172,0.0010291719768669
1681483700.7264369,0.8019346734981394,-0.679749397407767,9.768659270212892,0.001837048437034943,0.0001936231916442641,-0.0016288505907628
1681483700.7363718,0.7968036803562435,-0.47085442013224676,9.840665710241662,2.396235788006857e-05,-0.002073204904576731,-0.0016493252519044
1681483700.746389,0.9728185822364407,-0.547345070881327,9.715353961125931,0.0005391833833237763,-0.0009943747464640784,-0.0007396007462862
1681483700.756431,1.0160564710058961,-0.31356053374692744,9.770110948404579,-0.0030035780905381306,0.00042420884288112896,0.0026519184425946
1681483700.7664504,1.0023198488884602,-0.791029118574245,9.625691504039068,0.0008729295494902694,0.003097124930415747,0.0007333654753405
1681483700.7763655,0.6362853258812367,-0.5234835977047196,9.91667313575485,-0.0008123626029683842,-0.0021585306780713114,-0.0007328996475312
1681483700.7863991,0.9425475086401619,-0.56946017735083,9.7320108272855,-0.0003381452235355969,-0.0013519843958836738,-0.0003652173367786
1681483700.7963912,0.880238858508826,-0.6652151053181127,9.722616722595255,0.0013266986636163245,-0.001246539710708856,-0.0017756030469659
1681483700.8063517,0.9756746167473084,-0.3452609683694043,9.785330677216503,-0.0016375153735430073,-0.000645693001346455,0.0010187232069678
1681483700.816373,0.7785881445709749,-0.5362497645512707,9.823588153768535,-0.0024552011590147364,-0.0027333333607069596,7.305057394156036e-06
1681483700.8263824,1.1266098291981652,-0.6429671292197231,9.59665049194398,-5.129682486123877e-05,0.0016539419894704924,0.0009270987316508
1681483700.8363843,0.8372895392425844,-0.6307126151489616,9.761649904528294,4.778081482334135e-05,0.0011957362022823922,-0.0014600802719119
1681483700.8464198,0.8992387559955569,-0.4954815679257636,9.775345639944275,-0.0003754018480597637,0.0005549853808220416,9.895639554674344e-05
1681483700.8564205,0.86838242451113,-0.6673132170289585,9.73570768298906,0.0016392664727795754,2.41247521992701e-05,-0.0004926067817482
1681483700.8664017,1.0600833287119882,-0.3629788172944132,9.730070389977538,-0.0010292090935896537,0.0026158137733409636,0.0020562246750582
1681483700.8763316,0.8680623853655769,-0.7196960878391739,9.7119674490077,0.0013442117975069928,0.0027599850806871236,-0.0001740923657539
1681483700.8863714,0.8108700568471692,-0.5498796343077583,9.80205385841693,0.0015345583306558472,0.0005546153589059762,0.0003526352771099
1681483700.896368,0.8946426750747716,-0.44949007883851405,9.796002779464422,-0.0007237104662691571,0.00047265018585275747,0.0002230103087153
1681483700.906487,0.8868574363108216,-0.4791262715005174,9.773622031090207,-0.0022089767434865563,0.00013475473108243418,0.000428269613209
1681483700.9163506,0.7947475930212329,-0.6847876790775791,9.757245165446747,-0.0002986675710861981,-0.0013169923483142552,-0.0012123608070883
1681483700.9264376,0.9749464107745714,-0.43989362725034514,9.747813751637729,-0.0010526428846178275,-0.000763026102958601,0.001671763540386
1681483700.9364011,0.9148351503904513,-0.5914253388814992,9.730734082397952,-0.0011699965883118963,5.467701803909326e-05,0.0001518648310106
1681483700.9463902,0.8763943915855081,-0.6042920164028128,9.754877203967215,-0.0015194056104025847,0.0003791286195820151,-0.0024230808525804
1681483700.9563904,0.9518967777409963,-0.5161543130485813,9.74372301888705,-0.0005545623385521427,0.0002487576609658145,0.0007326378795791
1681483700.96639,0.8449010272787543,-0.5549892794103427,9.798363034329505,-0.0006424863636549067,-0.0008315761768294848,-0.0002571847330305
1681483700.976431,0.9390219780115859,-0.5795283928950573,9.715723236318487,-0.0009233721537286222,0.0004983497353098319,-0.0012648752931032
1681483700.9863925,1.0069011546811366,-0.6213426842417176,9.669493155057529,0.0006155487960001634,0.0026951672868724915,-0.000686688585532
1681483700.996354,0.7468475827966914,-0.699333174161989,9.777189764832844,0.002620492804450071,0.00019921483584646083,-0.0025132189079645
1681483701.0063434,1.0195022491243404,-0.304178129139514,9.77473014281551,0.00018153588802683076,0.0012031871378104157,0.0024555735249545
1681483701.01637,0.9269165879603687,-0.5037042957077971,9.75665154441495,0.00022922418286570832,0.0009472677370921871,0.0046352313325282
1681483701.0264995,0.8027450186052254,-0.6731710087330258,9.766920353694857,-0.00019320514532531952,0.0006313487274807212,-0.000975420004082
1681483701.036403,0.9551704632468142,-0.41151716379188985,9.76410446043118,-0.0027621706017759797,0.001628969995818919,-0.0003719347336787
1681483701.0463538,0.8841433361545518,-0.7471254383176417,9.689889777905229,0.0010130472802176045,0.0014676672603633903,-0.0007306661031666
1681483701.0564349,0.8181382169327984,-0.5725342333556966,9.798272197264524,0.002138443971692116,-0.0008561638624236175,0.0006409849698197
1681483701.0664532,0.9520700489896426,-0.3838017812380704,9.791540150221511,-0.001192341195691117,5.317974129164971e-05,0.0008726857445676
1681483701.076439,0.8096683002559066,-0.7179262442918989,9.753130200981753,-9.226869957379256e-05,-0.00031042534688767236,-0.003740334654552
1681483701.0864327,0.9779348975558216,-0.47086281138475117,9.744193897372554,-0.002052163620091528,0.001649479137317971,-0.004030138956708
1681483701.0963593,0.8678554082538807,-0.5979161824869178,9.760346047124346,0.0009075986154964413,-0.00028134342682606807,-0.0007578611880067
1681483701.106478,1.017165692541078,-0.3998953903749907,9.741118239497652,-0.0015805112402921516,0.001667351072113075,0.0011684885208036
1681483701.1163666,0.8314867543143296,-0.8721284243579819,9.669289998214866,0.0033159995454602794,0.0015410692737451745,-0.0019846023100886
1681483701.126411,0.9220308532914643,-0.5059869875038892,9.761655875342422,0.0020732264139198195,0.002239168614062935,-0.0024327745235983
1681483701.1363626,0.7885941012003369,-0.44653155811444506,9.847823341745135,0.00078987575439679,-0.0008658428347829086,-0.0003681959392029
1681483701.1463516,0.9106254562423156,-0.4125924380198158,9.775395481679016,0.00040916731496330386,-0.001980455184320562,0.0041807529010351
1681483701.1564195,0.9438815001248743,-0.5171970775027412,9.749222903110846,-0.0007605790526777851,-0.0006955985048612604,0.0034383039415356
1681483701.166525,0.8243613909207437,-0.6250187959430509,9.765929149923101,-0.0007397162745153229,-0.0012793476557730605,0.000550838765363
1681483701.1764326,0.9219534504259278,-0.6594744198984629,9.724547711535697,-6.621109110128561e-05,5.579113127986473e-05,-0.0029300882055882
1681483701.1864333,0.9799305532222764,-0.4464687314957027,9.75825190559215,-6.393556997671883e-05,3.0450315724075276e-05,0.0011293608945802
1681483701.196402,0.8732304965567437,-0.5830364817549041,9.755455570533847,-0.000591445084819653,4.050300878450758e-05,-0.0007466895080629
1681483701.2064042,0.9339169554185955,-0.6597326251207849,9.684159542704784,0.002015499883880514,0.0008843155367522339,-0.0003935128956559
1681483701.2164946,0.7646738250695416,-0.5117901904845888,9.843970854377272,0.0005834789970203027,-0.001583313426515063,-0.0019130839541081
1681483701.2265086,1.1182107718071246,-0.6319543969981007,9.59922915587122,0.002119842351407755,0.0032107346921531315,-0.0023787135764483
1681483701.2364323,0.7277000772678788,-0.43353756803734916,9.8864598345077,0.0007768500306262831,-0.0011240141017659453,-0.0005362066480789
1681483701.246401,0.9510869197947457,-0.5205613904695838,9.729940057365315,-0.0010731413695284726,0.0007349283220706026,-0.0026745081454042
1681483701.2564273,0.9459839254475839,-0.6042792946952037,9.717003651722822,0.0007004820562774149,0.001065343693441986,-0.0011743493418667
1681483701.2664266,0.8382573304977778,-0.4003378905101206,9.838558385032911,-0.0015436354631882582,-0.0010532292081249178,0.0010284189734615
1681483701.2764883,0.8048254223232306,-0.6708298999151217,9.758467633100972,0.00043822602254318786,-0.002524341728229587,0.0001261517132174
1681483701.2864635,0.934950388878624,-0.731029484311429,9.683495242548856,0.0024308740033167995,-0.0009809494848083097,-0.0026152904651585
1681483701.296377,0.8551326792768703,-0.4718967021558576,9.808282631831842,0.0009795098458294405,-0.002201352035071121,-0.0019506965804371
1681483701.3064451,0.9708876419400722,-0.3804591190914448,9.771141646975467,-0.000937902279430499,-0.0017684853607809424,0.0012545421155177
1681483701.3164148,0.9912694868675846,-0.5607705325815384,9.701119309687048,-0.000610089943486479,7.851384245386907e-05,0.0015354289239862
1681483701.3265162,1.0140968940230746,-0.5067143063387791,9.71091113337085,-0.0019601061912910447,0.0026895655317736864,0.0005716686096515
1681483701.336436,0.8016984092428788,-0.7029006642104182,9.75211523694244,0.0015405156748580838,0.000502100190207339,0.0012854631745962
1681483701.3463948,0.8312471841531626,-0.5551919594157991,9.78653642697027,-0.0014158672504340803,0.0010486031421757074,-0.0039638283237341
1681483701.3564224,0.7858647334372234,-0.5708307921321227,9.80332442432026,9.998632767037288e-05,-0.002157784479580299,-0.0013866839039597
1681483701.366501,0.9143815275534443,-0.44572267123229287,9.789695618925666,-0.0023378525743386765,-0.0019290409421045213,-0.0014116556889835
1681483701.376418,1.114837757465141,-0.5062570014099645,9.660976538115749,-0.002860149027749066,0.002167289085115163,-0.0005298731889102
1681483701.3863883,0.9356302829949958,-0.6965353149758873,9.68719601004438,0.0004650232283555196,0.0029048914180178197,-0.0001156330149147
1681483701.3965237,0.7587805072235009,-0.6791447705563902,9.784967739635947,0.003175924844004832,-0.00019079993126512124,0.0001283766428482
1681483701.4063964,0.824402122053178,-0.2683705611983789,9.88975409835663,-0.003031141577478166,-0.0016574670344883878,-0.000395019193505
1681483701.4164498,1.032029244598995,-0.818239130887583,9.593625950819714,0.0021291083410735438,0.0015328858523886598,-0.0010961154516312
1681483701.426508,0.8871717993747098,-0.40850704109091335,9.804377433147042,-4.7914938467172025e-05,0.0006149513164499735,0.0007311378099497
1681483701.4364295,0.8403432076738938,-0.5461634545846654,9.804010830882856,-0.0014169717395265658,-0.00011445507651134845,-0.0016299486200783
1681483701.446463,0.8828720921497516,-0.5671733823325588,9.75212490209,-0.0002934284456272317,-0.0008341937804068653,-0.000332808009674
1681483701.4564395,0.86397980847667,-0.6160438092020784,9.754481354386208,0.001192222396834593,-0.0014950319771422802,-0.0004926172591272
1681483701.466429,1.0533372685537872,-0.37105422927658493,9.73771602434679,-0.0012825023935416396,0.0008995485776326057,0.0019895622931894
1681483701.4765482,0.8246106166121954,-0.8421564344402199,9.702416372169887,0.001811364976479976,0.0009502319114176592,-0.0032575295812908
1681483701.4864554,0.9000221083525064,-0.43236420239620466,9.800213359603093,-7.99726308562123e-05,0.0003728187706826556,-0.0016671994275871
1681483701.4964306,0.8840986681281449,-0.5855018309439363,9.751898630497868,0.0015338308882452921,-0.000643817516962977,0.0003466930898379
1681483701.506431,0.8758782030763654,-0.5170234345410285,9.780481675403927,-0.0005381887411218749,-0.0003547284973132993,-0.0021015689748797
1681483701.5163958,0.8565070721324664,-0.5196271710614098,9.794953943106362,-0.001251229454982202,-0.0011951422601741187,-0.0021213130134615
1681483701.5265355,1.0909630779672466,-0.551128542562295,9.639417806536933,4.703289530400967e-05,0.0023837487387796037,0.0002267830964651
1681483701.5365126,0.8526412102905631,-0.5655027238911,9.780792190857284,-0.0002930747807988689,0.0016792679668157654,-0.0008849031332406
1681483701.546417,0.8353252868958988,-0.5349126309852672,9.789406926463114,0.0007623177816573123,-0.00037522077861743637,0.0014769316099286
1681483701.5564313,0.8104600582401379,-0.497502669724232,9.815395854786379,-0.0013927610291007135,-0.0016902525029308024,-7.79950100455193e-05
1681483701.5663922,0.9363689171568695,-0.46194911151515355,9.764084314434749,-0.0021236683008286537,-0.0013982067733945504,0.0018435145280331
1681483701.576543,0.849422337467369,-0.7466136893543402,9.708367649526723,0.0005704789865991489,-0.0015289480877949669,-0.0007947355083647
1681483701.586418,0.9528879935981053,-0.6042017168372127,9.702441908926728,0.00210753717002022,-0.000706791910662265,0.0001824084861677
1681483701.596534,0.9543055295554917,-0.407520576407864,9.78323423323983,-0.0007166218320189436,0.00014780582195864127,0.0009297006723013
1681483701.6064296,1.0702163972789986,-0.4908961974106895,9.669726486900512,-0.0005493741984613484,0.0029946784669646776,0.0033715964487295
1681483701.6164522,0.6080048838929732,-0.724741058881861,9.86205687378574,-0.0002479666165805014,-0.0014544377888672036,-0.0021071559790048
1681483701.6266923,0.875629455592465,-0.49127511788419126,9.7973352421421,-0.0005754275888253426,-0.0026133746070247776,-0.0003432376583564
1681483701.6364748,0.9786005957184695,-0.5022235932462249,9.725986827301815,-0.0011439109784167141,-0.0013572103805841755,0.0006860646495137
1681483701.646471,0.9566487864533257,-0.6738110524932118,9.688004940203442,0.0013430817251566497,0.00018246440358469997,0.0002047512639787
1681483701.656558,0.9147898941761351,-0.2953757071885542,9.817286403282008,-0.0034614059402271946,0.00030502092301510025,0.001366288564483
1681483701.666463,0.8237196221348242,-0.714704959132483,9.727825098970007,2.7319143821844883e-05,-0.001220867352046397,0.0013923774345552
1681483701.6764283,0.983070176064126,-0.5554518789944851,9.698540445118969,-0.0002263746817548353,0.0007255998809976098,0.0011528463469825
1681483701.6865516,0.7785318840666575,-0.5492567669725003,9.818520785609115,-0.0012307078657539244,-0.001254771297711449,-0.0001960921840268
1681483701.6964817,0.9289612744382639,-0.6313357490542567,9.697671559688217,0.0004840406707204541,-0.0006743591848045908,9.188986909652668e-05
1681483701.7064862,1.063891346204303,-0.6043893718078771,9.641456193319986,0.0017785641455081496,0.00283635561572135,0.000474455645914
1681483701.7164636,0.8319481644686046,-0.518374753984763,9.805694532822647,0.0012536743886020336,0.0011990863427317835,0.0009352688753519
1681483701.7264795,0.7839467217088306,-0.6033459419323354,9.78782538181757,0.0008785255647553605,-0.0002109633405947709,-0.001630713235912
1681483701.736426,0.8721613029813113,-0.430378695987387,9.821244224033096,-0.0006290744592346947,-0.0016325146904613123,0.0004223119426992
1681483701.7465005,0.9796389202200919,-0.568332779063478,9.705668269665848,0.00026610933493768896,-0.00019529290224117247,0.0014490053104477
1681483701.75653,0.8342162780780079,-0.6574227617578614,9.759646647665436,0.002027430818386052,-0.001306904376102475,0.0005527121789295
1681483701.7664788,0.9456668016498228,-0.4082096612982931,9.765836195445287,-0.0014408081264496721,0.0001709065208819632,-0.000306731443246
1681483701.7764518,0.9262636524818646,-0.5469019711751065,9.74240347712414,-0.0018248818037804643,0.0008187376755643541,-0.0001629324437577
1681483701.7864645,0.9156106446578528,-0.6406221932820715,9.716760599873137,0.00040170656792417865,0.0009733305585484755,0.0004658859648283
1681483701.7964685,0.9213942591996124,-0.5730276388333715,9.741981870309774,0.0014425523942363848,0.000772913168129631,0.0016311903705595
1681483701.806457,0.9667778051464673,-0.4582025851509921,9.75509796331457,-0.001367837097373872,0.0025457746231821025,0.0001675148919698
1681483701.816456,0.9167028546605377,-0.5750720955659716,9.735861356007764,-7.62620881401573e-05,0.0024865515226820557,0.001864348941623
1681483701.826601,0.8056244566446495,-0.6334160685319637,9.77525648109549,0.001948062740409666,0.00029870437949435646,0.0022927829373169
1681483701.8364878,0.74717808194471,-0.44208906615495025,9.874189967848265,-0.001534320301001128,-0.0021339401772570037,5.872477372253853e-05
1681483701.8464513,0.8541805106031574,-0.5963890720907151,9.771944350718453,-0.00046702965085508824,-0.003312986573194779,0.000237531606714
1681483701.856505,1.1474992257941168,-0.6336925724316681,9.588176016393602,0.0011143378986998304,0.0022227929530431005,0.0002527928404983
1681483701.866539,0.7888921019075319,-0.6736317525595186,9.763628986068692,0.0028033985229575682,0.0006309711116917288,-0.0016806188545647
1681483701.876507,0.921176803840182,-0.41712442769920904,9.788192209916401,6.157128428896865e-05,0.0009662606847969336,-0.0013490633613887
1681483701.8865857,0.9311538042101986,-0.43046807098312767,9.770374864560264,-0.001293307888029714,0.0008772133381440771,0.0008656193927403
1681483701.8964152,0.7841521008516277,-0.5709544079001917,9.817087829276232,-0.00015000082656405016,-0.002012847950853349,0.0021437699283946
1681483701.9065185,0.9598567364759776,-0.565978774037089,9.713991166479515,-0.0013324169728616622,0.0002621724626993434,-0.0001781986834008
1681483701.9164786,0.9460808304949815,-0.7433534397998253,9.660748049016338,0.0014507345587190252,0.0019899911417244243,-0.0019342806230757
1681483701.9265864,0.894402847748015,-0.5125345811968408,9.771235753693306,0.0011389189672345928,0.0014870381726046825,-0.0008715165353838
1681483701.9365044,0.9299795518942341,-0.44342844667096976,9.780602906863638,-0.0009353062418806196,0.0018215674625552162,-0.000186421679658
1681483701.9464562,0.8327166549977059,-0.5401996344391141,9.80262584361351,-0.002523406940768207,0.0012239980463428068,-0.0027684180572155
1681483701.9564598,0.8478807295430348,-0.5703206170989685,9.775748295287222,-0.0003571245831085623,-0.0009809539144222024,6.766966139043289e-05
1681483701.966503,1.0022899619877499,-0.6434730144932344,9.663018810672309,0.0018478561777516486,0.001168177788856206,0.0004536103183876
1681483701.9765258,0.8484725874750216,-0.4388413419022008,9.815219026472757,-0.0006510541528502895,0.00016643314593273105,0.0001254096819561
1681483701.9864798,0.8266091603222685,-0.48736961556449404,9.81660184224754,-0.0017470372111183532,-0.001636246381626373,0.0007441802259076
1681483701.9964733,1.000640123829696,-0.6747360051162193,9.660881616519672,-7.031798210300199e-05,0.0010176637530005033,-0.0009921875357154
1681483702.006453,0.7734074658159976,-0.38263348782764883,9.875418713698839,-0.003410371486617627,-0.0017401712171130953,-0.0005879912100258
1681483702.0164435,0.9764174492231528,-0.7082360098436845,9.656534245096486,0.0002564312664155719,-0.0005473312313141357,0.0003809585428338
1681483702.026636,0.8541573009281097,-0.6551426758112657,9.753250737137742,0.002364193506146536,-0.0013709944245052696,0.0002174142241951
1681483702.0365243,1.028262068712797,-0.4248679855985381,9.722385949688963,-0.0002360708178837406,0.0014132821579391631,0.0001693495974418
1681483702.0464818,0.7606209181562101,-0.4959276556764247,9.846479631119644,-0.0018867415621521377,-0.0014503394287318583,-0.0001338635378975
1681483702.0565069,0.9691746243965198,-0.6594865915340784,9.675275428248442,-0.0004271743236823658,0.00048607575482058606,-0.0015654913190278
1681483702.0664475,0.893937818619385,-0.548161023244015,9.7614637417892,-0.00016380085194729306,0.000282275134701925,-0.000755639518005
1681483702.0765352,0.9749876407756453,-0.6117960435718586,9.701031863993224,0.0024744587624726134,0.0008515216271595143,0.0020677590469371
1681483702.0865426,0.7859067426201248,-0.5060182907106389,9.830101454809707,0.0009239952187081754,-0.001103883814136905,0.0011051571887459
1681483702.096512,0.9159014643205865,-0.5129872788283634,9.754486127513832,-0.001682990634454022,0.000276331593675803,-0.0019369018304619
1681483702.10648,0.8330523834936606,-0.554971281551334,9.787800417805688,-0.00013845609344471585,-0.0020568230949948177,0.0007322592969525
1681483702.1164918,0.9142403055633288,-0.5611138171367076,9.74404954362648,-0.00034110742471879594,-0.0015334162858281796,0.0001663862454246
1681483702.1265657,1.0090796612624662,-0.5851142026289362,9.688106434576882,-2.298311258378149e-05,0.0009986637339323631,-0.0003860817564178
1681483702.136515,0.7678500043675512,-0.5980674676323713,9.817264470089809,0.000795847808972316,-0.001592264910185583,-0.0007016032509032
1681483702.1465454,1.1545914555601606,-0.6124013534371682,9.59132507645908,0.002368654459352821,0.0034856762119257695,0.0004413189558785
1681483702.1564848,0.7794546865892421,-0.4406735881565162,9.85911580271352,0.00019124852963811587,0.0006786600031311356,0.0010682938987396
1681483702.1664925,0.7810380634489088,-0.5776599803045926,9.818132143918401,-0.0007613211117165444,-0.0007790417498871743,-0.0017104146576944
1681483702.1765966,1.0084446060686318,-0.49638707384198827,9.715614120034035,-0.001504148215502322,0.0011458057435191817,-0.0008793089113656
1681483702.186559,0.862523095249532,-0.6291928876529832,9.750052740647742,0.0016668263047425265,-0.00037746612545665946,0.0017164762789856
1681483702.1965015,0.9005198608124967,-0.4796808708173909,9.785656672466926,-9.191116753949974e-06,-0.0003763405293903786,0.0019109379459645
1681483702.2064714,0.7655815025892879,-0.6656945671557402,9.786266160006292,0.0003898083602196322,-0.0019297835605650083,-0.0016720416064832
1681483702.216573,0.9676007245212864,-0.6669833999644392,9.678411413012212,0.0026007637795274386,-0.0003696304094098811,-0.0019596221431616
1681483702.2267385,0.9981372488690382,-0.39163091501922465,9.754781309910912,-0.0004338523311471172,0.001501569383367469,-0.0010469413868609
1681483702.2365415,0.8780226087256575,-0.6843839873877626,9.722455789971274,0.004143015921835351,-0.00041467485550099613,0.0026127800770577
1681483702.2465198,0.8381634726460966,-0.30665259558308383,9.859924823742611,-0.0023993324898085263,-0.0007246709443936573,0.0001254087506335
1681483702.2566247,1.0116266401460534,-0.6671138428353364,9.650534052647256,0.0001755831914144991,0.0016539404960411877,0.0003355204785716
1681483702.266535,0.7750562993165931,-0.44579952910076537,9.864186434136661,-0.0018345810132346751,-0.0012618474010428946,0.0010224639222964
1681483702.2765255,0.991892589809859,-0.5991444838136527,9.690279822824712,-0.0017474054525868576,0.001178953662412677,-0.0009426476940039
1681483702.286637,0.8715900684788891,-0.7215293751135556,9.711462696295582,0.002228964491628969,0.0003131930116937274,-0.0001640642335165
1681483702.2965548,0.9110085077402518,-0.5440259122904664,9.755297990028213,0.0031226664251028822,-0.0002638519676062753,0.0015704646607868
1681483702.3065522,0.9009537905371325,-0.3374487252676168,9.822170289682951,-0.002152726532322648,0.0001507815448727768,0.0002040150534834
1681483702.3165448,0.8432368803572061,-0.622476279084719,9.751715704866562,-0.0011282775679119744,-0.0006870250264683571,-0.0004099158145013
1681483702.3376813,0.9165780893490599,-0.554595412357171,9.755216239161994,-0.0010667985912324173,-8.987468190619427e-05,-0.0003633565542746
1681483702.3387015,1.049603317057996,-0.20979086585433548,9.789002240978464,-0.0008671154564923484,-0.00034505129878503987,0.00134767285958
1681483702.3464606,0.9369784346427543,-0.5768950910002845,9.722682351623371,-0.0012586443607962156,0.0007047278326946519,-0.0002173309953409
1681483702.3565383,0.9867091156524573,-0.555748515698642,9.713208674272813,-0.0015916747229769738,0.002438867976529688,-0.0004810420836779
1681483702.3665316,0.7063846262067953,-0.6272406409249321,9.844352804526507,-0.0011461570169443176,-0.0010468658814193478,-0.0025504611007395
1681483702.3765476,1.0886264757082067,-0.5344001462679923,9.650346941551598,2.0251214195155444e-05,0.002005976058938778,0.0008223926375162
1681483702.3864524,0.840566660852534,-0.5413546989133853,9.786266008562214,-0.001504161786349884,0.0016315745180091807,-0.0013993664219502
1681483702.396487,0.8393834428785792,-0.7543130009213913,9.712575191637454,0.0026987196712956753,0.000564679525886263,-0.0015394201077047
1681483702.4065812,0.884032529701821,-0.4077671538041866,9.810865957117302,0.0003987339712257822,-0.00023701405542293818,-0.0002229071728411
1681483702.4165738,0.8838388464974246,-0.44355045012967537,9.793950178193924,-0.002399715632783405,-0.0002783683619676901,-0.0010867966379496
1681483702.4266217,0.8752481522890089,-0.632360821479575,9.75274193826675,-0.0004405832511847742,-0.0009809579775928723,-0.000545519873825
1681483702.4365115,0.9649977959615124,-0.49940973138242867,9.733605310923997,-0.0006275945178724472,9.601986643901791e-05,0.0010842893348548
1681483702.4465885,0.9975386673687032,-0.5766031947826677,9.691065939499314,0.0001711150436688646,0.0019214160947843984,0.0015901713009465
1681483702.4566734,0.7148462112797598,-0.6180475792775203,9.82721454889667,-8.480835487839867e-05,-0.0008751737484043662,-0.0016381535719606
1681483702.466493,0.9256777151521453,-0.5050021094835838,9.755340725554946,-0.0011379551393065918,-0.0003599549249062103,-0.0015260146505657
1681483702.4765582,0.9587024546177584,-0.6688263470652629,9.676345512974443,0.0012484619475677792,0.0008712633437713489,-0.0014660374767604
1681483702.48659,0.867878004642564,-0.33264965799863916,9.837418100304935,-0.001529105075494524,-0.0009470566498308557,0.0023620707175236
1681483702.4965253,0.8800572835482889,-0.4523527016395052,9.80254174685098,-0.004028398538543873,-0.0013035632025309352,0.0020662922138821
1681483702.5065453,0.8524726267899688,-0.7854726603835998,9.706758475336867,-6.320599797959218e-05,-0.0016794495328848042,0.0001905976055663
1681483702.51653,0.8903558760288474,-0.6607408221320294,9.72667797229011,0.0018523430304839869,-0.0016295338398436777,-0.0002419090637463
1681483702.5266747,1.1171909345491762,-0.4647808178009538,9.663600341606577,0.0010327621606283416,0.0024094339714797117,0.0014262924010349
1681483702.536546,0.7070463747375099,-0.49800271720952494,9.877423720521344,-0.0022130511698789375,-0.00030148806596695806,-0.0023910400963846
1681483702.5466533,0.885235014439046,-0.49867090192273344,9.769916849630041,-0.0017723657722508665,-0.0015185216583668698,0.0003750000574168
1681483702.5565395,0.8263683208629249,-0.6676059123016902,9.748796774684813,-0.00043013188704719643,-0.002298590887434878,-0.0016340480692211
1681483702.5665784,1.0565217944909215,-0.5779929801812816,9.66369724491486,0.000403955289249327,0.0008693961293413934,-0.001111010792059
1681483702.5780182,0.9493418409239729,-0.550258946975554,9.725253501245284,0.0017383498146820704,0.001277687063207724,0.0011886245588779
1681483702.5865536,0.8866813805242335,-0.6062406364572189,9.7473199967538,0.0016440751587000794,0.0016781652990145689,-0.0009508330881122
1681483702.5965142,0.7557428153456922,-0.35371257272287476,9.900732963940898,-0.0009192690512497048,-0.002501625250595479,0.0018595229735605
1681483702.60649,0.9546274728107252,-0.7186233091713671,9.669107500764298,0.0009437700319717564,-0.000461285213222,-0.000696003906754
1681483702.6164832,0.8710746161959997,-0.6161251198596855,9.748955097875346,0.0020643012909751747,-0.0009097814639418669,-0.0013818424235556
1681483702.6285355,0.9942519753142689,-0.41572546895076407,9.75675907635225,-0.000448007712465336,0.0005385880900765031,0.0002274763497065
1681483702.6365917,0.9332468326954628,-0.4381230895629797,9.766553598057222,-0.0025364324208397237,0.0013126981051078382,0.0002472269075464
1681483702.646582,0.8441288890651097,-0.7347871627512056,9.716352420144876,-2.1008122188224926e-06,0.0009725928108528304,-0.0020095505792174
1681483702.6565244,0.8503239046240151,-0.5135405898427564,9.7902111311975,0.0002605192501965367,-0.000657591547813392,-0.0004594628739628
1681483702.6664858,0.865743380132174,-0.5331149531691207,9.779423495551193,-0.00035859551169332185,-0.0013020741748845741,-0.0006643435958299
1681483702.676603,1.0502401672156556,-0.6021499940291274,9.669068993059934,0.001108384562282721,0.0016423999264929441,7.325154324139076e-05
1681483702.6865475,0.8570051004167935,-0.5489989205952385,9.777662720438803,0.0010949863801956543,0.0006995172748634452,0.000455087745237
1681483702.6965644,0.8756267709118644,-0.5385861484713745,9.765582748778266,0.0005227749083971211,0.00044136012368391507,0.0001149694394793
1681483702.7065573,0.8503798261647346,-0.5998941449289334,9.758429082102834,0.0015915647279429934,-0.000464242888136717,0.0001548415707897
1681483702.7165248,0.824413895525462,-0.48346343765145683,9.82125617004094,-0.00010865774741681744,-0.0017867244880859804,-0.0005000655114177
1681483702.726582,0.9517535032225449,-0.5074259739665825,9.738521945618597,-0.0008600441813403191,-0.0008047539654977947,8.4424387338409e-05
1681483702.7366524,0.9336837556166251,-0.5865378083132913,9.73920117170431,-0.00012281624936148514,-0.00020273892695165958,-0.0002579222240943
1681483702.746628,0.831353259272367,-0.5413489272299099,9.787943446732685,-0.00015745699815255794,-0.0016168583430601759,0.0001935784198817
1681483702.7566378,1.0000946904210934,-0.5555160141424356,9.69875277320345,-0.00022638633618501055,0.0005549769286836829,-9.251933484261316e-05
1681483702.7665217,0.8842258160077661,-0.559136322810175,9.765605889741334,0.0003611012888983243,-4.925929141085539e-05,0.0008365648059647
1681483702.7767506,0.7641114754846313,-0.6619013175755406,9.787451089538006,0.001159073188139429,-0.002041905859628007,-0.0014719909563187
1681483702.7865896,0.994984122347435,-0.454260034955798,9.72474905003602,-0.00014739082420585253,-0.000400572978184797,0.0004018183058601
1681483702.796579,0.9225169420703551,-0.5728309310706815,9.72715046714414,0.00045349949514819876,1.4436782206660494e-05,0.0007937270525384
1681483702.806634,0.8870162174537074,-0.5635996181424759,9.74417451904263,-0.00036198428389597567,0.000302791412292565,-0.0008673749438944
1681483702.8165555,0.8315590573997901,-0.5433950621483489,9.789362776459761,-0.0008529668379130554,-0.0008449890610013703,-0.0011829203035209
1681483702.826558,1.0240647697976621,-0.5256543217677616,9.690612861397435,-0.0005337145886414933,0.0011510446798276676,0.0006145586335573
1681483702.8365164,0.7195081236383832,-0.5022326133280962,9.875340728521376,-0.001811852947625676,-0.002472551379121494,-4.707521698360724e-05
1681483702.8465796,1.0364719617505291,-0.76088124005021,9.607284343679181,0.00232620077233005,0.0006075144863628656,-0.0004806853871319
1681483702.8566003,0.9138339643544288,-0.5612690439895826,9.735270610181729,0.001777093497241587,0.00137863228855792,-0.0019998750689897
1681483702.8665311,0.7525400176789713,-0.42011861867977307,9.876846790693246,-0.001193089665702061,-0.0017319949568248573,-0.0020680427591774
1681483702.8765254,1.1004696555635685,-0.5416281907765014,9.647136086996404,-0.0006387889797579051,0.001969104180709916,-0.0006513244047287
1681483702.8865232,0.7940783156043282,-0.544506366159227,9.809534783192671,0.000655027398267649,-0.0010606741289955158,0.0021780494676444
1681483702.896594,0.8909166532633853,-0.5582614790351534,9.75425656878161,-0.0016762383443806141,0.0002443024969298983,-0.0020248247351024
1681483702.9065428,0.9312157099829484,-0.6163147348751116,9.717354472591724,-0.00041525447226354196,0.0010895621045943068,-0.0024558457120779
1681483702.9165266,0.8674465444887781,-0.4795794988577313,9.791619381302377,-0.00010306548170578293,-0.0006985809504496699,0.0010831820505213
1681483702.926589,0.9402872931796079,-0.541421646598139,9.741471164960567,-0.0005765629317526802,0.00024465908476505044,0.0005895715399187
1681483702.9365814,0.81682020131693,-0.6344384421098969,9.780367515529639,-0.0006339349500895198,-0.00047877509755759885,-0.0027829243376377
1681483702.9465263,1.0481142770591183,-0.530510387950675,9.692648278503826,0.0012339332888393294,0.0012322411411727194,0.0008510788280058
1681483702.956551,0.8698922082718271,-0.5045469425042034,9.781448518164524,-0.0008276376566930981,0.0012370703989246171,-0.0004103021969545
1681483702.9665694,1.015551051837374,-0.7007316898111936,9.641972810290984,0.0018471224933621021,0.00407685744360395,-0.001378518998948
1681483702.9766543,0.7409948959418954,-0.5018170340783253,9.853124641999338,0.000643470184740156,0.000725233385469568,-0.0014053145464036
1681483702.9865627,0.9076621863158717,-0.5894041148942029,9.735557129673477,0.001345338649205968,0.0007602455261655848,-0.0012436283327165
1681483702.9965196,0.995307187572987,-0.46649052050770556,9.722382022308562,-0.0005899838071879674,0.0027976002578658406,-0.0011780783574554
1681483703.0065987,0.7646467807016335,-0.5665339719176251,9.821878957264655,0.0005075015107894121,-0.000414716633293731,9.075202574099022e-05
1681483703.0165627,0.8875795864451599,-0.6844560776885712,9.7159653598347,0.0019715582076806036,0.00010009804015908931,-0.0019983898423138
1681483703.026579,0.8614143726220213,-0.34649038719344605,9.847427693351545,-9.039498096360074e-05,-0.0022240865664571296,0.0019124250643894
1681483703.036709,0.996690312341454,-0.5144728726044274,9.704803941237534,-0.001442317199086441,0.0002733557253758641,0.0010109187820002
1681483703.0465703,0.8442071055732486,-0.6126505864907907,9.75697932451586,-0.0010146448746325913,-0.00022211559701876523,-0.0002530786482143
1681483703.056605,0.9459093916632615,-0.6900156305066594,9.68493910853743,0.0017055607174626254,0.0008477719447791966,-0.0006494789890471
1681483703.0667784,0.8668337661784894,-0.4039354495490939,9.827434216800231,-0.0012091196157970364,8.745457940569036e-05,-0.0003588728181544
1681483703.0765762,0.9556500840676736,-0.651197162151962,9.696957453157337,0.0012853312949678388,0.0009904773877715926,0.000571663370962
1681483703.0865915,0.8650276623618867,-0.5786659799527071,9.767664418842795,0.0004709846342838846,0.0007952723434959183,-0.0016418679192188
1681483703.0967455,0.7802332250855836,-0.4244214785414095,9.867488233593003,-0.0016028532787032569,-0.0023403151843273406,-0.0003853348357129
1681483703.106616,1.0245960749115455,-0.5936359245073877,9.661866652889382,-0.0014449141363982374,0.0007568851278800602,-0.0012086252722415
1681483703.116688,0.9079322322015256,-0.5949574260015208,9.733813022467512,0.00017483076631377923,0.0005914930560243195,-0.0002392975188318
1681483703.1266298,0.8373550961462937,-0.5119224001466007,9.79696402286333,-0.0016311946192682535,6.212893594273587e-05,-0.0015796460251781
1681483703.136553,0.8453340863427189,-0.5006557020058242,9.798567361053435,-0.0009181554120807475,-0.002236760105113305,0.0016412268992521
1681483703.1465335,0.8949465384536671,-0.6841766248320625,9.70965456823415,0.0007511566416217898,-0.0017587821436269948,-0.0001815456239033
1681483703.1565504,0.9881592204487045,-0.4607399900447151,9.73441466064955,-0.0004886301266505853,-0.00031115492575231233,0.0012701939663624
1681483703.1666095,0.9237312200247789,-0.629227383588074,9.712593706284878,0.0003200920599188698,0.0007226313434057673,-0.0005887397605452
1681483703.1765263,0.9542220892221109,-0.6087894467127238,9.699344152381338,0.0017957110513080851,0.0016606477565961643,-0.0003424903884056
1681483703.1866136,0.9560881749496802,-0.6028127467242056,9.699493643676163,0.003442659967684429,0.002736888726982988,0.0008693612140145
1681483703.1965828,0.8009588632613384,-0.4133563155244066,9.858148662459275,-0.0004905211035076645,0.0012404492004717738,-0.0009124591055784
1681483703.20655,0.8514449696823762,-0.6640394386860263,9.752836552725789,0.0018996430720394288,2.601463097457047e-05,-0.0006047380197319
1681483703.2165504,0.9377894275901739,-0.48355563764974946,9.755358203855929,0.0009049992855369551,0.0004238518078864594,0.0003694195725497
1681483703.226675,0.8651012297841844,-0.4040002425917713,9.819128967006826,-0.0015570582029293773,-0.0007041740247661341,0.0018382901285317
1681483703.2367551,0.9663048777949882,-0.5879016831657712,9.717166477204282,-0.0024455494100374784,0.0018778290755042577,-0.0014555952552232
1681483703.246584,0.8294743689401675,-0.6366616158531151,9.75988823369943,0.0002981537146228794,-0.00015692942846889853,0.0001481273171033
1681483703.2565875,0.8805280568153778,-0.4726352857589653,9.790137465625502,-0.0019362784731771802,-5.4122584186945815e-05,-0.0010205046314272
1681483703.266766,0.8524323222105559,-0.5601918334764271,9.776959821682771,-0.0018468683821746001,-0.001055851627620606,-0.001068183457804
1681483703.2765903,0.9699255356226941,-0.6030698094857712,9.698204303114277,-0.00012396394842466817,-4.217658982650252e-05,-8.023006780927462e-05
1681483703.286605,0.87662362646203,-0.5824086867312934,9.746727196037613,3.775096784568871e-05,-0.0002858051403628233,-0.0001174705143544
1681483703.2966814,0.8166725169544221,-0.6254390608999015,9.765994159903862,0.00024634721749530085,-0.0011474564912522778,-0.0023511720396104
1681483703.3065774,1.0164153413301293,-0.5465377143424504,9.689213545753654,0.0011698692932203205,0.0006413910705528743,-0.0005164786748114
1681483703.316577,0.8614321665518875,-0.43283271978273996,9.811370780851501,-0.0014247938869703747,-0.0001699556362880145,-0.000532482289103
1681483703.32664,0.9059518079431359,-0.5631631124694927,9.741439105962176,-0.001313765909786509,-4.105808544703684e-05,-0.0005592966958407
1681483703.3366318,0.9067455894861911,-0.5552979435724646,9.740524819776223,-0.0016617276832203588,0.0003702008165479839,-0.0010961180127683
1681483703.3465862,0.7803338772990619,-0.6625070745727707,9.789826546708559,0.00019793297136998095,-0.0017964149153681121,-0.0017886506434056
1681483703.356667,1.038058677327259,-0.47726069451716857,9.70317416357602,0.0003003702905667439,9.566260553251571e-05,0.0011089018330917
1681483703.3665502,1.0508571299401646,-0.42473446763833267,9.804633939462038,-0.0019482022732882414,0.0018614135065754857,0.0039442381781067
1681483703.3765707,1.1907328494427418,-0.9386909784116214,9.493614013920544,0.0019463600478112188,0.011354958294392935,0.0102913172409411
1681483703.386568,0.07982390645292568,-0.6556032441309865,9.834321503786848,0.007152100784860973,0.000543681171710858,0.0172478787094827
1681483703.396647,0.723911562184168,-0.18637147621046177,9.863523880278262,0.0028532793719002166,-0.0008268498680760922,0.01578022329663
1681483703.406621,0.823596850217589,0.0643322495660646,9.849133867686803,-0.005430938208770457,-7.38672814284539e-05,0.0140267142519828
1681483703.4166164,0.3252754166649267,-0.844288377034774,9.93781829684647,-0.004553189507278636,-0.008143213939463774,0.0072981377557393
1681483703.426757,0.8976345074446841,-0.4218159482062497,9.712744866059198,-0.0021187727711677205,-0.010360131927094375,0.0039687761996414
1681483703.436617,1.6585306797981518,-0.0024432776726881693,9.675929328906134,-0.008955456754512132,0.0006182443520068382,-0.0006160622037473
1681483703.446882,0.8111909240167116,-1.2015141853391436,9.704884013481646,-0.0024843543870222947,0.0027207704318030347,-0.0121121930464628
1681483703.4567063,0.7018629921916404,-1.0278058274808113,9.683257066750341,0.0006296544827644694,0.0004170980572457773,-0.0168812957167152
1681483703.4666271,0.92004499520663,-0.25865772015545874,9.766873730156716,-0.0029804006386707346,-0.0024184289805215297,-0.0109804442658547
1681483703.476704,1.0649527670163048,-0.25200623245683246,9.840667691663876,-0.007986541842292492,-0.003932093895147661,0.0009353438468192
1681483703.48672,1.0930486454060069,-0.9791961893637071,9.824511506391184,-0.004827106321312015,-0.0021979994026689043,0.0040697434410926
1681483703.496765,1.124390385185048,-1.0076992043179887,9.659707326836882,0.0038904158718691094,-0.002085842252541094,0.0077652621508118
1681483703.5066,1.3077865145113394,-0.5137544613352365,9.54021812646693,0.0034139388416625544,0.0027629451937615933,0.0087260182440754
1681483703.5166068,1.0100826956853675,-0.4279915508661,9.598075010904639,0.0021195396211332426,0.0037561926281751297,0.0112557539210196
1681483703.5266514,0.5959319604411634,-0.3239119826658653,9.951688856237586,-0.00034515928255600197,-0.004771359403388148,0.0136564287782188
1681483703.5366018,0.934478878186173,-0.24224051419153714,9.862268757586097,-0.0017078872942269485,-0.009389344399377251,0.0159034875646706
1681483703.5465732,1.332335227930985,-0.1722501458151866,9.848120506016286,-0.006107824599912598,-0.008767930621430288,0.0174133710057016
1681483703.5566962,1.2476439130357855,-0.6308482193233494,9.671263115733739,-0.0034643365366077007,-0.008573075557264657,0.0189772553235765
1681483703.5666032,1.3298597545205204,-0.7817132786203352,9.54608869161517,0.000406202176758265,-0.005650551065732644,0.0174994270742412
1681483703.5766363,1.2231922704514684,-0.6102953808964267,9.677115054092797,0.0013043535330989555,-0.005580561886400626,0.0169719175860759
1681483703.5865777,1.0168754442118726,-0.7002163696797304,9.79731088573004,-0.0008380360857312611,-0.006723562072124475,0.0123782341793652
1681483703.5966196,1.1695130804764733,-1.0133985913668309,9.625416868955895,0.00402902590517667,-0.0034510997920412317,0.0109284052119132
1681483703.606626,1.072725316641761,-0.9334613697612946,9.77353508451398,0.0069593317243168695,-0.0037722733908148497,0.0112081642687794
1681483703.61657,1.3260658884437895,-0.7544288849590323,9.671871808750417,0.0069670758696721196,0.0022949785327611976,0.0157798964024063
1681483703.6266108,1.2612522844431093,-0.8512894521672475,9.57487740091523,0.009964192109013253,0.008943151194068967,0.0297556340188261
1681483703.636592,0.7106508708321749,-0.9775808848647148,9.547336284582858,0.015391817432627158,0.011640352141307124,0.0422054219484802
1681483703.6466906,0.035722455142157584,-0.2719027320654828,9.622046374701204,0.012352811571571557,0.006269287579916278,0.0505825567484375
1681483703.6566586,-0.19290756723692185,-0.0013823720610565177,9.826099619401443,0.008209446123695044,-0.0032863216701563276,0.0587822969496723
1681483703.6666627,-0.6858696166121072,0.4441350172906618,10.190313983963863,-0.0037571575081813097,-0.02142755186233846,0.0595699350774761
1681483703.6766384,-0.18534621934344025,0.18889071093427565,10.085957027831478,-0.011289624222263015,-0.03264138110224003,0.0520531895995613
1681483703.6869054,0.2170928686466433,0.22563291321297915,9.93344161252257,-0.017649698546295674,-0.03832513858023186,0.0455058540642734
1681483703.6967285,0.5950268609253253,0.01805510752833048,10.020101076536301,-0.024193559396513187,-0.04005003985895419,0.0392648379743572
1681483703.706665,1.0485253099725855,-0.46276166141289915,9.544084868016995,-0.02116107210216973,-0.03248272483145952,0.0355580251157757
1681483703.71663,0.824678954346977,-0.2401678279807328,9.931406158560138,-0.022573016561074175,-0.032546360261769144,0.0388188871980186
1681483703.7269297,0.9284244898264216,-0.4206284661590881,9.750552340883596,-0.022166832602149668,-0.028582164155962177,0.0432001452386852
1681483703.7367165,0.9498301797836681,-0.5623944365212358,9.67305482378415,-0.021715406776849046,-0.02464749271836236,0.0573941420257564
1681483703.7465718,0.9011633833131059,-0.8716291184220701,9.693667133408866,-0.016765811829610854,-0.02293010213011928,0.0711976278067108
1681483703.756652,1.0161904639770032,-0.8254286791912118,9.549595066805594,-0.011560322001440415,-0.019821549629644455,0.0871831539512154
1681483703.766664,1.1682863850893157,-0.7173403313008633,9.58986813737576,-0.010698182206973344,-0.01615585703156679,0.1038445669651504
1681483703.7766318,1.2738891197356437,-1.0237615920090866,9.544949993666146,-0.0016232051715464875,-0.012126665134243271,0.1145089853048798
1681483703.7866929,1.3749937497113291,-1.2788596111929278,9.564920772877857,0.007923059912273243,-0.006496610436931558,0.1219319838524338
1681483703.7966244,1.7897397306345084,-0.4337316398253591,9.407166554537577,0.012660736506034312,0.0024504909837495966,0.1280670452356812
1681483703.8066676,1.9171233008855293,-0.058696013503372085,9.666868174496463,0.011055040668218405,0.010444705918017355,0.1387482422829147
1681483703.8167355,1.5602345962146913,-0.17981625296615256,9.666838704184409,0.00862404094353856,0.015385799721813595,0.1399244356394287
1681483703.826696,1.53485908659429,-0.6074346173870707,9.618173790575359,0.013595768422012204,0.020042729398991984,0.1366863239050385
1681483703.8366551,1.28626369803111,-0.2245274744104494,9.764773145608224,0.012284410543562798,0.020323614670336294,0.1368896651506897
1681483703.8466835,1.2244662612779789,-0.30682644116925006,9.779818736751718,0.011368286347298567,0.019925443898991674,0.1335895496845718
1681483703.85666,1.0062199948159773,-0.11063839840261963,9.806619134495747,0.007456664421371713,0.016437367844238375,0.1328105914831635
1681483703.866577,1.3076080959830718,-0.1869423100508005,9.73130447614898,0.003926004460810064,0.016706195912349685,0.1350536036730286
1681483703.876707,1.0467943491551313,-0.6116418183813601,9.779392233078728,0.0033600421610739273,0.01491346737224739,0.1355814028025146
1681483703.8866413,1.1983859181023924,-0.8685024314602954,9.656225265724029,0.007462939240181002,0.01589849530598897,0.1387149828911301
1681483703.8966556,1.1921526083701655,-0.28447140467104176,9.716174168446889,0.005272026271280026,0.01656092620101501,0.1455995130777832
1681483703.9066217,1.2099266117030232,-0.35041462667355266,9.717252936556099,0.002911409552666854,0.017666893433943575,0.1483215379953857
1681483703.9166622,1.392201604476742,-0.3754919552980082,9.802370401118543,-0.0007696253642033116,0.021716495875201948,0.1542147386312958
1681483703.9267778,0.9888910975853387,-0.6992606112576355,9.812330415883011,0.00033368226617265094,0.02173753737988849,0.1559670406818863
1681483703.9366522,1.2049426205548126,-0.437555544112708,9.738700668493063,0.0008597551496194685,0.022849251082611936,0.1635455328464981
1681483703.9466274,1.1406757574360546,-0.4341028733279267,9.707180667749261,0.00029786868337265877,0.023857981835971695,0.1675976652145859
1681483703.9566977,1.2718982789092264,-0.479761355229545,9.626095262586215,0.003532584418919005,0.025674589118083554,0.1731335658073898
1681483703.966674,1.4659390099656193,-0.20805070457735242,9.591242206977384,0.00038739563425641503,0.032208702702664904,0.1752400386572357
1681483703.9767044,0.9508489964302885,-0.5730470268921094,9.878163144249655,0.001955973205961438,0.03160576863021821,0.1742327201605316
1681483703.9867651,0.8232587577485396,0.08075273250508751,9.848199749812654,-0.0042258025596343465,0.028775600757795772,0.1728056061506744
1681483703.9966514,1.3115042065727727,-0.2555782266169554,9.704375211060205,-0.0040347027719783764,0.032782042947487426,0.1736809599638458
1681483704.006628,0.8030978686156274,-0.36397018569491685,9.958409736360654,-0.01025286095212463,0.03260875201939334,0.1724318999290939
1681483704.016755,0.6297418082288688,-0.623086137230073,9.940611883323294,-0.008181591934331177,0.02552864027511863,0.1721156227827545
1681483704.0267434,1.0890947026334257,-0.41810340123954937,9.705551888065123,-0.01045425722000122,0.02650052709301155,0.1725434649229523
1681483704.036688,1.1938321029769734,-0.6326761890768156,9.473432025403863,-0.008854430402018824,0.03247903367148091,0.1774503129959579
1681483704.0466175,0.5035469570688815,-0.9649300574032925,9.892000274635851,-0.0050580817783503285,0.025180427052983373,0.1774700868368622
1681483704.0566883,1.142129851931094,-0.8622990600806696,9.720550204717133,-0.0024106536038831106,0.029310624316542896,0.1758106190205093
1681483704.066632,1.2177560830889271,-0.8499756499298654,9.831504788058703,-0.002078207717493175,0.03596059620704202,0.1742970335722443
1681483704.0766816,0.7870835244357032,-0.49430562392887173,9.854745620211512,-0.003872088914259496,0.034256036441976084,0.1759907293558594
1681483704.0867856,0.8918614066145307,-0.8737380033165898,9.591512106271331,-0.0012526819182616705,0.03652568023244395,0.1702357071876999
1681483704.096675,0.5808503534788103,-0.49837804760435317,9.557883550741291,-0.0013052725617804953,0.034537801859688654,0.1692288506269928
1681483704.1067011,1.440574559901094,-0.40100968488547717,9.531491719892152,-0.006827948985916291,0.0404277282116905,0.1733969140291687
1681483704.116599,1.0997151181226834,-1.507515368186641,9.057995921411603,0.0037462232507475273,0.053594381323942876,0.1796984958887573
1681483704.126787,-1.1146598818194813,-2.4237371852118392,9.613026033274181,0.01436741060695168,0.03250657675925299,0.1814740884542938
1681483704.1366343,1.2888929399038918,-2.157094415019774,9.555946276096288,0.029597791473717085,0.035338165626823584,0.1854842889547821
1681483704.1466725,1.5528955488152594,-1.9064352111894258,9.379265200489538,0.038752966252419425,0.054267261645383376,0.1901891666889664
1681483704.1566508,0.792139972866986,-1.3960926923715051,10.242830915487168,0.04318527048090627,0.05903100700252711,0.1699495154858109
1681483704.1666408,0.4816860571083146,-1.3484500681232667,9.708149943996144,0.04845804787505376,0.06688680141703053,0.1498223233461853
1681483704.1766608,-0.7449435820707269,-0.6860614186200027,10.337272501375168,0.03988857563603418,0.05451612895192412,0.1253655690193649
1681483704.186797,-1.2083135406756425,-0.35471023514305566,10.355926205615157,0.02941510855465574,0.03193053034733396,0.1024650100112434
1681483704.1966815,-0.8096682761247909,-0.2548372225533883,10.219615317519528,0.020678674324067486,0.015374002050522856,0.0835691902280327
1681483704.2066448,0.03939727791728706,0.01724566065356669,10.072841396712143,0.007879349697382274,0.0063087256021218474,0.0741610440850731
1681483704.2167604,0.4577516307427354,-0.7610374706588006,9.64427023797846,0.005751193785013,0.004557784620150574,0.0694489020348068
1681483704.227504,1.0293489845998944,-1.1203042100012643,9.57892139690674,0.014432973302491063,0.007795585513290791,0.0773939255118843
1681483704.2368467,1.1679840661738885,-1.0629607612374568,9.658885885933685,0.022736799397097225,0.010821984957946115,0.0802857417107101
1681483704.2468474,1.8090715585897297,-0.5450276822308237,9.549326864870746,0.029139071718432646,0.02290927908373626,0.0930560815573212
1681483704.2568574,1.3217993430506332,-0.34427861257060477,9.62081200301202,0.02945766092917683,0.02973199078596066,0.0961325901985641
1681483704.266912,1.1771074138237048,0.06953009914035553,9.631294145974426,0.025320552131283442,0.03280180155293909,0.1132222551346298
1681483704.276735,0.6563310104753524,-0.26157627877990175,9.897346278962385,0.02582083944353642,0.026691050879070075,0.1239106345415588
1681483704.2869575,0.7071815566154795,-0.02102323623055461,9.973106661713105,0.021997120020189033,0.020186955817541645,0.1321019220591064
1681483704.296667,1.839694443298887,0.11735845604237065,9.415310366675488,0.018016232815696847,0.031097845563620302,0.145567058348703
1681483704.3067567,0.9916758132930245,-0.5749310687680805,9.527679176311185,0.02127138871203468,0.03214038414207754,0.1588560778141495
1681483704.3166964,0.4995623635899634,-0.5139448924363001,9.935493937555606,0.023818577193422237,0.020626535592936056,0.1688136297703262
1681483704.3267453,1.9258491558053656,-0.3619997806484053,9.38681549681253,0.024302091315568868,0.03279265326267902,0.1753098953009125
1681483704.3442678,1.1072652988155847,-0.7795681727721708,9.800755647632263,0.02911080238847626,0.042550065582081,0.1820248949766632
1681483704.346698,-1.4740662909701119,-2.612865808977104,10.26025922284341,0.03463069522551397,0.03419596027308958,0.1727553445339676
1681483704.3566964,1.2392111057963184,-0.31233976292026483,9.703555617940022,0.031939364216680664,0.03934338417718982,0.1710256773472305
1681483704.3666973,0.5728409730443795,-0.5440009909395441,9.801410054743414,0.029305775799855455,0.04005596561817998,0.1637881833553787
1681483704.3766816,0.46171599583227546,-0.721510562332632,9.789474837847294,0.027548433625547698,0.0364731630103563,0.1577102679253098
1681483704.3867924,0.3898708903289344,-0.9995394768304269,9.674587990829894,0.03112097315206053,0.03257479775408801,0.1484850037336822
1681483704.3966844,0.9630573093120329,-0.16223241121491125,9.875198824381405,0.021850068515909083,0.03329572485908363,0.1498416352510925
1681483704.406617,1.272934246771813,-0.6930355297075087,9.730227380933055,0.022817469859352818,0.0419705613497788,0.1458826798439499
1681483704.4167137,0.5320733217010502,-1.1632662199482688,10.10311924422296,0.029456619626650776,0.04029261508466825,0.1381998050451752
1681483704.4268138,0.8619869039151223,-0.7358484863837556,9.687312059751475,0.03012892683979104,0.045777063751916716,0.1322142321110245
1681483704.4367585,0.6161419518475527,-0.3621416755658481,9.751666031793498,0.025569403496403215,0.04890463029876772,0.1269012528896805
1681483704.4467466,-0.27752501088715936,-0.7694514695045499,9.913419565555149,0.024808270629033104,0.03914539960244136,0.1245704728603836
1681483704.4567213,0.07470454864800954,-0.5622908912711072,9.859746085934916,0.02235644510077843,0.03269281031973304,0.1206289071083542
1681483704.4666824,0.4068591593201863,-0.4114548002324798,9.826978886581216,0.02130866422044973,0.03134284801686184,0.1218298363924499
1681483704.4767509,0.158541964524721,-0.8463073248941841,9.84624807553263,0.02188605103231258,0.027703838836492377,0.1179164189339157
1681483704.486812,0.21865710797728374,-0.389360270055732,9.859718490508733,0.01969298107615601,0.02241647634229461,0.1173717516899582
1681483704.4967377,0.743225020338445,-0.7162760463253502,9.698218163839204,0.021921277274111996,0.02493501691562682,0.1181182849646088
1681483704.5067832,0.5822522930753564,-0.44715993053420783,9.710598464092904,0.017776048021011643,0.027047524911896527,0.1198782834649559
1681483704.5167117,0.24178926640268356,-0.968672350291386,9.892463014365722,0.023594264273228152,0.022789922832734993,0.1198362919927116
1681483704.5267642,0.16954708767113508,-0.2001256935828686,9.796843655623245,0.02081345361896843,0.015315761219645412,0.1210210386157509
1681483704.536672,0.9698042414868635,0.11487279548313022,9.91151261518465,0.011269892163010673,0.020259181219863344,0.1215416851878639
1681483704.5466816,0.599500809480154,-0.6222335929626298,9.856559815663019,0.014483337489753162,0.01897939792995556,0.1252556804061409
1681483704.556752,0.6717200762635611,-0.8099010254117031,9.873923613709216,0.018262383449725597,0.019083976856671517,0.1229729491711136
1681483704.5667255,0.8109149020239248,-0.34269894783008936,9.833613151635163,0.01772601486537799,0.020270979582333593,0.122449337267923
1681483704.576697,0.7798440491117253,-0.429019718460765,9.721060280149556,0.015245034458570108,0.023930619956954894,0.1209080505609985
1681483704.5868447,0.7463383594612713,-0.32682829464848795,9.792185956529538,0.014570048713316148,0.02548374757060838,0.1215002748609062
1681483704.5967207,0.5699161337656854,-0.5294227666096618,9.7349279999605,0.015533308000869772,0.024857482261400988,0.1222135636449333
1681483704.6067417,0.447396517787384,-0.3709732940781888,9.778759641053087,0.014495793005581561,0.022486160869928634,0.1227843526244636
1681483704.6167634,0.23158188153711554,-0.08367236249825309,9.930081875253679,0.009590485430004665,0.016836806582907128,0.1218369293451782
1681483704.6266968,0.509244583848616,-0.2073980083593072,9.965390612432428,0.006590411680281801,0.013558827212669206,0.1204117152333733
1681483704.6367812,0.6884988165136133,-0.10901961115623866,9.941352696004593,1.495549768956088e-05,0.014590706794880226,0.118392958068895
1681483704.6467853,0.4741789854941645,-0.5404254763074119,9.784071453964511,0.00458858887936855,0.010528426765358586,0.1199139344931122
1681483704.6566644,0.8938047757700743,-0.26063874602010034,9.611189725521758,-0.00028799616769160745,0.015138660803618609,0.1207699987531181
1681483704.6667309,0.7792142446854639,-0.5122133305134304,9.551705878230043,0.0035395356619545948,0.016429985100284754,0.128546549701738
1681483704.676764,0.47609451676073783,-0.8341963821455165,9.725497562644067,0.00900284733170562,0.013538950808638359,0.1279921967030045
1681483704.6867518,0.9990652898589653,0.07597253825926445,9.879017947908977,0.0023598198082495814,0.016518623389809917,0.1325871187687393
1681483704.6967552,0.8940471713866341,-0.4913070709722072,9.748859482190491,0.0017457973972047724,0.02118424238548184,0.1336959737778183
1681483704.706845,0.4866075561366742,-0.2670976112354843,9.937801953704042,0.0003096700938429773,0.016472580812044998,0.1338547158480164
1681483704.7167091,1.2222343347298767,-0.3091586781760826,9.639773249937058,-0.002322812519477857,0.023907068619957277,0.1398136753082748
1681483704.7268026,0.38157649922085335,-0.5359110905863327,9.931630922051863,-0.00020636073115936758,0.019830204077823092,0.141881583952951
1681483704.7370584,0.6258065008157251,-0.4934317145429354,9.889052781018949,0.0021668579896879127,0.017106501626544975,0.1445403087378021
1681483704.7466586,0.7416891397100622,-0.3384935639517731,9.722850402783827,-0.0008050484895180865,0.019418818681490715,0.1392845648766037
1681483704.756773,0.7915195542202556,-0.21632239030954736,9.74395748553457,-0.00441426066623855,0.01977369329647087,0.1403714555740829
1681483704.7667649,1.2484631459125708,-0.3625970484353615,9.421628701017058,-0.00563105895734103,0.028711603992074515,0.1454327839851852
1681483704.7767396,0.35928445438304646,-0.9646541323593917,9.844928417020718,0.0012624184505904198,0.024059300945865825,0.1449023324490067
1681483704.7867289,0.5442891299208698,-0.4357916965829056,9.706849014846755,0.0009433948177230376,0.022661558140804144,0.1427005666733261
1681483704.796709,1.091619887795774,-0.08429107222796058,9.673016132554967,-0.004484749788452192,0.030870800192066124,0.1463440495968338
1681483704.806704,-0.07068667253133978,-0.6351873660733593,10.13000880672989,-0.0067651765976217216,0.02258501836004185,0.1399999994278427
1681483704.8167088,0.3327968567675503,-0.7083143580085655,9.82500792402355,-0.007252173336315833,0.01864242499823179,0.1329111743212219
1681483704.8267329,0.35827027560518887,-0.4766550411372728,9.807476387975866,-0.009806853227466113,0.0178162661776019,0.1330266285181519
1681483704.8367453,-0.06179079313265774,-0.8765834482486865,10.047995261827936,-0.010744809746951564,0.008390716714673166,0.1264558497310158
1681483704.846867,1.0224234412030127,-0.9782388639376797,9.480506647938473,-0.004714386040054508,0.014479814704704002,0.1267296660185333
1681483704.8567855,0.5841891347910336,-0.7390181295917108,9.657517910995264,-0.0041979169789148766,0.018539890762219426,0.1256435948849197
1681483704.866825,0.36409519424253506,-1.0852542611989846,9.749611511727528,-0.0002392563014716277,0.016838093663635003,0.1199179727077957
1681483704.8767135,0.2386084588314769,-0.8596016576549219,9.616649272943992,0.0017813103963259446,0.015202903337971214,0.1240091312170502
1681483704.8867793,0.10193168820610207,-0.9779166573841115,9.848994095258615,0.005014689478680469,0.009463343185333836,0.1217479694128509
1681483704.89669,0.7308183839083178,-0.6191473373205922,9.731780090118587,0.0031429992264939417,0.012132566459492683,0.1221924710512634
1681483704.9067652,0.8889800137675649,-0.5982830766993873,9.782248751296345,0.005805649103741355,0.017384486856540714,0.1266883301973816
1681483704.9167187,0.607008523028398,-0.7431810746886538,9.805733661118342,0.00633968230440842,0.021145815167823108,0.121996416473436
1681483704.9267995,0.23531736335849396,-0.4210135513755703,9.865124279740986,0.005810660506535215,0.018980412409576538,0.1216078910470482
1681483704.9367952,-0.15153438493483673,-0.4102384638362249,9.948008977160198,0.0031309788145890746,0.011718075727825883,0.116596190953302
1681483704.9467063,0.02597733094551795,-0.2724849408101993,9.854630866421306,-0.0002127063567989755,0.004453863463062264,0.1147115963936325
1681483704.956735,0.28528915716644965,-0.36447426040713854,9.669492163271336,-0.003174396605807373,0.0026999344490585726,0.1147906321526047
1681483704.9668412,0.09211034329853517,-0.8918670354557666,9.957912410101377,-0.0023164400907455997,-0.003983668531721907,0.1133094343781944
1681483704.97673,0.881601983664172,-0.8157479032161238,9.763507603444726,0.0036873944746660934,-0.0020629090165323214,0.1177838656545158
1681483704.9869242,1.110380949446321,-0.7782411138622031,9.652192675547111,0.008192720275872936,0.004870976720014453,0.1202641713858124
1681483704.996791,1.1270412520105444,-0.1761755627968028,9.65452977808659,0.0053682025865241486,0.014092871342068712,0.1247956666589256
1681483705.0067294,1.0602481948049183,-0.43613298594150934,9.524920912256935,0.007313855972430098,0.02149285462121543,0.1278053808451172
1681483705.0167542,0.23697198797506938,-0.3745200639497361,9.810939118833048,0.0032049765944112837,0.02241868266523441,0.1269916582346436
1681483705.026784,-0.30952914003199905,-0.19222728714492557,10.125297153119266,0.00022128108532448027,0.007996806609664484,0.1277266878128525
1681483705.036843,0.11701512803813176,-0.908541874927202,9.502674895498682,0.004268040280920543,0.0038378636776764392,0.1289522040129181
1681483705.046743,0.019938183707493545,-0.30225351681375956,9.897877504535336,0.0021378138070650816,-0.005459406947805123,0.1289049673319336
1681483705.0567698,0.7878256331855232,-0.4699851774978289,9.816195632998168,-0.001297171498802576,-0.0020549484342647843,0.1330027717590805
1681483705.066831,0.853310250356944,-0.4680029836620385,10.009064136767224,-0.00043363697443338966,2.531052955209917e-05,0.1363324958324905
1681483705.07675,0.9674933098145929,-1.0139081513583286,9.851320474771477,0.00774923246015804,0.005718971290063498,0.1309482443571564
1681483705.0867338,0.7306356746974569,-0.07092527730137346,9.5994819301409,0.0014702975128214563,0.012234010057559147,0.1296031016350265
1681483705.096717,0.037386550468721684,-0.32563228845501,9.74286046905847,0.00013197584874817636,0.0064675076499356365,0.1304059016943451
1681483705.1067286,-0.3802024706548044,-0.2846373860963097,9.875997015334896,-0.004082188494688833,-0.007261009930232089,0.1321206826210495
1681483705.1168091,0.6052997756857297,-0.34916034249008737,9.708694714305334,-0.005777435230321079,-0.007498951048391562,0.1401210862637039
1681483705.1267383,1.0231075937421765,-0.23759981486308504,9.838203254101835,-0.00796430407743101,-0.004675513699423973,0.141068978929567
1681483705.1369038,1.8938260075789364,-0.8254054877683717,9.534950664316128,-0.0030098331136884883,0.016491468538484134,0.1513429868460175
1681483705.146748,0.09395083552315522,-0.686628941443565,10.144106345411961,-0.00033836510481930604,0.011788039580609115,0.1496871996164795
1681483705.156804,0.06450614992904422,-0.357886572094196,10.106999974114732,-0.004366580031883907,0.0047027116112106524,0.141725151562738
1681483705.1668663,0.2908098351713963,0.021569508725314684,9.661065810514913,-0.012510472849555795,0.004291545542900847,0.1417453575373169
1681483705.1767778,-0.5748423219513197,-0.2568387929883298,10.062092213196498,-0.02023731001728954,-0.010717839539881042,0.138169198060083
1681483705.18687,0.07661315365155086,-0.7400999816746028,9.87442550392171,-0.021065654528409687,-0.020493581832484897,0.1390999990940567
1681483705.1968062,1.0358446858563743,-1.0041031150758093,9.764414216270962,-0.014248884622116901,-0.017318363780410278,0.1435073602438446
1681483705.2068195,1.3326330746071655,-0.9354976498273642,9.628485561382242,-0.008229440689704126,-0.00756408820228025,0.1453929829836365
1681483705.216872,1.6908927806673861,-0.7381193592526414,9.335891464696326,-0.0068939228672096654,0.009513019064536736,0.1507205504417892
1681483705.2269385,0.9892292299042569,-0.8156837379034475,9.560639500891273,-0.004072228679296659,0.01712405912755133,0.1532709884882446
1681483705.236802,0.2765111925806075,-1.1755685152157878,9.699562605305843,0.0034317898778263864,0.014729471749504354,0.1532116520643707
1681483705.246746,-0.016581632552873007,-0.47978743539396823,9.925903149172377,0.0012305869114265081,0.00742519050000181,0.1498607832432266
1681483705.2567763,0.14190909329064663,-0.2837449790755884,9.924453210795823,-0.0061759265744703385,0.0022659045530861554,0.144277020120668
1681483705.2668464,0.5488315951650461,-0.5549137408655549,9.759421195552216,-0.006912520083427733,0.0027073690566124927,0.1450711477041718
1681483705.2768495,0.0142280191505463,-0.8963430811061058,10.026668889672651,-0.009034812381830624,-0.0034333117379987095,0.1386429208755966
1681483705.2869482,0.7387633102710071,-1.2805628731500827,9.660845521432465,-0.00023412951157803595,-0.002499745478752183,0.140195964598703
1681483705.2967925,1.0355487044037395,-0.9765042717023573,9.611902992291162,0.005150726873858231,0.0041845075418666935,0.1430353063583847
1681483705.3067503,1.0318238902771568,-0.4495147876817612,9.640438760390202,0.0032579999685467577,0.012270660482054165,0.1441201555967804
1681483705.3167796,0.7758783704630211,-0.6931394163086124,9.667482989436982,0.005156291893552832,0.016680900730610973,0.1449457246304031
1681483705.3267734,0.3290843091331303,-0.6988000942440024,9.703662155022657,0.006969733193171893,0.015533672593002553,0.1445181209087845
1681483705.3369806,0.06968227699008145,-0.4430916509301288,9.843405441484705,0.005206416933331809,0.008660728036648226,0.1496920573950287
1681483705.346768,0.008994575657848225,-0.4865146263050375,9.934792885147765,-0.00010642996904374302,0.0033693977459161835,0.1444390851498123
1681483705.356726,0.2546600270061691,-0.42836689715976556,9.955585992614582,-0.0025501605862252035,-0.002546064840992867,0.1472847897053238
1681483705.3667629,0.5934575643572086,-0.6531259999147347,9.88649018988507,-0.004850644220780466,-0.0016269380155357234,0.1447076189756866
1681483705.376754,0.7397494303753601,-1.0357354330492223,9.783425613067495,-0.0012389235113460333,0.0020293267953173603,0.1450171756983276
1681483705.386902,0.8598848337632788,-1.09239526906313,9.70802395116041,0.003790470964279491,0.005820523840202956,0.1435886013746735
1681483705.3967364,0.7653491139147948,-1.1027910251985633,9.507047994160299,0.011306499001711753,0.011732872854949158,0.1407334643841263
1681483705.4067328,0.471379656052039,-0.41992425729618965,9.819792663095278,0.00856549717783081,0.011486476743758628,0.1382703918457504
1681483705.416818,0.413822013446345,-0.7237268045361239,9.661905286112598,0.007736487881112683,0.013225296631559741,0.1331679064274307
1681483705.4269147,0.00018602602950449327,-0.721437109420615,9.83291745363561,0.0068584851159049455,0.00788729416804817,0.1283763039350983
1681483705.4368567,0.29539840507115556,-0.46490706690544165,9.860190746988705,0.006067480099507651,0.003384069886636378,0.1309158045292374
1681483705.4467869,0.8374786221013968,-0.49118066451153997,9.780068658372027,0.0018893360594855477,0.010053304459884478,0.1301289934158798
1681483705.4567516,0.5347144617853807,-0.9062343068838361,9.78075938532777,0.006042356199533367,0.009730320704225097,0.1274849164724823
1681483705.4667838,1.0506430166993637,-0.6244586000891114,9.467106495984412,0.0068681343061964715,0.01920977761406503,0.135621635937738
1681483705.476817,0.004691958875284217,-1.1761920048456,9.650165123547225,0.012970787758738186,0.012278406919952339,0.1403581935406204
1681483705.4869184,0.5711797511903196,-0.9858553291307239,9.589227876126236,0.015439831303604929,0.012868245203996665,0.1448581505060669
1681483705.4968228,0.43877892250677797,-0.7117893822316534,9.88864821360894,0.01641996572375918,0.012404948351611227,0.1484971928835388
1681483705.5067265,0.4504998465494549,-0.518397364655848,10.189685299909078,0.013728647808857039,0.01086311526725685,0.1439276027918335
1681483705.5167768,0.8718357267967861,-0.3292524786426429,10.032960849654215,0.011283546302805723,0.016742151449111946,0.1418321120977875
1681483705.526879,0.5513734737399004,-0.3730475233734893,9.828461529299794,0.004000256372549067,0.023064614723078487,0.1341193753719803
1681483705.5368156,-0.4202861079902891,-0.9142770349848207,9.518598409463621,0.00756127963402134,0.014426590529178154,0.1321626591921326
1681483705.5467656,-0.8576724514262184,-1.1721260702908554,9.426008311524795,0.007423042105239574,-0.0005188853387083608,0.1276900905609604
1681483705.5567815,-0.4782831506400363,-1.7409636583109278,9.271354882285676,0.01612213465436996,-0.014382369796761873,0.130958362245607
1681483705.5667648,1.398162065413305,-1.4918350253251909,9.445344078468066,0.023392468018909866,-0.007716769132620793,0.1456640053034302
1681483705.576751,2.4331862411794716,-1.0736251326355328,10.01609614536629,0.03510739665829829,0.019362008306434315,0.1434441346168991
1681483705.58683,2.0002546153321603,-0.3326281072516803,10.36190491206199,0.032222113535177295,0.04644380686283542,0.1267380553722855
1681483705.5968783,0.20016525035786145,-0.4689607586589596,9.969675717286009,0.031362212135201455,0.052093557495935326,0.1093998390675064
1681483705.60681,-1.7460714281718768,-0.413763181025973,10.041829221127154,0.025331820395374773,0.02676290856862657,0.0939959946513649
1681483705.6168113,-1.8196557434297358,0.6609993916826317,9.728671466858797,0.012005819518525352,-0.00605669264447019,0.0919060546398636
1681483705.6269512,-0.33051848675169354,1.1337363040368522,9.848226863100331,-0.010701147388615821,-0.021476677065553604,0.1004108104348656
1681483705.6368198,0.4744504381175037,-0.3539678818552636,10.057344149477938,-0.011875643325401045,-0.02589554875371949,0.1090243596077438
1681483705.6468189,1.639476241247216,-1.2747250864541568,10.068707804657201,0.001513797014830937,-0.014346349613853403,0.113328463161039
1681483705.6568637,2.1412772370106197,-0.6676351278567406,9.661419490511935,0.009593914725477822,0.008702100646129033,0.1144075009465691
1681483705.666752,1.83422040865655,-0.4477291669595742,9.373600321068505,0.010608607489726498,0.027984412677225682,0.1286442417145248
1681483705.6767962,0.37943047025403315,-0.9148136678060081,9.165068637203,0.01916065955273661,0.02939493272334962,0.1405887443066116
1681483705.6868489,-0.16063063436640826,-0.3088578963201252,9.573584433779722,0.01936983840833692,0.017431886191189773,0.1557900446892258
1681483705.6968074,0.22948752273418774,0.02491648904725491,9.803518458387613,0.014006544079187257,0.011267364018773478,0.1659441727638718
1681483705.7068694,0.9011813886002974,0.5607614223853533,10.277455905460203,0.003331043771453461,0.015188542730936928,0.172619624757814
1681483705.7167842,0.37944235820028294,-0.6462611409605916,10.177806908507561,0.002514542972094628,0.017314560012328124,0.165047495389032
1681483705.7267954,-0.15360367593531923,-0.9505305208376481,10.023628395028696,0.003666654645856451,0.012755486678383353,0.1509529936552521
1681483705.7369804,-0.21055954751132988,-0.7135510938860545,9.780039933625329,0.003189293312586035,0.0028682855627370813,0.1419628399849411
1681483705.7468553,0.5792042407427204,-0.5703845409773648,9.527306598047465,0.0005974456109352777,0.004106739803232335,0.1382893163204666
1681483705.7567756,0.8834310164343713,-1.108106177252969,9.64529394994121,0.006617781855812155,0.011276770327807191,0.1323812294245239
1681483705.7667491,0.5367255248296994,-1.0427561859536691,9.73406281650109,0.00950765336650333,0.01622294743978665,0.1256623777986046
1681483705.7768614,0.38764001964855616,-1.1874349781326086,9.877533810006344,0.01343216049095895,0.016069189046168556,0.1134076926351067
1681483705.7868435,0.4195468919252687,-0.7709435344106246,9.655683397789288,0.012833843169278412,0.018291621144744044,0.1094217437744614
1681483705.7969084,0.07289291184123642,-1.863176091248071,9.435147574733495,0.025655395025866345,0.01636939047270882,0.102234444344091
1681483705.806833,0.1908840160123115,-1.1744276724397495,9.502394167986493,0.029047780276745396,0.012885348731413629,0.0962383884430405
1681483705.816847,1.156639031160449,-0.7814806089737711,9.593886831959555,0.029750740778488653,0.02408423726699407,0.0976295608520981
1681483705.8269603,0.7314832514323507,-0.6235018021689765,9.969952561997108,0.027610682063616193,0.029892028081349158,0.0971883821726318
1681483705.8369403,0.13653577779038334,-0.696801949975004,10.18667555732676,0.027416907523244462,0.02912987601292153,0.0920024204493042
1681483705.8468273,-0.501036562140685,-0.4005196979844755,10.127147157463122,0.022128595376048756,0.018576574637682437,0.0859260919929024
1681483705.8568034,-0.5233033119813502,-0.26465699456175623,9.870995269993314,0.015396695668624963,0.008142608175143244,0.0802842813969131
1681483705.8668263,-0.5006521955219223,-1.134280412296615,9.385530044877449,0.016588071639019125,-0.0010553664424333231,0.078628367507505
1681483705.876781,0.5980054561272963,-1.6324912636746673,9.068972327175294,0.028784653581416395,0.00029889293944230117,0.0858987409115311
1681483705.886852,0.71585273543683,-2.8391097195023973,8.856414347024218,0.05239079565297867,0.009408090599153634,0.0926174807787414
1681483705.8967762,1.1703578926827032,-1.5756605189985433,9.450622578747469,0.0655352019933373,0.021046423178448913,0.0962283078074928
1681483705.9068298,1.603790775098482,-0.2612877409417469,10.308871531504025,0.06096849898924257,0.04070523362663255,0.0963779378176208
1681483705.916859,0.41639740863827107,0.5389037795735546,10.959848781394866,0.043363060513240494,0.04759172502716894,0.0787330854177948
1681483705.926869,-1.451011090320331,-0.33355975175942015,10.850145741116942,0.03499148394234154,0.026497538932612336,0.0594341147184845
1681483705.9368906,-1.960269382629407,-0.023947380941479184,10.003037204959798,0.02565252906796531,-0.006338576156941209,0.0537200185895439
1681483705.9468598,-1.420067396922997,-0.1567410311712517,9.00469809866855,0.018675288857266988,-0.03279085895462025,0.0659061956644531
1681483705.9568508,-0.02360361870659667,-0.5298448324583765,8.90334149188511,0.013049494558804556,-0.04204534807606087,0.0895490858197685
1681483705.9668095,0.5927091715568324,-3.2829852172938536,8.681939087346729,0.041659752397649005,-0.04184771256106398,0.1166850540280815
1681483705.976856,3.176673154730658,-2.298856752187388,9.822023553578607,0.06726107928245735,-0.0135688998460175,0.132364093089151
1681483705.9868393,4.152870498768822,0.47607107338605,10.865996274309376,0.06597163620614449,0.03449979243415735,0.1285541343927856
1681483705.996838,2.5561936687200637,0.9226101992434523,10.749094615183383,0.0449738767512534,0.07680428235581162,0.1037748816848274
1681483706.0069113,-2.255137066151968,-0.9250667061881397,10.344837431210692,0.04982678481619719,0.04789957036718537,0.0760283607483383
1681483706.0168066,-3.087396876707437,0.061594751416218035,9.543531196173435,0.04266520863486491,-0.0012808693345398448,0.0656478765845772
1681483706.026924,-1.6998169502649005,1.3727253949001148,9.185350757068877,0.018900422356704746,-0.03533688938524955,0.0746180105448242
1681483706.036863,0.02680460534374711,0.012547665281940954,9.008811792389528,0.006659313919119916,-0.04530382430299096,0.094508192265081
1681483706.0467887,1.9464405781189331,-1.739934186564791,9.36534864821371,0.0231200059795422,-0.033026013560836086,0.1163149985909935
1681483706.056925,3.123468952769557,-1.5471358201922825,10.399019433050306,0.0456957211530416,-0.001294525599409906,0.124576194906282
1681483706.0668287,3.739132914477835,-0.13088346991742134,10.92775962120615,0.046818369703892075,0.04268069889682365,0.1140759501100059
1681483706.076857,1.0198294010411053,-0.4412720988315623,10.001976690851826,0.04894358302421644,0.061483075412408134,0.0951290863991257
1681483706.0868287,-1.6044390959764325,-0.5029797120790716,9.719879742340671,0.046311866687999546,0.037581900171830274,0.0850323575973984
1681483706.0968428,-1.795672445211763,0.1437151366422429,9.083315144182503,0.038184958956804994,0.004145529944452743,0.0921679350972649
1681483706.1068156,-0.30366501756207565,0.739966613909765,9.252196701838596,0.02343450450501055,-0.012747271120634713,0.1111965540290352
1681483706.116918,1.207354667331209,0.9049535642486003,9.708241850172763,0.014468908362774235,-0.011499590882561535,0.134490101361322
1681483706.126836,1.8894295762689703,0.07424716126271168,10.397861174400608,0.011513576047101834,0.004964675186226163,0.1407891500235077
1681483706.136974,1.4273994128989271,-0.8632466974371071,10.660261590551746,0.021610360179756937,0.0188590769269934,0.1303285795689102
1681483706.1469214,0.9352748378073047,-1.1156217030339484,10.048294912374221,0.030140171844730963,0.029551114851912523,0.1164323601365562
1681483706.1568828,0.04772213252853811,-0.15996342802965285,9.480637422400617,0.02862452876517753,0.027222366671860516,0.1147712308407303
1681483706.1668162,-0.09515900758799924,-0.13509467069419295,9.349196193973116,0.023426478425907206,0.020923389897836212,0.1190855342388626
1681483706.1769242,0.18967242017973832,-0.28029728029497264,9.248236763077438,0.02027450415215163,0.017626367371833443,0.1316958505154129
1681483706.1868985,0.31319599749417865,-0.6425021680558027,9.694545822167791,0.02221475861406297,0.014690545742050743,0.1408457446337219
1681483706.1968558,0.6951233930116635,-0.26626454120059573,10.058287448079417,0.02070021339310933,0.015584834912120852,0.1469021576881882
1681483706.2069523,1.421114698497158,-0.3920028076916879,9.925791950816976,0.020017977082936924,0.03161001868682396,0.1497451949358459
1681483706.216854,0.14171926113206015,-0.9531628874292152,10.193730796407007,0.02508770392520305,0.03240082558848875,0.1403909164906021
1681483706.2269104,-0.21135881113992264,-1.0738932611905694,9.779366385103234,0.02945306204971296,0.028331359852626786,0.1255833047867294
1681483706.236902,-0.31239432991023913,-0.3746618899285859,9.478005293480976,0.024726054207432027,0.02202189018578521,0.1236378464341637
1681483706.2468927,-0.21718988913563764,-0.33084110411871065,9.579282930621815,0.01680802565896863,0.0144466459521839,0.1270526933908936
1681483706.2568755,0.1844145043799642,-0.7194918309856831,9.423509056671547,0.0183608951888789,0.014109200239110747,0.1349222499371048
1681483706.2668002,0.03838529109484672,-0.6353466947948676,10.035110137565162,0.01993979790371946,0.009939379895691693,0.1363328236580368
1681483706.276835,-0.05473816627421979,-0.25561967199127206,10.290021983845657,0.015302693015004759,0.00764450122253481,0.1255213606596466
1681483706.2868564,0.3218575065024977,-0.5084449536548897,10.126329128183551,0.015243803943584515,0.011034477984976707,0.110945670628595
1681483706.2968593,-0.016770641048776996,-0.132206660207708,9.823670881741956,0.006328573192381884,0.013536221456326188,0.1012722093105789
1681483706.306834,-1.1966131255371593,0.04067626918854637,9.597953845513963,0.004147969803708091,-0.005745919744128096,0.1002339038491722
1681483706.3168595,-1.3231069007166159,0.1266403309680072,9.388543225548467,-0.012601192858916352,-0.022428164090563817,0.1021047297358986
1681483706.326847,-0.47542189913410027,-0.1530645930962892,9.911131632170163,-0.016065437196644435,-0.03610395983810879,0.1150604698300835
1681483706.336881,0.15248864297520753,-0.420920677155557,10.223461635363217,-0.009774108171571653,-0.045265162144350855,0.1245127085090156
1681483706.3468893,1.3988864671493597,-0.6958051045601913,10.082094463782411,-0.005521835849244854,-0.02355416645163258,0.1121643322945114
1681483706.3568952,0.5233180426814272,-0.18855126970741526,10.204607187289827,-0.0026330921655354786,-0.017205875755976773,0.096218063259172
1681483706.3668935,-0.2081964355557822,-0.36443508595941393,9.42173080790041,-0.0008070996139673465,-0.016867478578344183,0.0850824553013321
1681483706.3768604,-0.36101391220138784,-0.5840392869867003,9.496499420789174,0.0005752865252889443,-0.022957368079780972,0.0871540743351456
1681483706.3870502,0.2597089737043832,-0.27184830613656985,9.406229296427306,0.0025905797806701314,-0.02511789326939377,0.0971037659287926
1681483706.3968844,0.9821175440382628,0.1262739651416645,9.801566556869808,-0.0014887613519630283,-0.017966604006695485,0.1083715620875832
1681483706.406926,0.6465160476457829,-0.22953205958739561,9.924939395104369,-0.006514940769338687,-0.01134461209006027,0.1098992589354988
1681483706.4168894,0.7131840739909603,-1.2331490746195368,9.786396350333572,0.00675756036303433,-0.006106381920343392,0.110794893229055
1681483706.426874,0.27108685411264205,-1.1950162280684151,9.601937170722255,0.014373697282209587,-0.0047893430672139616,0.1133001137018677
1681483706.4370282,0.6144344201953095,-0.8254589109799675,9.759932070400351,0.01709961869116404,-0.0029733416799997392,0.1168631154537674
1681483706.446828,0.6312074566558912,-0.5486140273359726,9.714486236176517,0.01741124192760659,0.0016235203426870847,0.1163685980678078
1681483706.456904,0.5258875761338966,-0.1459411939779161,9.936201031401684,0.010901136256485387,0.003637270205667712,0.1156656804919716
1681483706.4668767,0.48858845825472097,-0.13352557719702912,9.794200713801857,0.005785114428231667,0.004904076520437367,0.1123442116618629
1681483706.476792,0.21268108176291992,-0.425309161138492,9.908259091473777,0.004991839819919277,-0.00014112418720760067,0.1137589726090904
1681483706.4868157,0.4389826802748617,-0.1932129942472821,9.851573206691175,0.0033793611620929545,-0.00566000750902224,0.1159689340234276
1681483706.4969468,0.8421600363316298,-0.2373473008304449,9.778782504684237,0.0005849520323453438,-0.0033064341392455986,0.1205837863922592
1681483706.5068576,1.1468828409181826,-0.43209245764582394,9.626088501497925,0.003700332357241316,0.0028697099797190787,0.1218430090189453
1681483706.516854,1.1183911508843307,-0.05797356664851626,9.79420518790049,-0.002699734262142225,0.007767663702809366,0.130106328749704
1681483706.526878,0.9248501330408461,-0.7705273163652625,9.652842474696977,0.005185256017727401,0.011770337688696786,0.131503372216272
1681483706.5368736,0.8147706994248332,-0.3475392670014043,9.868593785390626,0.0033665296874121724,0.014587642324087076,0.1316506850958343
1681483706.5469985,0.7670800777621408,-0.19282654764259977,9.6353668250296,0.0014409387070980577,0.0186488481149179,0.1325032550335403
1681483706.556898,0.731096525757525,-0.4253319522029143,9.79245213349604,-0.0018779507573740233,0.020071045247840705,0.1346786457539078
1681483706.5668852,0.33852577277443685,-1.007218071709975,9.6521822240425,0.004379689213132693,0.02151673339653425,0.1324649739504333
1681483706.5767908,0.17072755221219976,-0.6789438275429223,10.12135758821878,0.005051535967677683,0.015388964189185067,0.1284953940153595
1681483706.586961,0.49871504501752834,-0.17876223641266112,9.844613359236552,0.00098162749298352,0.017520778702297082,0.1249853062868591
1681483706.5968795,0.25240532342522065,-0.5668500138841205,9.909241082021076,-0.004873227409185319,0.018734032474127544,0.1186917710543152
1681483706.606856,-0.04184803346686638,-0.9696332840020049,9.751425714758383,0.0013515635771434926,0.012529757745316129,0.1161163735628601
1681483706.616915,0.40338454667684714,-0.5687710614014548,9.833376099655188,-0.0033867462140264996,0.012669383022011121,0.1159855786204811
1681483706.6269262,0.2672204075767369,-0.8134396523604369,9.70770577430517,-0.0008048149132202298,0.012920493997288951,0.113112381422567
1681483706.6369708,0.207554351466751,-1.2194353477246849,9.761946861753774,0.006010135696595497,0.01148571559159208,0.1101387354970451
1681483706.6468592,0.2785737949534999,-0.8046195756568156,9.662101491329635,0.008375442854804082,0.012987024102980799,0.1068616795778747
1681483706.6568377,0.2588920618887777,-0.7153556031552466,9.833302149613118,0.008546072421592192,0.010845328154813734,0.1063788298011299
1681483706.6669574,0.04837634485525701,-0.3189535419612021,9.682136318920616,0.003914940665173765,0.011673365942654189,0.1019093531609054
1681483706.676907,-0.23942679963467597,-1.1510044884074715,9.797634353177003,0.007770970507336346,0.006052240008800431,0.0955564218998428
1681483706.6868567,0.09233821183646301,-1.0290696784919968,9.558108122560748,0.011244314303062402,0.00552488083283292,0.0940664100885864
1681483706.6968725,0.4235792693781281,-0.8568224410462737,9.970724898989538,0.015338208187043885,0.006898483994830681,0.0910944181919571
1681483706.7069192,0.09801341267988815,-0.8748203843738454,9.944879836013994,0.018638260533111555,0.009627130059707813,0.078619754636335
1681483706.7169158,0.2488528564211532,-0.41861260687010704,10.019519390575363,0.02144114452653641,0.011111176737002794,0.0685132208705421
1681483706.7269669,0.007055039072887483,0.07258496179447711,9.825356222034914,0.016438573184100726,0.011138516406247136,0.060517775589275
1681483706.736858,-0.25301665293781495,0.10573808010060046,9.659448493284147,0.011593938040063471,0.005655061564409858,0.0620244170964237
1681483706.746865,-0.12421221863522912,0.23390267976937607,9.448565786164995,0.006735851126863148,0.0011287490157239738,0.072922042334127
1681483706.7569733,-0.15930655765815963,-0.21739485248932539,9.861196502701056,0.005662981527692173,-0.0064309675059675605,0.0851868304849144
1681483706.766919,0.2596496745911316,-0.3673039739499117,9.894295546291122,0.008809356591097366,-0.007483713156611812,0.0955032322049614
1681483706.777022,0.71296153896168,0.13162963307013997,10.201290155129962,0.005454632598570957,-0.006269809672221685,0.1079900998116012
1681483706.7868426,0.9140633891105975,0.14998065567366586,10.03825164262892,-0.00030880652234950616,0.002836622954210251,0.1097766819835182
1681483706.7969878,0.5501385274834901,-0.3642452826752115,9.931204087373569,0.003995325968292005,0.006036135804376662,0.1120662006974693
1681483706.8069966,0.43772682671574925,0.12235285093303404,9.48391382334997,0.0014614915196202003,0.008149877422425672,0.113596743667173
1681483706.816913,0.131070968596241,-0.027970964207888714,9.630314149168967,-0.00228014855735023,0.005672395311275732,0.1175633061171051
1681483706.8268723,-0.19497849118659605,-0.2804855745164545,9.741724898951277,-0.0024757119812255477,-0.004724140483209877,0.1256055000663277
1681483706.8369453,0.451774798650636,-0.7219296272813847,9.802699556043082,-0.0023042371735001975,-0.00408285924298082,0.1254095125437256
1681483706.8468704,0.5877252675271829,-0.5643780840746219,9.880274507213263,-0.0020168950961686367,-0.0029268527049327465,0.1281644243240829
1681483706.856917,1.066918805948574,-0.8221701277363236,9.9692130916327,0.0003581001732003104,0.005802570008731095,0.1263653549790855
1681483706.8669298,1.143791871763594,-0.6646438642450777,9.548408233377224,0.0050403082343125315,0.01615649503281187,0.1284951555967804
1681483706.8768857,0.7084355676197497,-0.9678925633850023,9.754822012424063,0.01089868929660965,0.02132711851793277,0.1218696671963211
1681483706.88694,0.3343834442200885,-0.3336626832482942,9.736888644367781,0.009243575062911248,0.021459157040567996,0.1160166996956345
1681483706.8969083,0.3616342279598842,-0.21666108033133064,9.725373299956043,0.006174515115728036,0.020766222549283703,0.1127787816763397
1681483706.906834,-0.12183062613480013,-0.31890573402250544,9.87340874190064,0.0004419998905123303,0.015143382683536915,0.1083789754152771
1681483706.916888,-0.05824197411711733,-0.6719961420501958,9.869345475592594,0.0012485946023381123,0.010018526243360667,0.1048901665449615
1681483706.926902,0.16303344650962362,-0.47517058645856997,9.999188478007898,-0.0010775838220220446,0.0038333684340150654,0.1071064087987419
1681483706.9369783,0.6793656993473279,-1.0207748007043598,9.694111523368518,0.0035637154580907635,0.007705503365708895,0.1084306526422974
1681483706.9468648,1.2541724274861967,-0.955860666923578,9.555287697605225,0.009172536848805563,0.018546687643810962,0.114289886081266
1681483706.9569216,1.27219941952444,-1.0533942999401738,9.584553819715302,0.018360371361182157,0.03251942470530144,0.1143428671598907
1681483706.9669309,0.5365220769627532,-0.5513947750326863,9.951944847502068,0.02101245336077262,0.03344470444601322,0.1190470892429825
1681483706.9769316,-0.1162693083402575,0.32834804224218583,9.900231456902652,0.009515639076271162,0.02900145686925794,0.1177186283708092
1681483706.986934,-0.10096177596965937,-0.5516156021371926,10.096350436131107,0.006076210033096961,0.02051308136206035,0.118866598928022
1681483706.9969,-0.38884946449439683,-0.35745164371929017,9.682787166873771,0.006873873694915987,0.012147719664766347,0.1158252495766159
1681483707.0069,0.33944411116202733,-0.2572976054643122,10.162096201446225,0.00210910269100177,0.00807954379743972,0.1163234773517128
1681483707.0169492,0.4296191235445965,-0.3330707924685867,9.609437651010733,0.00046473788050025914,0.010543663435541318,0.1148487764835831
1681483707.026963,0.5327019739744244,-0.10520933779231971,9.940012720259592,-0.0028826510427527987,0.008784644185842544,0.1199881273746963
1681483707.0373013,-1.969304125476296,1.5791881494305526,8.973868570613375,-0.01848809673609746,-0.011931871616201708,0.112651272440004
1681483707.0469158,-1.1870697979485922,0.9329321429930182,10.980201589987082,-0.04669883226905409,-0.03908709341010929,0.1066963362932678
1681483707.0569165,-0.5339580981939139,-0.9532050453642696,9.763838785398166,-0.03975060612208928,-0.045059352345463724,0.0982296380639549
1681483707.0670257,1.3951886350229314,-1.665894150894156,10.45627512952142,-0.021287670351996187,-0.03464619682146445,0.087467393600988
1681483707.076937,2.3075647641982022,-0.9848128043153239,9.503993008826493,-0.011781297560873769,-0.0006235663158702555,0.082493952238607
1681483707.0869727,1.5638938294125038,-1.193250112052044,9.37506334211381,-0.0017530549623446662,0.023571497844418636,0.0826611358166214
1681483707.0968487,-0.3272189869378446,-0.7964504671680323,9.032685664222132,0.007068251042372256,0.023698887065205863,0.0829400483012672
1681483707.1069436,-1.0250940189803703,-0.5304364222948041,9.580863489355309,0.001495080673370807,0.00978916915565968,0.0921074736357208
1681483707.116929,-1.370804753069777,0.29495921883269255,9.983085809437343,-0.012742954316343256,-0.012879800259558458,0.1023826810956474
1681483707.1270905,-0.34159967406851877,-1.2419137336060888,10.242511296464711,-0.005312221539387798,-0.022554402287419863,0.1097219947219368
1681483707.1370716,0.5203033349858037,-0.771474994153842,10.315054554991963,-0.003041007642448856,-0.017764539066705387,0.1073549825191971
1681483707.1469126,1.200596391995509,-0.997113862611304,9.919734016965123,0.005512395914389977,-0.0027208615993032444,0.0996320608497139
1681483707.1569283,0.7199121832781064,-0.2455179672749959,9.587024506777865,0.003732400584044908,0.00638066485464476,0.1038035664201256
1681483707.1669295,-0.0957566198885118,-0.8645731058125962,9.311304292736002,0.01150445175349566,0.005363254215596234,0.1019332397222992
1681483707.1769574,-0.26641797851960525,0.2958079413884324,9.451392720499562,0.005280758531640483,-0.006319727160966609,0.1206857848406311
1681483707.1869214,0.25712508213092433,0.39747213691241867,9.660106418011035,-0.0035776669467148864,-0.0080110850828272,0.1305917489767548
1681483707.1969466,-0.2022100831907736,-0.26099717026837543,10.36176371838542,-0.0035539983318731783,-0.01809495505099541,0.1349306690931793
1681483707.2069454,0.671772937708248,-0.08682903186349479,10.362097933389416,-0.0052390636256592765,-0.015609370398196423,0.1291623401880737
1681483707.2169178,0.5010368771095737,-0.3594395967029421,10.074554672197063,-0.002738753203638888,-0.010651292948771249,0.119747801446962
1681483707.226957,0.5496600782854308,0.04535907646221775,9.787235528525896,-0.0062340594371613645,-0.007144918830907949,0.1174631032586571
1681483707.2370062,0.2515885522104824,0.08791654526253992,9.475401854360356,-0.011975741386916518,-0.007127533235992407,0.1212687778711792
1681483707.2468977,-0.01363253855375885,0.10534509038208495,9.524420918279816,-0.015849836623766968,-0.01446767530944903,0.1343945849180695
1681483707.2569437,0.28438799723687097,-0.15441493822165892,9.65865830641333,-0.017698166008761652,-0.016726081578252974,0.1478559363127228
1681483707.2670171,0.6988619324953451,-0.4355168753632837,10.06879352652581,-0.014788925748359313,-0.015653402593908933,0.1572734552860733
1681483707.2769563,1.146340583118027,-0.5472218995948696,9.813483164445472,-0.008430502644880681,-0.0031312032938714957,0.1598147291183945
1681483707.2870784,0.8354234890581634,-0.2382102329210901,9.962651866096621,-0.00774224426867787,0.003079423704167073,0.1608086961746689
1681483707.2970746,0.26680771411701304,-0.08355889456561408,9.735830714907495,-0.012718966545644804,0.004432469462006398,0.1572273212910171
1681483707.3068988,-0.3524882073404574,-0.41153215092525613,9.754565899105614,-0.01728406541266863,-0.003083770198067724,0.1551285523415085
1681483707.3168972,-0.11914154700345578,-0.41416121398331174,9.689983047901576,-0.020582001062977327,-0.009597513413992637,0.1618046897888657
1681483707.3270483,-0.201794749093357,-0.6233649643373137,9.863204642641877,-0.019019286480970374,-0.01872464651841961,0.1603603500366684
1681483707.3372085,0.8080607288776376,-0.5974037124408759,9.848488644938456,-0.020893088979614123,-0.013069618908121883,0.1618732798338409
1681483707.346983,0.7093270453780454,-0.4890577099121357,9.786897795420115,-0.020293983178173637,-0.0063858043759614114,0.1582654553890701
1681483707.3569984,0.1343045885595324,-0.9188800050951923,9.967300351738283,-0.02078583222249688,-0.007477318066886659,0.1523981231689926
1681483707.3669322,0.24900005928258745,-1.2391524061944172,9.749483623068077,-0.013984743394500301,-0.006257122626175765,0.1438619482756134
1681483707.376922,-0.09645640413449814,-0.861435460764909,9.958161577497453,-0.013703693647536964,-0.012177213058674068,0.1414827841759201
1681483707.3869128,0.46375121436030015,-1.022175619561953,9.521790094186713,-0.008596020414499205,-0.010904472700982028,0.1415545332670685
1681483707.3969636,0.5442494124732442,-0.5547887341132094,9.668658040478014,-0.00915932426348682,-0.006025231920831994,0.1399283993483063
1681483707.4069314,0.5046579834240709,-0.5982796947843816,9.686892919875529,-0.009495150961203031,-0.0035084639392315296,0.1417247492313858
1681483707.4168832,0.709566169026912,-1.1086430651613997,9.716839288565195,-0.0024408775628692453,0.004209057549026232,0.1408538061619278
1681483707.4269753,-0.07271655466054566,-1.0811822687152912,9.893934171246704,0.006294539105632063,0.0001371365688374074,0.1367380756378647
1681483707.4371994,0.41126239203808623,-0.10140110223425394,9.854969615571337,-0.0008608001797577109,0.0032001949214154964,0.1327948856592651
1681483707.4469795,0.15712164665132178,-0.25306845810573186,9.858228252734927,-0.0027841610776927076,0.002012830136247468,0.1298679399729248
1681483707.456971,0.0628696648092354,-0.3097693318848869,9.904829641424831,-0.005770846387343361,-0.0023103514236804067,0.1322942364454742
1681483707.4670231,0.6146331616728916,-0.5316489889368062,9.553384228717718,-0.003908206598840199,0.0029562757808626675,0.1375349450350281
1681483707.476973,0.32459098594247476,-0.4758225390122639,9.732614661149563,0.0004139247860602176,0.0012938240674371427,0.1513572323561188
1681483707.4869502,0.2527144220565531,-0.04449531671937433,9.9477615343207,-0.001661944483770545,-0.0014591032179240564,0.1596140104771133
1681483707.4970512,0.3692597997057797,-0.28679641213527984,9.895630545680772,-0.0038547233042247053,-2.705424412372316e-05,0.164388715052652
1681483707.5069385,0.1730658017659343,-0.2993133436545389,9.895415047343052,-0.005521609892916021,-0.0007829894524493114,0.1679505247116562
1681483707.5169723,0.5583154963263374,-0.39673667820725567,9.754202279424,-0.004275345656125451,0.0022757611266426164,0.1753637331963058
1681483707.5270174,0.21393396020355845,-0.4255232901085252,9.627820440237713,-0.004327792577877684,0.004365217176901156,0.1792533684015747
1681483707.537155,-0.21639464000810021,-0.39882292738123654,9.979619354994906,-0.009150112315058192,-0.0029557823310030536,0.1787814188242432
1681483707.5470138,-0.08689488099746313,-0.8859100582462344,9.759858810243498,-0.008054339689622499,-0.005903035275914677,0.1783019888639923
1681483707.5571306,-0.12292593037975641,-1.0912396897151444,9.847535030540433,-0.004698974607627379,-0.011982947871068248,0.1784628916025635
1681483707.566995,0.34641673656289296,-1.6819881585057845,9.53309661794414,0.0038599381704337203,-0.007110732064864503,0.1713069665670868
1681483707.576996,0.466642416391981,-1.2513757984925387,9.707716004068198,0.013663970648867903,-0.0036768396226231946,0.1695986229420181
1681483707.5870976,0.7091729397246743,-0.9810844057816335,9.689790824555896,0.017551364254216422,0.004711133049163932,0.1647971707821365
1681483707.597022,0.6500170292584375,-0.679998585291225,9.661804892307309,0.014479700447527782,0.015906454381866122,0.1543408024549957
1681483707.6069856,-0.3317667578657927,-1.0771197368053471,9.917730704632676,0.01446367128695095,0.009301294848007447,0.1464494008064743
