time,ax,ay,az,wx,wy,wz
1681483551.3007734,0.4474411278797515,-0.7022626153471773,9.81072807482255,0.002382454532110503,-0.0014156818525229548,-0.0003808500518548
1681483551.3108032,0.68181866698482,-0.3357600995844482,9.812079585465948,-0.0015335675443595546,-0.0003409510569955836,-0.0011419341939959
1681483551.3207948,0.6889235363638867,-0.5737111001836173,9.725640541796569,-0.0003790779868348966,0.0011051977096358143,-0.002104927789745
1681483551.3308573,0.5654748706435795,-0.595768245068771,9.776922253982088,0.003172207687130047,-0.0013255456013708262,0.0006443264970097
1681483551.3408213,0.7910637104013752,-0.3576561568326994,9.746453139882794,9.771091287285965e-05,0.002017156326332083,-0.0001078029203686
1681483551.3508334,0.5069410735387756,-0.5589867758200697,9.818697371261429,0.0009042316053452934,-0.0003077989340613249,-0.0013021410017732
1681483551.360858,0.6733201104532686,-0.47236789876652396,9.760213210514605,0.0013255837893824806,-7.532992245364115e-05,0.0001950726105373
1681483551.3707902,0.6302527269734068,-0.4190628282826597,9.80641484969668,-0.0003336634849589978,-0.0003688919739632169,0.000481544524106
1681483551.3808658,0.7198056754365999,-0.5963172039418864,9.693306383023891,0.0021607916216121867,0.0013000417886310698,0.000818684984139
1681483551.3908458,0.6439564589918342,-0.3979772181160429,9.808292678639384,-0.0006775451679524666,0.0020704075267677473,-0.0010201397858086
1681483551.4008248,0.5258450833757863,-0.5912447900454666,9.80283343050788,0.001474217425226059,-0.0002161581905933483,-0.0007064596324685
1681483551.4108171,0.7154445548418167,-0.46357367905430197,9.75127419721128,0.0005682366169092874,0.0013581492973317685,-0.0009761629666659
1681483551.420842,0.6327263306034455,-0.3937101905554988,9.818091057673422,-0.0007158940484554817,0.0006857414682799743,0.0005661211867358
1681483551.430959,0.7229983544692822,-0.5262314411090933,9.72733222695006,0.0001535982268839014,0.0024176151700024988,0.0005906664260205
1681483551.4408448,0.4753545031721748,-0.46491314115248505,9.880470359904585,-0.0007084282665463064,-0.0007544640067870738,-0.0001554819795761
1681483551.4508832,0.6633551160547607,-0.5409985604610126,9.744402468230543,0.0013788434009475714,-0.0007149558389452418,0.00175038081538
1681483551.461378,0.7360370876433936,-0.5731485156036378,9.692890958917666,0.0022446053557350245,0.001980302604112234,0.0003724468365784
1681483551.4708571,0.4513966339004541,-0.35523341311140266,9.929721113264455,-0.000836946445174269,-0.001578488841164902,5.090259541834312e-05
1681483551.4817526,0.7738423636824346,-0.44408597661485655,9.73575091652735,-0.0014691318749785818,0.0009889783326223335,0.0009296968888033
1681483551.4908032,0.5677814458182721,-0.5619472116106173,9.788736972471098,-0.0014095384972490571,0.00032140344247356197,-0.0009001635521176
1681483551.500825,0.5706669591133524,-0.6449913148834845,9.765164973109513,0.0008669964933888454,-0.0007387763540994554,-0.002451366050494
1681483551.5109262,0.7331272296165506,-0.34540857756743004,9.797375348198996,-0.0010135329478834978,0.0002219434332921957,-3.626093207781595e-05
1681483551.520801,0.7006682352499971,-0.5153631917419847,9.741468785654831,-0.0003657094327912411,0.0014669208719553465,-4.002498867844624e-05
1681483551.5308237,0.5292376706915909,-0.4876388908008048,9.83101208381725,-0.0006637257786917586,-0.000609548349324498,-3.9251408864906254e-05
1681483551.5409267,0.7233607415518395,-0.3089040863290497,9.79251502054099,-0.004060818512246043,0.0010414922277915102,0.0008838669123601
1681483551.5508268,0.6086657373294343,-0.6020325275385184,9.764517116521272,-0.001076109633630942,0.00017313940319226925,0.0021933150670033
1681483551.562276,0.5684310407598655,-0.502242430907687,9.810940377616019,-0.0013208622848792653,-0.0011642453528768768,0.0009755183087203
1681483551.570823,0.6024501243218231,-0.611031530555022,9.762101217403279,-0.0009032595252141418,-0.0008084941552179034,-0.001727928877202
1681483551.580831,0.6523722223035467,-0.4967979293961034,9.771721680234872,-0.00024424520698928127,-0.0009790958591808356,-0.000402833339152
1681483551.5907888,0.6889916366893131,-0.42138647197425283,9.786584001279797,-0.0003567589115969423,-0.0010070293157266519,0.0020174731576357
1681483551.600972,0.6845544377038054,-0.6249823039001576,9.699505511497824,0.000988081420999098,0.0008138910867559394,0.0003157943679493
1681483551.6108315,0.5203941773570643,-0.5119704446957288,9.83054352630717,0.00044378639459438185,-0.0009113071377569614,-0.0011386049486223
1681483551.6208465,0.7661039334185594,-0.4357760789166195,9.73073181628413,6.19512199050849e-05,0.0012680005852477893,0.0003876622027259
1681483551.6308885,0.6440853265351086,-0.43195080667525393,9.793614171357046,-0.001022843180791221,0.0012821584663955893,0.0008719663560863
1681483551.6408825,0.6083830109263217,-0.46974065749798627,9.800165189799554,-0.0024749747543440204,0.001210243238926814,-0.0007157630793276
1681483551.6510923,0.5977031610012151,-0.6180913933119364,9.754718617697446,0.0010331486292027238,-0.00025527351215914136,0.0006409804296221
1681483551.660848,0.6515650035939965,-0.5666788946436133,9.748152366928787,0.0023299171526717463,0.00028005984917416174,0.0001224172261085
1681483551.6712532,0.5918029796951145,-0.3864364527085716,9.841885376603354,-0.00023160472305603724,-0.0005592602074052982,-0.0001670322421464
1681483551.6811469,0.5854461152806543,-0.5273203262284621,9.793608529154627,4.5583573364876946e-05,-0.0014294792820316279,-0.000911336163384
1681483551.6908872,0.7474822626595089,-0.47623058166981097,9.721794479474237,-2.5961972400167732e-05,0.0007885652694355514,-0.0006021349731359
1681483551.7007935,0.5235777876344787,-0.49919323512486163,9.84654134897838,-0.0002680854751019499,-0.0012491762676612786,-0.0012928079854223
1681483551.7108865,0.6454948120907447,-0.48696136462045453,9.76580725978239,-0.0007739835326267007,-0.0007574399892003692,-0.0020982190075788
1681483551.7208595,0.6694912856029234,-0.4226202393466777,9.781535613080678,-0.001596160251460163,-0.00039535408204134377,-0.000771648720232
1681483551.730889,0.6968068740430776,-0.5514865860173733,9.72150421465927,0.0008837479158317525,0.00011130501772614124,0.0014497539810203
1681483551.7408824,0.5704777697536574,-0.4923157055990807,9.82290877708114,-5.127287620194299e-05,-0.0007026884112286551,-0.000639399284822
1681483551.7529285,0.6371073951512478,-0.4530865375951487,9.786762890656181,-0.0004253098473912744,-0.0009168881826191982,0.0002718040446292
1681483551.7608178,0.7912542777050693,-0.44655793561936863,9.70930893255378,-0.0007076953945849401,0.0012933316811042778,0.0014173370978337
1681483551.7708092,0.6162795339663381,-0.6359236063472481,9.750100375809009,0.0017375760506400351,0.001040017032571435,0.0004770406481351
1681483551.7809443,0.6134965797430986,-0.49389738858515375,9.791361581263732,0.0023481629876985826,-6.393156696395528e-06,0.0018487332231838
1681483551.791192,0.5512275206104407,-0.5397656065792995,9.805289460736995,0.0022822369203543435,-0.001208174834100556,0.0001183374511551
1681483551.800812,0.6451119742889733,-0.5243287084847569,9.760333520775777,0.0015364521917743664,-0.00015359817772758673,-0.0024692646733943
1681483551.8108263,0.7326903690061332,-0.3276180472685489,9.76551865156575,-0.0012832619630228645,0.001630093602801092,-0.0007891592144492
1681483551.820839,0.4691706681506705,-0.5237418116957786,9.864358959155581,0.000853975621346534,-0.0030007952424579726,0.0017764655599843
1681483551.8308628,0.7438616680936907,-0.5402664223650009,9.708296911532951,0.00045349495866820155,5.6906721411743454e-05,-0.0004110350314054
1681483551.8408442,0.5320126291195199,-0.586473883757599,9.804160930911706,0.00270021420082061,-0.0023268882095831495,5.945236948395687e-05
1681483551.850845,0.6732528994289837,-0.3167940688359547,9.819978428764331,-0.0007587117692883687,-0.0016120197678118826,0.0001783091534402
1681483551.8610542,0.71161193636829,-0.4101736645500342,9.76304302912101,-0.0010314196238095437,-0.0009131597858669015,0.0025684462121229
1681483551.8710754,0.6065885551318739,-0.7047153745297662,9.727343336113629,0.0015088537896768422,-0.0003085123525487703,-0.000804792860848
1681483551.8834963,0.6135520183923994,-0.47919038220893945,9.79468944730402,0.0011553378020095618,-0.0010450484099961803,-0.0002582962665233
1681483551.8908513,0.6748670210235064,-0.4866973859957797,9.769186829753048,0.0005067536461807228,-0.00027836274486627683,-0.0009802673052523
1681483551.9009051,0.7478902041685188,-0.4044623650661847,9.763540775949584,-0.0013313264115930542,0.001891977192288984,-0.0007679208687964
1681483551.910952,0.6861119353248027,-0.5804338349471896,9.721535510010062,0.001632525367893943,0.0022023159416681075,0.0014515694233945
1681483551.9209294,0.6289393013046912,-0.3797652255596457,9.827140633111886,-0.0015924310935459577,0.002534230749550626,0.000115006575967
1681483551.930904,0.5846391672864035,-0.5129959302514134,9.789212752153004,-0.0006562819595555093,0.0013462376918614305,0.0010485430498615
1681483551.9408343,0.3410667882195812,-0.716209402914506,9.860988059609527,0.0018110424555921874,-0.0035055873497827675,-0.0028227584011379
1681483551.9509048,0.6808724092207546,-0.20575703274436372,9.841849372142098,-0.003451348582328045,-0.002767981669510717,-0.0016739037859711
1681483551.960878,0.7101680133545618,-0.5883092879510344,9.715774878014333,-0.0012415188526777293,-0.001422772634738665,-0.00121234334479
1681483551.970874,0.7059008341103326,-0.4097260798765941,9.779226421915718,-0.001093616066361813,-0.0013683913567069492,0.002543124948303
1681483551.980857,0.7191811880448555,-0.6890610060323875,9.686636019977394,0.000888551698166435,0.0016390624143617879,-0.0016441035590592
1681483551.990847,0.7071553587924072,-0.40921033766808945,9.7690983080545,2.7683958557183385e-05,0.002563666704674496,0.000274471003237
1681483552.0008693,0.43081225179321436,-0.6004522924625164,9.85649194503477,0.0003003951101217096,-0.000527231660092758,-0.0030407190829042
1681483552.0108452,0.6792191120258225,-0.42831658550045654,9.765376652682773,0.0006114424455783755,-0.0006266684952386736,0.0002341956092518
1681483552.0208583,0.7076968819771473,-0.43756362197086063,9.760365166172313,-0.0009073591863226598,0.0006533174304360244,0.0003436978400226
1681483552.0322454,0.5854364638845022,-0.45919572633758493,9.817602047106796,-0.0011655181734756778,-0.001021937163233427,0.0011543309915818
1681483552.041041,0.7635041562452229,-0.57833378897663,9.673095953800244,-9.560392052740598e-05,0.0017221056039645754,0.0003180043964188
1681483552.0508633,0.6519720895068719,-0.5154342572708853,9.765836798982846,0.0010387281195236753,0.0014356456644266905,0.0020442918135326
1681483552.0609374,0.5260787219354243,-0.5145824062431603,9.832426777632207,0.0005954260785541353,-0.0005588818749000029,0.0002334415872123
1681483552.0709643,0.7613049976405851,-0.3988467589760908,9.74997689069641,-0.0015131101019591133,0.0021117760552696123,0.0001343461877208
1681483552.0808926,0.5010552661445615,-0.6170667493825098,9.807685130025595,0.0006937667394961943,-0.0005082208090986504,-0.0004073180065948
1681483552.0908356,0.5907853200040984,-0.48349484144013233,9.804524463359979,0.0004426875160207358,-0.001512554384723951,-0.0005112462717566
1681483552.1009336,0.8349109647633014,-0.4533451293645685,9.694204282596854,0.0012126878317638482,0.0014553971495455769,0.0022175214212861
1681483552.1108663,0.4357677757608125,-0.5438837124169217,9.854400795516991,0.00019085674467148148,-0.0013654055041131977,-0.0011333695187691
1681483552.1208525,0.699830142569757,-0.47579708088597356,9.746750020338368,-0.0009837113826222,0.0005873868072955836,-0.0023545268963549
1681483552.1308873,0.6631289698824346,-0.524740271264097,9.750750760521306,0.0014000906958053674,3.6416993433227965e-05,0.0007445454789798
1681483552.1408548,0.6455555335600784,-0.5301685580156882,9.757553130853914,0.0017059148121876643,0.000687620085972955,-0.0001733718713272
1681483552.1509392,0.6630465500705736,-0.4026844741607674,9.79508227174484,0.00016924514231857126,0.0007952633937305821,0.0011148442822981
1681483552.1609054,0.6065298044358343,-0.5130206391138256,9.792072645574956,0.00015994386052354897,0.0003303303759927588,0.0003857867518913
1681483552.1708958,0.6237592454174112,-0.5686259981569354,9.777603323077695,0.001895551440200884,-0.0002876679779458583,0.0006890530890327
1681483552.1808336,0.6727598672205158,-0.29174990923834726,9.829946653985978,-0.002030529851796249,0.0003046333316612827,0.0015208623477032
1681483552.193818,0.6827143107255448,-0.5560567886331392,9.724289324284774,0.0002072348566528161,0.0011610895629869885,0.0021810210851494
1681483552.208212,0.5409716571181208,-0.5538041637325701,9.803386660506442,0.0005835121923572447,-0.0004929365848203376,-0.000472495802072
1681483552.2126317,0.5561558026397367,-0.5092996699735219,9.828992558049949,-4.2708179309162867e-05,-0.0008863367018978092,-0.0019723027985069
1681483552.2209375,0.5972083366599106,-0.4314642999739473,9.826196995700727,-8.406409104963756e-05,-0.002177156564838179,-0.0002236545592073
1681483552.2309928,0.8173394654074577,-0.6309182791144974,9.636739591388396,0.0023809685828570237,0.0016643564391377898,-0.0008729654404792
1681483552.2410345,0.6150458535776463,-0.37183368092418073,9.826467969972256,0.0003484343656465005,0.0006983977067310353,0.0006651910912718
1681483552.2509365,0.6478908931279488,-0.3306385579220962,9.829140401362173,-0.0028851415078822665,0.0008410563358772035,0.0010224704997621
1681483552.2609048,0.6847324390930026,-0.6490908872551986,9.698293013881456,0.0014324993574312155,0.0012523607968344833,0.0027126098243993
1681483552.2710438,0.6863887131461375,-0.3485845355875806,9.797614260317076,-0.002077440060800984,0.0023502029157588325,0.0025583887432243
1681483552.2810004,0.5157861259368871,-0.8196977700572681,9.73916527162907,0.0027795633372072145,0.001012059165581765,-0.000866654565883
1681483552.290933,0.4467237451861402,-0.44345667311438275,9.904794643527095,0.0012782663869301998,-0.002821992464053998,-0.0016444840043309
1681483552.3009183,0.797536483558466,-0.40927487897394316,9.728003293336423,0.0009381641325276423,-0.0003599630363300008,0.0010764707654256
1681483552.310985,0.5846837624709134,-0.5667475455742094,9.777938453333906,0.0024856402957128135,-0.0012823216575449962,0.0005560563254643
1681483552.320879,0.6393993105784482,-0.48266873501502683,9.775669334291868,0.002294150359702399,-0.001281209526242332,0.0005243581795607
1681483552.3309484,0.6975087594895834,-0.29507454632062907,9.813757986114023,-0.0019381335982898392,5.1315699191913825e-05,-0.0001770983257788
1681483552.3408806,0.7019212542301378,-0.5986379406930681,9.717817766502648,-0.0003262410975320625,0.0015801809776326168,-0.0009463641367379
1681483552.3605926,0.6063773581308808,-0.49459324103887,9.787361911972072,0.00047657290239204545,1.184671893868186e-05,0.0003947314067285
1681483552.3697565,0.624506420632073,-0.4600439777051182,9.791943578879554,-0.00010903712178695704,-0.0001941665317493771,0.0002498371718924
1681483552.3791292,0.4161773547998582,-0.48786626814691597,9.910542873328868,-9.923183545059315e-06,-0.004877236153535231,0.000685704111262
1681483552.3833983,1.4876321425880727,-0.41888481244823683,9.337126491336674,0.0013062025356189756,0.0015786961246715748,0.0044128431432422
1681483552.3920271,0.5735230005941333,-0.377157697891425,9.857948103980611,-0.001435973665719512,0.0007762606192773701,0.0030631702352788
1681483552.4055882,0.5427222658563765,-0.6199783534228193,9.775596766877996,0.000948952252135161,-0.001028634164450511,0.001335762058758
1681483552.410872,0.7848728613518055,-0.40709358616656416,9.735231824865332,-0.0002908251780847036,0.0006618946847314061,0.0009565090254422
1681483552.4211905,0.6527170707968276,-0.6227534058596206,9.727289382862468,0.001900380832827301,0.0014598504634767214,-0.0004352744476396
1681483552.4309127,0.6701974371264057,-0.4171563368714248,9.792871426940426,0.00022921554038537862,0.002098366839644906,-0.0009027826640281
1681483552.440904,0.630047023740426,-0.45431112038081134,9.78480636588149,0.00036070796802397287,0.0016003114753189167,0.0008190402254935
1681483552.4510255,0.6157684049531167,-0.3868214888826388,9.81686298638455,-0.001947107626167642,0.0013372807641378848,0.000975140366378
1681483552.4610095,0.5614182411114202,-0.6197080913102339,9.775775287375088,-0.0006860770628762512,0.0005642912629056953,-0.0018195668275926
1681483552.4759717,0.5326966757995936,-0.5963574122186801,9.786521565641813,0.0022163153331690054,-0.002431201958480313,-0.0019707970827344
1681483552.4808736,0.9323478071384326,-0.12247965722490733,9.741592652531168,0.000828629330190851,-0.0009396019082497751,0.0027167175390299
1681483552.490937,0.7137638480329884,-0.6020484893121484,9.698624790865702,0.002804144471383414,0.000909630744238951,0.0021005828707952
1681483552.500948,0.6568680445936771,-0.4407323424276805,9.799971894958242,0.0006207580969211109,0.0018811790304549734,0.0001205545809593
1681483552.5108807,0.5388616088695551,-0.5087566897938562,9.821799480814784,0.001977491895750273,-0.0006892447414593157,0.0020171184401501
1681483552.520924,0.5872307900855864,-0.5836008637458969,9.771191646400892,0.0021775565474900396,-0.0005257208466884221,-0.00141723594102
1681483552.5309474,0.7644825173187609,-0.3160638065176123,9.758687731786898,0.0009780103957018078,0.0006142161985252664,0.0034904621966656
1681483552.5410275,0.465218078297705,-0.594691965156276,9.844159542264137,0.0005276383335096652,-0.0015110524307516237,-0.0014339934609357
1681483552.5509286,0.7900768219011863,-0.5616240323190119,9.679394925682235,0.0033089179364574543,0.0009513630184548129,0.0008302039309878
1681483552.5609224,0.5107045634207973,-0.4672850100788997,9.861673753683458,0.0015736968825233089,-0.00109495460651787,-0.000994040169147
1681483552.5709186,0.6913824494725631,-0.3830074346446069,9.779383471994448,-1.6634723609134167e-05,-0.0005037409371530064,0.0005605270230684
1681483552.5808976,0.5967389568411294,-0.4989359468992266,9.807398822918552,-0.00034259833769648265,-0.0012111864205853165,-3.1056468700221005e-05
1681483552.590889,0.8313246129349661,-0.551337841912163,9.656966774338576,0.000948940120724075,0.0026217752960634496,0.0006033627974342
1681483552.6009133,0.4712747375700181,-0.4374772781134957,9.887703715580257,-0.0010723996701496976,-0.0003793547822548548,-0.0008774555794421
1681483552.6108942,0.6007512335084285,-0.7360442932125663,9.702209531919285,0.0030772128871960755,-0.00022359636842537778,-0.0027888857334378
1681483552.6209366,0.6270689780617031,-0.23010739221737836,9.864426870016478,-0.0023948781658021958,-0.00025752791104806383,-0.0026577597058836
1681483552.630988,0.7061737085060608,-0.5314716836328213,9.72092715432974,-0.001148005415871187,0.0009986525995121617,-0.0018739635165307
1681483552.6509554,0.6534619783248085,-0.49283872530889195,9.772211124103196,4.946085212042007e-07,0.0009070323650996816,3.4163352708169994e-05
1681483552.6609406,0.7091018410157945,-0.6211778628760102,9.694054253294242,0.0014794270897041163,0.0033515485003748255,-0.002353416061354
1681483552.6709375,0.5687545477858301,-0.2117523071309449,9.912089349194643,-0.0026668092238201742,0.0007077148056204546,0.0009945142624441
1681483552.680947,0.6445459646884005,-0.6667777894369762,9.71695214552314,0.0012991265470814685,0.0006257640535771488,0.0012087136233698
1681483552.6909604,0.5782520710231479,-0.4734933725212711,9.826055217933567,-0.0005739535822403872,0.00010683266387130844,-0.0012387933715704
1681483552.7009478,0.5774308259007329,-0.43297980505420397,9.83743031327692,-0.0015339388734070638,-0.0015170315498445792,-0.0006349305662784
1681483552.710891,0.7284898744852936,-0.4505146625929782,9.745925555048213,-0.0014203182155432602,-0.0002675602092919621,0.0014989329043114
1681483552.720888,0.5857391154528725,-0.5511095141341705,9.78111542996132,-0.0005616520689188664,-0.0009600990014947778,0.0007423127495225
1681483552.7309458,0.753634716779801,-0.5565623543269961,9.704748489555168,0.000228488767034252,0.0017884431739798568,-0.0004780627827618
1681483552.7409232,0.6594565457661469,-0.4304063022889997,9.78782244532929,-0.0004338850560394023,0.001846161297026744,0.0005213804502513
1681483552.7526982,0.6846356312494866,-0.4115516162112128,9.78038194165449,-0.002695527378861514,0.0030799628276768037,0.0002788520610433
1681483552.7609315,0.6479374763665877,-0.5116871381438739,9.766047551993827,-0.0028348110273374617,0.003581413074943301,-0.0004151259822297
1681483552.7709312,0.5116891018212398,-0.5433357047484617,9.822050413182884,-0.0009781364374369015,0.00041565443178909656,0.0011431602138567
1681483552.7809134,0.5921308544811164,-0.5243479422357413,9.78845505138924,-0.001064186752899416,1.8905547969851558e-05,-0.0001610661897334
1681483552.7909005,0.6039058067818719,-0.5565177460522608,9.779670935649781,0.0007511468805716449,-0.0010196989402795945,0.0005009227857467
1681483552.8010426,0.7544454500719088,-0.45589796949534767,9.731985269372275,-0.00044130228115728986,0.001658771957581211,-0.0005581993650171
1681483552.8109758,0.6776685511473873,-0.5461884992647981,9.735632568612589,0.0001960748526603574,0.002859083137845194,-0.001123289814544
1681483552.8209326,0.46236532141988756,-0.5349862396154904,9.852548481274727,0.001029429868565261,-0.0009172570841972374,-0.0010868001304093
1681483552.8309655,0.6998669213635058,-0.48987948355623157,9.751111963234717,0.001046198035831677,0.0003348158817913085,-0.0014604479114982
1681483552.8410754,0.5492015911822843,-0.5048745031703056,9.836458696674171,0.0008986547341871344,-0.0014063926458158212,-0.0021865158382329
1681483552.850979,0.7405306091645957,-0.39973784226564735,9.746250335746009,0.0006777586968369063,-0.00019939661414024174,0.0011789202940657
1681483552.8609374,0.5654466394638517,-0.5771992881148956,9.79062034560992,0.001114363792023093,-0.0007350675204419034,-0.0012566703412208
1681483552.8709416,0.7144720644638066,-0.5604101126596828,9.704647093243626,0.003376344764316385,0.000598594969918713,0.0002978941152345
1681483552.8809197,0.5999807040203711,-0.29019094571929266,9.869604508628418,-0.000307206078345128,-0.0006054563360278456,0.0014717406525473
1681483552.891107,0.6678739149312304,-0.4117738524614654,9.79888246404208,-0.0020331431875960744,-0.00020498894924183273,0.0020141254022259
1681483552.9009569,0.5518719740723947,-0.6302601226833664,9.782439829130785,-0.00016975338935333806,-0.0015863184167190466,0.0002490852453287
1681483552.910947,0.573583732242334,-0.4819144623760706,9.82347416040132,-0.0014929694815251646,-0.0024118456469533695,-0.0018560767679933
1681483552.9209251,0.7121064086860494,-0.5794357319247486,9.702879352939325,0.0016712872089314917,-0.001556505009848801,0.0005348042428035
1681483552.930964,0.8301503856060698,-0.32436473549967787,9.728893090805629,-0.002435868789012595,0.002935055312028977,-0.0002679959911379
1681483552.9409273,0.5269094597221962,-0.7233459314994425,9.7678008125245,0.0029796082062428586,3.196282724475028e-05,0.0003932587529074
1681483552.950969,0.7340310675497759,-0.5116947689503654,9.708767093356125,0.002586591245846606,0.002663484732270507,-0.0012622838880393
1681483552.9657204,0.5300386526084415,-0.3353900581356937,9.883302345026406,-0.0015734475369455444,-0.00121714724084861,0.0005154478672433
1681483552.9709344,0.980785715528776,-0.538409936792616,9.57970576671235,-0.0015425524396078137,0.0028687521718241907,-0.0002724600530687
1681483552.9810126,0.5375822338420638,-0.5509757851830935,9.810064338597064,0.0006118265991702384,0.0001694025266697153,0.0016505499620929
1681483552.9909608,0.5747879218093243,-0.4990258628646541,9.822025551760943,-0.0003779944316498352,-0.0006460474033785404,-0.0001804361858863
1681483553.000968,0.6454608741025017,-0.5760363926969753,9.740558484323795,0.00044267509717604267,0.00014037158900691386,-0.0015073856379363
1681483553.010929,0.702754146793437,-0.5266561417375337,9.740633009613097,0.0022598735827830973,0.0009681277663548821,0.0007061694009702
1681483553.0209253,0.588237365311484,-0.3739181538175986,9.865001169485199,-0.0008201973868847254,-5.82063824383156e-05,-0.0005194393492761
1681483553.0309489,0.6227538643534032,-0.3490232114933924,9.835383184174228,-0.003846603463079761,-0.0004176951481943593,-0.0003946478286284
1681483553.040964,0.5843336933807095,-0.7438871738382723,9.714844248110937,0.001217178951505995,-0.0013709768626993847,-0.0005507278296623
1681483553.0509844,0.8236623135710861,-0.5476639754399697,9.654823435894267,0.002593643112466451,0.002528668823387894,-0.0001073953503269
1681483553.0609508,0.5168922836949664,-0.42858932467453315,9.864617222905999,0.0007734930413080389,0.00011835087892385633,-0.000916957859275
1681483553.073664,0.5638904804133802,-0.4341074997787983,9.838534728750732,-0.0016363935928290197,-0.001524117876837902,-0.0020736325572702
1681483553.0809786,0.792984458896227,-0.5262121552053464,9.674589601277802,-0.0007367223143564919,0.000670847469566348,-0.0011922181624445
1681483553.090942,0.624731087556459,-0.5546798651831574,9.757523442877545,0.002456947831731591,-0.0007388105520770122,0.0021415614715319
1681483553.1009493,0.6076863251580685,-0.4436096208554171,9.819099548725356,0.0006066032216965519,-0.001038325600708638,0.0006916518282618
1681483553.110942,0.7026631023865986,-0.21952972348858488,9.829722116221575,-0.005602726640725219,0.0007769711045889068,-8.993561318998617e-05
1681483553.1209967,0.6624263124068696,-0.6606171314084861,9.702771653443252,-0.0003862125419620648,0.000484946169233348,0.0030751010595362
1681483553.130984,0.5409081288015115,-0.6774830891425859,9.773351977357937,0.0016947679222603935,-0.00031898062343956247,-0.0004162486915934
1681483553.141109,0.6201351410981466,-0.39013051106995766,9.819709905204244,-0.0007710165899311236,-0.0007231633524603997,-0.0006606278515878
1681483553.151149,0.7169236728444057,-0.5674179520149771,9.709290251677018,0.0007396040606120357,0.0010452358443777665,-0.0008941916789386
1681483553.1610148,0.6710748251810641,-0.4346647586227317,9.773935752846075,-7.847925741422749e-05,0.0015582017238380296,-0.0002243955427307
1681483553.170983,0.6436271201204607,-0.4624784932143529,9.789391951800916,-0.000635795827607417,0.0015421880159230108,-9.548978819434925e-05
1681483553.1809509,0.5862720840623944,-0.6587541352508108,9.751658552133373,0.0027572096965025323,0.0005870181515389755,-0.0003294573438811
1681483553.1910448,0.6659536204559736,-0.32425327832185824,9.815453022699867,0.0006077227724501716,0.00019586115729413572,0.002647061595368
1681483553.2009733,0.6599264606979047,-0.6909141245155854,9.694253157437341,0.0032347900390394006,0.0015563539243431109,-0.0001316174206781
1681483553.2109594,0.4425145582887903,-0.39642208506796794,9.92965918970256,-0.00011797677276533983,-0.0018605063555448107,-0.002515453150821
1681483553.220997,0.7477367305832037,-0.4272032353108639,9.735140189954645,4.7057820020376594e-05,-0.0004065131360706804,0.0007739816751804
1681483553.2309842,0.6003928185035541,-0.29303378437932814,9.864806759722551,-0.004690023698295589,-0.0007399685247164216,-0.0004341258940744
1681483553.241006,0.6975632525904509,-0.709972217763171,9.677338525519609,-1.141803766136593e-05,0.0004398744108016605,-0.0002024032914537
1681483553.251054,0.5680232878031191,-0.44761634621453605,9.823195362082409,-0.002824361722751628,0.0002979881012323089,-0.0035227465018156
1681483553.2611887,0.7087751538046707,-0.47593096858669903,9.751841514358718,-0.0007386150290138328,6.137600187481052e-05,0.0012832242751268
1681483553.2710116,0.5353612917429851,-0.5410210053525577,9.823847962846507,-0.0004200784878581266,-0.0016313788827571317,2.557504517103153e-05
1681483553.281031,0.7289150292291509,-0.45185943908832155,9.74269352910997,-0.0005754313645745664,-0.0002966218673103402,0.0014705989383823
1681483553.290984,0.6865200161265238,-0.5178717898403878,9.749758592002646,-0.0013756529242245307,0.0014464330534589337,-0.0007019774097475
1681483553.3009684,0.50216194870608,-0.6488810904611916,9.807770632285772,0.0009612520699976138,-0.0009247010354137739,-0.0022196625399861
1681483553.3109574,0.7555365783999359,-0.2621038041751154,9.79603206980362,-0.0020111685638208965,0.0002521056256764139,0.0016624630621176
1681483553.321054,0.5319928276251642,-0.5494554202906581,9.809810046548574,-0.0010831865236947955,-0.0016574712222962391,0.0011979184305768
1681483553.3310776,0.6421649700881434,-0.6517251651671643,9.72260935761701,0.0004821847438703314,-0.0006177548006279602,-0.0018907242960754
1681483553.3410275,0.7080557691284558,-0.39904875637315695,9.769143581257266,-0.0009002864831818735,0.000489026791936499,-0.0005984334315631
1681483553.3645704,0.6672471959399358,-0.4524284642260996,9.782854389720532,-0.001011293241863698,0.0010586394493213025,0.0019835811649922
1681483553.3666742,0.15309084203140724,-0.8197678602549562,9.92540639920611,-0.001669933209694228,0.0002577028485259865,-0.0018691071349654
1681483553.3709438,0.45590035961972075,-0.4847712834273574,9.882762193118738,-0.0011174739818179953,-0.0018209954120342639,-0.0007146524771574
1681483553.3810742,0.7226519135029746,-0.670108720467356,9.672981419275734,0.0029650837650107295,-0.00014351328551649001,7.250497178251463e-05
1681483553.3910017,0.6240893228130021,-0.2940011986538878,9.858803957560843,-0.0024324877276774306,7.924870951260044e-05,-0.0020650692790273
1681483553.4009955,0.5828752323606935,-0.4708484675564565,9.819871282660042,-0.0012839763406150618,-0.002122762332378986,0.0007385892636616
1681483553.4110415,0.712404718903645,-0.6443689662764703,9.676939095294443,0.0017711260858501382,-0.00021504167827515297,0.0005411264678936
1681483553.4209936,0.5314418921975084,-0.4823144746207207,9.829223238012698,-0.0003083415105098723,-0.0011631417263635805,-0.0029621159232679
1681483553.4310744,0.6868657760107083,-0.5053461426128804,9.74373222153352,0.0006416220204695115,-0.0003886394781342236,-0.0020632017444345
1681483553.4410355,0.6368953309515052,-0.49533692167238275,9.776780562119663,0.00161504081616905,-0.0009056864665810631,-3.663730281328243e-05
1681483553.4509754,0.6813376521672768,-0.3421246813290936,9.805215560514725,-0.0027189654073659707,0.0007605891094095244,-0.0021593240130219
1681483553.4610355,0.5606113562273826,-0.5621691247098861,9.785905847379375,-0.0001201986614750348,-0.0013613133414341343,-6.309198620652241e-05
1681483553.4711092,0.6547847711191832,-0.5039632692190482,9.758911348094829,0.0005585489069365318,-0.001107613042770621,0.0007263031980496
1681483553.4810474,0.8926899729019061,-0.5860352926607562,9.611416597993637,0.002417081662966456,0.0041651697565347956,0.0001742321724545
1681483553.4909778,0.49337928412325704,-0.3536573454030627,9.895217785800776,-0.0006324297761679117,0.0012992881543542755,-0.0003372824325684
1681483553.500979,0.5087416609959663,-0.6499384894687883,9.793129043072385,0.003217662957468542,-0.0017554393391342982,0.0010001236765187
1681483553.5109751,0.746548494313409,-0.36403045690388536,9.772846355978388,0.00040989688884774636,0.0004327965459089244,0.0013230851578068
1681483553.521025,0.5615839541102239,-0.5272600063435562,9.815106519022873,0.0004546011142329634,-0.0008557809004608362,-6.905594314371628e-05
1681483553.5310097,0.7237708452362425,-0.5306018958005151,9.707425658817174,0.0004594487196925479,0.0014863176213723661,-0.0015718159306321
1681483553.5409956,0.638234421928556,-0.5511015231878994,9.76657891764349,0.0019529210497346136,0.0012393255244207283,-0.0008066464256021
1681483553.559466,0.6592799862277753,-0.4274376628221196,9.800897682213542,-0.0010388420574034946,0.001761607709137022,-0.0012417621951076
1681483553.5664735,0.3721616223361581,-0.32748659501458655,9.970636073206865,-0.0014702405472476808,-0.0033357132732950543,0.0024909680901568
1681483553.573737,0.8081591178585673,-0.6011722583145462,9.655538751329152,-0.0006864571991000033,-0.00023217149655003455,0.001216165193497
1681483553.5809772,0.6046749119886385,-0.5226348687798417,9.780647885006754,-0.00034929390225851386,-0.0006535153701143347,0.0010135208681699
1681483553.5909789,0.6798338938816861,-0.49735393077967194,9.754578119638467,-0.0003645911862644781,0.00045067285736963606,0.0004279090749573
1681483553.601011,0.691672206103167,-0.5984135851682733,9.706614857203672,0.0009482113360193751,0.0024556338660756695,-0.0011933320242438
1681483553.611008,0.4329028020820049,-0.48709567544791726,9.891220053613512,-0.0007121365268707847,-0.000898639619682283,-0.0038062676362219
1681483553.6210067,0.7175950896708839,-0.4522529201907839,9.749964440654026,-0.00011460451626537446,-0.00010403745511834093,-0.0009627596050027
1681483553.6309988,0.6713016408102566,-0.501966779898802,9.754418474095793,0.0007224632868785201,0.00026105380916102326,3.786349729711729e-05
1681483553.6412346,0.6256119905843381,-0.3270490771056805,9.838594993696365,-0.0015060068095689848,-0.0005782555847485345,0.0020610623137567
1681483553.651032,0.63808552701899,-0.8675978381612215,9.639290721171916,0.0032452084767492164,0.0014818402297780086,-0.0036427348427001
1681483553.6644058,0.5966509597184585,-0.3121571204577066,9.865717510021629,0.0005473732497962754,-0.0012320371281110691,0.0006275814917411
1681483553.6709647,0.6207448140685093,-0.4541932803198367,9.808221614486166,-0.0005147074479776036,-0.001211186528046295,2.184067447746712e-05
1681483553.6810098,0.8230695486542835,-0.5390760305447778,9.665718900404196,0.0006218948245636989,0.002608729392916744,0.0005266283947516
1681483553.6910467,0.4051764518662514,-0.5322977594956805,9.898140099858496,0.0007172425752431466,-0.0020829028040620563,-0.0007057047955218
1681483553.7011197,0.7120259255307151,-0.49566245447080803,9.733326583645592,0.0006855556843995462,-0.0002701681451414843,-0.0009694660588625
1681483553.710997,0.5847678420562727,-0.5290773903946596,9.80426098423953,0.0017953451402595913,-0.0017107428894295833,-0.0003443498903412
1681483553.7210124,0.7737704659548675,-0.37264212093901655,9.741865634365643,0.00034546230918065557,0.0006883356897482812,0.0015559284761788
1681483553.7311492,0.6088640549436396,-0.5080538563267423,9.785876886697265,-0.00023305626399679888,0.0006972781109426316,-4.482362824415249e-05
1681483553.741082,0.5355428445809207,-0.6061600393652558,9.78065715542462,0.0005656431931383432,-0.000469486977546249,-0.0027877704746547
1681483553.7510376,0.7122317645997683,-0.3704389203228513,9.774075028495648,0.00020203735796451045,-0.00023515495902415697,0.0014866322181173
1681483553.7610233,0.6864727725785194,-0.4593574447967512,9.77663679803995,-0.0018983047660955318,0.0014524014442586616,-0.0009746560867402
1681483553.771032,0.5202447893496329,-0.5857519363188756,9.812790034598759,0.00028101673603382957,-0.0010990485219237271,-0.0003778784343499
1681483553.781208,0.7033600036362077,-0.5195404871600681,9.732728191430784,0.00020910375646896034,0.0008220914104140883,-0.0017461746505919
1681483553.7909844,0.5942670733841212,-0.33290568528628317,9.85464667287402,-0.0006778765864853543,-0.0014123472820430636,0.0030017073691364
1681483553.801088,0.6185765765806803,-0.738214034961877,9.703361888910141,0.001379207628401063,0.00013219077554755106,-0.0028529523446682
1681483553.8110733,0.684515036265199,-0.4717605399459825,9.758330352994891,0.0022054832458509714,0.0005047056998465076,-0.0003097152843598
1681483553.8210526,0.7877465889418276,-0.25675003286781684,9.789187287080589,-0.0021381995428007665,0.003138835534844368,0.0009263732313651
1681483553.8311014,0.5461597927165747,-0.676000979825411,9.766745602472119,0.0020326226039308454,0.0011894257051984832,0.0015041430429359
1681483553.841066,0.6140942283705139,-0.4138023330305114,9.809839588733658,0.0005201794153231825,0.0007535338558732401,0.0017012084386319
1681483553.851039,0.5266533857336194,-0.5512016750626759,9.810885604410664,0.00022364200369270036,-0.0004761679126589381,-0.0011955725535277
1681483553.8610277,0.6808865724271366,-0.5382802763429846,9.73760039116718,0.0017904918735957719,9.86325892734564e-05,-9.662821362649484e-05
1681483553.8710208,0.6546129649091322,-0.38426475570546453,9.797092449128137,-0.00022262861165574024,0.00041862968391646237,0.0008123133407447
1681483553.8809984,0.6376518611420143,-0.46240462507867275,9.801387888332682,-0.0007468104466236401,0.00017686486882374398,0.000632044505934
1681483553.8910792,0.5794772908834838,-0.5627520176812332,9.789396304494838,-0.00027294258121132514,-0.00042774732501455365,-0.00111399544808
1681483553.9010637,0.6978821984960236,-0.7075559699626846,9.661518627813166,0.0032236230474684715,0.0018953522850733897,-0.0029904118313912
1681483553.9110246,0.6293171581104995,-0.270589561787594,9.85834501420972,0.0009143061582658242,0.00014184991812558897,0.0014627795494984
1681483553.920995,0.5068352385036138,-0.45489049618681826,9.856276168625316,3.2163746842073594e-05,-0.0025511670495847916,0.0015778980410199
1681483553.9310784,0.6450895820397262,-0.4790187772950887,9.785156846161081,-0.0015585285700428875,-0.0016097860757342739,-0.0013025014236096
1681483553.9410465,0.7480323795151491,-0.6666726412830515,9.648966724178075,0.0030570890110485772,0.0003370666365984838,0.0004711085889961
1681483553.9510305,0.6285516341746862,-0.3077921085053893,9.856550342379451,0.000308201860434132,-0.0007235345310864363,0.0024563188158449
1681483553.961023,0.680481913819676,-0.434743733226727,9.762689113482649,-0.0025584137196259563,0.0013968784316530844,-0.0003305842441964
1681483553.9710598,0.5930276434562223,-0.5191685991709216,9.79062198910566,-0.0015775506638700683,5.914023131919313e-05,0.0011919688800357
1681483553.9810414,0.5954360913950193,-0.5798373423323601,9.779621374938928,-0.0004267955261578318,-0.0007794218895417962,0.0007870201330174
1681483553.991143,0.7770003402919119,-0.5620462729076684,9.673918945619066,0.0005872294643362763,0.002397138399911153,0.0002982662950184
1681483554.0011046,0.554823917565196,-0.4443399535483279,9.846557541781303,-0.0007285283723396552,0.0009044171394274313,0.0002640042180668
1681483554.0110724,0.6483677576043793,-0.4802126133793972,9.785067878500444,-0.0003578895151026883,0.0007833485165568936,0.0016393738729188
1681483554.021088,0.6171901452575731,-0.525426454514888,9.784696125495774,-0.0004092951761133505,0.0007621035152363814,1.6254950920888958e-05
1681483554.0311434,0.4945936703752955,-0.4606327658648791,9.87151750719521,-0.0016378777190596406,-0.0019826893512949785,-0.0011680163483593
1681483554.0410838,0.6464099529193271,-0.5928064740200276,9.734286791628554,0.0008360835376430371,-0.001911537083156988,-1.42870744216947e-05
1681483554.051053,0.7617770743704493,-0.5032313852695327,9.702082171070673,0.0001096352793111569,0.0012262627921082756,-0.0015114999882403
1681483554.0610335,0.6057379714197226,-0.625130215862185,9.741165491025566,0.0039031026987370087,6.326167444844217e-05,0.0003988632193308
1681483554.0711153,0.6514362026921698,-0.38505577271147445,9.81814088347766,0.001078212510435515,0.0005873873893521809,-0.0003574049373615
1681483554.0810812,0.7365049898263399,-0.3885184962554932,9.754205311535783,-2.4831682223269417e-05,0.0020994846839198934,0.001459800441395
1681483554.091107,0.497851673723029,-0.5656038203079667,9.825441851319187,0.00031341886331191267,0.00016645270188548277,-0.0006553952157024
1681483554.101152,0.674498511714393,-0.468271180989042,9.769288277735068,0.0007447874791788568,0.00015788358339850883,0.001285092595523
1681483554.1110702,0.5725614719590484,-0.49840392204524425,9.807510775578324,-4.084595727604486e-05,-0.0007268862395242746,-1.4658206467678968e-05
1681483554.1210327,0.692866586898203,-0.5456849820274166,9.730247806265757,0.0019670738399182436,-5.670677456865392e-05,0.0018126007012564
1681483554.1311998,0.6929409674839884,-0.4044783665713729,9.771184086337946,-0.0005944414857545825,0.0015820398842897108,0.0009222393232871
1681483554.1410394,0.5728254563907653,-0.4093777189296682,9.846547897444765,-0.0015179247205635246,-2.653907543182326e-05,0.0019116906874355
1681483554.1510918,0.6117425361054848,-0.6482593382592331,9.741124314308381,0.00018823027085756956,0.00033407646327900174,-0.0009560585062477
1681483554.1611748,0.5180127387088483,-0.43507323287139804,9.861066363389174,-0.0013514066341053811,-0.0019994588803395907,-0.0012801550369236
1681483554.171052,0.6996038763205705,-0.5380604453175708,9.72360322794948,0.00036967433846010907,-0.0012309210020917825,0.0003418485826354
1681483554.181034,0.6740314334265696,-0.6359514810775456,9.709270633661962,0.002687933382758628,0.000104606611063458,-0.0009154102339867
1681483554.1910486,0.6746350489933468,-0.38440572931739436,9.78771903324754,0.0010677899442888246,0.0005944716996894907,0.0005109732697259
1681483554.201111,0.5589882500210349,-0.39357129080559417,9.858834304608404,-0.0005299849620436323,-0.0015140467617750166,0.0017451635172132
1681483554.2110386,0.6301634104163949,-0.6008652019409062,9.744430352626864,0.0004762333003927987,-0.0007708554001234889,-0.0007071967742863
1681483554.2211,0.6588265318519975,-0.3880106357594245,9.799548928961546,-0.002498053625683786,0.00015713434395094888,-0.0017707466654006
1681483554.2316797,0.6402113556648903,-0.45427002322265725,9.794756028119789,-0.0021799253162037985,-0.0005171736716123902,0.000441310806806
1681483554.2410586,0.5805077396326328,-0.6296660063433269,9.75383512412964,2.4351122245565885e-05,-0.0011940531278075146,-0.0004944757133248
1681483554.2510304,0.6624867572484878,-0.37693728323748044,9.803037086803577,-0.0018111160289152586,-0.0009407347074208212,0.0005094855401207
1681483554.2618928,0.6880388605836553,-0.6880290720332553,9.699104112946706,0.0030552349404864686,-8.651296151193015e-05,0.0012314552400734
1681483554.2710197,0.5518189641859325,-0.4361621579747556,9.841188884345689,0.0011516087979479826,-0.001181005043017706,-0.0002974225248668
1681483554.2810552,0.5635062597051251,-0.5379955178787409,9.80636020711075,0.0015706975344812995,-0.0024021533340687117,-0.0011393323115531
1681483554.2911086,0.866332637344021,-0.47723249871968226,9.65765420953173,0.002688281779465044,0.0015652910753749026,0.0018859688384931
1681483554.3011043,0.5891187163111673,-0.4750915251116313,9.811813444516378,0.0009701873201796005,0.0012594271442361046,-0.0006066218524697
1681483554.3110652,0.7427254573090979,-0.3692836862716534,9.76148271877781,-0.00021037970858128098,0.0027316678178479705,0.001881897416339
1681483554.3210478,0.545075095938025,-0.4216307257956318,9.85330028537737,-0.0021601724250818756,0.001148044764814543,0.0012273455463823
1681483554.3311129,0.4736553358408553,-0.4939566155654395,9.863062105038825,-0.0030993185324569203,-0.0016757196244654238,-0.0006054895970497
1681483554.3411193,0.7349478971221972,-0.3749109082979894,9.771100470566887,-0.004548828171486427,-0.00040391623147402965,0.0011260305723648
1681483554.3511686,0.5613488527861913,-0.8219412127091729,9.70281063857185,0.0015200522790048486,-0.0012864318762425163,-0.000713520454568
1681483554.3611474,0.6759248555473188,-0.5041642029541206,9.747129148900461,0.001312519899261644,-0.0001647539209201718,-0.0014098133001003
1681483554.3710923,0.701498011632967,-0.3427549968806228,9.794768893331183,-0.00039363768967753536,0.0001902747555981143,0.001327193294443
1681483554.3810954,0.5557746677405552,-0.6196609646679027,9.7821894185015,0.0008204324603338924,-0.0009582062043744708,-0.0010107979218933
1681483554.391155,0.6911757664141528,-0.5489600758153785,9.734956101680138,0.002639490896448954,-0.0002556228029180975,0.0004808206536349
1681483554.4011364,0.6662468058870211,-0.3989794129067918,9.789363043737357,-0.00023604854420071188,0.0008723769915789638,-0.0009489588014308
1681483554.4111335,0.6124781206535759,-0.4996020581214346,9.78037542097406,0.00011225864238638205,0.0002822830850004815,-0.0003875698934767
1681483554.4211009,0.669213651888113,-0.426734206880335,9.788233314969398,-0.0005024173048292641,0.0005534858472607167,0.001066781168944
1681483554.4310906,0.6704741225314711,-0.5182281139297753,9.750519706466529,0.00017854366838446065,0.001311592611894574,0.0010149998375222
1681483554.4412715,0.5439854075596042,-0.5417456859286652,9.805309216558944,-2.5578040632137383e-05,0.00024242653682702601,-0.0011568400118026
1681483554.4537027,0.71025367723378,-0.5079817900379906,9.755875674231902,0.0007969758412352691,0.001710187742041979,-0.0005645186215165
1681483554.461052,0.5489453404815704,-0.495076103049223,9.825346827600116,-0.0004279482204524421,0.0011100353350681784,-0.002839559460384
1681483554.4710472,0.6395865240846037,-0.5048173195042349,9.769368186430372,0.0008621324843033215,0.0006440293892915282,-0.0008755945641074
1681483554.4816868,0.6497373269716938,-0.5665108488238483,9.7460342145116,0.0020769666776403856,0.0012467778311676665,-0.0015058890025589
1681483554.4910898,0.55000729026501,-0.39383718590037037,9.859719714611298,0.0013624662376471221,-0.00129573818599216,0.001020971070417
1681483554.5010817,0.7667215568054216,-0.32902966815193696,9.763330827604223,-0.0020886492240805,0.001340269002686556,0.0015968943585416
1681483554.5110502,0.5862384005071625,-0.6557196407936835,9.76810009022755,0.0006039922384083748,0.0005926036328598254,6.9893426867971e-05
1681483554.5211203,0.5685610430318818,-0.47428827858916855,9.82248880931342,-1.7023832892428586e-05,-0.0007045251212935498,-0.0001178514252874
1681483554.531082,0.6031278904932151,-0.6080021504694706,9.74513887946087,0.0013665521587233151,-0.0004970596838823896,-0.0023642196360502
1681483554.5410523,0.7275567553352653,-0.43404733380861155,9.74487443318728,0.00098880929657642,0.0008839265462987691,-0.000535462987003
1681483554.5511029,0.5709100668367479,-0.5457662906548045,9.787685624270695,0.003048533254612853,-0.0010059014118200126,0.0010876633710235
1681483554.5612574,0.6731836885027314,-0.4351442208084205,9.786922172154055,0.0008442535673395249,0.00023722764125468454,-0.0003424910868976
1681483554.5710928,0.6639108549769719,-0.4253430166278262,9.788347011121207,-0.00014441573557484697,0.0006384322636197259,0.0001172211446341
1681483554.5810566,0.58972357192884,-0.47862564908212885,9.815417599081172,8.729196268527e-05,-0.0008081008368805839,0.0010149992554456
1681483554.5915377,0.7048085811037957,-0.47348147875043606,9.762195179987904,-0.00027889849682614644,0.0003586630710033582,0.0010735072678894
1681483554.6011536,0.6216430535769676,-0.46121725138942243,9.783134295333909,-0.0024149849358254937,0.0010515509208436256,-0.0011370978358659
1681483554.611065,0.6215966905060367,-0.5694750027428589,9.758361662495835,-0.00023830693947571066,0.0005419281364583457,-0.0001569910713929
1681483554.6210754,0.592164226158539,-0.5087336415985042,9.796917598690088,-0.000520292207378259,-5.001367324664569e-05,-0.0007958619430187
1681483554.6311738,0.6600766299508708,-0.5197464295517398,9.76378353241296,0.000239665988124023,7.369571914685296e-06,-8.766609649097008e-05
1681483554.6411057,0.7426678208957439,-0.5031475045748842,9.728241334693623,0.0005324562070662367,0.002076764220219168,0.0004543428035926
1681483554.6510918,0.5110009170664327,-0.4531789155215541,9.860423140182995,-0.0011387175170690356,1.4049317876392435e-05,-0.001435868446109
1681483554.6610827,0.7271808579200464,-0.5606212829953531,9.714443138507345,0.0012056171551461353,0.001396156865964593,0.0001198182540487
1681483554.671147,0.5510531041967525,-0.4634636543788314,9.837433438017598,-7.289077343259397e-05,-0.0002936702202726463,-0.0008510006632182
1681483554.6810904,0.7467246669092757,-0.3030920588060029,9.782031341894857,-0.0017969582819211557,0.0005017113543101105,0.003628665577295
1681483554.6910875,0.638267423986439,-0.7535579542590966,9.691145231649232,0.0022974900274652303,0.0014595078592116258,0.0010329082393095
1681483554.701087,0.5677073436762594,-0.4618173024677191,9.828746016915632,0.0008572724932705683,0.00038102737378237976,-9.624881609266083e-05
1681483554.7111158,0.5788871266683051,-0.510835197499533,9.794728610447935,0.0013367551334468749,-0.0007384302853694216,3.965451056906757e-06
1681483554.7211175,0.5423729294303656,-0.6930447341160838,9.768293619975271,0.003513800357993091,-0.001443988641045718,-0.0037056917830828
1681483554.7311616,0.8047903609299868,-0.1536849094725272,9.801788585235796,-0.0011241735079741406,0.0006134646308092131,0.0012124471791561
1681483554.7411122,0.5877066268853404,-0.6775750741098222,9.737835735499734,0.0012782687016032381,0.0005173322063420012,-0.0012660175602409
1681483554.7511358,0.6403883496949837,-0.41260793929025774,9.7983816612662,0.0005067562195651577,0.0001996015464912347,0.0002181820996579
1681483554.7611165,0.6310848527435968,-0.512628341290834,9.781582761734288,0.0006542788984106333,0.00036797295225350244,-0.0004669182275879
1681483554.771283,0.6798381933052426,-0.4189994487986085,9.784598725050145,5.1527167809678e-05,0.0005628061308837482,0.0016229814751081
1681483554.7810938,0.593610934160896,-0.5914268497613071,9.778889175765931,0.00015284140364310364,0.0007971185447703951,-0.0018691238987717
1681483554.7910972,0.6736203115561317,-0.3751274224691241,9.799493156627765,-0.0013569939441428849,0.0008138827684120857,0.0002501950325917
1681483554.808745,0.6127153695158308,-0.5290397644905256,9.770778803875368,7.574548425974396e-05,0.0003761691511955683,0.0002863430377569
1681483554.811144,0.6448403571748212,-0.9709387733554791,9.608593898755641,0.0011731944350544692,0.0012665131850814375,-0.0021462917834046
1681483554.8211334,0.6295713669419117,-0.4053463275660092,9.806661542005118,0.0019551744552794314,-0.0005421059620239299,0.0024793801090222
1681483554.8311074,0.6288195692645059,-0.49317208388569295,9.780105787651872,0.0024115124323291198,-0.0009533818059005798,0.0032378751744058
1681483554.8410852,0.6016862044281345,-0.4139682403144606,9.824202901060552,-0.0011494872239849482,-0.0006076895543239048,-6.979878931229395e-05
1681483554.8511794,0.6323137963228446,-0.6791408182026893,9.719198480708064,0.0028656213334126187,-0.0008550205969779885,0.000127666858631
1681483554.8610754,0.7760762930894043,-0.36649246353476234,9.764899275486293,-0.0007106565114398018,0.0025595594755128464,-0.001648945272294
1681483554.871173,0.5680616579886127,-0.33246063168698503,9.867918039816661,-0.0024004598844651,3.194203149295486e-05,0.0016471968806822
1681483554.8811903,0.6317229211744554,-0.6102077040165482,9.743530593116809,-0.000550474271867681,0.00022790023709399305,0.0009285809315283
1681483554.891122,0.5856539158543185,-0.37321520854271395,9.85329214132811,-0.00276441829742633,-0.0011981301748780972,0.0017127349233728
1681483554.901126,0.6539957056292082,-0.8032323090887943,9.6669493136115,0.0009291986450173553,0.0009978976866774538,-0.0031480307265642
1681483554.9111378,0.63637482402366,-0.4304839645135554,9.791970020385554,0.0009087249746343551,0.0001858234628292719,-0.0004542298888314
1681483554.9212575,0.6749173472039128,-0.2918743588576626,9.822266095089905,-0.0027305083584006334,0.0005497625607644251,0.0009051064221661
1681483554.931101,0.6133566031093359,-0.7709106597086421,9.707520513105537,0.0012719421376260367,0.0010775965255010683,-0.0028585766016963
1681483554.9411457,0.6799872142816633,-0.3940641446589418,9.766786580564474,0.00011296101870002664,0.001713939389753541,-0.0011389325413379
1681483554.9511387,0.5506357153426534,-0.4294202354385544,9.844062716127299,-0.0012810018146406131,-8.204527218289623e-05,-0.0013766246888313
1681483554.9621215,0.6178817295208974,-0.526154466168998,9.778943258142828,0.0002530750963151252,-0.0010614258998148446,0.0002096008934553
1681483554.9721277,0.686448535737566,-0.5002987115291673,9.748669690221378,0.0007082939075034677,-0.00030742331609479875,0.0009609647054698
1681483554.9811473,0.627418524688447,-0.584286166980942,9.756599174385036,0.001390033255815738,0.0001571353481129133,-0.0008401770650867
1681483554.9912243,0.6973544146547412,-0.5629314629344367,9.715375063728343,0.003073100124189759,0.0012840359386190442,-7.651409073655886e-05
1681483555.001113,0.5916170729107981,-0.19499767078125005,9.915383269629407,-0.002727536567591417,-0.00012973911294055356,0.0008253867231782
1681483555.011168,0.6451329181637389,-0.6365705665752492,9.725522073366612,-0.0007274384682072762,0.0007103341743819063,-0.0012097237672183
1681483555.021129,0.4691741290612844,-0.48000008569599933,9.864114215147785,-0.0007415699490578914,-0.0028063580656678285,-0.0007477933581445
1681483555.031172,0.7783593051888449,-0.6206516902398098,9.670644085944453,0.002481553312046929,-0.00018895542683812475,5.017709513271767e-05
1681483555.0410948,0.6807204308711462,-0.4190423966300545,9.785652264823147,0.00029402659015030977,0.0011473199562002981,-0.0013322900089893
1681483555.0511637,0.6334150110941487,-0.4207121074988308,9.801264016560252,0.0001468907913515277,0.00017723907087812869,0.0013260686933303
1681483555.0611873,0.5863015425730295,-0.4282852232231827,9.83215547393765,-0.002179543879265967,-0.00036443048193537524,-0.0002217944751951
1681483555.071131,0.5563517888438322,-0.5456093799560487,9.796179973224987,-0.0005970372629805988,-0.0024461147761094997,0.0011722151498783
1681483555.0811589,0.654827957606919,-0.6208414214809242,9.719150895075908,0.0009623601800251587,-0.0014771520376807494,-0.0008636615279588
1681483555.0912666,0.7094394496700067,-0.5292042839187407,9.734488364097544,0.0021652783461438194,-0.00039645656554167675,-0.0001152324297923
1681483555.1012793,0.6143125983949024,-0.37270517783164414,9.825217181322614,-6.198905967423888e-06,-0.0010517301810437567,0.0006231087568689
1681483555.1111546,0.7046122163964174,-0.4644680664845015,9.750079702488016,-0.0008481195948065469,0.0005259217398208514,0.0003094291273977
1681483555.1211448,0.6344570745117089,-0.721109266175887,9.703051063741459,0.003145372591907151,0.0011186211339548448,-0.0016377850010517
1681483555.1313264,0.5617948745573195,-0.35392708187657695,9.862483561668075,0.0005615264299012121,-0.0007008208803324644,-0.0006196557119015
1681483555.141121,0.7431796435011608,-0.5932693679818208,9.684437991546009,0.0024207903981763096,0.0016297455711373305,-0.000664740804908
1681483555.151137,0.6087169445835268,-0.28371891521072073,9.865281616031996,-0.0009356641077054636,0.000452533987125567,0.00123777462754
1681483555.1611428,0.5900911405295921,-0.5501730611734225,9.784700847211317,-0.0006059836530561037,-0.00013606799011601576,0.0001041589962791
1681483555.1712232,0.5466849301659652,-0.5087028242458291,9.820592269830225,-0.0005225257081087214,-0.002051614470298509,-0.0002620203926685
1681483555.1811132,0.712009083669733,-0.49689028798227525,9.739308667945133,-0.0017191137774676872,0.0003612543796169984,-0.0028060257941011
1681483555.191152,0.6648075386336292,-0.6004741097676138,9.737377279581079,0.0013267041284475115,2.8236526861217992e-05,-0.0008759321685407
1681483555.2012186,0.6229574885930397,-0.35720223230083586,9.838470589048116,-0.0009583868716573187,-0.000691131824617554,0.0003772330197047
1681483555.211177,0.6339075645614876,-0.6335672499539682,9.736842911299172,0.001184755352947973,-0.00011667112316519858,-0.0011203300714019
1681483555.221285,0.7193288017551159,-0.3749847197429611,9.77973582617532,-0.00015075099351357984,0.000877586337914192,0.000973259152985
1681483555.2312174,0.6583253750906211,-0.4028574596777049,9.790386237714118,-0.0018282612827886578,0.0012795414081874256,0.0011789072555497
1681483555.241192,0.5828616406985331,-0.7436855760886808,9.714929494502643,0.0019041379051950628,0.0011524956302014682,-0.0017983412876251
1681483555.2512553,0.5337962253525321,-0.3046607480461135,9.912668059856198,-0.0023542816838427786,-0.0009649324913248443,-0.002356363464472
1681483555.261201,0.6632550564968104,-0.5390964741404192,9.746007941755874,-0.0013868156169720752,-0.0005145702666583781,-0.0020419722463462
1681483555.271197,0.6681211184316241,-0.4105799483890315,9.789346842405314,-0.0009066154143175745,-0.001159772857539493,0.0023229570320349
1681483555.2811897,0.6222569448612635,-0.6516624114007061,9.73884239539609,-0.00028783222207767755,0.0001224435536238844,-0.0027661703101817
1681483555.2912126,0.6222469359680917,-0.4106574527743785,9.8126937389375,-0.001361838760249027,-0.00047357570895180173,-0.0014325100969049
1681483555.3013277,0.6577720805022477,-0.5461352429090786,9.739235157553527,0.0010409772133840962,-0.0008267384946915022,0.0010917540890172
1681483555.3112316,0.7087688516024208,-0.5332954812632581,9.732213710292205,0.0018191868907267653,0.0006987743713654257,0.0009974990930881
1681483555.3212545,0.6367090416312698,-0.4237496056941064,9.796707634786639,-0.0002896982540846189,0.0012232905805971768,-0.0003834761486846
1681483555.3312745,0.5839731153471667,-0.5108026702582747,9.804769274566173,0.0008174572794369083,-0.0004050249337480328,0.001070514608315
1681483555.3417416,0.5228815646125595,-0.5260024529137128,9.82146564195531,0.0002791569015793436,-0.0020266405433859306,-0.0011646603274617
1681483555.3511934,0.7771256491013283,-0.3553779179493184,9.757389222728431,-0.0019128134535545249,0.0002975569894490907,-0.0001808152341741
1681483555.3611794,0.5741345125033296,-0.7075969708771118,9.740017845290689,0.001350174065690572,-0.00028876547540869675,-0.002135091930953
1681483555.3711808,0.655884667921093,-0.48137023674601237,9.772143539226215,0.0015196560707720363,-0.00025973022950197565,-0.0012201762333038
1681483555.3812137,0.6726302808191975,-0.44788399532078604,9.782773245687896,0.0012674642793549062,-4.068708879427668e-05,0.0003392579924788
1681483555.3911896,0.6285918468054958,-0.37138923316860906,9.834234808721655,-0.0019914210328214883,7.663798576216179e-05,-0.0004248195368323
1681483555.401165,0.7127749892735101,-0.5766552538441715,9.71628359701933,-0.0005914415026411324,0.0016792699690406775,-0.0008230577263507
1681483555.4111905,0.5545466708225822,-0.4225030276340014,9.849451224839848,-0.0012195327645413941,-0.000855040634111607,0.0008384292555514
1681483555.421199,0.6312005438169543,-0.6440725547089626,9.741817088067261,0.0009295832930547019,-0.0003226808194540976,-0.0013665657065335
1681483555.436506,0.7139120047122115,-0.3758419733031513,9.770739177604316,-0.00094723844227354,0.0010459703726527203,0.0022909023642082
1681483555.445294,0.4760699478972847,-0.5981912550350152,9.829334692095912,-0.0011066807602166274,-0.0005846083569510281,-0.0014805684372309
1681483555.4545074,0.7759104834093877,-0.2905444936823219,9.769846715545993,-0.002276034440919049,0.00045215324468983025,0.0037583110347863
1681483555.4613466,0.6031747038982381,-0.6964879290411747,9.715262340787366,-0.0013931449477093487,0.0014173736472383766,-0.0002322385593775
1681483555.4712894,0.5409185524273495,-0.5531140143153155,9.804476836746975,-0.0002565512179053641,-0.0004601534654097134,-0.0002113498089361
1681483555.4812105,0.6225211791500592,-0.4412255771515314,9.79890514330918,-0.0009926719913215855,-0.0009023528487213413,0.0005001729546588
1681483555.4912531,0.6908700692302064,-0.6307287534084769,9.712905402023047,0.0005175627946119091,0.0009115024557302585,-0.0017703834495965
1681483555.5012383,0.6897835503327059,-0.4530257605210287,9.767191461183693,0.0013710280123984749,0.0009379431057251424,0.0013256923080429
1681483555.5113602,0.5958756842632145,-0.42025163135873816,9.837745859888217,-0.0012135756922585506,0.0006097523746206764,-0.0004601907025549
1681483555.5212133,0.6055801776792639,-0.6157268806777206,9.761327925537502,0.000975772197242668,0.00013068748168250336,-0.0013240936718407
1681483555.531206,0.7276100792696911,-0.41623200870081384,9.748626666710384,5.338236943151415e-05,0.0016569201711784443,0.0003642188344624
1681483555.5412393,0.39771980989029854,-0.334430445420966,9.955987402801323,-0.001896417314052997,-0.004254743520827109,0.0030225659680094
1681483555.5513272,0.836881687101447,-0.6609554961977081,9.606952709984315,-0.0005881023599250779,0.0016181787094659776,-0.0011609410907599
1681483555.5612297,0.5476423663985763,-0.4619092435807321,9.853823156969472,0.0001964515099607133,-0.001328900205478957,0.0013066989882158
1681483555.5712662,0.682437195457382,-0.5077208867602726,9.748986457468881,0.0008576854059778645,-0.0006233151969575555,0.0023356084671344
1681483555.58121,0.6257160012885419,-0.712466951357341,9.705051512659447,0.0027031442874734207,0.0008646000984205354,-0.0026257417670909
1681483555.591282,0.6784736388764657,-0.41532496611915726,9.778649115826916,0.002082892155117344,0.0010948111484232182,-0.00057943049292
1681483555.601262,0.6839752441327006,-0.3269415111363647,9.816261681423642,-0.0017530006561697388,0.0021192297245857124,-0.0009199033997479
1681483555.6112108,0.5279702430394478,-0.7103901410978122,9.759907617846546,0.0018441554264375473,0.0006071451019646546,-0.0026778609066728
1681483555.6211882,0.6123755449887568,-0.45868307006896936,9.813071789741397,0.00038639587671817683,0.0003519441798926938,-0.0035656259901348
1681483555.6312644,0.7071628815921689,-0.45626889944021076,9.764987387233955,0.00189853320849022,9.863380729341455e-05,0.0011450223060332
1681483555.6411862,0.653482871639629,-0.3547484658602064,9.81924881716413,-0.0017578497632743703,0.0009133446273680257,-0.0001644273329052
1681483555.6582818,0.6491779500844729,-0.5295716311267171,9.770133608737922,-0.0001474079412268446,0.0008951136048089433,1.1431282060989914e-05
1681483555.6627266,0.42051778793762284,-0.6324771818362818,9.851049289380526,0.0008759406177908706,-0.000977591711092259,-0.0003383879124644
1681483555.6713965,0.5865158445135612,-0.4544445388832038,9.811077835219205,0.00042741744787963315,-0.0019562405015695105,0.0003295519814368
1681483555.681209,0.8197237659455356,-0.5388599226552978,9.662425648206295,0.002351885584782746,0.0010962810235829426,0.0020673864596996
1681483555.6911895,0.7119762154596928,-0.4266643781038472,9.768477845794308,-0.00010792664871760653,0.0031448009211721187,0.0003850588068839
1681483555.7013035,0.5432766486748976,-0.5508451582058927,9.815111873761355,0.0008196553218717637,0.001304151881617488,1.354721049615917e-06
1681483555.7112525,0.6164926834644019,-0.5128357959785029,9.787802565528498,3.961251219868686e-05,0.0015548313479769324,-0.001914953351346
1681483555.721258,0.717191872620405,-0.43914789853509584,9.74959798620665,0.0009321917885601785,0.002098738440117705,0.002108395677666
1681483555.73124,0.4900895953475755,-0.39968051766030704,9.880872149357781,-0.0015428951941382093,-0.000827852228108854,0.0014825309879565
1681483555.741315,0.5626115924626539,-0.549502008173907,9.804483670856827,-0.0014564596172056453,-0.0016373695713810396,-0.0009612673934075
1681483555.751655,0.7936121361520757,-0.5382754680832215,9.688482817688346,-8.80830904742118e-06,0.0011901499793154514,0.0004853004316341
1681483555.7611988,0.5437310888624387,-0.5770286516605395,9.795751131473796,0.0017111527444009702,-0.0006940981044892863,0.0008552044123884
1681483555.7712913,0.5412612703458163,-0.345576295170379,9.875249835126834,-0.001927334897866048,-0.0024550417152148568,0.0003198583104189
1681483555.7812116,0.8581212854998759,-0.482101246196871,9.676079348799778,-0.0016997407707947782,0.0015738380529931805,0.0011685109016493
1681483555.7911634,0.5163298721194282,-0.7050567382972823,9.774793959808418,0.0019872013094116496,-0.0004799050541700777,-3.9611365039995136e-05
1681483555.8012211,0.6169658747457416,-0.3607351553314476,9.83756840077432,-4.346021981595335e-05,-0.0015453315646100363,0.0018833665485967
1681483555.8112197,0.6603790533997823,-0.5867990203212101,9.730957647679663,0.0005142019481999037,-0.0001654902707633412,-0.0010245947673443
1681483555.8212311,0.6364111744500459,-0.4371048510025776,9.784475049274885,-0.00013548598637879531,-0.00036890972528702944,0.0003008496674251
1681483555.8312297,0.5840394399610447,-0.5161198748239623,9.787819730819491,0.00015734376414765943,-0.0012420984259556669,2.6692283014604625e-05
1681483555.8412237,0.6702990678788991,-0.4600198380080587,9.776928515659579,0.0008278944975019954,-0.0014149545984281932,0.0023304075544242
1681483555.8512297,0.6538056689613966,-0.5357789780452165,9.746223233281967,0.00047397488245124863,4.009632579185818e-06,5.4624160426506576e-05
1681483555.8614757,0.6440478401339244,-0.2336404372435205,9.853508979401244,-0.0035444765418510896,-0.0007902390923893566,0.0029748988995801
1681483555.871369,0.5768593312731026,-0.8677941233373216,9.6776165975361,0.002341095275851847,-0.0006564508610148819,-0.000493347881687
1681483555.888486,0.657582694611272,-0.40238979531759966,9.793995427180569,-0.00012094608180348829,-0.00016400090874366563,0.0011085108231295
1681483555.8911786,0.5612588367778061,-1.070827914922733,9.63112819979292,0.001665307867466718,0.0002927440960238906,-0.0016720530151847
1681483555.901211,0.6856623498563299,-0.38900291218413763,9.798283606264766,0.0002944309204598252,0.0005695004236250905,0.0004215658369016
1681483555.9111872,0.5943307369948986,-0.5638055001708664,9.785807982863556,0.0034296420618936197,-0.0013448901761426648,0.0037586535286631
1681483555.9211938,0.5219326122545052,-0.44488590990455446,9.85859463652272,8.246455461555891e-05,-0.0024699487773039955,-0.0003555273910511
1681483555.9312117,0.7095845419131214,-0.42811661132503,9.77837076914034,-0.0020443116693206653,-0.000532813826652256,-0.0017834296490523
1681483555.9412591,0.7370464879005401,-0.5258288690168773,9.716735099439028,-0.0005776752042828975,0.0011428400769531977,-0.0003041042986783
1681483555.95172,0.6443199327237816,-0.46784538009820903,9.776728403410365,-0.001371528175836055,0.0013227669306722885,-0.0004259231540832
1681483555.9618764,0.6501591962418517,-0.5231401954628182,9.758381679032874,-0.0009889623011823142,0.001856219504869167,-0.0005589367396656
1681483555.972145,0.627911191987195,-0.5116527611507147,9.774178855320601,-0.0006253538054907048,0.001710564878695547,-0.0005339731037143
1681483555.9822836,0.580622349977856,-0.47210763108356313,9.829032992564768,-0.0008645127367811928,0.0001839402797507731,0.0002062516246464
1681483555.9965818,0.5430015780308538,-0.4965360287577773,9.828623874877572,-0.0014940835505810484,-0.0023995477099348086,-0.0008197026367757
1681483556.001483,0.8265007179389791,-0.7893734378444754,9.581218820878666,0.0016411119050593313,-0.0005085808125452896,-0.0006665904115412
1681483556.0111988,0.7060762007975705,-0.28872720274939884,9.811686034502928,-0.0021579278459448966,0.00058702513221546,0.0003105619648944
1681483556.021211,0.5903749145242945,-0.5485297043621502,9.789042659990796,-0.0006648429608991153,-0.000940352850225106,0.0013968466696919
1681483556.0312784,0.5524235589557707,-0.5303413772108603,9.817016446804262,-0.0005240213660661346,-0.002277372872569167,0.0001932013506543
1681483556.041194,0.6875270250017376,-0.5590142391152364,9.726062176547762,0.0002921907198726737,-0.0007827529523111441,-0.0008487389463457
1681483556.0512023,0.649272581017333,-0.44123739456794586,9.796656449912689,-0.0012664699424577745,-0.0001953001122916005,-0.0014917517587069
1681483556.0616474,0.5466800600772342,-0.46902954886108805,9.840746030448114,-0.0015361690351487305,-0.0023969283022483114,-0.0011382149572942
1681483556.06628,0.942751970290549,-0.37016027929550094,9.651174479103688,-0.000676382722695717,-0.0006091698002842341,0.0028035179671373
1681483556.0807676,-0.0890596057603502,-0.3414610313988852,9.538718265470246,0.000856229484117146,-0.010087424400907196,-0.002057247799215
1681483556.0902069,-1.6165274844782829,1.7234690861390998,10.037230517433295,-0.02052628220019343,-0.045983445272207636,-0.0250995357095721
1681483556.1002622,1.2745943485717917,0.7837503948830347,10.809582579075899,-0.04837640614219565,-0.05550166941522869,-0.0496914361178401
1681483556.1101997,0.3656795713456111,-1.1877312684379926,10.018644067572652,-0.0373949160682375,-0.06855139924564206,-0.0776686978101257
1681483556.1201916,2.315769482248581,-1.1573001295605014,10.196577651968866,-0.024411291688231702,-0.07224493051872212,-0.0983122971415046
1681483556.130254,2.8967955598456165,0.38864512588585365,9.258656123308256,-0.03178728891971739,-0.05865509108275625,-0.1062128033995155
1681483556.140221,1.6621025936369591,0.24527822178000985,9.416831989504358,-0.04321036616197453,-0.06293908230358382,-0.1089227062224868
1681483556.150232,2.390670204516895,-1.2041941621986525,10.382586813273038,-0.042030014371926085,-0.06612726829052618,-0.1017827477812293
1681483556.1602492,1.3669585719492687,-1.5906106518200114,9.665154287190393,-0.027410849327494668,-0.07488042490229624,-0.0891218644141677
1681483556.1702328,3.3640416988870387,-1.1149201972136304,10.815918289607685,-0.024951629225993574,-0.07188927103718035,-0.0775968518614295
1681483556.1802323,2.934943359473024,-1.6933117933961144,9.68255818249359,-0.015716156956038275,-0.05639077974024834,-0.065940478122187
1681483556.1902034,3.863366951709278,-2.066884918777914,10.103617350208143,-0.004935632609056603,-0.03932534528745677,-0.0536256667732719
1681483556.2002258,2.7689675667738056,-3.3118712804555464,9.366899259104523,0.023924925971629932,-0.020482618125880852,-0.0595567089080337
1681483556.210205,3.7942467189166846,-1.7909483330608817,8.954364321145443,0.03121137328124362,0.007866858518111072,-0.0616783138870719
1681483556.2201936,1.4993706351573919,-1.4793853066918086,8.56228784719795,0.055043624186668604,0.016094534582405697,-0.0801614609121803
1681483556.2303452,1.543354646110058,1.0162554004934548,9.515437414054091,0.028321221353174844,0.02085364682563714,-0.1074378874659064
1681483556.2403474,2.589775978372961,1.5894316874369252,9.55612733980286,-0.009206019605029356,0.04512512670312862,-0.1312670868396285
1681483556.250223,0.6557960183639848,-2.333601293326627,10.625859070398544,0.006407253057261496,0.03411635788235964,-0.1624326717614654
1681483556.260232,2.4982767411549087,-5.328666361138929,9.958833373550057,0.05318644129581686,0.05924407916841135,-0.1788139652966979
1681483556.2703812,1.5801151376985427,-3.0584308999109484,9.934195233560928,0.09717407178171031,0.06254625968649427,-0.1692669105290893
1681483556.280338,2.103530602410493,-0.5817561269667529,9.184729233105458,0.11159149291043108,0.07235225293722145,-0.1580033313989166
1681483556.2901895,2.242564326453275,2.410559168773691,9.581822300633135,0.06852141964157916,0.08464710164916281,-0.1443888556718353
1681483556.3002353,1.7968727920159238,-0.2362561115591995,9.547313915040544,0.05950572738104585,0.09091271053344441,-0.1294147830962661
1681483556.3102503,-0.0129839821160689,-2.801228877614358,9.859418594401962,0.09069306570468559,0.0651035723220792,-0.1130408879875663
1681483556.320245,2.67834331077276,-0.7458698135573973,9.618471656251957,0.10783292344397626,0.07138166327973576,-0.0857794967054847
1681483556.3302865,3.0814652428556446,1.3783040069924344,9.649298816836904,0.09347875814705595,0.08669360394710465,-0.0612622213124755
1681483556.340284,3.3351970471811345,0.5764264833931314,9.734708415549001,0.07978840398445661,0.10418920724079359,-0.0474350054323199
1681483556.350216,2.233052015815572,-0.09187832228679482,9.77413165107152,0.07674919156548042,0.11313404586570311,-0.0332869042217258
1681483556.3602822,1.8500244452881842,-0.981807938652357,9.839120944118273,0.0936449988679422,0.11069453219422432,-0.0189409044146064
1681483556.3702204,2.391202304505564,0.6516389892569538,9.528549317706636,0.08860961910704121,0.12257440998958412,-0.0051915992557529
1681483556.3802528,1.6265910645066706,0.934151191263536,9.910865780170024,0.07504910713455436,0.12287612251972442,0.0045671334915336
1681483556.3902116,1.5887796738205195,1.4751053308712065,9.883448674600325,0.05363213957437294,0.12351226331447093,0.0114854413509842
1681483556.4002545,1.2994079452356087,-0.054710693291926966,9.849056634220208,0.048704975259683814,0.12575788503404112,0.0148651746526833
1681483556.4102368,0.7941476880422764,-0.505592998316131,9.884383818885748,0.049864449182885455,0.1188630761229081,0.0184164948255297
1681483556.425679,1.2929973712843377,-0.860083676036065,9.520309824529814,0.06209876210080817,0.1197517840390378,0.025389310666966
1681483556.4304273,1.3817355100552005,-0.02379003323277979,9.475130967404676,0.0588745855120469,0.1215948181550826,0.0254281579941984
1681483556.440293,1.6959288480991188,-1.4888365529322913,9.081122871313635,0.0686535272688908,0.13466527098574207,0.0220932725310798
1681483556.4511814,1.3128693884635612,-1.9797276222621163,9.110789718581001,0.09072454758552377,0.13971490094811437,0.0198271542281385
1681483556.460291,1.467747350611081,-2.1417470429490724,9.038005818613833,0.10757295208365641,0.14933938215459078,0.0110305312514778
1681483556.4757063,0.8228237709501351,-1.8244376535024298,9.039268080113954,0.12355670292490369,0.1529253592078986,0.0001214522595059
1681483556.4802642,2.0185066254487403,-1.3610598376980065,8.606051807852367,0.12677512703078198,0.16536017814832882,-0.0097651642322066
1681483556.4902427,0.8202822618544983,-1.0400917372472414,9.202683574247802,0.12651314470959427,0.17286224156201024,-0.0211151794105294
1681483556.5002575,0.3179834035525787,-0.8193332681588917,9.536473210732936,0.12690137201358667,0.17009187830768108,-0.0295894884079221
1681483556.5102782,-0.03954740588983524,-1.2814730961706866,9.689137280025012,0.13427519734112042,0.16424581471055305,-0.0370934989809516
1681483556.520244,-0.28344284538215414,0.017984712087886972,9.665504402587144,0.1281361183816169,0.15646825654408916,-0.0402247731148723
1681483556.5303266,0.028952698341738033,0.3869560785601828,9.89937816007745,0.12002897721653236,0.14823526896562636,-0.0405164074658874
1681483556.5402317,0.28996813631472756,0.5981496084544423,9.62801178960442,0.10851237978560167,0.14694782278163154,-0.0316216920077327
1681483556.553009,0.20644568856119871,0.020135698894339953,9.641218794927994,0.10657053647266865,0.14076404434956416,-0.0247057427227023
1681483556.5606856,0.39320663668499173,0.3750298109723411,9.376555409211964,0.10600531577014115,0.1397490800573001,-0.0143970188259605
1681483556.5703523,0.060412229407874156,0.8884799278211125,9.702478595268262,0.09581841102666713,0.13472327878492216,-0.0061675880610469
1681483556.5802836,0.11055316229085047,0.5991314205485208,9.643409751500617,0.090300890485607,0.13211548642894747,-0.001010288488445
1681483556.5904806,-0.4301514920941177,0.2704603891658066,10.086890839938448,0.08422633486614088,0.12384347810296606,0.0042212044314023
1681483556.600228,-0.6925366066424176,-0.05165931520070587,10.217898095497036,0.08923581044969593,0.11140157314211693,0.0122171638027306
1681483556.610257,-0.7937129459890281,-0.556469882138557,10.195333370791985,0.0969764627138717,0.09803637712937452,0.0158189113677021
1681483556.6202805,-0.6388894903739794,1.514373587550885,10.135604521885988,0.08574527685023438,0.09031329899703384,0.020666799271154
1681483556.63035,-1.1571422583725823,2.631837237270446,10.869322009368084,0.05371688209668458,0.07732834214244783,0.0188974633306738
1681483556.6402714,-1.1893403584633977,1.7527695107947752,10.647685000205204,0.029259269412899344,0.07018745453334459,0.0114553568378564
1681483556.6502738,-0.6982139564909524,1.4673381028870165,10.770028351679413,0.014743230430544147,0.0670898594822915,0.004198244070309
1681483556.660298,-0.8681683462377476,1.2131155860031162,10.400075491240786,0.0026023449834035317,0.06410135468444159,-0.0007392803713205
1681483556.670266,0.3371422484136722,0.751074228991965,9.636349618607875,-2.7039779200938317e-05,0.07884758152810013,-0.0040892257861319
1681483556.6802795,-0.7440170922794532,0.31009248395145006,9.476963401104017,0.0008730935695135866,0.08417396673254145,-0.0022384068037841
1681483556.6902556,-1.6416520882837682,0.1731665000566689,9.435963892141826,0.0022598253046581763,0.07496540297181642,0.0004917476285722
1681483556.7002532,-2.647407126092585,-0.5325563026356763,9.3366300318662,0.008405987425251287,0.05370524342716691,-0.0043099869548801
1681483556.7103374,-3.356599322931918,-0.8278199828087902,9.39458160987745,0.01562155469029339,0.02409895006086693,-0.019234405136061
1681483556.720309,-3.3187545538085557,-1.287380885535515,9.894333509938283,0.025653659479313806,-0.011171372440750175,-0.0303954121231559
1681483556.7303383,-2.1985836788499435,-1.7551703785644481,9.878145559211479,0.041737271412032435,-0.03181282709784238,-0.0429463658988002
1681483556.7402737,-1.3485871640817868,-1.4285355748807897,10.079248057629158,0.05411494388092436,-0.04747072209358028,-0.0489175964653018
1681483556.7502806,-0.033388127324128394,-0.9061123147024193,9.581664199058952,0.06031775318652742,-0.043181097185109915,-0.0505636904894832
1681483556.7602732,0.5634271632978041,-1.0035592599164773,9.923351298911422,0.06865677183875528,-0.03514324342246384,-0.0420114819466594
1681483556.7702937,-0.3531888851989492,-1.0942237782430488,9.731423549148301,0.07764988603560406,-0.03894812303587149,-0.0322160658001426
1681483556.780296,-0.09736671823169407,-1.1548545365695984,10.108985581304706,0.08613103209019726,-0.0421890360348368,-0.0291673068463329
1681483556.7903588,-0.8868002153021416,-0.9218071906772166,10.21860984729256,0.08998130015041478,-0.05687695512031048,-0.0207770403980735
1681483556.8002758,-0.29115493854885555,-1.3058909377634895,10.24512537261737,0.09932372235511577,-0.06721595946271049,-0.0180358749389175
1681483556.810367,0.03150683516611313,-1.3152116942223968,10.036887212488823,0.10544673290467589,-0.06880086797223844,-0.0167421654372934
1681483556.8202577,0.619830681941386,-2.1541363551999613,10.166442326653371,0.12511506808680425,-0.07234332843581555,-0.0134802798315409
1681483556.8302886,1.2372422461307695,-1.5206225320855076,9.550673034681472,0.1406788059592736,-0.059810780997909145,-0.0106812904163721
1681483556.8402631,0.37976268226648474,-0.5301448207349501,9.965503391781128,0.1427359162804953,-0.06170195641210606,-0.0087921109556678
1681483556.8502736,0.4750036588381565,0.24932938457923187,9.826823894703058,0.1335583917593225,-0.06032646947684371,-0.011471507376385
1681483556.8603225,0.5635109358072108,0.3980728288733596,9.954917479727962,0.1243630948458465,-0.06071953063033033,-0.0072208552196148
1681483556.8702457,0.8302377841089427,0.5574557404385502,9.678876462124347,0.11840411001897076,-0.05677565238455186,-0.0052544584072652
1681483556.88029,0.9781775304806565,0.22932226356590454,9.828760513402973,0.11594679412733214,-0.052968494176605325,-0.0053906508296254
1681483556.8902483,1.5847213386830532,0.578056613469214,9.64429350565079,0.10853654386224461,-0.03905759813773941,-0.0108249972149256
1681483556.900267,2.29475843694996,0.6992850883190176,9.389270480455329,0.10490568040540721,-0.01591103152437073,-0.0097111046820405
1681483556.9102678,1.258501052593559,1.6109743190535666,9.606458461486325,0.09059784032957907,-0.0024688301166081936,-0.0141550463199142
1681483556.9202638,1.0323741913627802,1.8477357462528925,9.9732457152969,0.06975743605828788,0.005145426227273251,-0.0145113926887038
1681483556.9304757,0.5566789135553062,1.3367263359104946,9.675110767501156,0.06017748676457346,0.009437200191133295,-0.0184905615210059
1681483556.9403195,0.3339981893646794,1.8273931759956068,10.162316676464014,0.04542193124692183,0.007013983562686246,-0.0230161391704801
1681483556.9529462,0.9578380467439511,2.122089966734222,10.196897838602684,0.025159485183061884,0.016067260662980656,-0.0305288967251304
1681483556.9634712,0.7681805738911878,2.9307422766365745,10.396795056223091,-0.0029735825495511236,0.025880939897404715,-0.0366901021956924
1681483556.9702497,-0.2670625516326786,3.5307038408222966,10.92015730348333,-0.03260046851545089,0.020292264593062034,-0.0417193148791316
1681483556.9803896,0.19542657190686424,1.604061651081123,10.33377012921944,-0.04397746822390514,0.014823692646880174,-0.0353189792990211
1681483556.9907095,-0.10101523291743218,0.9747689405420014,10.138916964982855,-0.04470791596138382,0.002289246488163283,-0.0298464235424522
1681483557.000524,0.8379275056996747,1.2768032937186293,9.834358450411788,-0.04953195898760635,-0.0002524524882680031,-0.0174224630504373
1681483557.010293,0.821785954077965,1.5749091677715428,9.535265508001013,-0.05848175737611456,-0.002763244365929499,-0.0053553532383862
1681483557.0203836,1.8300445945013273,2.0072643092189466,9.456717621265858,-0.07540907942176878,0.004834726195671642,0.0088178401306744
1681483557.0303435,2.276158300797582,1.5639029715751365,9.163143743869758,-0.08868616530193486,0.01971935238123897,0.0182636517525192
1681483557.040286,2.889361118829358,1.1253664362663574,9.060789462104303,-0.10033963759258774,0.0437933245581838,0.0184819705278154
1681483557.050311,2.839944058017092,1.0142373526004032,8.906536807643418,-0.10927592068913539,0.06797910735787194,0.0187016359955545
1681483557.0603533,2.6525918359306773,0.7043005729660309,8.854909411162337,-0.11579591543971332,0.09291739775910962,0.0142082970083233
1681483557.0702815,1.959386888471207,0.5270445097978411,9.166924233545094,-0.12463585918993651,0.10742159836354208,0.0077755444176968
1681483557.080332,1.1595525466112069,-0.06182953423081015,9.237437096281068,-0.12374261647107027,0.11020609131917884,0.0017706314643386
1681483557.0904272,0.9479395172872486,-0.6562488544279491,9.341216014894188,-0.11787427238536677,0.1107387116453298,-0.0040053387678686
1681483557.1002758,0.20664006125670586,-1.404304158313253,9.319958055743381,-0.10506626483623611,0.10604011893544786,-0.0122294419019941
1681483557.1103342,-1.2424303652169895,-3.49496639445111,9.499167758827367,-0.06709280874480052,0.08076801422934186,-0.0212526686995748
1681483557.120276,-1.2928057578624947,-1.71501953090071,9.666429726212098,-0.04380425534846445,0.057673675264016566,-0.0309552524744991
1681483557.1303551,-1.180344803413018,-0.8626237888212642,9.618191504679896,-0.040291893094363776,0.04144030742568623,-0.0386930306016925
1681483557.1402805,-0.6020928489392392,0.1859330812284507,9.882699786952468,-0.04917751998473032,0.029235292193272838,-0.0536248993634704
1681483557.1503708,0.5005658625466107,-0.9843244477976433,9.577281085695597,-0.04731136865811486,0.03740254350190811,-0.0634161543607238
1681483557.1603415,0.10401949420682763,-1.8262567289710647,9.680737748541889,-0.034685466141973056,0.04035162111427544,-0.0776498403906348
1681483557.1703062,-0.5549774310555113,-3.855916614748429,9.974269221977856,0.0016951425211973684,0.04180670056007229,-0.0932423484086517
1681483557.180334,-2.658409796294747,-3.0148235714460236,10.496602985986527,0.03198884147570654,0.013441190337412664,-0.0958817314862731
1681483557.190353,-2.659048640782024,-2.8764881608025723,10.3805676064468,0.06474250474748688,-0.018196382975627968,-0.0980572861194137
1681483557.200276,-2.2001740859708696,0.510895927798384,10.568113207612262,0.050454494620158497,-0.0413407666207705,-0.097805672562075
1681483557.2102826,-0.3198722065155322,0.08494469777380416,9.917711481073269,0.040722419123743976,-0.03976324376301145,-0.0823945489286903
1681483557.2202852,0.06891372245294435,0.5141181840843514,9.649458227461835,0.026716740227771568,-0.03161938096600335,-0.0770061176776412
1681483557.2303271,1.2082021380940706,-0.6214061993863291,9.482265021025137,0.030734301022885793,-0.011633970164689162,-0.0563841473817351
1681483557.2403154,0.5237934086626838,-0.1516426056328424,9.33876984972468,0.030857255966012107,0.007365665403575315,-0.0411031481384757
1681483557.2503898,-0.24925788982654612,-0.14662632654245017,9.874874171207354,0.032117772613364556,0.012474304621089912,-0.0295686547219279
1681483557.260302,-0.7057246844191561,0.2988617741984074,9.82627603132428,0.02707959693680604,0.0145592458936051,-0.0132226164027575
1681483557.270303,-1.5270428331919663,-0.4354705096330874,10.089066915508555,0.03253412109281899,0.003076899594845801,-0.004349297149432
1681483557.2803504,-1.6622744624265549,0.25411791971137815,10.229090434630455,0.03433720730120561,-0.01414653293727928,0.0085589524783667
1681483557.2938645,-1.0158976830278368,0.47807284153427704,10.147483213865055,0.02688164082695139,-0.02062363300686638,0.0188253566116567
1681483557.3002975,-0.39587696434468533,1.3343534080555302,10.3203356384355,0.01993994764016601,-0.02262274092162721,0.0281866851687904
1681483557.3103216,-0.7614683004706222,1.3805776525318396,10.002579401206102,0.0036352286326258644,-0.023245039915314042,0.0389187547803398
1681483557.320307,-1.4246654797537008,1.4888108398421982,10.394503294328057,-0.007684667112014978,-0.040089949789577264,0.0449425864458557
1681483557.3303769,-1.3404789853863468,1.1459954533578496,10.316550047300169,-0.019774917988297575,-0.057628309595946836,0.0470722045243259
1681483557.340387,-0.5370411598853129,0.9890004198265498,10.072518691467302,-0.02897089057692406,-0.06521596057473615,0.0457088525832172
1681483557.3503108,-1.0717402864044812,0.7920051873582566,10.075362808495997,-0.03585843092257087,-0.08271742992658163,0.0351021762431141
1681483557.3603413,-0.286231803099867,1.2434059076656292,9.868584424464679,-0.045388109746684446,-0.09580053318165306,0.0279913141817327
1681483557.370695,0.08280908786922517,0.6510341538753106,10.018681820550327,-0.052226734916899616,-0.104973445389203,0.012897685864615
1681483557.3805015,0.8539534950702395,0.3698784990677213,9.90719594355342,-0.056206225890732285,-0.10711546061785977,0.0008004084771041
1681483557.3903062,2.1080474789402026,0.031183720144841637,9.57421374299384,-0.05566010589692621,-0.09303405555554126,-0.0080979627131942
1681483557.4004433,2.02334985699505,-0.058367168568308946,9.59198928933189,-0.05181639442706362,-0.08101854618127054,-0.0093899623065713
1681483557.410311,2.042632345559463,-0.2139125425199262,9.589008215244933,-0.0514937494858924,-0.07026759594228345,-0.0108326741069081
1681483557.4203773,2.135595176077148,-0.607771090162423,9.39040479135595,-0.044286533570795907,-0.05523308375831603,-0.0063252535223487
1681483557.430368,1.378957747099301,-0.7518457785333058,9.753473410649702,-0.03880127733898609,-0.05278734534123147,-0.0028815001755479
1681483557.440337,1.6164885736579584,-0.7954348384689999,9.57433022917598,-0.03201935667862732,-0.045016952927463674,0.0043064146262135
1681483557.450884,1.1371659007319765,-0.9757647402464434,9.705017072069287,-0.0223577944214916,-0.03992113249267913,0.0093119309708949
1681483557.4608502,1.0761158139347597,-0.44127226430082933,9.904167944837786,-0.021522100865818832,-0.03680551726157427,0.011735670962977
1681483557.470525,1.2797664682399363,-0.4553506236439679,9.826041977306003,-0.01971322241473361,-0.027837416235067605,0.0137055932969328
1681483557.4803104,0.5607488020447575,-0.52528132875562,9.922145983461222,-0.01734956331730226,-0.02770776240991839,0.0064516228117522
1681483557.4904325,1.2605133801991797,-0.018192625194249214,9.84913671539802,-0.01996777972317478,-0.017719500520222857,0.0059270437300678
1681483557.5003622,0.7844199148854384,-0.3811907895270646,9.659840475850135,-0.020324647321443984,-0.007307750476268914,0.0006778154016014
1681483557.5134337,0.08550011518538347,-0.5189812310641961,9.84857718181389,-0.015750418828430875,-0.0067621593293829526,-0.0018930118571493
1681483557.5203464,-0.21188063880525163,-0.31644580668911676,9.84808516516949,-0.013844528323447987,-0.007585934234891162,0.0011727495544132
1681483557.5303369,-1.0249886630091631,-0.3179425488916482,10.048781807910352,-0.011712929554530207,-0.01943113029809643,0.0060350967064973
1681483557.5406096,-0.5757084446660731,-0.49688867221465033,9.887145860156744,-0.00813784975423051,-0.02371493084571044,0.0112914887682076
1681483557.5504012,-1.2061910442815629,-0.6793305145599543,9.951598709563731,-0.0005126291509157032,-0.034747659578950915,0.0160515948623892
1681483557.560331,-0.8003590443722347,0.0682688748854136,10.082036384241691,0.0002583258258148892,-0.04442441200782663,0.0237358368427034
1681483557.570481,-0.6687370767040535,0.31184204851966985,9.813275995187032,-0.00400782623843563,-0.04520569493513066,0.0270470480859752
1681483557.5804596,-1.4975802935900326,0.5061003982324886,10.168266709582953,-0.009502434016803368,-0.059269615440173895,0.0307039811701055
1681483557.5903158,-1.632930868296654,0.5473868774419879,10.231744519485177,-0.018908847650628915,-0.07656090314685529,0.0312265295029159
1681483557.6003363,-1.5113421074384321,-0.04023384928554993,10.162954423384807,-0.015699190262240106,-0.09494406976446473,0.035994174653339
1681483557.6104045,-1.1445036839200717,-0.02367389747758458,10.124842636896577,-0.016291059578698364,-0.11044297770907527,0.0352448250592228
1681483557.620329,-0.38072122306067774,-0.062163411830467565,9.878427787220343,-0.014257393220657753,-0.11627769334138432,0.0324493821204182
1681483557.6303568,-0.08499141904764267,-0.08168317292059267,9.789410998003408,-0.014246887812652159,-0.11841717223540511,0.0290311507374521
1681483557.6404006,0.09740585794180719,0.07885960538271009,9.83236255820659,-0.015803474896201958,-0.12099527096758889,0.0290349337697502
1681483557.6515875,0.3631871632963183,-0.42734009900986714,9.707029812290045,-0.013656944372503173,-0.11769610347976438,0.0254091459751602
1681483557.6603622,-0.04831634803059301,-0.374224998153904,9.990190808681337,-0.011563920703644794,-0.12403171403751585,0.024039546722221
1681483557.6703527,0.42429838357686844,-0.5575042799147766,9.740990751025347,-0.005412900271838338,-0.12504877647252038,0.0251796401530977
1681483557.6803796,0.5642905844443343,0.06713341856494894,9.825325244957964,-0.006450616183354835,-0.12523281601751807,0.0248445689172026
1681483557.6903574,0.5643416346995589,0.09635704752803582,9.95738107393991,-0.010468813810701081,-0.12897076806449484,0.0219517133623834
1681483557.700317,0.9965311237157525,0.03386535771042977,9.79351029468745,-0.013178392912432745,-0.12321246738038331,0.0223484511912342
1681483557.7103431,0.16488663575779475,-0.35024039879373275,9.97735923338365,-0.008014165990997696,-0.1310861154927914,0.0209247104317423
1681483557.720386,0.5095293556167061,0.22648798275003917,9.873908673540681,-0.011762403067318695,-0.13462558335630093,0.0187385238200899
1681483557.7304354,0.49426443760597544,0.2626106218655222,9.920873187371086,-0.015053032255860436,-0.138420590018821,0.0146718339488383
1681483557.7403786,0.6253282487252837,0.3517630583212252,9.879363781382533,-0.02387572554476643,-0.140251027368205,0.0079030904412742
1681483557.750413,0.8607442987785762,-0.06008163643152774,9.837213494406601,-0.025722639891288073,-0.13983716741815871,0.0050296545919504
1681483557.760333,0.7454793841081736,-0.4926856655075223,9.654718084902187,-0.01925125682837253,-0.14006661322698746,0.0012332459114499
1681483557.7703607,1.1466861836254976,0.12243308702897747,9.627048876219998,-0.024008562912664125,-0.13567522384476158,0.0003298212500762
1681483557.780979,1.0313272350813478,-0.052928973638453634,9.604562008291804,-0.024596077310591755,-0.13329522683905531,0.0041748953477021
1681483557.7912698,1.1686659101199006,-0.09856738771436636,9.504335265275666,-0.026030106337258482,-0.12805081166567053,0.0098060134292122
1681483557.802486,1.0954692359863605,-0.2304526959110163,9.505280755990634,-0.02182886446851454,-0.12633359815189354,0.0159814122558113
1681483557.8106923,1.4292897632558845,-0.12155591809080185,9.440158803549414,-0.025107613655543204,-0.11716194958808393,0.0191587514669176
1681483557.8204188,0.7403016144145118,-0.5306169489030093,9.62367945890296,-0.020447206517867536,-0.119289010926479,0.0199842813849922
1681483557.8304317,1.06254759824286,-0.5529438871354655,9.489271744748294,-0.017533529970560742,-0.11590935278077476,0.0214111718774315
1681483557.8404691,1.0773836825815104,-0.373043136269568,9.508216894254973,-0.013831197577199202,-0.11279876280997966,0.0260155673563953
1681483557.85036,1.266985903007166,-0.4010792206470065,9.586873870336035,-0.014579868336721728,-0.10714577087915966,0.0207682202995296
1681483557.8603804,1.4873916298540726,-0.9317520794642518,9.479495296948949,-0.004776639349953673,-0.09748480797334463,0.0238659165293451
1681483557.87035,1.9329701031870845,-0.9613947223808841,10.08945753196535,0.0030595018918901534,-0.08742613084452772,0.0273534792900558
1681483557.8803473,2.793558895309608,-0.1252205469945223,9.80050011350558,0.004578765211758965,-0.05858302942418023,0.0205384872347589
1681483557.8903694,2.506999825407938,0.2792604588922705,9.978957221806297,-0.008823278675090356,-0.032769984617190016,0.0153424122795935
1681483557.9004164,1.7934349176905144,-1.6260108096931865,9.627105802831286,0.006722189045442666,-0.013419458420947406,0.0062317603692885
1681483557.9103866,0.8829253599623735,-1.5865208797747479,9.696305488148443,0.022379630904910287,-0.009973418106979165,-0.0043726677581194
1681483557.9203546,0.8977267144707184,-1.0321720258716842,9.43764444767279,0.032862473626412425,-0.007398882211409351,-0.0129930528386953
1681483557.9304273,1.2093731501088842,-0.3479290282037902,9.539229144216744,0.029424378703420476,0.00043248610825072587,-0.0216000445693257
1681483557.9403598,1.0069098928285478,-0.754817184877908,9.456988572394371,0.0342068528570311,0.0023554652457095974,-0.0262090482323888
1681483557.950385,1.4035514556654507,-0.8430707006792956,9.469846780885018,0.039836673992214126,0.00852740890365333,-0.0250413280486587
1681483557.9604158,1.364138055872078,-0.8239626627038363,9.425969772131488,0.047524038194085676,0.012577624519911373,-0.0246233374386552
1681483557.9704282,2.0083477091571487,-0.31249312170777993,9.556712271369491,0.04706052334153202,0.022153139275455706,-0.0210376076906446
1681483557.9804275,1.9956976310493835,-1.0244031811698189,9.350574674336006,0.056892163449157394,0.03507503139414194,-0.0200047467410091
1681483557.9904146,2.0021123741024556,-0.5662546968239951,9.69698397639095,0.0627840676095263,0.04352633000692634,-0.0213998027652028
1681483558.0004122,2.2735568758146716,-0.03707364831320651,9.603839561523444,0.06027076758744633,0.05874073674217733,-0.0169815395533565
1681483558.0104413,1.3296533613948507,0.11622698601601815,9.959177201543215,0.05829320467968493,0.05874201671968958,-0.0145434394984964
1681483558.0203562,1.3280596106180362,0.670970353628046,9.79532374185263,0.04887989407973128,0.062003706914357436,-0.0105900086968663
1681483558.0304282,0.7987983194097552,1.074483205080286,10.163185568649066,0.03816321871804789,0.0586870786009968,-0.0079687761649016
1681483558.0403602,0.6275287474014695,1.5268893320375516,10.32577056127549,0.020896770799261173,0.05281970056282868,-0.0006741553119841
1681483558.050382,0.6532910992811305,0.8772445192198149,10.327629045184878,0.013415257348054344,0.0485727715386032,0.0076153960504111
1681483558.0605688,0.08414910588331659,0.14084039396039985,10.241175889961703,0.01392687162320042,0.03957222939123251,0.0115404508501764
1681483558.0704718,0.08791611042106146,0.400213934995212,10.121154907702898,0.01745941342057498,0.029789775452965933,0.019099031338143
1681483558.0805602,0.06801130753930217,0.6229184230943661,10.011765782238033,0.010062612267047936,0.020230249274424933,0.0271905872464653
1681483558.0920427,0.24240647547370392,0.248483242129925,9.59262975597818,0.0088552097831119,0.015157160643171963,0.0324185553431984
1681483558.1003654,0.4133749582451599,-0.339627156336913,9.291675467566744,0.012543813831734415,0.012897224934289263,0.0395290653646465
1681483558.1104133,0.3211296372876014,-0.4681899813868987,9.169848143077276,0.01865024663266166,0.00893348103793796,0.0442583810031887
1681483558.1204586,0.690777219916552,-1.3080752757948864,9.000813425807316,0.03136143896562984,0.012148069629427414,0.042352764630365
1681483558.130405,0.2879010062434368,-0.8688252444642741,9.117113630300357,0.0394934413232658,0.012483513552932852,0.0351727034390446
1681483558.1403885,0.27575773347310806,-1.2073867187000493,9.384181190408961,0.049539783342893905,0.01051646772491917,0.032364492067742
1681483558.1504576,0.27109342975149364,-0.46717248755069785,9.489831586299838,0.05187631906213373,0.00906872553230101,0.027760519409227
1681483558.1603842,0.6836199135033609,-0.7565799227897102,9.39502430590983,0.05553230829573606,0.013087930447724775,0.0218350149184938
1681483558.170396,0.12591060434777604,-0.019505031767923172,9.575268520938176,0.05106180816773621,0.01131962293168074,0.0156968559563633
1681483558.180389,0.03273013366665398,-0.8143160919700566,9.705927495147828,0.05572553732036739,0.006740566214418895,0.004278229312646
1681483558.1903777,0.3786005754106791,-0.9564582392385195,9.632896428778398,0.062165178827634116,0.0065938990657608545,-0.0025818247854236
1681483558.200423,0.34123842234343543,-0.8171226318620383,9.369297986676937,0.07401048634899048,0.005855542570932393,-0.0099526981397989
1681483558.2103798,0.7301255041803272,-0.22607182785560123,9.638001866608493,0.07388030604762574,0.010079162744544144,-0.0151356265455011
1681483558.2203884,0.4075563274155628,0.14394136795222862,9.658181001364095,0.07143507901183209,0.009565872720074732,-0.0203303874045137
1681483558.230474,0.8604583389624435,-0.19641026016574162,9.53945514127967,0.07420016368467769,0.014107342344797989,-0.0263426743953946
1681483558.2404478,0.5171874364711525,0.9434083764884567,9.594759824813632,0.06328149022490964,0.01563626377922402,-0.0332045306026462
1681483558.2504318,0.7573999807605077,0.9336404267181305,9.871979564253397,0.056386550045751764,0.019021100127429955,-0.0387099657713893
1681483558.26045,0.7953756624206131,1.2636677154434228,10.02767654678295,0.040207010458497235,0.0233547842553326,-0.0430475224315646
1681483558.2704272,1.4120138744272557,1.740004985501662,10.211126613227245,0.026312614322171662,0.030462128162927354,-0.0446704935788634
1681483558.2803762,1.4353290169570052,2.2904747725988868,10.18050571407567,-0.0017616962333745656,0.04039391601953687,-0.0404248212038997
1681483558.2904136,1.3498172719412094,1.7238572785698663,10.118114176097109,-0.01820548205612772,0.045906810287898364,-0.0303753290831569
1681483558.300379,0.4436262437074787,0.7021903853973493,9.732406256777674,-0.023200053128635593,0.04304764790614678,-0.0225052547215942
1681483558.3103786,0.0552996970916524,1.2906920542979707,9.82440491254174,-0.0367848162798215,0.03194463371760314,-0.0158205938100341
1681483558.320408,-0.5610197863625039,-0.4275105402624148,9.769001638076283,-0.027376455244185045,0.01905037842864766,-0.0146702297538045
1681483558.3304455,-0.780911699539708,0.47325757158419884,10.206693049522405,-0.034613496286343436,0.0006768824174167255,-0.0083509238942984
1681483558.3404872,-0.827653412610288,0.48604840407587324,10.251670896618515,-0.035198422708497726,-0.014778503407874373,-0.0054651529103044
1681483558.350484,-1.1261334566748191,0.13018402339271984,10.51971381904778,-0.04318955743002254,-0.03598684908276858,-0.0058525197714093
1681483558.3604124,-0.20119815005591024,-0.197375759257746,10.02830155750064,-0.04058446054785539,-0.044928768232048666,-0.0060569110832635
1681483558.370401,0.22045838155006647,-0.7850836095119887,9.637624504768606,-0.03352418287715834,-0.04753436654333327,-0.0028401033527675
1681483558.38281,0.2216898559321367,-0.6369592594356647,9.44616019275948,-0.026213019781404688,-0.04949906897121152,-0.0028337941079858
1681483558.390385,0.6735671428558068,-0.3124796695832277,9.446543316256426,-0.0239133088426605,-0.04803133574402588,0.0028584530769389
1681483558.4004936,0.5724042087076066,0.0441893235503185,9.71759542944981,-0.027195268913870557,-0.04740200136055781,0.008777793259966
1681483558.4103923,1.1245380865520478,-1.136013944158905,9.861353318865937,-0.018090895787966677,-0.040455152710237745,0.0093174658209558
1681483558.4204383,1.4676378170286004,-1.444251499440254,9.90169148765677,-0.0004853632268544947,-0.027563990371598554,0.0148433938116308
1681483558.430426,1.0991253526714797,-1.0258282383348287,10.103228283354975,0.011981138304448597,-0.01895409242981392,0.0145257671788808
1681483558.440416,1.1985509489742445,-0.49145669328904906,9.861742353963335,0.01968298448314316,-0.007148982335968343,0.0131323828787084
1681483558.4504058,-0.007845402011514043,-0.3401119556632858,9.851086126151417,0.021482124910391722,-0.009368490620457883,0.0018842347740669
1681483558.4604428,-0.639544116327298,-0.07031041009189098,9.508700428057484,0.021078138998121075,-0.022505078332547227,-0.0086202949791673
1681483558.470433,-0.06496785567735992,0.7661815610058045,9.635389973297231,0.011000300694508714,-0.03075910040416675,-0.0226493210106614
1681483558.4803882,0.22579139796281048,0.6965157497420873,9.778948643625554,0.0016427274329710896,-0.035047208177709344,-0.0346788105129722
1681483558.4904568,1.4329682955550855,1.092520517381065,9.888655231295745,-0.01166352211563218,-0.028497859042062278,-0.0406677101313594
1681483558.5011735,2.0316845430854666,1.0770139333777666,9.736708064221133,-0.02207088685015444,-0.010671175831227647,-0.0465204876422408
1681483558.51043,2.1551914431435257,1.1272139246566193,9.943541053529982,-0.034534190270461236,0.006928957707712872,-0.0485310789703849
1681483558.521903,1.8275928960978274,1.221524021647269,10.051506113152925,-0.04667940549032452,0.018701446319503174,-0.0413595635950092
1681483558.5305383,1.6668441952057051,0.9754939161957088,9.879862130771865,-0.05375717215346291,0.027857017625221435,-0.0389204446732524
1681483558.5404203,1.428642347901852,1.1401061148832021,9.998107290755234,-0.06439278514419886,0.030135492433213878,-0.0320040036499026
1681483558.5504804,1.1264721556396111,0.46983471893667517,9.789752438573828,-0.06823900518253374,0.0298966426900175,-0.024738802811456
1681483558.5605276,0.6055863047375275,0.25065425489045484,9.884836576639813,-0.06944987174566744,0.02079680953485431,-0.0161192037671331
1681483558.57049,0.5468525824736481,-0.027138409231280976,9.650911052326094,-0.06637508372525187,0.012199014391940944,-0.0092136107891324
1681483558.5804324,0.6858186193587495,0.6313798970443397,9.72803475974826,-0.06965680154433625,0.005768211664333293,0.0014308581335594
1681483558.5904608,1.183488327801666,0.6244348974247818,9.867119441595408,-0.07846486887206774,0.005163972747616506,0.0089976859704133
1681483558.6004565,2.146541764375703,0.8111502784822484,9.862017485844666,-0.08871736560633216,0.018691634112064044,0.0128536780789967
1681483558.6104617,1.7438088115542545,0.4705363434134006,10.103485711550357,-0.09836960742362975,0.035444890897018154,0.0095409813762184
1681483558.6204488,1.159498499852352,-0.08842546795078711,10.069009950981664,-0.10169466251790507,0.04201563105852263,0.0035436639987405
1681483558.6305428,0.9086950109635594,-1.0739720003465338,9.373356986641754,-0.09318048810283212,0.05564499328706915,0.0011837441375486
1681483558.6405003,-1.3724666614592682,-1.1429854336696592,9.779058447839839,-0.0823693412642943,0.03440239596397166,-0.0027269118040326
1681483558.6583302,-0.656656272708893,-0.7077086810815084,9.236462086894608,-0.07837148816920762,0.02103954067755388,-0.0080800841137293
1681483558.662433,-3.0249769244415297,-1.407115383547453,10.211420740666455,-0.07378071430801307,0.0007188037163744968,-0.0116128542035344
1681483558.6704326,-1.3809693193985773,-0.8946391156540475,9.737594551077136,-0.06899559079666549,-0.017267247198558818,-0.011820387332094
1681483558.680471,-0.571876032169186,-0.5793523224807985,9.55418254549973,-0.0699003723010159,-0.023674923070176344,-0.0140568402170661
1681483558.6904004,-0.015658708273050524,-1.3510351828018503,9.787198672725694,-0.059868482109515654,-0.02229644776960677,-0.0113857185974243
1681483558.700408,-0.5692868597289916,-1.5636779316591436,10.316322138234062,-0.04848216317072513,-0.028917770883238363,-0.0078410881146315
1681483558.710461,0.09376034480902105,-1.4537537874786863,10.274617627167487,-0.03268872697569683,-0.029264251752211194,-0.0022496350615743
1681483558.720464,0.31076469823423397,-1.0163123446134525,10.221968528808148,-0.027085841497844723,-0.022410788657379447,0.0077469793573495
1681483558.7305846,0.017116125753576322,-1.1244249096881438,10.420601747764602,-0.015797735706272104,-0.025324554114974092,0.0175244461238857
1681483558.740409,-0.17607111337585735,-1.1269935641385638,9.967245846857974,-0.0033553069209340787,-0.027580890316110305,0.0254530764610048
1681483558.7504077,-0.5448009420062008,0.9960210631348805,9.776073617299605,-0.01335353969788013,-0.0402337237850578,0.0420296366751667
1681483558.7604315,-0.3950510828384047,2.1294361216828057,9.511247379451087,-0.04458511898501538,-0.048337534955258964,0.0528452459216591
1681483558.770499,-0.47359478884064166,-0.46443787322120506,9.82793974059585,-0.04438002773353492,-0.06064049188625963,0.0667052108288284
1681483558.7804346,-1.0281569783007278,-0.41345367515164844,9.577502191771545,-0.038215648676308736,-0.08296645693696249,0.0774814698338982
1681483558.7904034,0.2296116558551718,-1.4703778600664588,10.082084989584166,-0.02519059167329783,-0.09295640670735442,0.0840519878507133
1681483558.8005185,0.4817568143162867,-1.7919647161596928,9.829197750892424,0.0024789911121145375,-0.0948127497474905,0.0740692007780548
1681483558.810432,1.6704621045145227,-0.40855544279462763,10.467667516088897,0.005348685960404309,-0.09038379665070476,0.0590914215386387
1681483558.820496,3.177725106351194,0.9572446012035105,9.668584681166374,-0.004435815597399188,-0.058954848492838566,0.0495969194412704
1681483558.830535,1.8574991244783512,1.32361520111651,10.145965909516073,-0.019075904667429214,-0.04704249302658315,0.0354663568974014
1681483558.8404734,1.0143037843922107,1.2378380352853267,9.820191178185649,-0.04087018562247528,-0.046696665106031834,0.023715724000382
1681483558.850445,1.032675936303172,-0.4908216809814921,9.9330158261565,-0.03395052814114925,-0.05008189254412968,0.0186499922961469
1681483558.8619974,0.34510016034046825,-0.9635428667816262,10.022720766508524,-0.02273888461565699,-0.06853189943802741,0.0149018724874135
1681483558.8711476,1.670379386139347,-0.7675954974044678,9.404700223524681,-0.008566449978378033,-0.06864347152754181,0.0111864607275005
1681483558.8805318,1.8816106649305684,-0.44881660921879896,10.07673787323327,-0.004288306289586968,-0.0712082405892168,0.0135009165347095
1681483558.890634,2.993575509724536,-0.7350054852744685,9.409870911604582,0.005633949129404496,-0.05475902730864119,0.0141403663397308
1681483558.900626,3.7369063871339923,-0.39996146224075413,9.52586713340041,0.006839534173437292,-0.03162474038798457,0.0221250809222933
1681483558.9118328,3.814734185225893,-1.6323053891369257,9.010833525149948,0.024832343729950048,-0.0016704141790784143,0.0316604699433323
1681483558.920559,4.82434184377957,-1.1087537471823061,8.808426831612671,0.032409692697748835,0.03254826220573474,0.0477850462735172
1681483558.9305997,3.9253738633160964,-1.8411420148473934,8.456393261714288,0.05173522239958378,0.06430665915142243,0.0591516557574745
1681483558.9404323,3.8299401567762104,-1.9136094353106416,8.440952985652569,0.07058360894621861,0.09205061495010586,0.0764349389315124
1681483558.951568,3.4941704847965247,-1.980238630445749,8.133787809173343,0.09534276509225753,0.12101211561121718,0.0903924915433403
1681483558.9624102,2.7043806843630627,-2.123616224321603,8.377714253159942,0.11475771030349974,0.13832043955193854,0.102910711193132
1681483558.9723709,2.6438426983270698,-1.3721600502418327,8.08435517917997,0.13184426134201405,0.15499913109955052,0.1136010948062416
1681483558.981309,2.2122848810396247,-1.7111348023734505,8.6329968980198,0.1438856912471436,0.16801654925065562,0.1180515054107185
1681483558.990466,0.06948596500906794,-1.2245977498979237,9.472472273039882,0.15299165861890374,0.1560784038155363,0.110149643147039
1681483559.0005078,-0.3644596017145121,-0.1510249394610028,10.218233520819684,0.1534468809278824,0.13669366324029922,0.0990099001169678
1681483559.0105035,-1.9739726111417164,1.891638032747558,11.13785224209253,0.1182187681007548,0.10655364666352937,0.0773601296782967
1681483559.0205145,-2.762707508666819,1.5711404733861611,11.88427561175504,0.09054035321776677,0.05871044477343739,0.054344999367046
1681483559.0305629,-1.241689609235655,0.626475761302104,11.26142719999063,0.06983547336102494,0.0332523482525586,0.0366228024900432
1681483559.0405438,0.4044549001734697,0.3424219182025664,10.500613916919997,0.0654065898611374,0.0323564824144316,0.0263414799660917
1681483559.0504603,2.1104802855242486,-0.17930381681977967,9.526516835440093,0.07134519794140441,0.05907486506430116,0.0156912084162708
1681483559.06046,1.0534011542674715,1.788095400596779,9.609494621795044,0.0531955493954523,0.0846023202441053,0.0100810711697217
1681483559.070608,-0.20708602323814224,1.6974450599374118,10.14372108677082,0.039833833668365466,0.0891706902369993,0.0129508019850131
1681483559.0804887,-0.8822635695292718,1.959998269208367,10.483327541481206,0.022109643532960615,0.08925662290435807,0.0060206528246876
1681483559.0904684,-1.4407527707028955,0.8465501237993417,10.409333120778992,0.01265196930952757,0.08552634542241763,-9.53711609814076e-05
1681483559.1005034,-2.1736358949151304,0.2804437820727522,10.334285416292294,0.014832105358837796,0.06894029336576822,-0.0025772133416954
1681483559.1104648,-2.262839542815038,0.04670374851069069,10.39959587727803,0.017002321943679878,0.048122937352499104,-0.0049845066427711
1681483559.120521,-1.5214949266368516,0.5323481837834373,10.010342485230371,0.012795189741820255,0.036472311748013915,0.0004615286557477
1681483559.1305494,-0.673773604306648,-0.044002607215094004,9.723955935189826,0.011356447008011425,0.03480425704497451,-0.000731798824248
1681483559.1404705,-0.5161241602533783,-0.4836099653519206,9.761958275280849,0.01314084335723928,0.02989396408819106,-0.0014860276173326
1681483559.1504843,-0.08568791011689171,-0.9837838971834741,9.47800645854234,0.02400301816025769,0.031162513863222815,-0.0097053435205939
1681483559.1646645,-0.1454649942971483,-0.3323748933199401,9.805113394030853,0.021841420717468633,0.0282077103079627,-0.020492677813721
1681483559.1704674,-0.5997239440567721,-1.1235255281339942,9.87952853537847,0.024730751217004916,0.02364489301052126,-0.033369996821833
1681483559.1805356,-0.15422096291055193,-0.7618937277795829,10.020938000403333,0.02727041509595859,0.014756398075779213,-0.0451849114655975
1681483559.1904747,0.42412727573106396,-0.5006011268741848,9.804503875360268,0.02565282124969924,0.0148149981876792,-0.0535564806818488
1681483559.2004516,0.5143677004029713,-0.819493777909207,9.833198421552135,0.03166272866824124,0.009566765558371807,-0.05784281087513
1681483559.2104695,0.989345765033646,-0.8353544251231025,9.703731420898384,0.034509395297407486,0.006401495459803674,-0.0602925356983665
1681483559.2205317,1.9490753577178224,-0.261322967263684,9.305438751775727,0.03768434304216464,0.01265483392183242,-0.0472432684659484
1681483559.2305388,2.333301357770175,0.18084866320460602,9.287431261062242,0.03585560799387972,0.02153652929432543,-0.0303696703671935
1681483559.2405343,2.5181080998002323,0.8737367325477678,9.534206324370002,0.026534839335451907,0.03106189676538549,-0.0130801622330669
1681483559.2504857,2.696728413465461,1.5373505619779932,9.549979513363345,0.01116148218516961,0.04669659760498742,0.0029494465521078
1681483559.2604675,1.5695781349241997,1.8670030795216193,10.057167207300452,-0.007725581052404815,0.04976076639502837,0.012856221520948
1681483559.2705042,1.0665041266293551,1.280469663282699,10.17474013085381,-0.019632159739574277,0.04502871832582744,0.0232118617237087
1681483559.280598,0.4253840452518928,0.4030868414204025,9.884507517024947,-0.018272473076074627,0.03785560840893903,0.0229057453066583
1681483559.290466,-0.05016708006282478,0.8383723577713551,10.445516880287055,-0.02053578440632876,0.021723765482005785,0.0253652601927992
1681483559.3004563,0.6503008909900793,1.3704603337258638,10.215995983717034,-0.03140105608507739,0.017733464589981006,0.0212948906660553
1681483559.3105087,1.803595499145748,1.420893889947877,10.081841323884225,-0.043571226117541655,0.027760242986137926,0.0193840700626846
1681483559.320525,2.414332588129155,1.00558754303118,9.643128321047953,-0.049206052025777054,0.04890551966014926,0.0181843757123228
1681483559.3305266,2.5597988461932175,1.5170602834642646,9.476583233049046,-0.06112944317943145,0.07549672938016451,0.0115263934672352
1681483559.3404868,2.3280563899383595,1.2614943041646478,9.467738872786638,-0.07254004603691547,0.09989774543688834,0.007399780904549
1681483559.3504767,1.7432978436640534,1.2137295467595104,9.530047937002717,-0.08329442829370919,0.11604937608988102,0.0057244498707827
1681483559.360575,1.6767092131641361,0.193069743013138,9.6649847474339,-0.0832922812189962,0.12959532883295757,0.0013307597360348
1681483559.3718553,1.6129805571660571,0.5088536157277835,9.51699186365763,-0.08546582027403085,0.1477717296872734,-0.0005538221489164
1681483559.3815982,1.1719604950226332,-0.16269679343172463,9.738842027304736,-0.086095111930402,0.1564655124927487,-0.0036552294663611
1681483559.390664,0.7068331691429125,-1.4315217109620217,9.416799159821712,-0.07227377219779402,0.16259530573879863,-0.0025750200770321
1681483559.4005022,-0.5351664078964438,-1.6252014112420845,9.768433128537529,-0.0561236861938252,0.15459199452190303,0.0033502255060252
1681483559.410542,-0.8201427819734748,-2.02478435653712,9.952916124288551,-0.039212211637220884,0.14141778867604152,0.0076225728221711
1681483559.420472,0.07456240229043803,-1.9714263777642522,9.804673692511116,-0.025957741238371457,0.1409888492195189,0.0195550702006098
1681483559.4305289,0.12915050299239442,-2.5449858272471384,9.83140726305483,-0.006161366992341774,0.14485248972649115,0.0302658013493296
1681483559.4404843,-0.22981577770988335,-3.667474957218577,9.861107947678324,0.023446671408216616,0.14725409903673337,0.0352452311158653
1681483559.450653,-0.9231976784490841,-3.288581738804985,10.026656887943247,0.05320082555144006,0.13751784867492595,0.03240659343605
1681483559.4604914,-0.6127254122126485,-2.271836763484207,9.980141983628144,0.07155788501182819,0.1310220788912583,0.0312246389180895
1681483559.47061,-0.8402534991658303,-1.7652749542161639,9.795977996478086,0.08324454181995178,0.12112566015811528,0.014044079692709
1681483559.4805946,-0.20657686002777684,-0.8635444568710552,9.73527667488018,0.08414993782961204,0.1149616780235185,-0.0002951207611236
1681483559.4905045,0.5127444671662528,-0.4974451264686396,9.0821961179103,0.08642029442414759,0.12028551876540602,-0.0146249451249364
1681483559.5004776,0.501945148438506,0.25379740962383046,9.403206218664316,0.08239342964988505,0.12208517347121031,-0.0261746582149985
1681483559.5105116,0.6177986246911508,1.1353310087609991,9.4863938477856,0.06909362006798951,0.12833212963454832,-0.0333826516329768
1681483559.5206084,0.48737307801460633,0.840645978855234,9.837740587238784,0.06538889106173243,0.12920273504763202,-0.0319982927798751
1681483559.5306363,-0.3595118337986656,1.5103209108402336,10.41763170904361,0.04903628398557156,0.12153377179317708,-0.0371022832154754
1681483559.5404775,-0.28132203911590326,1.4299475675251885,10.366944753742388,0.039382094293556665,0.11565476124676606,-0.0332968619226936
1681483559.5505304,-0.7342686433146461,0.8012336980127608,10.350782312186402,0.03518651315832544,0.10545596325863496,-0.0268732525914434
1681483559.5605075,-1.1819712569643614,1.2451002898146653,10.592648158677374,0.026057766938395854,0.08531641618410277,-0.0177545838564161
1681483559.5704832,-0.29153233662163114,1.089155346223734,10.038002476237052,0.01855566453548195,0.07868942521057898,-0.0086776160209897
1681483559.5805728,0.362418103045316,0.7606331632330062,9.757274137973514,0.012183565453397015,0.08195028901034787,0.0074444988236304
1681483559.5904722,0.06877710009469877,-0.15929807557686215,9.528581283918685,0.01915016512923963,0.07933804453258775,0.0211658186704393
1681483559.6005216,0.5311528268743353,0.2064181217329015,9.47047671386092,0.019334027373382075,0.08123979826727364,0.0315502963454004
1681483559.6104774,0.739600827862471,0.07791793498989236,9.43083744610206,0.02026575046660264,0.08824033646625647,0.0435556347907062
1681483559.6205194,0.3940965757385165,0.3115015187081697,9.63993745141369,0.016272465694738353,0.08784538549343357,0.046381870979118
1681483559.6320086,0.96620838977224,0.7114822820212712,9.657290808022434,0.009486950254232183,0.09441753953318989,0.0503011483192917
1681483559.6405015,0.858006456388686,0.6003317374810824,9.745876495607716,0.0012416745532272742,0.1003385462080709,0.0523491564631935
1681483559.6505404,0.6845227589703227,-0.10474355031587623,9.664890795674571,0.00343020319927129,0.10042970241855129,0.0504871222615715
1681483559.6605089,0.7671789973968226,0.008537732027271904,9.54342926210858,0.002587334616125919,0.10227222876354951,0.0507559690118309
1681483559.6705456,1.109524524345504,-0.5059080389131945,9.478022323325945,0.010073107567421274,0.10893963909348008,0.0485748376191135
1681483559.6805744,0.817430851125934,-0.5716546325519024,9.696161991046084,0.014227831852401434,0.11342080181844962,0.0426141831517692
1681483559.690529,1.155060592867514,-0.36073358245070813,9.712429103401787,0.01866914412151294,0.11947962574531037,0.0462953287601944
1681483559.7005565,0.47468801279163636,-1.4126020129616874,9.693944343301183,0.031681495625556555,0.12227387386776943,0.0471670429647442
1681483559.710539,-0.5953844098496112,-1.0739823704528897,9.970676357376972,0.042335662004465195,0.111028591832968,0.0433314654469963
1681483559.7204995,-0.6591224002725169,-1.3246160035351044,9.823348472628908,0.05251899438630003,0.10475118432745877,0.0544444385409828
1681483559.730561,-1.4842218821608928,-0.6788708838013786,9.839659384965413,0.06050717030116866,0.08700024195605084,0.0588579613209244
1681483559.740532,-2.1712427823436338,-1.9409765396522607,9.908038518620783,0.07957295977673935,0.06890177429639878,0.0774292189121719
1681483559.7548964,-2.2755847947252272,-0.34171544907178575,10.249527580263031,0.09490729993762298,0.03718343423811005,0.1008678961039062
1681483559.7605622,-1.5263523983565135,0.6669638948137857,10.209163274402286,0.09508004962372328,0.031370350153745084,0.1089259448886391
1681483559.7706027,-1.4859009067611464,2.5371382319906455,10.180999255042583,0.06645911207605051,0.029154667113725025,0.1153105634689804
1681483559.780543,-2.2660768223075762,0.9723801533976296,10.097272521239212,0.05087836254164348,0.021582308272838333,0.1017859193921562
1681483559.7920213,-3.2092434742531646,0.3407370719625516,9.810385201252135,0.0518457904741056,-0.0022247646459085026,0.0911138865590568
1681483559.8017218,-3.4187655507452814,0.968864855163013,10.21046466649128,0.037167664965292696,-0.02564947122210151,0.0795974272728439
1681483559.810503,-3.80751260314096,0.24023907949642784,10.502340038267166,0.03556706867273255,-0.05682143250042965,0.0733894396067139
1681483559.8205411,-2.241110237354778,0.19434263261920717,10.395288548986436,0.03874729617803394,-0.0790314222816939,0.0729180786252495
1681483559.8307338,-1.4814049116306511,1.0207610630200974,10.140938777003552,0.031074309813547887,-0.08521739149139829,0.0637321609497543
1681483559.8405242,-0.8123276353156812,1.7225694394611313,10.411445530128209,0.014449259316953792,-0.09397604013401323,0.0661696109414574
1681483559.8505323,-0.6483683129027247,1.3924822279762843,9.89321770357875,-0.00027316522669527715,-0.09279744205433488,0.0610519226134296
1681483559.8605494,-1.563340588287135,1.0079716376313657,10.403326023271653,-0.010970587958660589,-0.11146142070542617,0.0579412791371818
1681483559.8705328,-0.977496317605998,1.3116527577371124,10.128004183626356,-0.022369596997151558,-0.12312870999125598,0.0565175849438187
1681483559.8804913,-1.1611716587268412,0.932949904696786,10.726219276666574,-0.03211796220940675,-0.14367994054088726,0.0514114375651356
1681483559.8906195,-0.7055035062433892,0.3760425504637138,10.438854719820924,-0.03342933253355982,-0.16011790667203674,0.0448046165943619
1681483559.9005513,-0.21980916826048336,-0.03735884536427948,10.457175065102861,-0.03583463341881297,-0.16988890247278285,0.0345372620463844
1681483559.9108827,0.29126223450521754,-0.28334160250663437,10.120296656725941,-0.03046663068282581,-0.1793821945075215,0.0272897731006618
1681483559.9205215,1.0688719596361385,-0.6523626088026491,10.037614190412556,-0.026619663834057665,-0.17910178914906383,0.0140117339283701
1681483559.930583,1.6883022815376931,-0.3975395587597386,9.649234788799465,-0.0254628308966388,-0.17134832447992654,0.0048881920479711
1681483559.9406395,2.5947323200040633,-0.5810632220938542,9.397088535313843,-0.024174219002714145,-0.15467226765561237,0.0022797234665144
1681483559.9505527,2.690421499064541,-1.3138128645678364,9.008266952451972,-0.015148014273732089,-0.1352039362085819,-0.0016278584993902
1681483559.960523,3.213511764608698,-1.649875748191515,8.629841442393696,0.0009973884895564632,-0.11158813822444137,0.0044473439880188
