time,wx,wy,wz,ax,ay,az
0.0,-0.0050359424049568,0.0053786432972419,0.0066666163888522,-0.1941973505496104,1.9467629503576585,9.62311360722984
0.01,0.0008880575824262,0.0036933674884001,0.0036613690585591,-0.8184332124307085,1.419832397434231,9.54546251797415
0.02,-0.0015188710370804,-0.0007415791873912,-0.0002829389727911,-1.0266850757165302,1.9438751705556585,9.669002233461333
0.03,-0.0012070602838453,-0.0008131594638126,-0.0062247870105556,-0.8157403470608371,1.6042879667529328,9.648260185963476
0.04,0.0023327263097938,-0.0028817874752692,-0.0025151294271699,-0.6491555704731324,1.7335149587967302,9.649873446416514
0.05,-4.630908806611116e-05,-0.0022913030289007,-0.005798241737043,-0.5453606110927333,1.945139411909028,9.553963950986518
0.06,0.0068655039435457,-0.0274228894385134,-0.0358063887420347,-1.4380856612807846,1.2002741698306916,10.05557179491156
0.07,0.0069835660966564,-0.0292730564146077,-0.070987180954521,0.4232333450764113,0.7884286580785502,9.831298818379334
0.08,-0.0587687002976989,-0.1070297493924876,-0.0337044793728045,-6.728067074097852,10.98219349721042,6.748575823262756
0.09,-0.1867556676761777,-0.1716776294677216,0.0305772375699826,-2.0228192484281906,10.068914669625253,13.121987729895386
0.1,-0.1274867587673608,-0.1051195432723233,0.0089554934215494,6.885167987471787,-1.9067904301334344,10.217899068518838
0.11,-0.1342063814239014,0.0197853471368356,-0.0742724623146704,10.130749114760894,0.8563251752037128,5.537857805121719
0.12,-0.0728198757069949,0.1508303970381849,-0.1532433639827422,8.212408018194797,-3.701466530903234,4.8131146830951135
0.13,-0.0649524093925801,0.0625163242655149,-0.2168478529515913,-7.735671225671361,-0.8149338283026376,11.828877604272504
0.14,-0.1306391538407561,0.0220835720069553,-0.2324373434844664,1.817445137489696,8.918306015788541,11.76426358077696
0.15,-0.2284184215382459,0.0421752131429423,-0.2414873998227766,1.1756946539184618,6.299517675553913,8.722502476199828
0.16,-0.2065924898584019,0.0001671486306123,-0.2178332816425017,0.387677673778334,-0.9911348842777438,11.267067140546812
0.17,-0.1263369929710687,-0.006716553452337,-0.2008249621453932,1.6803634893487749,-3.7377914409298207,8.475799112645023
0.18,0.0078620556242332,-0.0394327458791993,-0.1966035972896269,-3.468027563721145,-12.68581485262465,5.720052660317576
0.19,0.1310673679152666,-0.1597250862427728,-0.131218345052307,-5.997909781834011,-5.511702319767019,8.39177588742392
0.2,0.0639967008400874,-0.2059116666610441,-0.0325035091105154,-0.7216284923667217,9.878213800001877,12.901115882852409
0.21,-0.105045918250784,-0.1405771395111308,-0.0027701269450834,6.579488187471848,14.806940879695096,16.43772025580912
0.22,-0.1193454203306921,-0.0095100686271077,1.5910916286061838e-05,8.564437790576184,3.3676051029211798,12.063359612867847
0.23,-0.0660135947998423,0.0622196840336771,-0.0283771093550375,3.9866664199383344,-1.9089789111878264,8.226488141511663
0.24,-0.0082034998457983,0.0937009544481824,-0.0740245442453078,-0.0794502614876803,-2.550215972164481,7.407125625736741
0.25,-0.0008289869504218,0.06495811673962,-0.0978553529444388,-2.8364834023617767,2.1516101122026594,9.491695423881128
0.26,-0.0648838500036498,0.0656457843649997,-0.1157518189016035,0.3266855701383442,6.3442112634189565,9.256618457772865
0.27,-0.0803149409908636,0.0908392037029664,-0.1221833388868025,1.1463024026245443,0.7910457566819862,9.188934677541912
0.28,-0.0676394463672016,0.0821642581285991,-0.1352917413774184,-0.7440540181334143,0.2545569436446033,9.417025135223122
0.29,-0.050849793980337,0.1074415596471755,-0.1262551407876662,1.637955846274954,0.0231984336734571,9.519658194709306
0.3,-0.048278096665271,0.0839387546818099,-0.103499659484928,-2.263558197965544,1.2729066302181182,10.635439359068586
0.31,-0.0352250443343457,0.0585924319437837,-0.0770608197513273,-1.1488730429254816,1.835189670213859,10.633447945789424
0.32,-0.0570425075859237,0.0469356650337755,-0.0448167483869246,-1.3007754077100904,3.453740077666508,10.154193447990222
0.33,-0.0306377807970499,0.0372825244611014,-0.0130133211228302,0.1061652577692993,-0.3095307439234062,10.794245038591738
0.34,-0.0058668843494752,0.0569248724703141,0.0138203546789237,0.827427363175658,0.9098758773291304,8.607321742967882
0.35000000000000003,0.0093403532298803,0.0416520496147832,0.0124767346692034,-2.280894651560358,0.0399238304238029,10.479899574483396
0.36,0.004593937015482,0.0090484369571969,0.0203333747026273,-2.2271461010264844,2.517751980657064,10.33139453193613
0.37,-0.0289011054585679,0.0250177595451463,0.0090514163871058,-0.1464060483087974,4.485733232971413,8.248148853589777
0.38,-0.0289633478080699,0.0257947599413399,-0.0071933904278329,-0.0506198716045247,0.2104312342608447,10.228913256909104
0.39,0.0220868946454198,0.0705614984456148,-0.0339122872415236,0.6989675562151342,-1.9043173914949705,7.822989857793782
0.4,0.0045329278420529,0.0726089757207578,-0.0582763190928152,-0.8650430447494817,3.338232361214919,9.321778328040145
0.41000000000000003,-0.0341729198143634,0.0817207542674513,-0.0716809939208678,-2.220093020148634,3.4551952942508315,9.12033526433125
0.42,-0.038550513772563,0.0331895195624388,-0.0710839565458945,-3.5705676736102063,1.9963951831654452,11.218264555798442
0.43,-0.0376822823949301,0.0555310042077369,-0.0788255344691923,-0.4929116113526768,1.0545746335571042,8.905672200778184
0.44,-0.001721492384328,0.0267268477086636,-0.0699159960809401,-2.9181275090006715,-0.7883461712174987,10.397124610016146
0.45,-0.0072922068094985,0.0231751821338999,-0.0715742867055586,-1.5608154545957764,2.12852839267329,9.63365405524371
0.46,-0.0023951703320229,0.0217258634874236,-0.0703017945948294,-1.02617209940347,1.3555545328932577,9.840458556687349
0.47000000000000003,-0.047160463255382,0.0187515064520094,-0.0692837398114851,-1.196490651495978,4.782784337241221,9.444564535518714
0.48,-0.0273623144001309,0.0361371553976765,-0.0762403171125105,0.8783967123874844,-0.4320313125096843,9.054000589326746
0.49,-0.0156995441318709,0.0416751731012752,-0.0873702924314192,-0.4979108631639513,0.1165993203695188,8.998187352432577
0.5,0.0101902984047176,0.0666822028798369,-0.1186530675354651,0.8907285271520444,-1.505237772029276,9.345744902061613
0.51,-0.0168161392104413,0.0763634677975707,-0.1292003105941466,-0.5955004403156097,4.4002201205008,9.378197858412962
0.52,-0.049362543757286,0.0826045912377975,-0.13440032411248,-0.0590821959399541,3.2224538389410777,9.343799487683468
0.53,-0.0451163338448374,0.0821916913288138,-0.1463800828519514,-0.6034082735368258,1.668428019028044,8.625121039905942
0.54,-0.06787307965856,0.0673662272513551,-0.1614905904594115,-2.618426856333825,3.3535722297923494,10.120366916724524
0.55,-0.0627171450674526,0.0720648825313317,-0.1576372097793272,0.5579519631059813,0.6247412245170448,10.719569561851518
0.56,-0.0315069944585021,0.0931081467697155,-0.1554385136428526,-0.2293390047195558,0.0406285511063405,9.373676990236053
0.5700000000000001,-0.0366119997533833,0.0726456575059858,-0.1482297937932661,-2.809580980914092,1.943112405492724,10.570712612699277
0.58,-0.034561568132881,0.0367809744908053,-0.1264828007283858,-3.473110210265772,1.89440820595695,10.352934319382532
0.59,-0.042102361158108,-0.0078419287201684,-0.1275661598506621,-3.882472315666529,2.071772797174908,9.39035777290631
0.6,-0.0314261427498142,0.0145402565336277,-0.1042532186570814,1.392259673570941,0.4533001221385307,9.690306680154048
0.61,-0.0148196383328008,0.0070495930390782,-0.0890490348997763,-1.637350124282553,0.6768074224574269,9.531416449529056
0.62,-0.0126349191027616,0.0223479020531765,-0.0686966340604475,0.7143594679067301,1.5732136297342296,10.06549956969811
0.63,0.0053154628428881,-0.0007638925373974,-0.0507307212415388,-2.94944663427732,0.8585082142137658,9.97169570276642
0.64,-0.0241488561227245,-0.0040668632772452,-0.0428354564669779,0.3658245261743119,3.729700484517917,9.95303411216585
0.65,-0.0189581614852213,-0.0068492879193147,-0.0500113490584543,-2.2248757664601966,0.8620515518153453,9.018178497998523
0.66,-0.0127712260692758,-0.0371442244159514,-0.0382305543485335,-1.8601188500625916,0.7144850023296386,10.583891422792732
0.67,0.0056149898454854,-0.0341654633061383,-0.0308549377682856,-0.9853551291024958,1.0964913338073967,9.46377175035012
0.68,-0.0053548981513315,-0.0473103245202119,-0.0227848041418245,-0.928890047134124,1.781538927664271,10.664857460122075
0.6900000000000001,-0.0010957502510006,-0.0262909680687086,-0.0090534194919518,0.7759303949060374,1.6841199907344235,9.056373470750852
0.7000000000000001,-0.0105035399869881,-0.0028864174397371,-0.0076471140223792,1.7879064974874006,1.7371706466105894,9.269685222322188
0.71,0.0058844603792076,0.0210127363725237,-0.0069951677310517,0.1980586091873696,0.8191555580085073,8.50273391670861
0.72,-0.002143634853848,-0.0048732745875107,-0.0154642473521879,-2.227006069486178,1.843034207356098,9.751133481305494
0.73,-0.0087789201615587,-0.0021623922746237,-0.017432763389056,-0.5300166659931472,2.3330121084359923,9.806018811980362
0.74,-0.0236054138382445,-0.0092295092948465,-0.0237841356161287,-0.705134092359838,2.893083985886338,9.449477206085245
0.75,-0.0311847293962446,0.0069542445798111,-0.0257118653121641,0.4758128114068866,2.1163148196684123,9.557183281762322
0.76,-0.016574695851177,-0.0095648361485996,-0.0410235162439993,-2.190904199847516,1.6422536802897862,9.421040502036202
0.77,-0.0398752587070296,0.0086366594750503,-0.0592022921505621,0.1738731337453578,2.503825417635895,9.596548891855331
0.78,-0.0337826884891748,0.0214615062414068,-0.0769714872899702,-0.6453897097505268,0.9965340498281972,9.240179384016914
0.79,-0.0464618184905305,0.0397729805961584,-0.097905756122177,-0.2002695828490141,1.7171360869325791,9.375441194403743
0.8,-0.0419636047631332,0.0467177830151179,-0.103943170196121,-1.467434985531589,0.5071671335409235,9.69124840213036
0.81,-0.0210062564278877,0.0567457501414027,-0.1062529023352316,0.3074291143788459,-0.7809146346476424,9.143008001868631
0.8200000000000001,0.0189484970002267,0.0890967614046245,-0.1196599538984946,1.5432934925720978,-2.4136053663089103,6.534097711431087
0.8300000000000001,0.0496896830271642,0.1392301681388483,-0.1302451502147368,4.015950037091109,-3.233857235636441,7.921337581560598
0.84,0.1284677807493268,0.2128142185077159,-0.1568218480411223,4.944275795572343,-6.865728076795136,6.0515066718405714
0.85,0.1352226828966343,0.2475766040387407,-0.1917770962777785,0.8861329366167039,1.709358296681518,8.169093813617042
0.86,0.071213622262815,0.2298588194149527,-0.2182611088815382,-1.3695325736948745,4.813374242129007,12.051316648038988
0.87,-0.0057020861928709,0.2744636320207449,-0.1954906146588972,1.7143614417417077,7.696376373217928,11.035568843362848
0.88,-0.0165766064112577,0.2239855768931849,-0.1870182316365889,-6.941943055913149,2.5576759720879267,12.459358749291258
0.89,0.0130873617820157,0.1392920300395464,-0.1605992626014403,-5.09345057293319,-0.3008336043157634,13.375373439117215
0.9,0.1008948987839213,0.1610726794142452,-0.1381567727389983,0.5273888199172893,-3.897021822284559,8.752221919407928
0.91,0.0800121387052712,0.1543681296428336,-0.0964722718659094,-3.101411588678009,4.561614073936746,11.059730409244212
0.92,0.0406447572342739,0.0574965299307236,-0.0568509969475916,-8.199313964898236,7.494793583063451,10.238398614195
0.93,-0.0451271714609779,0.0178951328004927,-0.0394012529018572,-3.9148719586409135,5.480847057154807,10.462236566843274
0.9400000000000001,0.0616619922270091,0.0447787277449128,-0.0188620287540606,0.5407742258027847,-5.452725356606294,9.804301474820871
0.9500000000000001,0.0928495074772138,0.0603930183378452,-0.0276612389448336,-1.2017895141683326,-0.3651172916609667,9.385027792404616
0.96,0.0666815147077219,0.0703206948072605,-0.045644411033695,-3.241211905655822,3.624631652643061,9.606017420492512
0.97,-0.0128641988447057,-0.0235416288862956,-0.077255928105419,-10.365554934625887,8.43381909924192,8.448149061800144
0.98,-0.0555720424488314,-0.0316523231812986,-0.0980020101729086,-1.6464543146035948,1.514018063346572,9.889574966461971
0.99,0.0646196848877299,0.0229091488126716,-0.0816696595016173,0.8606047390002145,-7.451089096700117,8.831938459630688
1.0,0.1196816124793823,-0.0102800530208298,-0.0916041146579436,-4.26816667358005,-0.8969283024037412,10.623764875651888
1.01,0.0311875771183147,-0.0387289580190002,-0.0914082165423086,-6.510321011548128,9.864250875567672,7.201712327058921
1.02,-0.0303417537878519,-0.1573570643915675,-0.0890448849263838,-9.201425385637211,5.432494918456803,9.937124304915445
1.03,0.020457928757774,-0.0730530140891106,-0.0431554589036158,6.429982629762555,-3.1372118428334663,10.093061169882525
1.04,0.0682489507489265,-0.0804666396484018,-0.0458746190729788,-3.618689392124216,0.8346284221405342,9.706224396160252
1.05,-0.0677633110644344,-0.1036005168808784,-0.0573274205985716,-2.404304587239841,12.550744250794752,9.557016768190303
1.06,-0.1166632269426355,-0.0288907506426935,-0.0396071310702017,4.931141038540274,4.4058003904227965,9.566514878089684
1.07,-0.0162409308463401,0.0134427806722141,-0.0208329345646551,3.5054824759207817,-7.69487050185757,10.922103000671234
1.08,0.0656757711210308,0.0411740208431609,-0.0469051871064356,0.2127721030772651,-3.0570228968861395,9.3977181410796
1.09,0.0034754869265066,-0.0354757392631519,-0.0443374078336409,-5.976772740060824,7.24447665673211,9.736230839324438
1.1,-0.1032092591398595,-0.0962513433378918,-0.0355465013149431,-5.0466698144431,10.867246052135744,8.400145363252417
1.11,-0.0914739071918104,-0.0071779899490542,-0.0100001442793062,6.9651604174053965,-3.0508299783682102,10.438694490682115
1.12,0.0608888573660638,0.0192408865338706,-0.0249584737780741,0.871731111019654,-8.737266680217958,9.10970523832274
1.1300000000000001,0.0427610636237189,0.015842799983227,-0.0414077054324797,-0.9036432510496176,5.085365994796779,9.659964912631
1.1400000000000001,-0.1177510879259392,-0.0366694204429671,-0.0473602015140703,-6.092715513121399,14.263066894841534,8.761679120293786
1.1500000000000001,-0.1477220392627549,-0.0114154832313785,-0.0285131066653183,3.0791413229037947,-0.4523001582625102,11.5443373418326
1.16,0.0279374572403157,0.0292344099980275,-0.012773327677255,1.278252436109538,-10.747533845417044,8.398374855053234
1.17,0.086948682605154,-0.0089365883230826,-0.0416707481804541,-2.7002356485452355,-1.6948815656275098,11.578066675650728
1.18,0.0100028780177245,-0.0097906444089172,-0.0566796820226362,-2.079023155949605,7.517482822340403,9.770333151361909
1.19,-0.0183752566628643,-0.0845137939257792,-0.0901311423245123,-6.859524276496597,2.0644696794257524,7.90963747126229
1.2,0.0126225005994018,-0.0808014673385972,-0.1132412116590193,0.6245426593626812,-0.940114139618326,9.638815504048562
1.21,0.0469015827673724,-0.0377069090041207,-0.1240128438535383,2.492392649556066,-1.7713141613309746,10.287944951477492
1.22,0.0336123790834468,-0.0118044755569869,-0.1245337288442305,0.7917983100219321,4.349587230917672,9.027185375569417
1.23,-0.0241102618118682,-0.011902460440371,-0.1353840838733366,-1.2768934815603412,5.3137105140345415,10.062506009836683
1.24,-0.0091254329932884,0.0002311958116872,-0.1240424524608305,0.794057753205541,-1.5531234970000347,10.240556130493582
1.25,0.0658621145163125,0.0254867978137294,-0.1444774578872374,4.057569747943783,-4.849438996036867,7.101236342874622
1.26,0.0549662021484478,0.1114105412060002,-0.1711290191474608,3.5266251304617926,2.100390177698593,7.022356914656303
1.27,0.0336883699563481,0.0251950054436322,-0.1733079116407088,-7.11983210441742,2.506102165735169,12.927501882514145
1.28,0.0090119064011703,-0.0056944773153372,-0.1545427601400069,-2.1485462177258787,4.545543967427727,12.326656882089509
1.29,0.0460922197710973,-0.0240543275676005,-0.1382410090032271,-1.7855451087206382,-2.4409682214655763,10.702979292017556
1.3,0.0470688956051049,-0.056936942762546,-0.1284978847566298,-2.986694657448541,3.909968351120769,8.76297324515511
1.31,0.0268588410373511,-0.0447041116270261,-0.1290147613349608,1.0962472209944345,1.7989877277539932,8.998411896642615
1.32,0.0719908189034837,-0.0216226016780447,-0.1327336292329481,0.3618877418517905,-1.0910799455992148,6.253508525012839
1.33,0.0180559760399819,0.0115624578294975,-0.1547513912978819,2.323485512688912,5.4665679119129535,10.817192351629243
1.34,-0.0438673978747079,0.0489247107165643,-0.1687092642846754,-0.6163309350171954,5.122474656023743,9.939284573716373
1.35,-0.0104589454778619,0.0444977947633453,-0.159014866835182,-0.18442547212681,-2.759735233424278,12.41292316854507
1.36,0.0343667920817376,0.0412656618597027,-0.1551489244762114,-2.251847039714357,0.4872213840816812,7.269826181412161
1.37,0.0114086360441287,-0.0063467341292356,-0.1858696203294447,-4.671805953844231,1.5602371585303547,9.901014982486164
1.3800000000000001,0.0539806608513697,-0.037080125027594,-0.1836726378265074,-3.503531679107831,-0.3894175751405656,9.582575206182344
1.3900000000000001,0.0403557415476503,-0.0392894706710836,-0.1729581068816832,0.3065049943400885,1.5331407091231797,10.18941607810575
1.4000000000000001,0.0309289739658799,-0.0032740610294388,-0.1839645515742949,0.2890073169434354,2.9622045951599043,7.277743027741526
1.41,0.0245012219544581,0.000294901592632,-0.1735098223748854,0.1670569265509932,1.0929146518325366,10.991111181624245
1.42,0.0082604152633801,0.0176325502335931,-0.1496699165168455,-0.7983602605785323,4.717181309660552,9.348866937713582
1.43,-0.032430261083271,0.0123821158994292,-0.1518891017499617,-0.1253986153982613,2.7348971587235584,9.808626798102598
1.44,0.0113662612756066,0.0570243126704671,-0.1635235409799269,0.5682149769606113,-0.3339859931666017,7.499845783430927
1.45,-0.0445638864177282,-0.0588647889545332,-0.1586840610566786,-9.335738250353884,6.446601969132888,10.98595707088607
1.46,-0.0916807806991448,-0.0995745920672444,-0.1388298134866408,-1.6061868583277703,5.613428829609906,10.193772186068362
1.47,-0.0698314600414159,-0.0607632900174435,-0.1151730205479315,3.226028474052962,-1.1188105497257892,9.540439928737054
1.48,-0.0395430296160765,-0.0321703157904894,-0.1231987487140349,1.4590584093365189,1.8370929984076705,8.752782911949637
1.49,-0.0929517360067962,-0.0160899709270509,-0.1167478870216063,0.8137368877831598,7.0145385212864495,10.468074831278397
1.5,-0.1569995491623361,-0.0723427592041585,-0.1045784514012984,-4.3691315819393095,7.912548497194127,9.609089885521804
1.51,-0.2086137412092209,-0.0398037222062514,-0.0936959322157553,3.0869747766413638,4.283563783019463,9.162396056432804
1.52,-0.129173235085275,-0.0124088869766778,-0.0947529311838797,0.555919640342933,-2.963328991580258,10.339949875791795
1.53,-0.118036688653267,-0.0852973453750759,-0.1137862067285231,-12.610330401343909,1.7618664004835949,12.94462889872666
1.54,-0.2039817562112887,-0.029983805572535,-0.1187501187983206,3.869215908375963,6.453573054500683,9.829530769085288
1.55,-0.1742560844500566,-0.019109589410386,-0.1211723547044447,0.987017743451685,-2.831332623416656,9.882125984411278
1.56,-0.0900697410560041,0.0490090776984674,-0.1668996821704558,6.805399976365827,-2.2260302032106662,8.64797526894107
1.57,-0.1626424422892465,0.0913337782969927,-0.2278422575059584,2.9719164941766985,15.809766445091206,7.720544214174101
1.58,-0.1684696495280997,0.0478592972252252,-0.2076418261590651,-0.8437586304017106,-0.4238398515473339,12.727150361110796
1.59,-0.1724221553194203,0.1274508068678107,-0.2166439603629759,3.782736916484432,3.1244867872575712,6.962747830461685
1.6,-0.22843342817369,-0.0079245909631769,-0.2490980188909224,-12.623037070794108,6.1253441158724415,11.083327322559612
1.61,-0.301717024798589,-0.0926097729805431,-0.2321258645120314,-3.615185552882475,6.764395425392688,12.14274310052209
1.62,-0.303332368200353,-0.0933922223401324,-0.2313025306525877,-2.510622415274133,2.113963284565181,6.757436389729117
1.6300000000000001,-0.2989904961409299,-0.082731473065633,-0.2623655061784438,2.797049490941532,1.7914251465862197,10.299900492810618
1.6400000000000001,-0.3542717088733592,-0.0749427977044046,-0.3173549037042311,-3.5746547014575096,5.880442253194669,7.84293947358146
1.6500000000000001,-0.3800048797107806,-0.0083319969692258,-0.3371046941343001,6.138908737926682,4.078523618631818,10.449996671038027
1.6600000000000001,-0.4388670344644335,0.0160284625949346,-0.3805597286287001,-2.266653849096005,4.1650129571607,8.683205293284182
1.67,-0.3590095889810397,0.0135109696519027,-0.3952411274972609,-0.2274444501889273,-6.132164892263877,10.46810339534868
1.68,-0.3255673584551427,-0.0319755454698331,-0.3935985426965407,-4.292433646398012,-1.8227985489234264,8.076210662276651
1.69,-0.2821696705869878,-0.040584335908723,-0.402666286713188,-2.747400920034079,0.1020012795134083,7.39975728209212
1.7,-0.3074649675627016,-0.0706575689257255,-0.3957335810723952,-3.364142706972206,1.7581566972945115,12.72147947789035
1.71,-0.3068480534599396,-0.1178534935974866,-0.3716863553586653,-3.762381087892248,2.4411716289071097,9.891156635822544
1.72,-0.3129042967626667,-0.0863610677755372,-0.3837464015546492,1.4240197895349929,-0.797916596856154,9.58465992451061
1.73,-0.2043090830292856,-0.1000036271464289,-0.3582610051694563,-3.1742365365983285,-8.474836625863457,12.98247468280853
1.74,-0.0976400057604953,-0.1819862249215075,-0.352308050877159,-6.590595937494177,-7.341607702827357,12.849257975600578
1.75,-0.042280297236265,-0.1954657131390357,-0.3167356412473372,-3.226432994904368,-2.664754187273908,11.272855898937864
1.76,-0.025776936826334,-0.2236513945580834,-0.2587749521794966,-1.1373851875115482,0.0477937819639483,13.213925710182238
1.77,-0.0493781403965289,-0.1368326876115252,-0.2143044333520583,5.085055253687756,1.0632846334715256,9.393683227367644
1.78,-0.0528198744462158,-0.1390100097146447,-0.2229976813855818,-1.4664170247086368,1.2250427358775462,9.826693725418636
1.79,-0.0392731043951207,-0.1058730769778833,-0.2337809960904768,2.9367109197079166,-3.4910267972368403,9.629881327100218
1.8,-0.0245219417050987,-0.0449216298353336,-0.2393422882619551,1.749562818141094,-1.3538033057233971,7.445710133147374
1.81,-0.0070429113500548,-0.0675362301562416,-0.2581356327596358,-1.9917029028379465,-3.4647558673047163,10.72822183785177
1.82,0.0535424068479818,-0.006316820466765,-0.2533672313752821,4.322631994290618,-4.606748674934793,7.897747569304447
1.83,0.0885377765211466,0.0287573220036334,-0.2456622283521345,-0.206111989514573,-3.691132077870186,9.407550040302777
1.84,0.1616434417070905,-0.0506599269071216,-0.2349675308528593,-5.564376908713008,-4.715269402026019,12.154866531032956
1.85,0.1405727705471869,-0.0405225738482174,-0.2220394324126891,-0.3550614867673056,2.345767192119507,10.512016292294454
1.86,0.1049825110579352,-0.0524061469019162,-0.2270040224853209,-1.541529588554623,3.285547973609258,10.947393764907709
1.87,0.0331643583396528,-0.037561726190664,-0.2571779351297072,1.2481550231576155,5.887006213800738,8.897744515512684
1.8800000000000001,-0.0143485460265927,0.0500387961330538,-0.2891546945634535,5.929264882658038,1.956987277545992,7.958381993761747
1.8900000000000001,0.0344817325198449,0.0874684856845769,-0.3134861152234725,0.7461727894559329,-4.0996398587843945,8.023701204309369
1.9000000000000001,0.0816379434081622,0.0481980906074124,-0.3347201209130934,-3.521835779214884,-3.143088088596104,9.00403532473061
1.9100000000000001,0.1022518813648324,0.0400060494027765,-0.3301827173295668,-1.0199022501387618,0.375431288856297,9.409128233564708
1.92,0.0616270498487368,0.0023443481936132,-0.3064955632749251,-3.162156787335647,4.540145947124769,10.493150662915802
1.93,0.0003938632013867,0.0188906288106563,-0.3113302152219466,1.765706147626025,5.383990406009467,9.36054550300295
1.94,0.0052028594924895,0.0609806328434038,-0.3262282769742659,2.1068659273768504,-0.8623748322817527,8.799886981735712
1.95,0.0516124420258264,0.0315695071325514,-0.332907096630638,-2.847971668088822,-2.584320874125701,9.79986133952455
1.96,0.072875432030928,0.0211557212800293,-0.32637910652787,-0.7779127948506993,0.6897974950106368,10.19072004956016
1.97,0.0481353877097014,0.011439276173844,-0.3215240697923354,-1.1694877091931764,3.8093225951962806,11.05822967446763
1.98,0.0176207266806872,0.0029430378410891,-0.3198747794690779,-0.5674187036656367,3.3198254527783915,10.90676608494564
1.99,0.0169777481051721,0.0145209017094374,-0.3202759485307387,0.382889610556726,1.1904757302759774,9.937961575898502
2.0,-0.0064180291118615,0.0180315643797955,-0.3183792095246962,0.3762276734556191,2.3046704525201145,9.594902010114502
2.0100000000000002,-0.0125538910771073,0.0479053010643632,-0.3209286491933516,1.6379510139835818,1.3658128714484852,8.19070047481899
2.02,-0.0014901539215133,0.0506577909623339,-0.3213779192033461,-0.0633360849315179,0.1498714146907374,8.94972844843788
2.0300000000000002,-0.0218851630588008,0.07808770496111,-0.3162261705461195,1.9791812729606564,2.4846636427553,8.070022493851646
2.04,-0.034896552503165,0.0840663292295975,-0.3201452355447463,-0.3573334521927737,2.0433984028475534,8.268753554924606
2.05,-0.0020653769674441,0.0669597864419248,-0.3274384896817854,-2.810797400461987,-4.73921848162527,9.371838265666106
2.06,0.0122991031082667,0.0674512276026343,-0.3270031969609908,-1.166317869258693,0.1332618485685049,8.662133368927233
2.07,0.0714139385419637,0.0164824543437422,-0.3183997433248213,-4.041869838046897,-3.77638782671571,10.478310900944706
2.08,0.1097777836939043,-0.0091623404064066,-0.3082215349736861,-1.2342496905886575,0.3943995027648341,9.157731335730126
2.09,0.0687104406837995,0.0202453107461933,-0.3169819276395491,16.74318467492115,21.58782375819944,7.956171328336817
2.1,0.0265660231037133,0.140207146115302,-0.3529640297952345,8.443696686084646,3.1375643089305365,6.833857093246104
2.11,0.0326224060325831,0.1663005408496128,-0.3732184629502943,0.6479593731824607,0.1424389517783535,9.478226542003634
2.12,0.0130349964143747,0.1676801277829609,-0.3919015388551405,-0.2916131788472594,0.155798131604401,10.47852909278612
2.13,0.0129247718889192,0.1566888968833988,-0.3968807618680647,-1.9233231761633556,2.368985237144521,11.01101889334553
2.14,-0.0382933895245802,0.1296847425453719,-0.3924046318593672,-2.4708929081620163,5.389414168077164,12.088844238978208
2.15,-0.1165794891636378,0.1308850468577635,-0.3917129199567488,-1.0829306201186788,7.3299569080156015,10.918586196904169
2.16,-0.1567265741857608,0.1295863935327872,-0.3910020749631575,-1.0771247255308525,3.0479776265619725,10.231027799675092
2.17,-0.0968324599867631,0.0932870406767939,-0.3810818355146101,-5.083386481438447,-3.652841594545958,9.211995852879236
2.18,-0.0251308398149843,0.0096071153030233,-0.3658538918557814,-7.114824933239161,-4.389166292402779,9.565088294232634
2.19,0.0271418526592451,-0.0620471849594186,-0.3649590175214461,-7.169788820455503,-0.3863368684922056,8.54883971078329
2.2,-0.0517137189122791,-0.0903872570333447,-0.3704375486436537,-3.469013062845528,6.996677871041389,10.33502661868711
2.21,-0.1327803879753554,-0.0633259128910435,-0.3400501172605208,-0.0451813837327122,7.961354013452765,9.831468853832783
2.22,-0.1756448856026345,-0.0647764609629675,-0.3274187903466872,-1.7540148521145114,3.6608947683254143,9.791933583864823
2.23,-0.1474659413937191,-0.0587935848694191,-0.3041593592229537,-2.4476078822209075,-3.218936609963287,9.07156182641442
2.24,-0.0175495247881258,-0.1500917457887352,-0.3096139292779616,-9.523948438732894,-7.362697453989614,10.08920547594185
2.25,0.0343424036503716,-0.200593178194574,-0.2839472453656844,-5.6721242657094,-3.508718502495965,10.834823600945407
2.2600000000000002,0.0330709460377219,-0.2422823986592545,-0.2717941861215285,-4.90403704175833,3.99317709440524,11.044882916005747
2.27,-0.0764954926534372,-0.2227233507147186,-0.261139975077217,1.1592560507142289,8.132128906869044,11.388190372961509
2.2800000000000002,-0.1256852986230134,-0.1441124202670268,-0.2439520071807555,4.11210112844139,2.3824581676045327,8.57705326477392
2.29,-0.0366781111929322,-0.1047268802233817,-0.2381608198943785,1.3525803212955023,-5.847829846830227,7.575959395703995
2.3000000000000003,0.0196970426182989,-0.1392905849637092,-0.2525998811784438,-4.994921053417625,-4.637281989274299,8.54415762056488
2.31,0.0362597872908777,-0.1707635964950005,-0.2487632494035414,-3.227457177514317,0.57886655702068,10.61748967089692
2.32,0.0083197441801079,-0.2111766479743932,-0.2451027046504668,-5.171599275141135,3.604487670492974,10.88088808481064
2.33,-0.0717219148332318,-0.2164605737129005,-0.2409732948604277,0.3093979727253636,5.948296466594153,11.4465560794907
2.34,-0.0508165226307225,-0.1722228896592696,-0.249828950649803,0.6153473371369043,-0.4042831878952563,8.163920652704753
2.35,-0.049278896738608,-0.1810777963103881,-0.2604476373258284,-0.3167451129476043,-0.0118881920436774,10.560197123071742
2.36,-0.008348021853322,-0.137823595360783,-0.2628270249429396,0.7793574227281528,-2.097915339234113,8.4939310958613
2.37,-0.0032951227907339,-0.1823282989449965,-0.2667281787458113,-3.4296720233598825,1.4889517216769534,11.285896668632944
2.38,-0.0575442737982323,-0.1652702343151444,-0.2607143681111983,0.0737088129908744,4.951672028321214,9.989158988200044
2.39,-0.0894629773094305,-0.1600311005408373,-0.2554775934281996,-0.2070431447733933,2.770233072844753,10.58842894512182
2.4,-0.1143772966233194,-0.1225956499380392,-0.2410501550498656,3.8336999395777926,3.398521448116259,9.259457364046394
2.41,-0.0890733103640339,-0.0988563864314448,-0.2411677401128462,0.4170367953663588,-1.8640359038089171,8.841718239933495
2.42,-0.0555910717537862,-0.1198992629359275,-0.2243821184697798,-2.834175223141949,-1.035929993856508,9.1823430849994
2.43,-0.0379637620825359,-0.1562729804369111,-0.2113484900060347,-3.0828191978159616,-0.1075156170641038,9.792209964121472
2.44,-0.0581294008191274,-0.1472464320376213,-0.210129887944763,-0.0784651088537353,2.7714834664633594,9.411548991348866
2.45,-0.0723099777191447,-0.1281166420483891,-0.2065387826028517,1.0062009012305697,1.4975860773125165,9.841933674241137
2.46,-0.0687982955132456,-0.1169057217538524,-0.2076620768371275,-0.7697658821629004,-0.1018209229747969,9.045889354005146
2.47,-0.0701490017671652,-0.1457563478133216,-0.2009752999606779,-2.277726705405041,0.5947595310647349,11.063835562372256
2.48,-0.0720045233458333,-0.1657178290631738,-0.1802151511970213,-1.2681739829144127,0.672844917211512,10.42281816336123
2.49,-0.0537370060704999,-0.1465266346916972,-0.1626288007560423,1.31526075422444,-2.123668036492153,9.978590058417218
2.5,-0.0447190265802021,-0.1260816364583614,-0.1400607686105421,1.7714496728395617,0.7720677876086233,10.900937522953573
2.5100000000000002,-0.0659504856831753,-0.0932229336330187,-0.1299043010535887,2.45765276408566,1.432348614739421,9.81256768005203
2.52,-0.0811034699323426,-0.0535823683930069,-0.1166967685881308,2.543785981058668,1.786649718846284,9.466726344137658
2.5300000000000002,-0.0826694337615017,-0.0532811567507687,-0.1126397262874296,-0.863918245813975,0.7663341951999931,8.99868742479973
2.54,-0.1009625288485495,-0.0542339259352324,-0.1248962591949156,-0.8632571600138349,2.0612983390944826,10.03438240460337
2.5500000000000003,-0.1195854910265026,-0.0523467172106952,-0.1258362542453459,-0.6465608031421414,1.6513433230605286,10.279619053224089
2.56,-0.1057556445103719,-0.0427385794121923,-0.1157462607684782,0.292615413123173,-0.7562166447805683,10.330310529199329
2.57,-0.0680887146394492,-0.0392232731822288,-0.1253031354013136,-0.2846184347123171,-2.9206225406810526,10.783078231047742
2.58,-0.0020164740342579,-0.0513598664033289,-0.1335644881787947,-2.0484018775810657,-4.605000264492411,9.97393870738371
2.59,0.0164732205601934,-0.094866260839936,-0.1499926905694655,-4.584363297161247,0.0227734924714346,9.333681353448515
2.6,0.0155995558189615,-0.1242166482282343,-0.1610909264150313,-3.0514002629332797,-0.3473983293617574,10.094396496832076
2.61,0.0286883160066028,-0.1604496884592542,-0.1710154573980025,-2.933025281951526,-1.162659414331462,10.56918748379692
2.62,0.0485785956319513,-0.1383825358688869,-0.1604108225169829,0.2799886810663939,-1.3715576108176364,9.577851270312683
2.63,0.0517399173947321,-0.1620362433290418,-0.1704950492444685,-4.136526018637341,-0.9641911627979524,11.14047950615084
2.64,0.0703100440883022,-0.1598278866660907,-0.1780710827174834,-1.2902417110465518,-1.3597687861373942,9.114971719558534
2.65,0.059781037550588,-0.1939823595388129,-0.1852372001472166,-3.030867189712204,0.0155919559009405,10.409884222069296
2.66,0.0707248576013265,-0.2056705331179975,-0.1954835813108137,-2.412488891028159,-0.3637889394643807,9.526713157260485
2.67,0.0723766863460555,-0.2357165745150092,-0.2021796714130095,-2.8977497387133284,-0.7627332623173593,10.54491001499204
2.68,0.0824922050294477,-0.2523811122821583,-0.2018935542169264,-2.6785383040442228,0.0771798910996328,9.150043978546602
2.69,0.0927156928849071,-0.267296342845605,-0.2022279511752776,-1.858556300329956,-0.8908681105702307,10.275662159914583
2.7,0.0941909883690239,-0.2864114293010215,-0.187508211618965,-2.5108609066772547,0.5057737312498682,9.69908237472096
2.71,0.0788254474070024,-0.2892264484360038,-0.1743741493287733,-1.058622555219691,0.9106647910645912,9.827694498175156
2.72,0.0756266337371273,-0.3130836034259682,-0.1530624638858488,-2.401637730187114,0.9071416295284768,10.041550402952907
2.73,0.0602653936890273,-0.323644871986897,-0.1376187216106108,-0.7220939719589093,0.8085585885897186,9.835896154574154
2.74,0.0500965089164477,-0.3303540573915323,-0.1219242821994475,-0.4807929820786064,1.151469732000113,9.984025044474343
2.75,0.0562687848803138,-0.3341626288023928,-0.1084406833711317,0.2448093950974837,-0.8163657650443367,9.56319762214546
2.7600000000000002,0.067366670204541,-0.3396484320443695,-0.1032702635589293,0.0758898276881092,-0.6565942647498019,9.43523800759736
2.77,0.0856954870883191,-0.3457105036064329,-0.092913293427532,0.3137211035530078,-0.7567147937026798,9.116987190764114
2.7800000000000002,0.0831115900622786,-0.3378819172089187,-0.0872411887708357,1.7296724592183892,1.1434582198383727,9.931618342603745
2.79,0.0729226751046778,-0.3209894812772337,-0.0838016282382658,2.255150453059274,1.1523228379717765,9.852924328335906
2.8000000000000003,0.0715014797124601,-0.2911809041730016,-0.0805894594255141,2.9388111642441395,-0.0113504496231001,9.9186186148401
2.81,0.1159575527524636,-0.2887078789000474,-0.0826309557619742,0.672976309062281,-2.2939376345243714,9.39402036045487
2.82,0.1119958223884856,-0.2846411539067827,-0.0931868042412451,0.9281113077393786,1.4780101196364026,10.140671522785285
2.83,0.0933618777833883,-0.26018979854359,-0.0894584294024161,1.7908783159614268,2.008373812809214,10.072343065462007
2.84,0.1100567693725133,-0.2501333032791404,-0.0831946294370344,0.927703413539354,-0.0047057811099117,10.572265137772632
2.85,0.1473742229842797,-0.2244102237545681,-0.0745105456176451,1.366580547244847,-2.8806129855855063,9.30022538067369
2.86,0.1868221601264056,-0.2426534468128435,-0.060087987369602,-1.1858639721300352,-0.3765529988675977,10.30495984528189
2.87,0.1683221438559229,-0.2366118200982311,-0.0548268455627611,-0.1077514662725818,2.2645288827437757,9.199168321090088
2.88,0.1435515065442281,-0.2516021112636976,-0.0526108976069143,-1.4968077153242538,2.733133002747086,10.414012167686645
2.89,0.123096780824063,-0.240896172962651,-0.0589456010225466,0.9832444386151068,1.269190675806894,9.578121191673135
2.9,0.1562876752063322,-0.2449231982060899,-0.0491060141089609,-0.2166826406484425,-2.510766418056995,8.441824183357934
2.91,0.1599555234717679,-0.2400400779498842,-0.0565308343234709,1.072113414745182,-0.2968646551771677,9.106304806666046
2.92,0.1610382587919022,-0.235195871485385,-0.063530781454151,0.4140340440688523,0.6666517754977149,8.981656282074297
2.93,0.1315968224885605,-0.2276439666120054,-0.0753320913377455,1.2380680402454567,2.7548346663572847,9.72435647133917
2.94,0.0903200891813886,-0.2097762874710134,-0.0944155018392256,1.266589820652691,3.8324992346446543,9.690735874587691
2.95,0.0514603548947761,-0.2006606499319228,-0.1202703427138975,1.1033055283085769,4.030050474414698,9.33947211049455
2.96,0.0007958204493997,-0.1638521744122214,-0.1374015073838881,3.296521094337869,5.136175893054356,10.226778311429888
2.97,-0.0335620640551609,-0.1124963672034927,-0.1514026235404661,4.3026122338742505,4.031872521049639,9.985013493965669
2.98,-0.0474223020418937,-0.0573184173608277,-0.1610190432134322,4.198129887946737,1.6284758299608912,9.5004553733666
2.99,-0.0231996963309884,-0.0386602962287011,-0.1687513004604033,0.70996236351575,-0.5551806243674328,8.025815080391617
3.0,-0.0012746967284165,-0.0791236185644638,-0.1451537172856978,-2.6354046487987115,0.480426331198052,8.583014319707544
3.0100000000000002,-0.0366428245444663,-0.1204327561821803,-0.1307880144181898,-2.502032949790145,4.362740705680472,9.247430068748926
3.02,-0.0814456492694966,-0.1419328441357637,-0.1131410386028937,-0.7915158650188525,5.548517990600392,10.28624543075906
3.0300000000000002,-0.1148269397999892,-0.142009509783391,-0.0889167274895361,1.4253511880692742,3.033404741979826,9.823419468499768
3.04,-0.0889455776033801,-0.1325518231067159,-0.0626068647566489,1.9987639831260904,-1.750962547681436,9.144680653155373
3.0500000000000003,-0.0554390172860253,-0.1196330756394501,-0.0557202856603315,2.1641513160895216,-0.7242999267508335,9.542633909017187
3.06,-0.0748120582711037,-0.101255152418087,-0.0397044691804102,2.2535749298428343,2.9830250384758954,9.171934403117609
3.0700000000000003,-0.1485605357101332,-0.1150543598236485,-0.0368376608553579,-0.4014735502410205,7.32431362178332,9.054957560591877
3.08,-0.2080540398985499,-0.112350791403338,-0.0440352942410162,1.857959155994353,4.070649209085908,10.036008991024795
3.09,-0.1844299561285223,-0.0922745879532643,-0.058862977809017,1.8167765992413385,-0.661759229161398,8.25550527259811
3.1,-0.1704938688431222,-0.0753513767104989,-0.0773542906704596,2.6040297438465783,-0.2655058856307579,9.037669854179263
3.11,-0.1755290063493783,-0.0564939035255824,-0.0780578787985495,1.060304723435364,1.5041636549208068,7.740172983991568
3.12,-0.181201616488074,-0.0821997329400256,-0.0704031969967535,-1.1779292982622105,1.7470294713060457,9.286918851348275
3.13,-0.1992208733031254,-0.0886295722062646,-0.05596690360338,-0.0261145669100274,1.1798828223772448,9.42650809706845
3.14,-0.1703773799107696,-0.111514564918606,-0.0482004817190817,-0.8449910070323527,-1.171915488495186,10.351170085594973
3.15,-0.1445871724500488,-0.1256936740642887,-0.0409523557487181,-0.1971430930199819,-1.7688027334462086,10.075943042919146
3.16,-0.1173279619178395,-0.1349723834416137,-0.0322410363319567,0.2482799608364654,-2.125595012730112,11.410837419498902
3.17,-0.0777360451664716,-0.1465220492130099,-0.0187691852065972,-0.2755146608780382,-2.680075841958132,10.585397303364712
3.18,-0.0821079409762842,-0.1607779272226263,-0.0085072742390683,-0.7274997339650429,0.3187468307129889,10.777753523936443
3.19,-0.0751937704673752,-0.1755373749273613,0.0046056533151068,-1.170278812598574,-0.3663653397983006,10.2170152220655
3.2,-0.0510526748791813,-0.1657138544601686,0.0158791289117881,1.395788764440004,-2.5506649334491267,10.427975506513308
3.21,0.0017344254817556,-0.144805001044025,0.0227844704326936,1.0947409858302706,-4.2903815827995535,9.650909465732788
3.22,0.0458720398888858,-0.1320299247142757,0.0279726561543294,1.1646396097433067,-2.9221913802653483,10.076367090432203
3.23,0.0447244930424439,-0.1316635082056364,0.0233860507991858,-0.9415373234388976,0.4887969571813377,9.842632620511894
3.24,0.0163419823149728,-0.1629563945573972,0.0135266025003739,-2.71537652650182,2.091104229431186,10.508800387396924
3.25,-0.0044160886294919,-0.1866612168680587,-0.0005356624338081,-2.420109323211526,1.1150497711740348,10.171867346525683
3.2600000000000002,0.0123913190640709,-0.2105598036024822,-0.0168567515525272,-2.1003864742183067,-1.528730430014145,10.346219232040804
3.27,0.0423896256785917,-0.2170390320084524,-0.0315416726830652,-1.1750478640666993,-2.198279086722574,9.598486784432998
3.2800000000000002,0.0567607108334282,-0.2378117043161036,-0.0415112387004545,-2.286622494404074,-0.4310111853612691,10.03888715931729
3.29,0.0525376807708972,-0.2630805831342671,-0.0496897484722784,-2.530650125446278,1.198267252778666,10.041385842507614
3.3000000000000003,0.0213137771202604,-0.2879086529454293,-0.0509331386151961,-2.366215513326286,2.695849609606182,10.226425307076536
3.31,-0.0494134053635384,-0.3342621807754479,-0.039382253921335,-4.667261685585571,7.651042976844644,8.718118671983742
3.3200000000000003,-0.2223955594700636,-0.4375626151946927,-0.0570380959275416,-9.03112710082842,14.935254370643891,6.380645750579472
3.33,-0.2639972999113758,-0.3727520323244109,-0.0248200401279381,7.773234156910691,1.2322021348352323,10.14826674544966
3.34,-0.1619293372663721,-0.3616551647600334,-0.0327851783099821,-0.3943550997383006,-4.087432932526815,7.607610102807258
3.35,-0.100541641127617,-0.2103262295552944,-0.0452831286552599,15.563256299625216,-5.001284471419536,12.485331461849096
3.36,-0.1081221611307004,-0.069456848275068,-0.0244518901768377,8.816674446072096,4.811780133598826,11.073650942195584
3.37,-0.1239824140206703,0.0347337274384523,-0.0189803495618752,10.08503202895597,2.243983319977404,13.749650842502172
3.38,-0.1894771180306775,0.1171919603294474,0.0023498486529798,3.228031958972068,4.894677755593179,9.812442153920436
3.39,-0.1489453789032559,0.0499816245659299,-0.0129807071375898,-4.609002158391831,-1.6632006621417477,11.378300850210726
3.4,-0.1849712213454832,0.0127001209933304,-0.0190856728318384,-3.054334374738173,2.994033008434169,8.135016509261051
3.41,-0.2101681349852237,-0.0925862693347198,-0.0450746204319647,-8.248663286159129,4.186901733836095,8.70217393285171
3.42,-0.2611735751173961,-0.1984655699147895,-0.1006496410432509,-5.822790604152181,2.3233799976018874,8.614639469983766
3.43,-0.2101930187167968,-0.1660425046309788,-0.1230508621397665,3.942717335653297,-5.162186045959877,7.925873435030223
3.44,-0.1585362377873128,-0.2047110000625325,-0.1480610679450682,-0.6380941873437664,-2.636628774563154,8.475774775115886
3.45,-0.1656861321080448,-0.1188752269108455,-0.1666594307485274,8.994671368869257,-0.2460465307564984,9.260537574550018
3.46,-0.1854075904339249,-0.109527326341156,-0.1730802815023115,1.8452319169130105,2.423409583193315,10.224768758056475
3.47,-0.2338275900485162,-0.0468080873832367,-0.1701515923801115,8.737124332162496,3.40748939877202,10.693193820349409
3.48,-0.2764103074367841,0.0137825808913699,-0.1652002941432646,4.475253383042223,3.341410710883855,9.350023627276848
3.49,-0.2753572331117955,0.0102916812023216,-0.1584015201392821,3.331021954785213,0.3867209530282975,10.318323156332642
3.5,-0.2887290039726291,0.0347309805885977,-0.1323658089700392,2.6641227607068387,1.4412484724393853,7.97637496392466
3.5100000000000002,-0.273006635225748,-0.0006801264885302,-0.0962496932211569,0.080462017142577,0.5295775842809952,9.09755740665479
3.52,-0.2891242753984842,-0.008977833837169,-0.0561684269073656,1.7781423868635404,2.639617953838288,8.477417237691434
3.5300000000000002,-0.2894075520694227,-0.0068687503105165,-0.0174708097788742,2.468644803132031,0.8480177969851728,9.901846980734144
3.54,-0.2684768206786058,0.0065728837161775,0.0227567281958409,3.965064713557677,-0.1676492313379541,9.446786143703456
3.5500000000000003,-0.2713090646447525,0.0552878864861128,0.0527697455522366,5.355653517004257,0.9637221264331588,9.29364977789755
3.56,-0.2685993368774573,0.0735257526873794,0.0717106078204461,3.410573668697696,0.718269558244588,10.167377884743551
3.5700000000000003,-0.296111148862256,0.1097392341243723,0.0735432196792909,3.877594418135449,2.522157289933308,9.5987164243017
3.58,-0.3059620566037025,0.1390963358294947,0.063708848172123,3.43941316207283,0.3837715259200298,10.446757913404769
3.59,-0.3056361930257114,0.1596796384768836,0.0424522783991643,2.813027505802091,-0.6179800020618308,10.116097180775377
3.6,-0.298527067198272,0.1857449175135693,0.0167800316971489,2.567797877373459,-1.2297676225194731,10.004434937990707
3.61,-0.2981446041034716,0.1707863431604893,-0.0055264385032704,-0.3269032070629736,-1.1238358906914545,10.508815625585765
3.62,-0.2893664417502463,0.1679587817106216,-0.0183960415038517,0.2585513895468309,-1.662222661354116,10.054295960980255
3.63,-0.2665789517257371,0.1310710176437727,-0.0237758915486982,-2.4073259085842507,-3.152612490508562,10.654436192674789
3.64,-0.230344731384839,0.1009440354996699,-0.0218614331993511,-1.1060159916400445,-2.244272033430889,10.145261508301836
3.65,-0.1921133916862903,0.0516606324637052,-0.0141292802605084,-8.200800006425025,-7.093254647738036,12.029058055100773
3.66,-0.1507496402340417,-0.0065759135532539,-0.0028250908094695,-8.641988882216046,-6.847882703689747,12.503676749221045
3.67,-0.1188542378244438,-0.0274796425687074,0.0064716174651631,-2.7509369636273333,-4.572634467021668,10.430940537726563
3.68,-0.0909509345893255,-0.0442246999876582,0.0075408544775792,-1.360565378485986,-3.478629665816574,10.470360228472329
3.69,-0.0784947487589797,-0.0244629779266987,0.0088749773253449,1.6413864014565047,-2.173874146925627,9.355187712248178
3.7,-0.0703104998457179,-0.0028280230777019,0.0074835013051279,7.3604756000382,-4.304994143577609,5.244549673467743
3.71,-0.068213264315103,0.0191060162665397,0.0039725073997625,2.8848064612456743,-1.3888269587743252,8.530649630578502
3.72,-0.0622894208137908,0.0280464921463965,0.0006018206163072,0.1935626920612677,-1.4814055417425291,9.571439482351018
3.73,-0.0496505306594296,0.0192836761899807,-0.0056481018278053,-1.0954207407416432,-1.6252641178526297,9.85281166008997
3.74,-0.0401406677930385,-0.0023008367356434,-0.0075134366366318,-1.9230281794440265,-0.7839161518216015,9.98998577678179
3.75,-0.0443691508815779,-0.0362940219291262,-0.0081535532686165,-2.473216380505633,0.292808480277798,10.489210520403104
3.7600000000000002,-0.0567224656154464,-0.0634256196250318,-0.0088034972164086,-1.8568850801578545,1.107153306468377,10.394876010577502
3.77,-0.075405782072439,-0.0836796366967334,-0.0096294667187384,-1.299703360379016,1.4924338246669775,10.52083207965113
3.7800000000000002,-0.0817949274558199,-0.09609764809055,-0.007742415330117,-0.2943824715602246,0.835213347408291,10.29863699261142
3.79,-0.091042094476936,-0.0968051797622245,-0.0109054540830901,0.3424710752103054,0.8413070658111484,10.176328991507756
3.8000000000000003,-0.0987865012377423,-0.0920877907019383,-0.0109042452263883,0.8362750192549031,0.6838378857275446,10.003477076283549
3.81,-0.1079062853188483,-0.0873168505180084,-0.0210272550198486,1.256627499424847,1.980120571450445,10.01642999492394
3.8200000000000003,-0.1160441214318549,-0.0876708491966484,-0.0327214534941366,0.4685308626611428,0.4042998579166181,9.788388520849074
3.83,-0.1228887372769983,-0.0966899590848323,-0.0393337953451327,-0.1639589681116941,0.3500465878038098,9.726111226166651
3.84,-0.127380441907469,-0.109632650230418,-0.0461263369384459,-0.1374651423223985,0.0441346729226311,9.754279296605882
3.85,-0.1297262576078313,-0.1150976051690492,-0.0525126058223894,0.3225163688011001,-0.1423858345350183,9.560887978105768
3.86,-0.1335909799952281,-0.1199881616271139,-0.0495448644819906,0.7174331803099433,-0.0803067420613654,9.507984839505188
3.87,-0.1360007637457628,-0.1208305753674662,-0.048339893257921,1.1331642494239489,-0.4343933438575705,9.56520223068486
3.88,-0.1322948035523949,-0.1139718665096203,-0.0425118069711378,1.5380627684347206,-0.8970918218416226,9.265995452024766
3.89,-0.12011674003117,-0.1084048348778002,-0.0342898603144339,1.5638989681119744,-1.373488969161198,9.315487719096849
3.9,-0.1127482151965514,-0.1046481133784862,-0.0275310754391602,1.3452149971186615,-1.301732311472529,9.499990708138894
3.91,-0.102617502956555,-0.0995376662090581,-0.0137761404353431,1.4573813490086571,-1.532581547746651,9.634382272540895
3.92,-0.0867790697120942,-0.1010121313333927,-0.006541320270603,0.9732589964577852,-1.9918355453133525,9.740707442938213
3.93,-0.0677225809024047,-0.0943625269894778,0.0034224026289531,1.4939512716331589,-2.2336933839590185,9.576948231443374
3.94,-0.0490891024795749,-0.0989633973270012,0.0035374526318856,0.568574068489953,-2.4329234709274976,9.920662848304987
3.95,-0.0305156809703156,-0.1001879925228996,0.0076003734406777,0.9856766823929656,-2.292414940825212,9.813205665203874
3.96,-0.0134109158775408,-0.0993701490558064,0.0071300904650935,1.14422873050851,-2.179716143662924,9.55820156465516
3.97,-0.0033117387390028,-0.0952924716500865,0.0004869660747,1.1017547100244691,-1.8550631544643357,9.43870067759882
3.98,0.0079522463416431,-0.095778897617846,-0.0033026488113454,1.0830028764067885,-1.6556316751866107,9.398173592626597
3.99,0.0121019764784751,-0.0971147533554559,-0.0128690648439577,0.9404066791135334,-1.3052192327529613,9.427387040047012
4.0,0.015489779967695,-0.0951134886149519,-0.0209129090967825,1.0602594570759325,-1.0877052415946415,9.28418247494422
4.01,0.0140107676815699,-0.0992023190171859,-0.0285551465663365,0.8689312135868636,-0.6693078954735621,9.582322675528737
4.0200000000000005,0.0121176372808768,-0.0994516800721961,-0.0320956643286398,1.172136124786809,-0.5482111413274946,9.59398406687901
4.03,0.0132123918389268,-0.0965583037969858,-0.0396517265203646,1.4044972799583035,-0.8805653154419076,9.61718382307486
4.04,0.0139749969445756,-0.0891869879033656,-0.0368733118835142,2.030364720762975,-0.6887255773620835,9.688478666766628
4.05,0.0235007305074956,-0.0714739448642066,-0.0360714170697382,2.7168264845993777,-1.3307330931901358,9.448591665331172
4.0600000000000005,0.0353358053834079,-0.0451108424044597,-0.0321695927146128,3.167216632641585,-1.5035825041923796,9.337204849404571
4.07,0.0518420483937803,-0.0182538900288667,-0.0258310708764246,3.556391961429112,-1.7795573078751112,9.199057640145057
4.08,0.0709813226403978,0.0185135839119689,-0.0194413225713423,4.764405353350028,-2.192915938919335,8.382580100468214
4.09,0.0823222918085058,0.0490756367072623,-0.0175397239241055,3.772077842856843,-1.6767525390242437,8.804346891975065
4.1,0.0921016089743499,0.0750994603485186,-0.0114453361916593,3.635415549118324,-1.0654063984405926,8.643552917556656
4.11,0.0904397682397991,0.1017383884648804,-0.0130179209250262,3.48979155435732,-0.7353536622828124,8.764790902058834
4.12,0.0882311383728192,0.1193786603474843,-0.0162610441061905,2.898307928732429,-0.4238469272924556,9.00357894697609
4.13,0.0821304751997986,0.1366472869420526,-0.0198406383010796,3.052968417506429,-0.3756848431885487,9.4480325107203
4.14,0.0771404979431597,0.1518375770264065,-0.0233943584922007,2.9107442165971382,-0.1890490834362637,9.61999859407616
4.15,0.0731740221059243,0.1753524780334914,-0.0265142555895498,3.480663779547948,-0.2837887486907176,9.779888135601285
4.16,0.0707820553170609,0.1959833081730818,-0.025684927738016,3.0925502632947115,-0.4126772609820794,9.818970064200292
4.17,0.081363271914165,0.2132477024012534,-0.0177917528513125,2.8609755109237844,-1.2702746281746422,9.837656390384783
4.18,0.0976514035107114,0.2244330340525727,-0.0072348901617578,2.266079578087917,-1.3152897447548673,9.566737393565996
4.19,0.1027181445317058,0.2315416613463362,0.003852276682178,1.9667146842978052,-0.5648681916382575,9.714170475937555
4.2,0.1047619357757299,0.2371086213824714,0.0181043938186713,1.4404560214993225,-0.2375258416820342,9.44408663776152
4.21,0.1086447887926836,0.2379226076161873,0.0274027463433095,1.0961563047938307,-0.447315465743713,9.568448490436335
4.22,0.111326779777016,0.2414703725971021,0.0366438728210278,0.9326153877752356,-0.4618955452588993,9.483397378222088
4.23,0.123312821195481,0.2351616848873165,0.0356282692787,0.446770785217367,-0.9988039830100272,9.860016235197746
4.24,0.12249815494927,0.2398018745189846,0.0280967846897193,0.6138418458642508,-0.2653978632705671,9.82392441234546
4.25,0.1171180880818867,0.2323653761440335,0.0211023882415839,0.0599499243435044,0.3251724073251291,10.274699178833831
4.26,0.1053037700175925,0.2321644920419471,0.0089963826735266,0.1218475324726379,0.5296879885188599,10.0391269384399
4.2700000000000005,0.0884076930787994,0.2182909892980105,-0.0033049314829758,-0.819276986022903,0.8406034800210608,10.338782999134503
4.28,0.0760978661420522,0.2042621839209762,-0.0158022112759998,-0.8327409363064379,0.6742272493635484,10.133257662708225
4.29,0.0633565056490047,0.1858911641257651,-0.0248813062521866,-0.9992415293073796,0.9429376865387102,10.179120702100864
4.3,0.0461293747001782,0.1743117836761152,-0.033397288209503,-0.3703848307268813,1.182911290327577,10.192383596536862
4.3100000000000005,0.0309003083786391,0.1748206328203531,-0.0370699178043059,0.3109520951475163,1.2936142643988804,9.760009639662051
4.32,0.0182559774623476,0.1737471196150771,-0.0437594513955763,0.4429077353681413,1.1200628736840097,9.669243022939794
4.33,0.0070721226862579,0.184496042564934,-0.0454310040536574,1.145986750106705,1.0656777470334622,9.237845004586706
4.34,-0.0059461101391208,0.1883774326853489,-0.0434510085347345,0.9354804311539722,1.0898104316569572,9.424637925355322
4.3500000000000005,-0.0137180603462865,0.1982015092183405,-0.0375898714724234,1.3994791949786305,0.8928094932434318,9.163326379352158
4.36,-0.0231904681758479,0.2074882900698465,-0.0304583210113695,1.3529446531015603,0.7516503831633214,9.21691109650812
4.37,-0.0238288087207574,0.2141359646054529,-0.0203410416457108,1.3214766854779718,0.096878770180358,9.27333606623928
4.38,-0.022868323454544,0.2186277582833149,-0.0079352261114171,1.0489877841370407,-0.1079133375420088,9.336703730692902
4.39,-0.0140268665421891,0.2207083414754518,-0.000416173747485,0.8961150282276712,-0.8960306787114638,9.425533319714235
4.4,-0.011354845238694,0.2252610258396665,0.012968756110663,0.9478852881830688,-0.4290772990223614,9.53326166187088
4.41,-0.0115533037093156,0.2175959872041866,0.0182418905582972,-0.4882742829791547,0.2715231697037825,10.157974680379915
4.42,-0.0564924858911935,0.1686167345863205,0.0234423045453378,-4.476224086222181,4.007524934833423,11.929172528048577
4.43,-0.1174319827169338,0.0824455791322633,0.0165654726710864,-7.261109629981839,4.638309480898707,13.378187760756326
4.44,-0.163859229226056,-0.0086830754446874,0.0157089744147607,-7.953366040842226,3.797784191951647,13.25465185640958
4.45,-0.1753372986358201,-0.0861822166203745,0.0134292224806496,-6.394991191041764,1.1258573530030536,12.19179810838091
4.46,-0.157574338493913,-0.1315350009678117,0.0137221299496241,-4.751538997273025,-0.92196685981961,10.95490894221044
4.47,-0.1298534855244475,-0.1537267052334729,0.0074000310537167,-2.8804031167394943,-1.9350038404051757,9.83120823628099
4.48,-0.1010606452643454,-0.1638411943207978,0.0004896917066299,-1.8837038037927072,-2.0430015415457263,9.145345744331385
4.49,-0.0919578276422195,-0.1568208307958553,-0.0041116794186881,-0.4141993577176703,-1.2314830091553022,8.834189857645319
4.5,-0.0838287060425003,-0.1406250947507198,-0.0122993403661302,0.0919713209219578,-1.7247963595763558,8.573254874571383
4.51,-0.0709462282698506,-0.1291067758874085,-0.0102581532287648,0.0509767990598933,-2.101449251685028,8.685836185613331
4.5200000000000005,-0.055297352263442,-0.120917525556121,-0.0029725396621278,0.2123352810636845,-2.430154537314273,9.02032778765498
4.53,-0.0342674246403262,-0.1127907266134546,0.010666619838471,0.1274819982256939,-2.8001940971959494,9.102577870201664
4.54,-0.0159694866792907,-0.1255243908506746,0.0177577983972379,-0.9075289939797658,-2.7260379012954843,9.623110934690384
4.55,0.0061796459526544,-0.1439754863080524,0.0208673522260733,-0.9164509859935592,-2.981835271814578,9.750937393431728
4.5600000000000005,0.027404468253668,-0.1678101800424314,0.0195423204836198,-0.4460817989714341,-2.694074390349176,9.955531481781955
4.57,0.0482143925479086,-0.183276919193088,0.0169814544182964,-0.6581755878917441,-3.817215148144946,10.11898838278536
4.58,0.0689567036251748,-0.1899207256837377,0.017257486322219,0.8546688227388823,-2.676890881584437,10.035004375083412
4.59,0.0853529194026565,-0.1866341118643026,0.0169477219146438,1.7009430247266797,-2.1554416335936666,10.063088626382656
4.6000000000000005,0.0935710485656463,-0.171541583051968,0.0235218096908875,2.515798301296773,-1.3402281771653788,9.94663465035023
4.61,0.0977486972709441,-0.153340727439847,0.0328226004180261,2.642955500092363,-0.8508922900511954,9.90636198237766
4.62,0.1086018711447207,-0.1458691223069033,0.0389712814626046,1.7179537500015545,-1.0166916250272977,9.813200440932343
4.63,0.107252919414729,-0.1423976917700922,0.0463663142558881,1.4249154114451694,-0.1106904278029992,9.925042760053165
4.64,0.1102786985673563,-0.1373530148280101,0.0482185360428639,1.2815905133812928,-0.2240679314125385,9.754605038799795
4.65,0.1109783547018304,-0.1296506921572499,0.0497072589036771,1.6171506175662549,-0.0844859900090836,10.044478124535852
4.66,0.1095336028610872,-0.1091272968763477,0.048312111609871,2.271606210504499,0.1027280448645112,9.935452149377769
4.67,0.102101740560505,-0.0931995995077526,0.0411004227039166,1.7646730005369369,0.3285775349064732,10.201918128591805
4.68,0.095660095297033,-0.070760613610435,0.0396613728639432,3.2441517113710043,0.828433932574125,9.338012694957476
4.69,0.0880966164795278,-0.056882932666476,0.0301176038023778,1.680737610895901,0.4142484485695611,9.798325564083497
4.7,0.0764252016517806,-0.0434599305789326,0.0188281916466304,1.707794041517603,0.7877104488711383,9.65925228515258
4.71,0.0670676804841938,-0.0287731641836358,0.0128873613116093,1.7937617601498064,0.9341728238754732,9.39565036142915
4.72,0.0485450235931463,-0.0163505278237151,0.0062289664906212,1.8370657765317395,1.4406757028485897,9.549393379284483
4.73,0.0322740159410496,-0.007423814785913,0.0049069499050029,1.7192166599672625,1.2716301090687645,9.579590670721888
4.74,0.0196202620735859,0.0033712471060553,0.0023060114740156,1.970561613521082,1.0796020750720483,9.444396639621198
4.75,0.0104182483414952,0.0216247390935708,0.005400548308412,2.5115037603951884,0.9391196821283794,9.22386864166552
4.76,-0.0004238550599203,0.0318711138384508,-0.0006322634021989,2.0782041602486183,0.9533341999352908,9.341165558055543
4.7700000000000005,-0.0184439632637732,0.0464499039218807,-0.0004799709736606,2.362707173425103,1.5718224635344435,9.238874836752975
4.78,-0.0350460187872737,0.0532516066525003,-0.0057175477582267,1.918873492368184,1.4689224318063523,9.297653224771803
4.79,-0.0517054433333644,0.0647980177689581,-0.0077756160485795,2.197831350435556,1.112116651077851,9.230138468824231
4.8,-0.0571085203223158,0.0766401052438126,-0.0110739228862575,2.2302216932505785,0.3647492057479988,9.063194855061102
4.8100000000000005,-0.0602242024156438,0.094249484612317,-0.012934802247887,3.1321712831042934,0.0666330425249351,8.98989091363396
4.82,-0.0509265169717009,0.1189128086067754,-0.0131826057645729,3.2907128332410185,-0.765323925308909,8.816687376071622
4.83,-0.0422229863436226,0.1424796141769762,-0.0125030830118111,3.3496587997186844,-1.3419924281909792,9.078933612085292
4.84,-0.0184351271927853,0.1722157938288122,-0.0049721697892299,4.010313203019594,-1.9022669092385696,8.933377520720287
4.8500000000000005,-0.0048242014111677,0.2037940429231929,0.0039645359770157,4.097320701735458,-1.7120329335964275,8.86794786086038
4.86,0.0162876615435866,0.2394217620810709,0.014058532976801,4.203433905666448,-2.161181723591685,8.518290441966707
4.87,0.0313371059306683,0.2605267040452347,0.027912677117879,3.1556890436352054,-1.840117291914028,8.724979845122665
4.88,0.046633331997769,0.2753804903341252,0.0377120886382409,2.4333876837132555,-2.2372218821074203,8.81397160895173
4.89,0.0624342732553202,0.2699451549039323,0.0467954676982709,1.0412046273409232,-2.0306968757530197,9.18727339852392
4.9,0.0771141901503471,0.2640689209415954,0.0529158961412259,0.8202148706942517,-1.998964630753828,9.311273192589429
4.91,0.0880298734840174,0.2578452713184522,0.0568753991660424,0.3857204986638283,-1.674279140018074,9.384610794765736
4.92,0.0959360634996397,0.2441967823189411,0.0526988383766957,-1.0626658809886411,-1.0389347863060945,9.947303778537744
4.93,0.0816137212184028,0.1999485955142216,0.0432287294802018,-3.5638811914210144,0.4234100762748725,11.287521120912142
4.94,0.0737272924175486,0.1593927547176903,0.0311332557734795,-3.3368883996288163,0.1052502719365532,11.252023219926812
4.95,0.0729640681888148,0.1263230526896195,0.0129888223868557,-3.107121800264041,-0.5202125589189442,10.767088438588264
4.96,0.0764551379248982,0.1054102880462283,-0.0005733511957577,-2.238202333885698,-0.3464668015992279,10.29832597422913
4.97,0.070981145075595,0.0966594697518312,-0.0088094735133699,-1.6328410234166997,0.3949402990106918,9.834881865249754
4.98,0.0512844432069239,0.0786166668281959,-0.0113290307658961,-2.4009180269768247,1.80514870122461,10.20307960438914
4.99,0.0306979397098083,0.0441568611005909,-0.0111658155533722,-3.648603708489073,1.6507170432549023,10.529366926640018
5.0,0.0237980588460206,0.0128028829773131,-0.0036660485516539,-3.0796810997210238,0.7719896344612998,10.041840274520172
5.01,0.0343132303900521,-0.016493502183841,0.0003788454609685,-2.7477479629024195,-0.2620269835017479,9.376441484409012
5.0200000000000005,0.0327837408411796,-0.031620887552399,0.0070612447720714,-1.7231370574454508,0.7645715169134668,8.957075776799028
5.03,0.0134751172432893,-0.0506710787234572,0.0104925910395332,-2.2204362153517545,1.8663511995094757,9.230423908589316
5.04,-0.0114837502430816,-0.0829952504553419,0.0217286076781102,-2.80648154145799,2.2124366162120204,9.858317051289257
5.05,-0.0235406937779604,-0.1119349542640678,0.0291656524327346,-2.358974783602727,0.7733875248824996,9.935594253857271
5.0600000000000005,-0.008574668515159,-0.1248377853246904,0.0262093495961972,-1.073382846170312,-1.7578763693785118,9.488001202378916
5.07,0.0228325007559449,-0.1226336116261121,0.0248393908527442,0.0181482723022098,-2.4756858379608166,8.903115001682089
5.08,0.0304155417030105,-0.1177965628215831,0.0238351848360844,-0.0361360854765076,-1.2240540415547647,9.524461959312635
5.09,0.0329808198657637,-0.1270808809584391,0.0237523977097817,-1.019926748369409,-0.674996000015015,10.198443510899445
5.1000000000000005,0.034594991198997,-0.1394600461392455,0.0235253319528647,-1.3587967201066726,-1.0645684590981284,10.39715713013567
5.11,0.0444697497305764,-0.1581445561543961,0.0242052067455598,-1.8246848934533475,-1.560654863986378,10.515909105855982
5.12,0.0645893238175061,-0.1764573593203491,0.024912592807109,-1.39957891144765,-2.415896257518412,10.2082582588946
5.13,0.0867162830781954,-0.1798252610575211,0.0262334280100413,-0.3100838502065681,-2.0485478210434103,9.454103991030848
5.14,0.1011310628756392,-0.174193016008989,0.0289985210087844,0.5780056533363575,-1.5462296412812977,9.130219232059485
5.15,0.1166647694526836,-0.1652200021574177,0.0220546450850316,0.7346075089512019,-1.4299108524344508,8.906174598402284
5.16,0.11566830787533,-0.1601409440086771,0.0117143679794618,0.2627626787357272,-0.5612599608975617,9.343442856287131
5.17,0.1151941952436494,-0.1648572670927753,0.0026950121659548,-0.152670596596336,-0.2581244675436971,9.778931003310634
5.18,0.1109220991366091,-0.1731870275365561,-0.0004411448340169,-0.0020513829003025,0.1011193635237313,10.212918493747802
5.19,0.112658665817993,-0.1732838804761808,-0.0030020677100173,0.5768567238890602,-0.3917542851154824,10.08039210355369
5.2,0.1123747826210728,-0.1756488147202519,-0.0023172513197413,0.775053963690516,0.0139184033916572,10.288770742222091
5.21,0.1107904129335919,-0.1714378699804125,0.0061565193732031,1.512281525297618,0.4067768795722886,9.955247251058683
5.22,0.0975392959803964,-0.1579300919281378,0.0178909961518594,2.437875442832591,1.2859526535444157,9.812137712420933
5.23,0.0863398482601998,-0.1398823716506292,0.0308436423924514,2.888764730914472,1.28544763175599,9.534494834376224
5.24,0.0665857916342112,-0.1129305895102567,0.042699622773821,3.663940079340784,2.480839527218068,9.66566718858261
5.25,0.0246109814306354,-0.0710707910019551,0.0545593452092954,4.962936403349767,4.5182407059861855,9.904274997292042
5.26,-0.0288282994265584,-0.0237251082680572,0.0626483623322793,5.245005062640432,4.891830709416762,10.17878707744883
5.2700000000000005,-0.0629505706735897,0.0239248739092268,0.0575409707066365,4.960224660530596,3.3953850637760588,9.851490820580214
5.28,-0.0864363276609492,0.0757084962289668,0.0455029260751553,4.864053576614537,2.8401626375988944,9.46266215819417
5.29,-0.1145308766701193,0.1137173350754812,0.0223057128873416,3.5492240702982287,3.0408148404300457,9.777671143395295
5.3,-0.1417213303289239,0.1415514399404808,-0.008534510767763,2.4193895761108872,2.6243897326664367,10.110480109131515
5.3100000000000005,-0.1489452098673995,0.1378985650173563,-0.0308362479868582,-0.2334074479942698,0.8655673081453735,10.845829499953409
5.32,-0.1488062983055237,0.1143297861557698,-0.0466594669583491,-1.611763364861967,0.5737073879741971,11.329543909854143
5.33,-0.155972350135867,0.0783778323850327,-0.053819351977413,-2.2364624770265658,1.4728641916305163,11.793751238502566
5.34,-0.1842460156812424,0.0703806096193608,-0.0592516224446943,-0.0073795039708994,2.337015572426284,11.234860944951494
5.3500000000000005,-0.20867351729859,0.0865750299267746,-0.0677798103156737,1.3751140718195656,1.791081156961462,10.361606692027031
5.36,-0.2240231730032023,0.1031806793167941,-0.0847332041326216,0.8880445984213884,0.4067330836328975,9.985571040502425
5.37,-0.2132575917482627,0.0979677452568015,-0.0913890312972716,-0.5298447602190558,-1.7310136564221608,10.012902307228805
5.38,-0.1711497236285087,0.0800264863873249,-0.1078805412712744,-1.5195030318753595,-4.343181342292041,9.780225934309682
5.39,-0.1329629690636982,0.0591443276648836,-0.1132414649787596,-1.4318324366804287,-3.303468878018938,9.599321789524822
5.4,-0.1379053436296201,0.0487140381559218,-0.1144743274512938,-0.321031271200172,-0.0335121828315931,9.635681181666326
5.41,-0.1528726045605904,0.0480304411967935,-0.1106907810631445,0.6869436125316698,0.7210777611437689,9.644367622840129
5.42,-0.1800454058279242,0.0526617580238082,-0.1050024564924887,0.9986844299140916,0.9674094081929314,9.561657258484576
5.43,-0.1800028833482133,0.0547096768735873,-0.0931999992194823,0.8992312660211187,-0.9586800143575138,9.444374931781756
5.44,-0.1633545941626114,0.0447434183881946,-0.0885733004275015,0.2187785136663538,-2.328058635194317,9.66080090617185
5.45,-0.1347519260295257,0.0415663320281146,-0.0760056387248686,0.9604043541041796,-2.7801235268245046,9.470198703239252
5.46,-0.1171295376327656,0.0417557464724469,-0.0637526075902632,1.206992844664371,-1.8992839787634632,9.610679192118075
5.47,-0.1082289232002702,0.0466779067554344,-0.0544117290142229,1.729539510763576,-1.1228378195189463,9.541564055575948
5.48,-0.1070176821565029,0.0634654911153938,-0.0446671481791189,2.6673152089121257,-0.5639210816051075,9.277897745163743
5.49,-0.103982225159826,0.0883377276735663,-0.0305069621267965,3.4414346609667428,-0.5348930826468838,9.044553881390827
5.5,-0.0854773384655988,0.1224545664766657,-0.01850173916549,3.6669857392396414,-2.3900159730197283,9.081785569881768
5.51,-0.0354732367212385,0.1479297615970343,-0.001193510516291,3.236967583200824,-4.156083619171423,9.164258956900357
5.5200000000000005,0.0117834122287814,0.1835741351248584,0.0166037900757738,4.012246053314171,-3.898200211386004,9.061709007156317
5.53,0.0408691397178715,0.2214482552944049,0.0336383682128735,4.0865752750906665,-2.987687010036568,9.19486958416601
5.54,0.0795761514688455,0.2588617166954224,0.04756469916671,3.556831275168973,-4.08478718937288,9.174037557903969
5.55,0.1330770431172794,0.266939569531799,0.0562470991548844,1.3143061953389468,-5.4885781537428375,9.590952483641791
5.5600000000000005,0.1827505176996214,0.270027281548845,0.0597088251647302,0.8997823180130313,-5.1634641422231455,9.441436668079133
5.57,0.2070008494404373,0.2575904493366577,0.0597936761018582,0.2519928158363659,-3.174608612664394,9.737196792873254
5.58,0.2179913855000094,0.2497865913721746,0.0523176443216153,0.4976979318104922,-2.188443942424778,9.46349420896074
5.59,0.2043273766925961,0.2503972643038711,0.0456607330974885,1.3055789274083955,-0.5638971052230773,9.03429165422553
5.6000000000000005,0.1987818430312501,0.2642353917449492,0.041234667265112,3.345949682371457,-0.2701603240362729,8.292012989818613
5.61,0.1830342805172167,0.2868718231363213,0.0373872395989247,3.168799758558129,0.2998680767329582,8.301954001946074
5.62,0.1996764269233462,0.3175332416283797,0.0269494362559863,3.072622132070025,-2.1599864246196385,8.015314847163578
5.63,0.224931453965504,0.3277810160118412,0.0161729555961438,1.7262371220584662,-2.0328900502939344,8.149841920674655
5.64,0.2388282198505879,0.3436625912793265,0.0067442914855429,1.9442453889044664,-1.144315807478833,8.457956325761389
5.65,0.2418863464795063,0.3413937485909568,-0.0015076437580636,-0.2934292435183089,-0.1095872449636846,8.814486866147398
5.66,0.2100475151487456,0.2953563477812703,-0.0087236484128287,-3.3400867766491973,2.956022775968768,10.849676344769646
5.67,0.152729580566392,0.2250317300502978,0.0017239639396076,-5.741109669678273,4.685918643489083,11.963036048812077
5.68,0.1276584351038497,0.1188496768914253,0.0111394718673774,-9.001453173515097,4.129924427126193,13.26549516079457
5.69,0.0311758292761867,-0.0169165544755114,0.0212018534925528,-11.781102625738756,9.183717175908455,14.383007273598018
5.7,-0.0178660820462081,-0.1112159358266286,0.030034554043109,-7.248887049473056,5.696176640335537,12.57706370693565
5.71,-0.0611071144149046,-0.1501848446185604,0.0499808852013894,-4.323601973431489,5.328169467092292,9.34216241276336
5.72,-0.0737245447316964,-0.1843541198861682,0.0589095455047437,-2.506179026624081,2.7044923119696267,8.74004718043403
5.73,-0.0993444336315485,-0.1835686880596686,0.0398050051566907,-0.6744723284117863,3.823698062488268,7.706128366275224
5.74,-0.1524120839581933,-0.1654388095722434,0.0292289786425181,0.3837434134697887,4.378912273743787,8.658440457934637
5.75,-0.1787993658665381,-0.1400966833670561,0.0080964479979821,0.2436838048555781,1.8956727973924323,8.584427877225506
5.76,-0.1872450253374045,-0.1366554167110915,-0.0154562621924332,-1.0275828376560316,0.108530845349899,9.621066439251486
5.7700000000000005,-0.1784430023389629,-0.1297165186325816,-0.0452391031745127,-0.6448303904637391,-1.2096905193808245,9.833960981715553
5.78,-0.1490473598207317,-0.1138580958948337,-0.0535344156983545,-0.4492980798645537,-4.067978287918505,10.165743985321471
5.79,-0.0768765041637176,-0.1455127018775107,-0.0496669906738451,-2.835299919026652,-5.482481441011087,10.814267272247784
5.8,-0.0635618743606583,-0.1381039880142721,-0.0480747270944765,0.0808042574541012,-2.1728135384181773,10.686824210465096
5.8100000000000005,-0.0784770648530358,-0.0848115594026886,-0.0167148850473812,3.193147620701045,-0.645634192636837,10.048771594181924
5.82,-0.0575183801169858,-0.0161543495693325,0.0431764040526696,4.091872472805829,-3.0354183011131477,9.430006887836884
5.83,-0.0247307648593269,0.0646343181365881,0.0785340208944627,3.3914575499492123,-3.362478409256779,8.775794911737204
5.84,-0.007562276920511,0.1441091630299952,0.0811768386897393,1.1721620585354913,-2.482173803544283,8.800000865071592
5.8500000000000005,0.001691293691402,0.1576082985223418,0.0524816017982312,-5.030954645603271,-1.626744332717608,9.296695721831524
5.86,0.0066490996988458,0.0993774422060933,-0.0115183239418319,-10.93900486975367,-2.807119235191656,10.978393207890052
5.87,0.0275177195443275,0.0200809403498332,-0.0566472421947172,-10.763668640709955,-2.425664962076105,10.049902563665428
5.88,0.0424237091522978,-0.0207962375228248,-0.0812724615994147,-7.502246555410195,-1.6389795673147067,8.8726660413621
5.89,0.055287609477461,-0.0698610258824666,-0.0754793744149855,-7.250347689882741,-0.4419044908140703,8.976098260257643
5.9,0.0447005543396387,-0.1007831762759481,-0.0427990566554716,-4.596691201608848,1.5599216676018095,8.999712891236404
5.91,0.0220739481366981,-0.1164309754897162,0.0012477878749133,-3.1340484800296924,2.711545280771269,9.367812398383183
5.92,-0.0056835201653768,-0.1472654706622242,0.0394664544996568,-2.859226291164558,2.418985187316593,10.519254141782527
5.93,-0.0220446259553282,-0.1444319390675779,0.0693606276449509,0.4631058059632147,1.425354631091473,10.712354447716413
5.94,-0.0328552506016783,-0.1122039300394694,0.0763714153703996,2.590704826297067,0.7347878476179264,10.874043443964387
5.95,-0.026771496452976,-0.0557952329200457,0.0671845291194268,4.690870551578109,-1.069976752079031,10.834410613342651
5.96,-0.0121169740368357,0.0169851897180977,0.0447952662047692,4.6386150851934165,-1.7033454089769384,9.648515902599115
5.97,0.0015367081912796,0.0314942090697429,0.0059256570798107,0.451556345827326,-1.3310432019786833,9.427323862842698
5.98,-0.0059768317605568,0.0295963735169445,-0.0292715515556982,-1.041141683623643,-0.5404314685571655,9.270548822010028
5.99,0.0003190650031829,0.0065466864244026,-0.0496978845062903,-2.468820784248545,-1.2363091021663395,9.434309735665764
6.0,0.0097837758513292,-0.0185087407101695,-0.0589037399354628,-2.0130615204010804,-1.2132049864234788,9.609158203090288
6.01,0.0108817031789681,-0.028157314175577,-0.0518599833908728,-0.7623561512100694,-0.1717416949679912,9.822734880256958
6.0200000000000005,0.0043791072082694,-0.0236795753328708,-0.02971392232806,0.4730632312178646,0.6416547184782695,9.96356806002041
6.03,-0.0012833407468439,-0.0122977202229799,-0.0142182066652229,0.8040694937431743,0.2432769875904513,10.02062240808348
6.04,-0.0007526233574412,-0.000640647631197,0.0082807530102082,0.849265705625272,0.1661731568881006,9.851880933221812
6.05,0.00131160344377,-0.0011870768731689,0.0153114896652051,-0.1435771941896195,-0.3003411466831304,9.866300447143662
6.0600000000000005,3.0447996823883177e-05,0.0001067374368402,0.0178722523537227,-0.1022811867405302,-0.1255427904662816,9.67562933082613
6.07,0.0032524195164026,-0.0115019526515658,0.0092582864139922,-1.0978611957058433,-0.5379349007699524,9.61172249458958
6.08,0.0047044184545602,-0.0455416492024856,-0.0309531252446821,-2.291717592872713,-0.7429838617793652,9.867096799077132
6.09,0.009556553612535,-0.0900986005158803,-0.0669311221304587,-1.7636374359633966,-0.8793205788644839,9.826565138103524
6.1000000000000005,0.0086447349311458,-0.1245445741861284,-0.0749542276921919,-0.2153209989025925,-0.5386770257643269,10.162989252180672
6.11,0.0080542976980583,-0.1451984196326791,-0.0618251200380972,2.297343798305413,0.0757973028740132,10.509080409899672
6.12,-0.0009625009030928,-0.1268565371907668,-0.0338044326368025,5.993009078844808,0.899891237612233,10.40448984767628
6.13,4.70030889009181e-05,-0.0760600480744577,-0.0083783382165483,8.237486630992176,-0.2832572143683753,9.839322127692842
6.140000000000001,0.0104678214305494,-0.0249482589411307,0.0116555922117778,7.970630697208398,-0.5106907223026133,9.358069422594744
6.15,0.0049503809718369,0.0205307278953663,0.0271959145006486,7.114635735711818,0.5545092484310722,9.080718478579922
6.16,-0.0047272280275158,0.0507275421585963,0.0425928783056088,4.435318467620629,0.7191758178335398,9.335124210363215
6.17,-0.0211578728987108,0.063395147052693,0.0391299266752549,5.533814479934264,3.6156981436508016,9.38525125200168
6.18,-0.0307623864370673,0.0780954970636467,0.0315412532922574,5.036628949522686,1.4820410750029662,8.709007693287347
6.19,-0.0306059127426613,0.0927132609385977,0.025576229059393,2.4047007282857797,-0.1252148317553862,9.31529615268871
6.2,-0.0247258228224596,0.1002674127586114,0.0139751544606634,1.0071936293928196,-0.4142238280947005,9.347340049594605
6.21,-0.0270507686912667,0.0994313620392138,0.006491063480521,-0.0461561848435423,0.1129640453536431,9.707166104948952
6.22,-0.0385657759658887,0.0934348732506841,0.0078167611186155,-0.7578458824277639,0.7344446212764454,9.966568661346995
6.23,-0.0476865256624693,0.0886671331170003,0.0091972927015968,-0.9810664218134636,0.3264632363233413,10.224121947903866
6.24,-0.0432266828758406,0.08174309688543,0.0154813852545567,-1.4280185306251016,-0.4151321264321091,9.828437909427638
6.25,-0.0401755021220163,0.0577411787982271,0.0184628077235766,-2.7981139879986823,-0.3323144213454767,10.328879918493373
6.26,-0.0450185416476327,0.0233793713557157,0.0179487679538079,-3.1811370262364598,0.1235469272845528,10.872491634982838
6.2700000000000005,-0.0455672480481443,0.0082917625829481,0.0185803834733315,-2.09967804908372,-0.455827078120026,10.343957871239452
6.28,-0.0309956334887504,-0.0050434316057631,0.0204342779156514,-1.900007833636976,-1.731937796898717,10.070315798334176
6.29,-0.0074620513523835,-0.0202783030905865,0.0188343998429128,-1.7408154595568166,-2.6838746596160115,9.889176355104471
6.3,0.0030405209211026,-0.011191620699511,0.0123272965115257,-0.1824287855140956,-1.534964021882988,9.439368369462668
6.3100000000000005,0.001084228233996,0.0082091793442678,0.0076370554429241,0.5854104673651277,-0.9135163533782374,9.315354950196614
6.32,0.0033595617243891,0.0221663757094651,-0.0002136716234735,-0.0098872798311491,-1.3768999118008367,9.380836013882682
6.33,0.0134524353907151,0.0319654303073072,-0.0068790290120295,-0.4181547848219871,-1.5793776261460368,9.25056214723578
6.34,0.0344805382511856,0.0209027448276254,-0.0113948687526634,-1.7699738821269402,-2.123563118726672,9.5610862201401
6.3500000000000005,0.0383474012361659,0.0038757062288883,-0.0154700960579565,-2.0248322592883463,-0.4584849246590157,9.837767298879944
6.36,0.0312826971416577,-0.0072638366872436,-0.0151782456401041,-1.428695785898764,0.7093677364666461,9.980906602513713
6.37,0.0110314524548923,-0.010630255988876,-0.0140741999808004,-0.9964453877869546,1.6019899359763157,10.170764621751184
6.38,-0.0012816007495414,-0.010694810690638,-0.008247252701526,-0.5949182383396868,1.023577290122477,10.27863909059097
6.390000000000001,-0.001646343147893,-0.0112554911314996,0.0016683732733009,-0.488738780333237,0.5005342994232933,9.9877493163156
6.4,0.0004037577556712,-0.003113869681237,0.0095600176987,-0.1270578748739919,0.3104030203765632,9.56643249814223
6.41,-0.0061184845026995,-0.00743987254787,0.0198648505297252,-0.6625111917725206,1.0655545789525545,9.749832937999996
6.42,-0.0183738452301533,-0.0232750747713942,0.0088341174100288,-1.5468958585165076,0.8107005734937934,9.811134561762389
6.43,-0.0217827610759139,-0.0430983686370505,-0.0115820776286772,-1.337452501236308,-0.3828185401552819,9.996637376977718
6.44,-0.0086049179468897,-0.0535633968231947,-0.0372416909399679,-0.6108832181707089,-1.7170708978312843,9.549709565298464
6.45,0.0050484790162722,-0.0670261313229844,-0.0490809950593165,0.033527593883812,-1.7665113313778111,9.827401871850869
6.46,0.0174917985975017,-0.0632229531630956,-0.0512393761041811,1.4167417517613676,-1.4564902970274394,9.530661769912967
6.47,0.0174637939108494,-0.0590803745461499,-0.0380845788481882,2.0269237112569187,-0.4941122742136868,9.860792874277347
6.48,0.0168649930169446,-0.0501082416939529,-0.0157025429967096,2.7265982718131685,-0.4130386712465245,9.812154237951344
6.49,0.0181266098334043,-0.0370318025715286,0.0096563211095281,3.033837636978032,-0.466384006465312,9.673539601904444
6.5,0.0240995845334947,-0.0204483142313348,0.0314059544739076,3.247571931599851,-0.7677018862603634,9.5058422370628
6.51,0.03251034347493,-0.001372191478387,0.0376283701893636,3.05682610812462,-0.9336561424767594,9.32082584326809
6.5200000000000005,0.0389558001587506,0.0125204269858267,0.0390242290136166,2.485645979092973,-0.4454999819082913,9.394540052846136
6.53,0.0217734157506903,0.0233214079884839,0.025225457587535,1.292097045460532,1.1600199312770878,9.805882875562828
6.54,0.000548480646453,0.0143833390215327,0.0109106580179878,0.0037055602317417,1.313989649458163,10.534885059727706
6.55,-0.0079535123265917,0.0173463713859447,-0.0055729785549691,0.4289868782673414,0.2606173907379914,10.084785742552796
6.5600000000000005,0.0038207913856642,0.0163481216876733,-0.0153675127390078,-0.4048724006255236,-1.5321585793458927,10.042336715536829
6.57,0.0435690339805136,-0.0050624257388483,-0.0157737128052166,-2.152447250561802,-3.022968826454677,9.959603343559174
6.58,0.0571312307253607,-0.0295845662284859,-0.0113008526700786,-2.31107807360992,-1.4744414116154192,10.184149350472428
6.59,0.0634532813009595,-0.0471737851307341,-0.0029779902274957,-1.950084591034186,-0.8983636987179417,9.954773905929244
6.6000000000000005,0.0603073453692219,-0.0629723845561409,-0.0025764504994503,-1.6828453555102634,-0.6174468375915817,9.865294863121946
6.61,0.0578539898914422,-0.0691544507120146,-0.0069165482732704,-1.2083669951427651,-0.6694935209358237,9.663412494195496
6.62,0.0614816546482418,-0.077357537773503,-0.0038583149749091,-1.2174830002120791,-0.6319698477091312,9.910525071721077
6.63,0.0576290259249889,-0.0743418584449583,-0.0044524401041916,-0.2298029114579059,0.0037204824180448,9.709897909254352
6.640000000000001,0.055662065521424,-0.0674448463047065,0.0035707874607988,0.2989929308081288,0.5405377167985599,9.786007373673783
6.65,0.047226593866622,-0.0580666925064465,0.004654930756683,0.4659137522217716,0.9485039635550814,9.763311417973812
6.66,0.0357129378245561,-0.0433122228188272,0.0062319457915374,0.906866819115099,1.3867424258728382,9.75461082458123
6.67,0.0238376570822792,-0.0230948785010639,0.0079711432021805,1.0528489422846543,1.2572145317210977,9.546660503979869
6.68,0.0105552749975048,-0.010050584386884,0.0046504471369781,0.4714795715574943,0.8939934099342357,9.730848512188008
6.69,0.0106562510325335,-0.0164353880324912,-0.0001422189257345,-0.8241779596689182,0.0143667424178152,9.677939027362692
6.7,0.0117273384447907,-0.0323523389849789,-0.0059620883862725,-0.9261612745403364,-0.1743974739528651,9.939572138484834
6.71,0.0137142035430322,-0.0390749795467659,-0.0185448295983723,-0.1883059117526613,-0.62059341436331,9.789122857305076
6.72,0.0151109816484489,-0.0475229768376245,-0.0187287713947943,0.3483707050921495,-0.467262845588129,9.982865475136048
6.73,0.0136070897220167,-0.043430637676753,-0.0188947368028811,1.2729602536070816,-0.3019837197489059,9.731611587445723
6.74,0.0190968879725438,-0.0413202349791233,-0.0115972973021916,1.684620886713848,-0.793727633107121,9.929098687399875
6.75,0.0222080886766569,-0.0252876576128229,0.00348079783495,2.493913878701647,-0.2800471073908592,9.46726495200584
6.76,0.0232970700566639,-0.0171639169631963,0.0129958995071002,2.1336506970875484,-0.1220736794926234,9.646321725545173
6.7700000000000005,0.0215698943208856,-0.0063453940005942,0.0229974043008633,2.2713443822689654,0.1608614612911572,9.48364271730563
6.78,0.0130808297917353,0.0019485018068875,0.0174894787755557,1.7641203838773891,0.5375433152078293,9.739435970932051
6.79,0.0131601036337031,0.0076904386375928,0.0118294738617488,1.4548470942560865,0.0051254725632483,10.038634391713218
6.8,0.0073888511030587,0.0088202004937777,-0.0023774566675773,0.7214625859318684,-0.0618171857139674,10.221015393408766
6.8100000000000005,0.0178151933496281,0.0110167487279612,-0.0158223129424503,0.515220058434569,-1.034843302868452,9.923993915428152
6.82,0.0224182628252346,0.0011143120835187,-0.0250599097076109,-0.3894721552678185,-0.8116999985904535,10.059977443984623
6.83,0.0237685754206524,0.0049366348762835,-0.0326216753187826,0.2133226019218408,-0.5371327374652973,9.36001740991935
6.84,0.0212408499007777,0.0044488861545058,-0.0282979096832922,-0.0606456392660443,-0.1801179538914776,9.284219794802652
6.8500000000000005,0.0234358631850648,0.0038987220157791,-0.0157476693007401,-0.2233950352087953,-0.5825726016194785,9.203719496221956
6.86,0.0344844953456909,-0.0074897423675388,-0.0005907399195483,-1.2185551770953709,-0.7336752802222636,9.47055384034059
6.87,0.028645547174354,-0.0310537715142986,0.0126741955441185,-1.919492169029989,0.3239138877979229,10.155548954886529
6.88,0.0243715481978907,-0.0501966564410302,0.0208978549030372,-1.515625582272157,0.3708608613819721,10.342339188569756
6.890000000000001,0.0192369053772182,-0.0611651354243234,0.0239369411405869,-0.764352735462446,0.3058891967607032,10.2058806049038
6.9,0.0152027206392921,-0.0636644284894806,0.0259960748639651,-0.2512828902932955,0.1791562192811826,10.29643721703492
6.91,0.027062836935314,-0.0625780092343043,0.0248212002602168,0.2387727162971606,-0.7977436726413989,9.891119666905048
6.92,0.0370506933909587,-0.0461557333537986,0.0189117722597667,1.152578598807728,-0.6875631524127744,9.351335588246595
6.93,0.0320505682496102,-0.0252768858950537,0.0066059509676643,1.288493721849685,0.0860933285356045,9.235668073924655
6.94,0.0254142864107441,-0.0107587068104194,0.0027604589390331,0.9664558198198734,0.377766665330978,9.366965944582558
6.95,0.018072466148783,-0.0074317039859659,-0.0072656498837522,0.0912006757337225,0.1531549086065936,9.562747266135164
6.96,0.016058897851705,-0.008661476551112,-0.0135945912066153,-0.1446936968401265,-0.1702967628644684,9.68500128768544
6.97,0.0205637496431683,-0.0184111299878177,-0.0180053442332199,-0.5019946908849543,-0.4563272907907914,9.782713095389877
6.98,0.0159467651612847,-0.0228547448758726,-0.0150636426720074,0.381843243588038,0.5015482632548179,10.053807895830394
6.99,0.0055190258823728,-0.0162588471188187,-0.0128834146621874,1.4837537342479556,0.8988008645945126,10.234225091600187
7.0,0.000737649630174,0.0049424573920191,-0.0030601030762544,2.4598258412161047,0.4820709742829501,9.958625679218688
7.01,-0.0006545564113708,0.0181184366796419,0.00596173605069,1.76778070077451,0.3579118479946159,9.89148393133075
7.0200000000000005,0.0025835274764215,0.0126653103852487,0.0134630257648178,0.5537360608186287,-0.0107253750597249,9.907756658220457
7.03,-0.0010213951522876,-0.001769757029247,0.0117579436314054,-0.1851384985657833,0.1809746240696936,9.883200479034873
7.04,-0.002133340414619,-0.015865546618734,0.0073501638521202,-0.2656268985509454,-0.0368298988623395,9.734825978519904
7.05,-0.0058836844194986,-0.0210116316107287,-0.0151689733925512,0.6164353705665444,-0.3212435827530173,9.824856463190638
7.0600000000000005,-0.0069340934516128,-0.0065833466535104,-0.0173388525459221,1.402459967315434,-0.2561314432466475,9.475170063540778
7.07,-0.0054044830521457,0.005468746847058,-0.0185939382377318,1.0893181926153477,-0.3770643140002267,9.419836517782224
7.08,-0.0071108370639242,0.0079848262040875,-0.0139000687363794,0.3557964070164908,-0.1209027618727682,9.694863050692613
7.09,-0.0010967884458967,0.0047625414918532,-0.0021407233166745,-0.1428785141197112,-0.4443305312858271,9.793332050901771
7.1000000000000005,0.0088456463872335,-0.005929406902769,0.0030881234829076,-0.7206678371620238,-0.7358618528647911,10.089256545279884
7.11,0.005905322270621,-0.0099725081220372,0.0075803090271302,-0.4198076475735409,0.3073291900256572,10.20116946025142
7.12,-0.0097009983624438,-0.0135936397383467,0.0144404273864575,-0.360737081213184,1.1114074218901575,10.424955129731252
7.13,-0.012405608130665,-0.0161817662731049,0.0178507201757975,-0.1168827507890973,-0.1461271567999406,10.371296135331958
7.140000000000001,-0.0064321106876685,-0.0186526022977434,0.0197447639343091,-0.2472319590805082,-0.5793040605341983,9.81579421086651
7.15,0.0023653162020662,-0.0214410555989375,0.0155399412301131,-0.2670463563196317,-0.9019850687122776,9.493559545987823
7.16,0.0108610279660283,-0.0250544659241314,0.0153018830728479,-0.2748253511168331,-0.6672657991594187,9.409036855249472
7.17,0.012679784824271,-0.0279697298618068,0.0067249651451357,-0.1874853861187216,-0.3742471612138082,9.397889248277057
7.18,0.0080876626309543,-0.0263342706885144,0.0069774299313076,0.3643988175077563,-0.0415501848827892,9.507529314387398
7.19,0.0147789125197676,-0.0220736812591544,0.0056870904204198,0.7434928202171863,-0.683952694126837,9.51781654712095
7.2,0.0159453087534705,-0.0159034975377821,0.0045745785732516,0.9782532143620388,-0.2596604652141786,9.512634737584534
7.21,0.0128011362453969,-0.0083493608168946,0.0077954189304956,1.2637238947852028,-0.0403356841942159,9.692022092757764
7.22,0.0134493252124875,-0.0064554787854607,0.0153439211112209,1.07133365003628,0.0827428736820563,9.663956013340671
7.23,0.0110340465193316,0.0015288279879412,0.0207200281706401,1.482254863089219,-0.0628968471840385,9.816281622218469
7.24,0.0158443935713494,0.0033476485482792,0.0245088234928199,0.687001730153944,-0.4676913117849854,10.040297542500191
7.25,0.0193225604894711,-0.0076344006987876,0.0261548616376468,0.0307397533019648,-0.4011488181956404,10.500409393974694
7.26,0.023541536904597,-0.0200696455412598,0.0228091542062112,-1.0286887136020657,-0.5338578307895316,10.98028949437931
7.2700000000000005,0.0233553571850619,-0.0295627269344572,0.0096505804371782,-0.1792666060669103,-0.2259477101823017,10.611497352714766
7.28,0.0244537230077559,-0.0173918476434712,-0.0033597919705561,1.2444631686602885,-0.2943410701275666,9.81332800175378
7.29,0.0248054206838831,-0.0042320785199286,-0.0121680397155932,1.3012179079012731,-0.3820256378896956,9.44770150702372
7.3,0.0282925748025244,0.0142905914472559,-0.0170342728111199,1.3277088420257264,-0.3855304799889072,8.883637437426437
7.3100000000000005,0.0199392456920558,0.0223051048123768,-0.0186881843569925,0.8075614353719577,0.7315889378831204,9.08105176547132
7.32,0.0035977227013382,0.0288692166696867,-0.0152353468897989,0.7383608139439349,1.227309255570261,9.315325411444997
7.33,-0.0061802473325932,0.023211352065447,-0.0088990043464354,0.1475686398194875,0.71512957313596,9.806827714519086
7.34,-0.0041262134007237,0.0205297687619432,-0.0036269707220843,0.2654833620831576,-0.2402463327906317,9.899409103854811
7.3500000000000005,0.0139759865755491,0.006062602563532,-0.0036271942395023,-0.811305750377132,-1.2687768192364972,10.259266043054716
7.36,0.0079664961879169,-0.0086183125972413,0.0013485304930009,-0.4320739358053665,1.3448713821504945,10.70133527767418
7.37,-0.0318300113772485,-0.0027846435121735,-0.0060394230845621,0.6370059332862367,3.2766348385000303,11.036811571990768
7.38,-0.0615794669998398,-0.0011199731665536,-0.0133114505174807,0.2413576951203589,2.185435309376312,10.745845198516886
7.390000000000001,-0.0553824576693574,0.0016520228830901,-0.0160711641970328,0.2727269532518889,-0.1836014821227176,9.514853996638845
7.4,-0.0475111059051376,-0.008034888430171,-0.0156351487699202,-0.5426499144305191,0.2545507703171822,9.046397964623486
7.41,-0.05927570533946,-0.004365459810159,-0.0131909560027769,0.6589710295991902,1.7600188684455402,9.014888516021422
7.42,-0.0874799482927037,0.009418086017836,-0.0133944239082983,1.238703725228455,2.0806424198822078,9.586832744741292
7.43,-0.0904256721179285,0.0244651264196946,-0.0161396275821379,1.562920846443277,0.1253285659849944,9.878916985525631
7.44,-0.0818671787968228,0.0426349489500777,-0.0183343134436062,1.538508531103789,-0.9930836960988256,9.843951027906442
7.45,-0.0676636749404696,0.042586565317051,-0.0191737051668814,0.4303607066541118,-1.4082201610391132,10.173625264349436
7.46,-0.0536676154188789,0.0346970112993875,-0.0209527082356861,-0.5201620615332967,-1.737066478407531,10.039568088787387
7.47,-0.0479468754053449,0.0073858997782549,-0.0213850486639193,-1.083830386081702,-1.2626629857279812,10.392179733394952
7.48,-0.0420462324442564,-0.0021378682142581,-0.0175557519856146,0.0740705095867936,-1.3853867998560678,9.834074537915548
7.49,-0.0336760732754765,0.0055928744013897,-0.0098261080297878,1.4152884172796314,-1.5300742295005871,9.158757313492124
7.5,-0.0125984546387884,0.0236043438474209,0.0001881849870779,2.2181824967631183,-2.086004909625947,8.701437004347111
7.51,0.0027486468396849,0.0407194094221655,0.0013013105758228,1.7567679658718574,-1.1450342569946843,8.714246629569635
7.5200000000000005,-0.003600373914947,0.0436589930719634,0.0028093105333619,0.7206090385617825,0.4339135103153551,9.692953221025894
7.53,-0.0153165113065947,0.0313692143863105,-0.0073512747499397,-0.5185003560515836,0.8307226885278095,10.33596399518508
7.54,-0.0268667767995808,0.0180809279556618,-0.0164289541158131,-0.7135551219824354,0.5014534044379854,10.9716007841573
7.55,-0.0207134559923159,0.0124980156264996,-0.0260439060244015,0.1113552201211978,-0.5622385959050074,10.346679962635726
7.5600000000000005,-0.0162751768324902,0.0167234919416266,-0.0291476409497908,1.066232986441664,-0.0471166981292377,10.00220985756269
7.57,-0.0378403192530572,0.03825791673382,-0.032792241460388,1.751965702924064,1.6783300989921586,9.407435190992569
7.58,-0.0485258010223371,0.0469216172121637,-0.0243231571826389,0.7570886883485471,0.8041729020262138,9.442260054550752
7.59,-0.0544435700398663,0.0315137673067268,-0.0150925565126589,-1.0076724505757535,0.1088590561874779,9.74954891596106
7.6000000000000005,-0.0398988318641495,0.0196867598508326,-0.0011765399563363,-0.4661373029528731,-1.2277946963562347,9.602988171464862
7.61,-0.0329411202381894,0.0077636728577681,0.0114653388422676,-0.5673742458245447,-0.5005060231260549,9.528976576792054
7.62,-0.035025343574731,0.0069799612431978,0.0207080532249757,0.471522237855334,-0.2431165326102179,9.826147458590636
7.63,-0.0363434983878304,0.01187711913228,0.0231176250067302,0.5084022604571191,-0.5403526649785737,9.597097029407497
7.640000000000001,-0.0243383128264551,0.0182499492233646,0.0165960386779853,0.626135437421662,-1.6569640000838428,9.539036167674984
7.65,-0.020979414998896,0.022784450405676,0.004567387831653,0.0294111412334002,-0.653343665658849,9.481657426910768
7.66,-0.025515443735546,0.015684172895764,0.0001803494210117,-0.6767276051025946,-0.0059659629933556,9.926828719634605
7.67,-0.0237670831523602,0.0030909161032489,-0.0050102501723221,-0.9027995841334128,-0.4426879951744007,9.97150264245304
7.68,-0.0090257383870055,-0.0072333091901885,-0.0003363996825418,-0.8815537870835429,-1.232710024903861,9.860898999809256
7.69,-0.0023638177118601,-0.0199495643580928,0.0010902534390562,-0.8144853944168863,-0.5966134307066359,10.168452122452775
7.7,-0.0029282558150384,-0.0233544923645571,0.0046688286506333,-0.0914073889883118,0.0078378802395772,10.0442368031639
7.71,-0.0140131992266425,-0.0159025246408638,0.0090291638311692,0.9754068349252348,0.8595615075751872,10.28447930069506
7.72,-0.0250173659386822,0.0055194313937323,0.0101528268691846,1.7238730042701134,0.6534384866136189,9.791217046869438
7.73,-0.0284255352098596,0.0174136069802551,0.0087742715527066,1.09173079484939,0.1230557643066138,9.613890999177476
7.74,-0.0240834492181715,0.0204555564496541,0.0087400487077185,0.5384527557530513,-0.3719962063354102,9.302127284761314
7.75,-0.0213551160748522,0.0206641091657301,0.0044799478177675,0.247150736375954,-0.1907375155639295,9.175406900614393
7.76,-0.0267015331665639,0.0093067800938296,0.0027357046760381,-0.516421439313334,0.3257348902984237,9.562652801894927
7.7700000000000005,-0.0310436161731994,-0.0046871577746287,0.0003075421240874,-0.5568967541784157,-0.1097371944927624,9.862162629169877
7.78,-0.0268816619911106,-0.0174184399469021,-0.0022154372732392,-0.6068921842311987,-0.6242992640338846,9.865633054276891
7.79,-0.0149875869395854,-0.0226269919335892,-0.0017960426944545,0.1354000132838058,-1.7179720821487496,10.388112445239388
7.8,0.0081988062856054,-0.0265415064302437,-0.0053225645411065,-0.0981724342182002,-2.264285574216624,10.345368069751222
7.8100000000000005,0.01207884452994,-0.0270123802785217,-0.0038597636471739,0.4843855692780245,-0.9607192520939964,10.342158546056254
7.82,-0.0027998866409309,-0.0154493636119415,-0.00267325729013,0.8905184404071587,0.5385634849641995,9.843393280836134
7.83,-0.0102077638838206,-0.0082114683197279,-0.0027782112906924,0.5642808505910922,-0.100879009008606,9.690569979242598
7.84,-0.0118412314648172,-0.0010307323541552,-0.0037434493738464,1.2486433384911058,0.1304622510824417,9.25955612557442
7.8500000000000005,-0.011444123475836,0.011092928709469,-0.0018285446881554,1.1412978744439424,0.093437582146367,9.289981031046452
7.86,-0.0143266465897424,0.0127165152625421,-0.0015547256066701,0.509971084111651,0.5829684364138987,9.516390319442454
7.87,-0.0244119331438165,0.0102527603108515,-0.0002551799721321,0.2149354605377942,1.0139795289984053,9.647662318221986
7.88,-0.0363569894191115,0.0013075834349543,0.0037992392585375,-0.1257184344773788,0.9347756281747832,10.023251684080428
7.890000000000001,-0.0382881771395363,-0.0081596094928974,0.0077785931912013,0.0072398327429072,0.1919151199083539,9.95456311152166
7.9,-0.0408073074894173,-0.008294112195927,0.007951250617648,0.5654233562100182,0.1205112625017564,9.682579486913612
7.91,-0.0361216301909508,-0.0011656601512124,0.0065556264866837,0.9542928874120742,-0.7903289110756286,9.587106036046572
7.92,-0.0247181276461548,0.0003707350089589,0.0046056388796069,0.3090934662013498,-1.3081195624917623,9.70288278046582
7.930000000000001,-0.0166356342967896,-0.0105623745229954,0.0009675385931269,-0.6738221986550799,-1.253238528404588,10.232814089824677
7.94,-0.0139631336809303,-0.0209811485106636,-0.0007455597247234,-0.6735429534354137,-1.0844765662122269,10.293007268194875
7.95,-0.0090253946153229,-0.0244735242822344,0.0015558902209387,0.118053667241823,-0.9528553990720424,10.484503098902804
7.96,-0.0092410647140749,-0.012538814187955,0.0038170484744706,1.308794376856512,-0.8847303244814401,10.130804901696443
7.97,-0.0005552276110736,0.0141964829819528,0.0101090686780163,2.1648715999426846,-1.030418769647384,9.392526168470098
7.98,0.0031965557568481,0.0340378044371932,0.0203054722782918,1.531245200819146,-0.4951160913686279,8.959579017080047
7.99,0.0088821500550591,0.0395156055885954,0.0225414697465249,0.4388330160895639,-0.5118103655152002,8.890124096061022
8.0,0.0098959130124955,0.0283945066012496,0.0221101202455111,-0.7715593547734486,-0.3249697917808228,9.223263135389177
8.01,0.0156691155700883,0.0073208694895179,0.0184843566653081,-1.095401438894709,-0.5412874696714638,9.581433061719345
8.02,0.0136162488593124,-0.0025600989724216,0.0103341376793333,-0.1881339487381489,-0.0446789959886442,9.792837642452518
8.03,0.0097464026684162,0.0004959808508911,0.0036096831003897,0.6194042942236105,0.1939183825670422,9.915257105855996
8.040000000000001,0.0044404727169084,0.004322970533269,-0.0020267075474611,0.6450814580290726,0.1322405341776946,10.230179403181788
8.05,0.0055340838860095,-0.0030653958614388,-0.0086999667424014,-0.3056883263756194,-0.4806998286249921,10.49128799568084
8.06,0.0077270557436197,-0.0155606520084859,-0.0138140173244527,-0.6110895561121009,-0.3090127854816043,10.453135792856871
8.07,-0.001041324921404,-0.0175972458475415,-0.0124607394996336,0.1562999757722352,0.3973354798834851,10.275312780294165
8.08,-0.0070355422209984,-0.0147304562226407,-0.007724248020654,0.4581949979652441,0.2434210817105003,9.8474156292925
8.09,-0.0094477020590009,-0.0051124755346305,-0.0017232668201676,1.0666352735300435,0.106189900914622,9.471896423526946
8.1,-0.0119612460383216,0.0069246590440808,0.0051753086422332,1.0195565579638408,0.1982734804981567,9.31418536700568
8.11,-0.0132874380391641,0.0114233384410915,0.0096270542976209,0.5390229859690803,-0.128382618423784,9.461388948173967
8.120000000000001,-0.0105459972440384,0.0094439769769138,0.0094823039521225,-0.0564758073924967,-0.3080408563849761,9.365996018339391
8.13,-0.0133745187392839,-0.0036016375471522,0.0054135640070536,-0.7115227218840847,0.0959952113335649,9.962096433833947
8.14,-0.0209454139062465,-0.0159606408009677,-0.0016095537307909,-0.7387810599055127,0.3243985066523856,9.998886098227883
8.15,-0.0305291855520502,-0.0284383165395292,-0.0108941776293567,-0.6020085912462884,0.5813205350722087,9.974671804611113
8.16,-0.0376672316086353,-0.037355488362629,-0.0155780139926127,-0.3339808630676406,0.0236231596056104,10.011006654487725
8.17,-0.0322638942079657,-0.0364276234203275,-0.0168258539947918,0.3136400029957793,-0.6757681553200738,9.754503233232144
8.18,-0.0175991692568009,-0.0422247099052961,-0.0113651055458239,0.0864534353871928,-1.2733121533299123,9.943555688985668
8.19,-0.0144926267409462,-0.0382332654485377,-0.0010205725289187,0.8685391126576312,-0.5567282462090363,9.97922262738816
8.2,-0.0121698143914144,-0.0216567363234293,0.0092848956969329,1.756371127196575,-0.6592572567796203,10.131091451529777
8.21,-0.0051748934376878,0.001793630997374,0.0182793148246356,2.3463984406806957,-1.3206757098175832,10.04364108019725
8.22,0.004937890076743,0.0319359220404843,0.0182232454803534,2.5580920145381554,-1.2270958410822472,9.658643452967356
8.23,0.0086997399230902,0.0515845957225867,0.0157169362914511,1.8372425338977325,-0.8190632511298483,9.540331427266484
8.24,0.0120528558730633,0.0572575586432854,0.0059605551336654,0.527233014610912,-0.7528134956933229,9.109780760839053
8.25,0.0146251879807474,0.0468797337120945,-0.003103012366896,-0.4101844046155857,-0.5518447967670256,9.050586269830848
8.26,0.0188516367399658,0.0290506955486595,-0.0086129029828361,-0.7259487824024748,-0.4971935177001009,9.053555458266333
8.27,0.0188835962983999,0.0184112814421835,-0.0095405635970882,-0.2458567608321743,-0.059239784384411,9.24943611218076
8.28,0.0165904036212851,0.0067900255172864,-0.0098279287654212,-0.3446003942069618,0.0992645315684401,9.77467822672018
8.290000000000001,0.0102571373766022,-0.0034408676775997,-0.0032792591105452,-0.153450810281639,0.5100238328233944,10.374045866131697
8.3,0.0015988484012372,-0.0091451018407159,-0.0044213586102477,-0.1210783298871235,0.2491459409574675,10.644428671556204
8.31,0.0076353899798652,-0.0084134285630421,-0.0031766338820806,0.6715120360680641,-0.8562133524260173,10.752228686571655
8.32,0.019577892712205,0.015218269914513,-0.0027671685989252,1.893784648112188,-1.362903256622818,10.254568319182845
8.33,0.0238763834016775,0.0330356928927479,-0.0013784334610453,1.1202804200558625,-0.5676958691790459,9.91701395908965
8.34,0.0131730139071145,0.0416287692701465,-0.0017415475181541,0.4710939435067282,0.323735394385936,9.86033700470709
8.35,0.0075324054221541,0.0410121517026623,0.0051491210155882,-0.1177104386091393,-0.0666738769915261,9.650761493602648
8.36,0.0150224716779816,0.0349041371760722,0.0100623619195767,-0.4443688100231832,-0.8021312590471826,9.408073913539218
8.370000000000001,0.0241210052898216,0.0313677693165378,0.0144858386751958,-0.1257614820864367,-1.1488467599979586,9.554881535117769
8.38,0.0399413357011042,0.0298122716295933,0.0160049254459091,0.225905563706772,-1.2555562930086543,9.599026606252073
8.39,0.0399277758531677,0.0283297364399784,0.0147496907424875,0.1628629114922168,-0.5034354963996375,9.93781595697237
8.4,0.0413487188381009,0.0234469295732062,0.0083251798909851,-0.0804735853573318,-0.625232186183664,9.996722924815032
8.41,0.0410994858914774,0.0149671120727154,0.0040975998540171,-0.1328902302620344,-0.693834468001985,10.00136943383594
8.42,0.0517099106519445,0.0118660800614643,0.000842189210257,0.4252118850627279,-1.2631415626009903,9.690740322591124
8.43,0.057249830868919,0.0174680168122782,-0.0006480695761046,1.0313174393212428,-0.5265826218653117,9.424519349756537
8.44,0.0500996276868773,0.027367614080062,0.0060155236546644,1.375534242227961,0.4350620373539095,9.629202388561886
8.45,0.031504430751625,0.0444508743269138,0.0141992446419545,2.863950898452148,2.7635030986515763,9.57925561473112
8.46,0.0146663128116554,0.0526879047060909,0.0143092245247908,1.3422997162540284,1.535906798596797,10.111920111191717
8.47,0.0085450555020003,0.0582994534268608,0.0103871448349901,0.9618690543599492,0.7158151339681899,9.978775686993902
8.48,0.0119090664763839,0.0567974625581239,0.0040690028958716,0.3369577550175335,-0.0726283375227082,9.826630934324376
8.49,0.0160316968849359,0.0463756572382346,-0.0018423715687594,-0.391923300097565,0.0946651957287292,9.700682396151924
8.5,0.0015042127585434,0.0297236567357444,-0.0158138304564407,-1.3612004416333157,0.8473562869998408,9.954895192594972
8.51,-0.0067760970296826,0.0082042047814146,-0.0232650220009735,-1.1673727345629972,-0.3617263909800972,10.396251547739178
8.52,0.0104795720676994,0.0107975359750368,-0.0233851085963896,0.2632410726739763,-2.081384687450427,9.529524563514302
8.53,0.0320529992868414,0.0216451794291931,-0.0224852591368607,0.939030967463752,-2.3332361301432223,9.294211447659364
8.540000000000001,0.034605800447401,0.0422208194758813,-0.0158074825617722,1.4060045021382757,-0.771561365536207,9.183603342220527
8.55,0.0270123773747071,0.0555366669587257,-0.0044646814081123,0.92496107062298,0.1728160703591787,9.43796510319449
8.56,0.0208716822657995,0.0573500586512024,0.001340177664556,-0.0647736423392638,-0.2067510642970216,9.61673686212504
8.57,0.0314604436033052,0.0468517940052348,0.0067891225603171,-0.95153245119727,-1.0834339491714542,9.748038891380304
8.58,0.040849033888582,0.0222638617301285,0.0103197291877814,-1.7084097839294556,-0.415986401587934,10.21883997724312
8.59,0.0250316014052305,0.0092098567962659,0.0077022959862598,-1.0635368425788156,1.51080625041983,10.228247197800105
8.6,-0.0047829331873429,-0.0055289943837779,0.0030478748644464,-1.3943889992474694,2.395080278864889,10.509628849578013
8.61,-0.0114983595990632,-0.0202856731122774,0.0030320012860694,-1.0383492505478855,0.6721985207957595,10.290657850713869
8.620000000000001,-0.0005441533952792,-0.0309812821794209,0.0012283407536097,-0.770228200493107,-0.6752998775495648,9.893516598821517
8.63,0.008536722936991,-0.0325927460224597,-0.0001950519240698,0.0908797077924245,-0.1894401494225815,9.54783419402784
8.64,-0.0019579311465983,-0.0202587381614229,-4.405775920068161e-05,1.0554282056118476,0.885247004535854,9.189749920945369
8.65,-0.0165335901469078,-0.0056739728854247,-0.0032029237213781,1.122344218455395,0.526092239381652,9.369956972694691
8.66,-0.0124611614782856,0.0045087250025627,-0.0020891035988232,1.0584642124235493,-0.8204727932805781,9.351804410206867
8.67,-0.0026853276111571,0.0098828817365504,-0.0038958235259405,0.754978077727747,-1.2283586405077105,9.591815687534233
8.68,0.0075656060441949,0.01367305840354,-0.0048441855783811,0.7690944231606215,-1.3748103351536458,10.023746642951371
8.69,0.0153153309518128,0.0190225772102895,0.0017802373090172,1.0361491050463534,-1.0214141500524505,10.11873991013768
8.700000000000001,0.0091449823371599,0.0226642779726344,0.0108006129425712,0.960694417521736,-0.0681398706141119,10.17615101211648
8.71,0.0135730571392346,0.02402786518146,0.0204527534928866,0.6510115987718169,-0.579493017410405,9.991932619462888
8.72,0.0150454794545764,0.0214227884841024,0.0230911195662566,0.3843881665857867,-0.3886621185346473,10.077602527256804
8.73,0.0168945497001005,0.0192965858155668,0.0232066035655089,0.0650458833110263,0.1821329146190347,9.539214071840046
8.74,0.0098970004279633,0.0050188841415715,0.0138488326606103,-1.4191848096039528,0.7126388958746005,10.046763681941927
8.75,-0.0019789073345193,-0.0089145079488945,0.0013579714845628,-0.9194193623657833,0.6558190579500514,9.690520740901627
8.76,-0.0014718253866608,-0.016449984237853,-0.0106579243752411,-0.6371792551223205,-0.249584532211998,9.509003182125118
8.77,0.0005844568829168,-0.0164806192940283,-0.014056421032851,0.0922467226102558,-0.0800051052051021,9.395749215395224
8.78,-0.0059193085651153,-0.0095577894266503,-0.0189340572419813,0.5159976571666473,0.2202379915289537,9.548041145519235
8.790000000000001,-0.0072587795031526,0.0011355440888051,-0.018066742605274,0.6463081431432403,-0.2241454512626213,9.74752265271837
8.8,-0.0010858601458559,0.0045373719366965,-0.0107823798048547,0.4978751926596919,-0.8603000116041716,10.215100832316388
8.81,0.0087444400473045,0.0131912902264768,-0.0042332291218689,0.7141102481337377,-1.1651926490112778,10.10687529057897
8.82,0.0119581012741768,0.023556242869533,0.0028106339427405,1.1168843109044362,-0.522454771778111,10.328229591352938
8.83,0.008481595855377,0.0299682405589519,0.0053905803628959,0.4001475425545439,-0.2641907896789072,9.950044813806002
8.84,0.0030527684196321,0.0245538780573963,0.0087803158362158,-0.3032820585825225,-0.0776479377389738,9.88158046507637
8.85,0.0110141435922519,0.0034960773733006,0.0062692312908121,-1.5505972571605733,-0.6903263336186898,9.600470689009567
8.86,0.0130582448969821,-0.0277622320505491,0.0040721726522543,-1.909909999703008,-0.0687334820529999,9.898461291320997
8.870000000000001,0.0079886963310138,-0.0395813771754755,-0.0010790691326609,-0.6045584647909314,0.4817899032882539,9.547200977576026
8.88,0.0009677419634127,-0.0396344215883168,-0.001941422148352,0.4613400906080145,0.5582157825470236,9.591518316895485
8.89,-0.0024736277484139,-0.0231946259129371,-0.0039148821111074,1.510931580781853,0.3521559412888158,9.28524755064324
8.9,0.0007379255333662,-0.0021203321838673,0.0016247996367975,1.9263997599148628,-0.2571913762104035,9.471068474620182
8.91,0.0036249901666596,0.0154559756089024,0.0025125283550233,1.3535501531404175,-0.3300409555478071,9.712071885698206
8.92,-0.004338586673488,0.0161655868884378,0.006242070199246,0.3027145294298257,0.3382031499696725,10.14423764927087
8.93,-0.0090728974455696,0.0115973225443373,0.0135815328371473,-0.1854627644728931,-0.1102411088160389,10.370293257149653
8.94,0.0034892016814802,-0.005505266548111,0.0137722248595901,-0.765161501509871,-1.5706796536869632,10.444017405297904
8.950000000000001,0.0157595613688788,-0.004414403795636,0.0172250250738808,0.7360709722061438,-1.04653499105739,9.897695832653854
8.96,0.0154477669299445,0.0091784001591297,0.0175793532666512,1.2827215036411002,-0.1525611585546707,9.481775014308726
8.97,0.0047855169554587,0.0183861989049874,0.0120093811687775,1.0566428255319962,0.4144545601693304,9.462309606057064
8.98,0.0118630901364308,0.0268666845882492,0.0106466187548586,0.3187392493340371,-0.584227783481929,9.198779229943929
8.99,0.0189213710806382,0.0063507966934633,0.0022487868822873,-2.467502690542962,-0.9369431101448134,10.135279094313654
9.0,0.0105019462433479,-0.0197675423359718,-0.0047158446709862,-1.9211729215694155,0.7394983504637008,10.2418342317103
9.01,-0.0047871623802814,-0.0357783739703595,-0.008883353470569,-0.911440376923974,0.8666042221903281,10.420406755831417
9.02,0.0023545015902457,-0.0339526722004168,-0.0203907165291956,0.4323767726696771,-0.8731810118740057,9.902681747948993
9.03,0.0120560688634598,-0.0136104687449381,-0.0164491768541983,1.718138431333646,-0.9198628364697592,9.485689931237332
9.040000000000001,0.0213236849373343,0.0088558940872024,-0.0167324758681706,1.457203340783739,-0.927873474563688,9.344999680462555
9.05,0.022359726146741,0.0184099458366085,-0.0106141578021696,0.7886990748462758,-0.5467714686760745,9.944009773185106
9.06,0.0132502882787897,0.0189125005780644,0.0027559867280297,0.1609143220606974,0.5134129365402365,10.10026325207908
9.07,0.0062589542137327,0.0123463216674199,0.0099546265241452,-0.2652272962587734,0.3727365127305436,10.304869278118414
9.08,-0.0022311866474097,0.0005746160225153,0.0185156286147185,-0.6166625044921777,0.4390474048302387,10.248818674831538
9.09,0.0018764427741464,-0.005438292669282,0.0219656236854144,0.0094419489371791,-0.2164224463428642,9.77176032488722
9.1,0.0106404854247805,-0.0111033474738293,0.015487810448999,-0.1518340141710386,-0.6457578323642904,9.340090579475508
9.11,0.008191866341788,-0.010850495235838,0.0113865610596486,0.4139811161593838,0.2112518521666627,9.318565717282212
9.120000000000001,0.0007272077644198,-0.0142315810682952,0.0005856154870935,-0.0436404243275009,0.4810196927441827,9.451939026890068
9.13,-0.0089261892531158,-0.0141012429444236,-0.0061018645378998,0.2446384113099474,0.3690869981712695,9.639052331583503
9.14,-0.0086240239930933,-0.0161991291296388,-0.0142001185181788,0.1317264393847409,-0.375243060511654,9.729202977693074
9.15,-0.0039864782485481,-0.0101718364704639,-0.0111309663939527,0.745032524169509,-0.5204138921851142,9.670904721344703
9.16,-0.0005326810585718,-0.0071647431742515,-0.0067276993382028,0.6883624822078094,-0.4059625320909847,9.829902851721736
9.17,0.0044557775790026,0.0046842767010438,0.0051064326812275,1.3792721277514377,-0.7580243923408156,10.096986409191183
9.18,0.0181539995223421,0.0158046864337093,0.0122712755960174,1.1416391745997765,-1.4086413533825148,10.187553621555828
9.19,0.0213108113452541,0.0309367196948702,0.0249896821019002,1.7733598198120857,-0.1307345909664158,10.152899873502438
9.200000000000001,0.0070469410554643,0.0481699753479931,0.0245964646723815,1.3473937054602685,0.3719826884138032,10.045942715506456
9.21,0.0094000084707521,0.0475036724439932,0.0228703104343959,0.0279231865643802,-0.1867810368250104,9.661578930458232
9.22,0.0086969551097836,0.0340960900238455,0.0165756389883109,-0.8326019615043816,-0.0230144444335538,9.367333856585734
9.23,0.0104030716402307,0.0187674805099158,0.0093784964096495,-1.161815861790105,0.1564980128675736,9.07675433603522
9.24,0.0006973363522378,-0.0050416487732457,-4.237369515513317e-05,-1.6466894422131642,0.8924886899487156,9.563831644774092
9.25,-0.012429563638792,-0.0231902304123227,-0.008259397147899,-1.2244995211224137,0.7794752186416698,9.92932308764314
9.26,-0.0147448270183734,-0.0326227423723364,-0.0136795110616139,-0.4576195969191782,0.0025778500015285,10.12238580255002
9.27,-0.0095610751307042,-0.0316424948431927,-0.0193910739931515,0.2705611865498144,-0.6465145475132243,9.947472063359765
9.28,-0.0036709804640584,-0.0152315826586506,-0.0202538512262753,1.3341032829275097,-0.5978051715341623,9.647844533414029
9.290000000000001,0.0034043383940751,0.0007282621816267,-0.0187387495848587,1.3077076224681028,-1.2835779397431002,10.098861951336554
9.3,0.015021611358799,0.0186756624971231,-0.0114102812099507,1.506176496206414,-1.0351131136657616,10.277246198517505
9.31,0.0072315560333329,0.0261211467144301,-0.003685274309223,0.6507748626370395,0.1206188958434907,10.416241677682844
9.32,-0.0034438933870704,0.0264835705057567,0.006668560990388,0.0587982844890842,0.3527917986760834,10.21083071984092
9.33,-0.0023982487822666,0.0136398563908035,0.0125525964808412,-0.717617033877288,-0.2320403331015096,9.776176304136683
9.34,-0.0031794604507028,0.00403802753821,0.0204877749469825,-0.4190851299679067,0.2383228943491074,9.266266311055457
9.35,-0.0027581532395451,-0.0046653835991163,0.017747103088791,-0.464808154715507,0.2224006365593125,9.16777334451158
9.36,-0.0042330504815766,-0.0115163074320011,0.0091136864770897,-0.3449337762716293,0.1304850870191403,9.305443749825722
9.370000000000001,-0.0058922667059842,-0.0116548693509193,0.0025284565321863,0.1005712877037757,0.2341407112342823,9.48485344059372
9.38,-0.0074557788909093,-0.0130849612226822,-0.0046773940871707,0.180398796596547,0.0818073312906259,9.794055107202364
9.39,-0.0122066234267541,-0.0099341754490888,-0.0074266420292905,0.5258625123580518,0.0899553298482646,10.002921564463591
9.4,-0.0083455008036869,-0.0068975963306119,-0.0043177880893698,0.4870226448597449,-0.7709063553930696,10.007353632323763
9.41,0.0010452563217613,-0.0119636598121936,0.0012570639059641,0.0224849352467882,-0.97657712915161,9.903499365481789
9.42,0.0094490404477883,-0.0131028815766905,0.0090721122373589,0.3647942123928091,-1.1549243567081582,9.865700511195229
9.43,0.0113300560525764,-0.0047240523661096,0.0210091926541873,1.1693663908624314,-0.2541993787578667,10.17530757158093
9.44,0.0027338550881594,0.0137027603601208,0.0250376116868802,2.0449597226721328,0.3436277066715008,10.203401997511424
9.450000000000001,-0.003222794132328,0.0389369092238157,0.0248773962643691,1.9120983194636147,0.3653551933457813,9.773259180474684
9.46,-0.0071978230844068,0.0422140440018686,0.0207274992403336,0.1930772911529565,0.0372205141260276,9.964608221507554
9.47,-0.0022343265054772,0.0299319315210728,0.0128948863980122,-0.7735940200111274,-0.08491677625418,9.47784607399864
9.48,-0.0049787376052114,0.0162810766395732,0.004052595553244,-1.0695682044267176,0.3094093091659994,9.28359121141252
9.49,-0.0108719029211917,-0.0107168907892555,-0.0034057639154842,-1.724320540986042,0.5572541016924597,9.565564246955446
9.5,-0.0120573110606833,-0.0186845876660592,-0.0155311908188513,-0.5118241365688159,-0.1380176678946223,9.40658287260266
9.51,-0.0165702603697056,-0.0188872107303289,-0.0193096223834208,0.2951060912716675,-0.1045668334629726,9.762910654375029
9.52,-0.0090250665635287,-0.0066594659364899,-0.0218069713178328,1.29743084166491,-0.8851743162676103,9.69841455494916
9.53,-0.0060894556266088,0.0160684751001394,-0.0195780984672955,2.0919549375373787,-0.3732570065959348,9.933760538302971
9.540000000000001,-0.0143715678492718,0.0400340856658631,-0.0152320630464008,2.145681324365989,0.1473660266165002,10.29067395658786
9.55,-0.0178914961377884,0.0537993108256356,-0.0068604211869887,1.3193822384634322,-0.2341858511245096,10.58967989328267
9.56,-0.0143379686310353,0.0460405799195097,0.004620078570465,-0.3327680369493695,-0.2928774064918011,10.53159363977938
9.57,-0.0163251511469035,0.0309416973951411,0.009347167649562,-0.7985689693905683,-0.0394729527071995,10.152201463032323
9.58,-0.0143475598624265,0.0142802691397667,0.0139470070984908,-1.039725361948559,-0.3304172740122581,9.426387744039628
9.59,-0.0064939718456114,-0.0007839700111348,0.0126870291691967,-0.7845798533888537,-0.6670416832172699,8.992542282838496
9.6,-0.0025765140628838,4.2237544610312377e-07,0.0069232590880938,0.184768582902743,-0.2538499443985023,8.671008713222902
9.61,-0.0112177202842289,0.0091359663299134,0.0010377973935329,0.5061605399140031,0.5641416549023679,9.148385941539814
9.620000000000001,-0.0200432845350799,0.0092961844100298,-0.006520107536321,-0.0584650934464405,0.3451207853801776,9.971735749498633
9.63,-0.0105316877443028,0.0035798979045402,-0.0131291711318544,-0.3499789914845223,-0.8194796877926956,10.289148544808
9.64,-0.0007806287349682,-0.0056370504767415,-0.0083932673174194,-0.5782210515584436,-0.6901849046834262,10.15402311784514
9.65,-0.0058949764413829,-0.0139164204551532,-0.0044903542462042,-0.4912778849462215,0.1700716583022894,10.127954745745006
9.66,-0.011537703305164,-0.0160801222182154,0.0031113172567212,0.3155394031331952,0.3495318801021635,10.147016640002564
9.67,-0.0194706796212941,-0.0025821400237016,0.0066173750360258,1.1480220072790677,0.267445717494189,9.88348759887261
9.68,-0.0150031631976374,0.0117255685528212,0.0129179263871857,1.4374436999339435,-0.5435597533127753,9.700485805212525
9.69,-0.0036853999741707,0.0259477632239128,0.0171363687527128,1.2175766728144397,-1.1719508234172322,9.46713941407594
9.700000000000001,0.0027464433308887,0.0305412085157278,0.0177425656852074,0.5886523545540885,-0.5792326180129539,9.46151115267376
9.71,-0.0013374880163485,0.0320778240474157,0.0116845777642675,0.1037265765850238,-0.142291052029974,9.280939833399406
9.72,-0.0048461449706568,0.0189107761769195,0.0094482114922949,-0.739871883131207,-0.0929758072972906,9.627469649048107
9.73,-0.0028133803831937,0.0067652464819245,0.0029375467833825,-0.6589516102544074,-0.5872256198403919,9.57791930181384
9.74,0.0016901030584897,-0.0017544821537602,0.0019559442275432,-0.1922297735536202,-0.2845891957188545,9.716718944510951
9.75,0.0073243022209745,-0.0119449803771087,0.0002534706995585,-2.34289080278436,-1.6469499781964951,10.763696965089387
9.76,0.0046200788913399,-0.0046833124689728,-0.0012768045149049,0.8813916558919864,-0.1280211929221438,10.144653392418205
9.77,0.0089648633002219,-0.0031868111978525,-0.0038506446021846,0.1816058849476016,-0.561294989470489,10.19594353645718
9.78,0.0084959082224413,-0.0011931118713673,-0.0080437652382305,0.1490346714980827,-0.3992136732039356,10.034064270655476
9.790000000000001,0.0046821947099617,-0.0037540871843775,-0.0092400956514528,-0.1139494580181715,-0.0151173626781852,9.949459921501584
9.8,-0.0005748430861082,-0.0001428225306019,-0.0080084159585884,0.526868343342144,0.4612176714194937,9.82476927218186
9.81,-0.0095162157785636,0.0110482275477958,-0.0066670348483375,0.8480209994021825,0.2570969970479724,9.629603604679312
9.82,-0.0069448870447075,0.0160653771139373,-0.000177185664629,0.4176270911045504,-0.267196276301466,9.441980033557671
9.83,-0.0009176822165649,0.0150510319496497,0.0023683328449488,0.0763032013466026,-0.3329268749130221,9.404897073743172
9.84,-0.0066787810430243,0.0112769148161232,0.0043662885122695,-0.2389771987652433,0.5657678385319903,9.758547085219046
9.85,-0.0083086617030628,0.0053219887798313,0.0004886440851488,-0.2267639394887267,0.202952790467276,9.901966938918314
9.86,-0.0175655864511131,-0.0019558157820964,-0.0039846554014137,-0.3777328896633968,0.2891911793728914,10.101878054094511
