time,ax,ay,az,wx,wy,wz
1681945425.8710597,0.1487327379762505,0.17225139832384911,9.859121995142978,-0.0008453200125235591,-0.0016359318339191171,0.0004498009103234
1681945425.8810174,0.1465574843553267,-0.047712854914696325,9.823189099034854,0.0005050975166971055,-0.0027106743269520285,-0.0012712855358724
1681945425.891055,0.376495375947065,0.1639464547356273,9.782620631790738,-0.00045044592107249215,-0.00040173989830941304,0.0004777439636062
1681945425.9010203,0.19988663274137308,0.06581774852466611,9.804117541399323,-0.0002477916968685853,-0.000512763838067723,-0.0007903566119377
1681945425.910992,0.21210663813179173,0.04646791483643728,9.770209417198151,0.0010679928691874803,-0.0009672462285904283,-0.0004979047925327
1681945425.9210334,0.28237766409888965,0.09359943584447764,9.77004355130971,0.0007450064305247022,-0.00020467352589276057,-6.24235953320311e-05
1681945425.930997,0.2622781340812853,0.043302278720409974,9.7935829932307,0.0018271997406723488,-0.0006762870508777989,0.0004844487876515
1681945425.9410658,0.3509446985527483,0.18433856981678384,9.839934459891909,-0.00080992605708787,0.0005132086058733885,-0.0002706385684315
1681945425.951089,0.34169895859271265,0.21533012998794376,9.856443822029746,-0.0013635255788914135,9.895508848760695e-05,0.0035428838337655
1681945425.961063,0.2751980548585981,-0.28351094376120467,9.714144620590377,0.0031012178637191707,0.0014143378366462496,-0.0024250400719348
1681945425.9710577,0.348745536086249,0.3102197564040359,9.817373414943484,0.0008370212772233311,0.0015275843787612962,0.0023753982269089
1681945425.981264,0.16819327339672102,0.31483271564071996,9.909819328886408,-0.0036336974929967922,-0.0006740633408814528,0.0024387389304
1681945425.991023,0.2546004391367327,-0.12637961836977443,9.713976068662182,-0.00019190006348017508,3.671697851677011e-05,-0.0001220404637162
1681945426.001042,0.3570794222735866,0.20393650505963318,9.802599714799852,-0.0015855517674936458,0.0016810617731884317,0.0011318903881009
1681945426.0110998,0.18501863804826238,-0.08055308123176026,9.79089232925132,0.0006276508609229288,0.0012284513941136434,-0.0012768650894169
1681945426.0211124,0.2006407803908856,0.20330405357564993,9.900237778167032,-0.00021463138257519132,-0.0008606963178949765,0.0015345997117809
1681945426.0310357,0.24651142466709486,0.16551938963684143,9.79994452779896,-0.0029363279542507737,0.00017158033872751477,0.0010696755371871
1681945426.0410116,0.18997913339763034,0.002034251124563517,9.801613195641508,-0.0014242349962537545,-0.0011382362742679568,0.0014839331734809
1681945426.0510154,0.2713001219031627,-0.1698750681132687,9.711292544444534,0.002119997456793653,0.0002349041334410403,-0.0009017507081036
1681945426.0610209,0.2473554935910444,0.1538911097453581,9.847060619723942,0.0009774783461801492,-0.00018492945250238847,-0.0007031620015506
1681945426.071046,0.1946625356236338,0.1636699747829371,9.863336702638708,-0.0006467631732326363,-0.0013513105717011128,-0.0009829431773279
1681945426.0811045,0.4068019685606324,0.11533407988604172,9.734572571264428,-0.0001885623247968689,0.0013547309814015093,0.0013483330140705
1681945426.0910287,0.09904097486984836,0.10837635991486728,9.890720160649584,-8.946147840851018e-05,-0.002014047519252657,0.001733537902587
1681945426.1010833,0.41015930177572385,0.1366643224444913,9.737285991220734,-0.00019377796301048,0.0007840195206333355,0.0022442901855218
1681945426.1113188,0.18615674126778492,-0.09836991046414927,9.787902687242857,0.0023137449349741727,0.00013992674159323651,-0.0009013269563321
1681945426.1267729,0.27669946067489315,0.2380351010127211,9.852783830324698,-0.001109075097428288,-0.00019685149453215167,0.0015230757590732
1681945426.1311352,0.2485821773292925,0.09125838857439202,9.80367390066443,-0.0016924463629623028,0.00014923585580913087,0.0002177270826767
1681945426.141046,0.2861157718891489,-0.112372635500352,9.702242315001621,0.001282158913827458,0.001036982755624358,-0.0019206061960313
1681945426.1511626,0.2515487766885473,0.25742251793478904,9.854154259645346,-0.00095186712006745,-0.0009258919021774343,0.0013140685506049
1681945426.1610825,0.24133336635962346,-0.11194974908970175,9.809901731253682,0.0012732224199253535,-0.00195070755987475,-0.0020238088444922
1681945426.1710246,0.39882827174900554,0.31480389843163903,9.85465242122606,-0.002779495944763645,-0.0011315349301138536,-0.0007370761131052
1681945426.1810565,0.4111406570094663,-0.09852882254064271,9.757546977703708,0.000860108831031615,1.0656475035485527e-05,0.0002147357909824
1681945426.1910117,0.356649720734393,0.059125245678240394,9.794806841609638,0.002022798274541253,0.0007884643187387313,0.0019894619063823
1681945426.2014663,0.270654209252188,0.18828381737325356,9.828711844950295,0.00022531453359066452,0.0008220209220838408,0.0019257556733326
1681945426.211048,0.07989511336152565,0.14165487635234073,9.842003680257772,8.227033085345979e-05,-0.0018389553654352643,0.0018955887090531
1681945426.2212622,0.2609421163175586,0.048854694582290685,9.760680711693814,-9.207441009323704e-05,-0.0002191904094873866,-0.0007836364210699
1681945426.232388,0.20941277658721613,0.1592470680606733,9.840800561554442,-0.000799136915727362,-0.0007269593651410225,0.0002463991287048
1681945426.2414212,0.2634002470832916,-0.18144786248715888,9.697576013864749,0.0021956467925516227,0.0017771372648489757,-0.0047838724685017
1681945426.251079,0.11070153552653567,0.26402715438507934,9.923535627500252,-0.0004105688993045015,-0.0005995409493936516,-0.0026097744238678
1681945426.2611115,0.14336975081734255,0.031716685716923064,9.806034133289945,0.0003817779991175652,-0.001675763688942598,-0.0016773452052031
1681945426.2711313,0.31253711618388885,0.1483113661152391,9.75423435066157,0.0004160652089135461,-0.0005302725706810752,0.0017525433869057
1681945426.2811308,0.17160885246502472,0.12835129250607427,9.820837181795826,-0.0014722914262106559,-0.0006517058636055959,0.0007157935061376
1681945426.2911713,0.258025437515064,-0.05329836077116309,9.765576089145425,0.001327641010335556,-0.0003771560638526936,0.0012246745637502
1681945426.3012722,0.2729819729247152,0.19546784207038242,9.860062327292495,-0.0004970213525237292,-0.0003398925195355848,0.0030042230383377
1681945426.3111255,0.23629632171250872,-0.1191829592734762,9.75737943747499,0.0024489478651775008,0.00021331881170591054,0.0001029853475164
1681945426.3210323,0.2568791210971961,0.23138911806142098,9.840214413786649,-0.0009481461606458182,0.0006294163416484416,-0.0014333338012103
1681945426.3311305,0.26802659634486287,0.19310665045671793,9.844440251561316,-0.0013791501408959282,-0.0010212594781220331,0.0014675506273168
1681945426.3410726,0.3417336768447912,-0.023815743235038402,9.734258973999328,-0.0013177064373223767,0.0013551258926862183,-0.0033499816899303
1681945426.351094,0.3611268804231602,0.16155350095805443,9.814394464532446,-0.001068115745228825,0.0012604811311825981,-0.0004923173227463
1681945426.3611162,0.22680253447798604,0.01378963882688878,9.843132477263577,-0.0006374590810645712,-5.901310502932597e-05,-0.0019761113916639
1681945426.3711405,0.4550563387117258,0.16673815802851108,9.77478741382328,-0.0014678370752314095,0.002273009549829422,0.0003633617189596
1681945426.381114,0.3078716220597255,0.0019418422053620412,9.772225951009172,0.0009550916869403467,0.0020059210467910146,0.0016821031595871
1681945426.3910775,0.17172470938642384,-0.03628530861860611,9.815509157068604,0.0016584326869398846,0.0007255122322451055,-0.0012403889094595
1681945426.401052,0.27965801062493023,0.1396073025080079,9.806292108996182,0.00024765206236141395,0.0013085012863314918,-0.0016401209403876
1681945426.4110923,0.306406883495746,0.2254959521943283,9.813410639081054,-0.0021309055909839256,0.0025002742472501763,-0.0006211981644038
1681945426.4210663,0.09115984773855926,-0.061726460965985386,9.824355151400905,0.0009115089445114697,-0.00023558251616179773,-0.0008775300347362
1681945426.431043,0.20083401655156766,0.1671420768891422,9.849176180008758,-0.00029994412171575815,-0.001196348925462872,-6.178114667956683e-06
1681945426.441212,0.3121867574356386,0.10409449358882965,9.778312590472702,-0.001215240278171065,0.0008391494766943558,-0.0013964534272555
1681945426.4510286,0.3165523643037474,0.109422872977504,9.756798104999273,-0.0004850938456520081,0.002007029689944688,0.0007426084949518
1681945426.4610393,0.08236390136007814,0.15539454548880274,9.899019627953757,-0.0010952889641495885,-0.0015506252993557753,0.0021455553824897
1681945426.4711096,0.18859135590442624,0.04005267815132025,9.815486286825857,-0.0007995009365602935,-0.0018493895076605361,0.0008428178726579
1681945426.481124,0.4180536549007113,-0.07559409909949695,9.637262806776532,0.0013533448819169152,0.0031950021705747142,-0.0011025599205051
1681945426.4911325,0.05439477744929683,0.3353630236032216,9.984319735546544,-0.0036117247798351875,-0.0010324387122176472,-4.5660371065561626e-05
1681945426.501059,0.25975226315371464,-0.14814533669494304,9.721926806820672,0.0005293047990742925,-0.0006036554832108129,-0.0009024834261391
1681945426.511353,0.19038712927244153,0.18980405715648777,9.87466374702548,-0.00023437238058442153,-0.003278785562648601,0.0022029177226475
1681945426.5212083,0.32319192580734657,0.010460017734545114,9.742377313454956,-0.0008322905850502577,-0.0008431747734217702,-0.0014832510613952
1681945426.5311687,0.29900296515269004,-0.02944018346861078,9.753070630155811,0.002404643669036222,-0.0008331331622449365,-0.0003343531397287
1681945426.5411165,0.2643363742709194,0.28368580151056966,9.905067540738493,-0.0017911703385848014,-0.0016717015253616143,-0.0005735409912769
1681945426.551199,0.3722574298828636,-0.004472384307971173,9.739837051411534,0.0002923930776077283,6.280763574554521e-05,-0.0009870368057046
1681945426.5611105,0.4082993818950289,0.20352142087100977,9.784604464868872,3.980880043513435e-05,0.0009147745703242472,0.0027140296179685
1681945426.5711114,0.16129511222833898,0.13669332586850189,9.890502068798325,-0.0027489628276348766,-0.0006699705079955604,-0.0003570783418719
1681945426.581227,0.3435281247632846,-0.01771879355463991,9.725921568221082,-0.000948892978302876,0.0012925170814726285,-0.0014992723708156
1681945426.59137,0.2574683993963757,0.09302651967343191,9.806569939204008,0.00035868779472550606,0.0005329352563804475,0.0008022165739792
1681945426.602164,0.29960758666873333,0.095756968710395,9.786601245367061,-0.0013452632379523863,0.0024432323586661047,-0.0016281955876503
1681945426.6111865,0.16565394120626142,0.13963743177206195,9.87459265629725,-0.0014518047089997152,0.00034368733472795235,4.785011977660194e-05
1681945426.62113,0.16314259772209083,0.05298563538269081,9.820713219749173,-0.001240208333621128,-0.0009214128893175198,3.55539842392756e-05
1681945426.6311438,0.24604015033209914,0.03420573327312143,9.76628981809495,-0.0005089376990974219,-0.0002899830907981047,-0.0001279991819639
1681945426.6411362,0.266539832363345,0.08824576302905437,9.792343177315827,0.0004652389871074049,-7.130969050268974e-05,0.0017640815304592
1681945426.6511946,0.15418168331320123,-0.007494713507855528,9.825148154045234,0.0011864546937236813,-0.0010253493252343447,-0.0010403086898033
1681945426.6611557,0.36864015466296807,0.10268999526716592,9.728282566004015,0.001409576535667626,0.0015179185369328522,0.0003428921800922
1681945426.6711433,0.16076400844398142,0.19348536927418103,9.889245897401842,-0.0001520479884880849,-0.0006528251860000889,0.0012380727449316
1681945426.681216,0.26735468279788605,0.0636107123516999,9.783549353948741,-0.0008207520007622039,0.0004319623240424888,-0.0010071717669372
1681945426.691204,0.17859505063432105,0.04301063666097726,9.824289300447159,0.0007967923976144211,-0.001567745408946246,0.0001268246442894
1681945426.7016582,0.351816077201693,0.043654262405882605,9.744603034292316,0.0022190884913716184,-9.437645781593294e-05,0.0010078144724364
1681945426.7112017,0.20019135775356478,0.17599802957426272,9.87826214662833,-0.0007059887840768579,-0.0010607396571873662,-0.0007583079395
1681945426.7211878,0.46344190599932095,0.04751446234385427,9.695592756040588,0.0004339298491649775,0.0024928141745293956,-0.0004587962293182
1681945426.7311373,0.11403389556352733,0.02692448678746979,9.879611282364124,0.0015887672325533514,-0.0011303795579983675,-0.000850335648388
1681945426.7411275,0.3078749418275587,0.14035054563254631,9.81050368143512,0.00081764732926985,-0.0009754376421179268,-4.491810697359309e-05
1681945426.7512934,0.46992513367897454,0.09989721406820117,9.704238236169532,0.0005732556785898183,0.0030735886987590393,-4.564605198097691e-05
1681945426.761227,0.07773938215693638,0.12246140863926384,9.922155245972933,0.00010015117658143537,-0.0010622325235855,0.0006919402395259
1681945426.771125,0.2958075768043457,0.006913761412079026,9.753527524730083,0.0006671725074971061,0.0004230241786835457,-0.0015462007840279
1681945426.7812316,0.1075621112323599,0.06786766576741685,9.877646414752377,0.0007908437653030149,-0.0025170030602462176,-0.0023992834148113
1681945426.791157,0.4059121223518794,0.3008829573437765,9.791981164723634,-0.0019256579185214328,-0.00022330054497478427,0.0006960493511404
1681945426.8011818,0.2008084737150584,0.024786634700065594,9.810365101804782,-0.0011053507933990998,-0.0008808209534614846,-2.5551137619142383e-05
1681945426.8112247,0.34536165598674834,0.12387551907015443,9.772038587342973,-0.0028353731545615653,0.0017015300910185275,-0.001434115413681
1681945426.8212178,0.19432013175438262,-0.13725930377330198,9.752914665744823,0.002123727071040537,0.0004480098405234569,-0.0003459192347828
1681945426.831209,0.17757666205919706,0.19294744459692098,9.884395134806516,-0.0003070123788553529,-0.0009609154867990981,-0.0005865769461844
1681945426.8411412,0.3417580063787861,0.014226441702901467,9.726543518063618,0.0025502681120109444,0.00028820020953544706,0.0019335817369982
1681945426.8511724,0.14192573720572552,0.17429617158734972,9.905064897255512,-0.001949131268460137,-0.0006382915436707871,-0.0024495888036791
1681945426.861127,0.3430920760232192,-0.0008349568154254638,9.735395669272243,1.8199808724531234e-05,0.0009948561472066294,-0.0020442914218757
1681945426.8712769,0.26691451442182723,0.11735107215836692,9.823744999640589,0.0009573442920603313,-8.806427475832863e-05,0.000359286949865
1681945426.8812237,0.25630211285741095,0.04620270025556656,9.807015682926746,0.0020060151798242543,-0.0005414432911788997,0.0005384625865961
1681945426.891324,0.3166634986589692,0.022035147479862554,9.75388627169948,0.002442970566971201,0.001117086562278795,-0.0010533441790495
1681945426.901178,0.14949803043425097,0.17469422678697674,9.892931044997173,-0.0006258670292351589,-0.0006498223459416487,-0.003103365609527
1681945426.915082,0.2982697113405372,0.11310382933696884,9.804782530194563,3.943614667422406e-05,-0.0010562813006157628,-0.0002866885160211
1681945426.921167,0.5086258559014359,0.2677082540272146,9.741548213028574,-0.0020396615102682486,0.0017902129708966374,0.0002776918000425
1681945426.9312055,0.11856140400516829,0.007903431352823164,9.862035659335701,0.00012809161878882497,-0.0018769600661168962,0.0013256029806915
1681945426.9411418,0.2310499602174161,0.07751121709055542,9.821174800132109,-0.0017300729958929296,-0.0014820681672467616,-0.0021165550687466
1681945426.951162,0.34032524132290726,0.038845783276336414,9.744571370292464,0.00048161965460178827,-0.0005917214094457836,0.0002989278173889
1681945426.9612317,0.3059979243624407,0.11311095277291265,9.78169528448343,0.00017280875210625273,0.00026173060260636233,0.0011680396156269
1681945426.9712136,0.13893261685156352,0.02953762277330983,9.840675470654691,-0.001381382575000417,-0.0003044997189883738,-0.0041833403055672
1681945426.9811585,0.3609229332632377,0.11011110884071532,9.73523384792571,0.0006988074940973256,0.0007974308387877414,0.0004788681863691
1681945426.991178,0.16792286223115246,0.24221448406351023,9.90003027816539,-0.0032377043063271127,-0.0003920770230115816,-0.0005362911150906
1681945427.00115,0.21491196756111255,0.04147456391100175,9.812692440512432,-0.00157436683805912,-0.0013706957768112983,0.0006181841482292
1681945427.011115,0.2173930528131831,0.05265341562092573,9.802794437786556,-0.0007261010691552934,-0.002049443691980802,0.000585776800185
1681945427.0211408,0.3031282441614576,0.017917106158148136,9.745548519070333,0.00043542336136271335,-0.0005418263907579202,-5.077174969439361e-06
1681945427.031266,0.29293955669675503,0.06923827523151262,9.778665171141022,-3.7817836460820518e-06,0.000794835241033696,-0.0013282687404308
1681945427.0411234,0.15726613794110714,0.035638073730941335,9.847848731405431,0.0007695734653518438,-0.0011795846675728603,-0.00174179761681
1681945427.0512404,0.40894719275123353,0.16031309438096147,9.753282319384178,-0.0012081979414819578,0.002064766045459144,-0.0023061660585109
1681945427.0611284,0.0723452216175535,0.0931412835934377,9.904583946483251,-0.0009075260827101715,-0.002246872157357861,-0.0015406205319915
1681945427.0711925,0.3118279565300576,-0.011048878578389132,9.766305489076013,0.0007226323983181528,-0.0013684270333225615,-0.002134432038397
1681945427.081213,0.4282880812407466,0.17386271870382441,9.750640373156672,0.0003225610260347212,0.000997092361866157,8.173221711772218e-05
1681945427.091214,0.20459425356132488,0.213474695153729,9.888154781510995,-0.002114148945918631,-0.0005261624898058169,0.0006096257594298
1681945427.1011145,0.203007566285406,-0.10313619142010594,9.769372857631621,0.000969269928172905,-0.0012477547964390046,-0.0009598477744613
1681945427.1111372,0.31041848187403126,0.15825558977178403,9.803862517314373,-0.0009052957420453129,-4.150180814143385e-05,-0.0018263484352384
1681945427.1211395,0.23772628624375478,0.05082324954933777,9.801772829634523,0.0011164181495610839,-0.001142335209779215,0.0003648658049176
1681945427.1311364,0.3277876819148494,0.033363678239276176,9.759051211686714,0.0008325296398031205,0.0011271156597562233,-0.0026027103421394
1681945427.1411505,0.3437849327371172,0.10866825416998936,9.775068953227398,0.0019098951598337489,0.0020331060924331608,3.962630861210361e-05
1681945427.151178,0.1210289382195321,0.14044580174532853,9.884728484602633,0.0007219148082034824,-0.0005764633797223629,0.0002363420090522
1681945427.1611702,0.35186721749815053,0.17024428092921015,9.769767462778168,-0.0012875425078148993,0.0019202264339755037,-0.0001335953828994
1681945427.171159,0.10703625574983407,0.017754045780092598,9.860243238599216,-0.000933602353160467,-0.0002855116574346806,-0.0019943716005538
1681945427.1811948,0.30769533495601903,-0.013172809938372367,9.737333521474742,0.0006105264768026835,0.001243346456269705,-0.002901839977235
1681945427.191212,0.3478272341497542,0.21854963469345332,9.791142371134992,-0.0006814339420645797,0.002405638956165816,-0.0002390031703863
1681945427.2011182,0.14957145720576745,0.0925736764985846,9.871553580728257,-0.000489548912813371,-8.844017758792935e-05,0.0001078257801826
1681945427.2111533,0.2921945816239671,0.03805940489431653,9.769417435602456,0.00042014774734163985,0.0007534742349541268,-6.838988057566151e-05
1681945427.2211478,0.2956037548483749,0.04310720561040634,9.765033970197138,0.0010254882959110166,0.0017310017944865699,-0.0007497483865473
1681945427.2310896,0.177550554154066,0.19651146618155596,9.882881294220935,-0.0006996606236745783,-0.0005116491962826913,0.000304514821514
1681945427.2411318,0.20682850575995806,-0.011815746397459907,9.799587719147102,0.0005728898277964432,-0.0010663139544675546,-0.0014381685295258
1681945427.2511938,0.34082361135880707,0.20896581070824033,9.81876037455056,-0.0007339455854654214,-0.000639784139536667,0.001004499953601
1681945427.2611897,0.33813537074042593,0.062088004543522285,9.768246152938742,-0.0008419646679779659,0.0011744289223838856,5.306168448882833e-05
1681945427.271181,0.24896374894140588,0.06420523896418653,9.796316832163743,0.0003087647644157157,0.0004699802789980821,0.0015871355309035
1681945427.2812111,0.24092109383106422,-0.03125685878825968,9.785060318255107,0.00013851903649454315,0.0015521610592895663,-0.0034070005175773
1681945427.2912126,0.25865966410587377,0.11395913470345442,9.808287375984625,0.0017154245242777932,0.0002800030540382947,0.0008278965134057
1681945427.3011749,0.2810893586048258,0.2575193726080376,9.854992410188759,-0.00219238065950535,0.001110341032574268,3.776447837012544e-05
1681945427.3111374,0.2543901665763513,0.08598437916481812,9.815094727611578,-0.0021305858049775633,0.0010112580206694147,0.0001026185228373
1681945427.3211513,0.11100920714632635,-0.07295448070797092,9.829744374006054,0.0003367002504970348,-0.0013725192410831842,-0.0017470002175424
1681945427.3311148,0.4427233844861233,0.24169144790133856,9.748877734169996,-0.0009343614709942196,0.0016128927841941158,0.0020140346196829
1681945427.3411784,0.11619264062126404,0.0034935137318222675,9.842204794153567,-0.00045491670972100097,-0.0003454945459240542,-0.0004465074279461
1681945427.3511524,0.2758459214080787,-0.001143799322869335,9.763736401067824,0.0012993281196277883,0.0003194823436416613,-0.0006860263646696
1681945427.3611622,0.2980305986020224,0.22720413008276877,9.824327984225025,-0.002261680435964029,0.0015730479807838178,-0.0015648193192784
1681945427.3711483,0.09974295562668523,-0.0623609085945103,9.837864569452165,0.00048646283765398535,-0.0014965862028133484,-0.0021664713976089
1681945427.3811555,0.3912762172829791,0.18968142898704946,9.770373103132393,-0.0014488380120062374,0.0009915230089164299,-0.0017082499806885
1681945427.391276,0.23889660006807972,0.0626955446664907,9.811622457488552,0.0002592220889695716,-0.0002169678072887744,0.0001018557696487
1681945427.401145,0.25287586403649864,0.18634597873549638,9.849008923779348,4.687484775037224e-05,-0.0017562716225516658,0.0032624045153032
1681945427.411143,0.2175634856079094,-0.1697312190284216,9.733489458133926,0.0024094770284639987,-0.0007559793605394115,-0.0022148750257794
1681945427.4212255,0.3519095194975942,0.19752951694561338,9.793022319538267,0.001839481936399172,-0.00020502336002883035,0.0010894302859786
1681945427.4311514,0.2961976086061218,0.07068906195391277,9.7758427966891,0.0011223753191307408,0.0012399871369960568,-0.0005538069644127
1681945427.4411924,0.1514043905612361,0.20370692786922165,9.910705803738892,-0.001420502299266421,-0.0012313729456069383,-0.000641711009771
1681945427.4511864,0.3658069704872004,0.03395546665814943,9.731427613707782,-0.0003439368013001389,0.0009199891912693536,-0.0005590072368387
1681945427.4611905,0.20195874469270284,-0.06073757695514081,9.786415874343618,0.0020239435806710063,0.0003451603641948433,-0.0019168694970313
1681945427.4712143,0.3547723653996137,0.17782610074370717,9.790181843752219,-0.00014199399429972478,0.0023237058871321673,-0.0022368495819274
1681945427.4812386,0.3006240329591444,0.12122621889550989,9.784028488480804,-0.0008598625651255008,0.0033906029092998107,-0.0021634909325395
1681945427.4912608,0.15025058469509195,0.16180660012102058,9.88519087800008,-0.0005435755100992674,1.8469340601820032e-05,0.0012436601565103
1681945427.5012462,0.23063083818086264,0.02724791235798223,9.788684788656951,-0.001189526690071277,0.0009460479141956471,-0.0022342814599279
1681945427.511171,0.3048534913061959,0.1254167572469288,9.78901425950808,-0.0014354256592612532,0.001699695375142606,-0.0013249204029445
1681945427.5211997,0.1874088756385687,0.07948354628511346,9.835837144137539,-0.0003334741098650111,-0.0003011604751456546,0.0003860943716834
1681945427.5311556,0.30913661211806487,0.13053746799681692,9.786910321501145,-0.0007048785063980625,0.000421541597574474,0.0013006515101413
1681945427.541202,0.37716749964663854,-0.022829994209127236,9.715061633919719,0.0013671110207470936,0.0029215929075510376,0.0002832679775427
1681945427.5512428,0.07930218015231547,0.18282068658218772,9.935355445167884,-0.0009291423100191647,-0.0008439380164457219,-0.0002330457327072
1681945427.5612152,0.2418252882919093,0.06841282726860193,9.813995087869213,0.0004264943150047845,-0.00203676246285961,0.0014977265119203
1681945427.5711524,0.4030760622871993,0.12511276377720815,9.732476711179885,-0.0011981213338329532,0.0014296138551953906,0.0007336886365781
1681945427.581255,0.13230412701872427,-0.12060904897277833,9.795957089900867,0.003266282101584856,-0.0011743398185113877,0.000537370843708
1681945427.591228,0.31277460039253524,0.18759549410915236,9.816444227130399,0.0014773950356222869,-0.00043340277694573864,0.0011643119388143
1681945427.6107852,0.23668320005795476,0.12231550505388228,9.831683526300253,-0.000916492071736366,-0.001204531299023648,-6.355259112310872e-05
1681945427.6120594,1.4962905501652801,0.23141029743903963,9.170495378260213,-0.002404708169916791,0.0028400167362824433,-0.0020945558325503
1681945427.6212523,0.17561042099859198,0.15288872685791946,9.859981943104795,-0.0017081020441066202,9.558278640289592e-05,0.001355431933084
1681945427.6311934,0.21356776866839616,0.007644059191513518,9.815182745573566,-0.001102733922253793,-0.000551875950516824,-0.0004975427408818
1681945427.6411572,0.30971706489541684,0.008884071628753492,9.746795566116761,0.0016193268946529055,3.226074963771583e-05,0.0013997421657084
1681945427.65134,0.27918907032130263,0.1683272764807037,9.809984655806531,-0.0009101412936295711,0.0009114251090438617,0.0005936162079568
1681945427.6611552,0.22124504571748074,-0.075252992381208,9.765147257369298,0.002672476417523163,0.00022893302782255054,0.0008439330150257
1681945427.6711855,0.18459928431194378,0.24920435942587302,9.904554693246729,-0.0008434550581305831,-0.0013874582256910184,0.000955326529115
1681945427.681316,0.32320604006238507,0.07921250830592076,9.757348927456924,0.0003355914884672608,-0.00026726635783039243,0.0024480445309426
1681945427.691187,0.15042002065496676,0.10495047999114998,9.86533442512002,-0.0017863346053502524,-0.0012168565182903606,-0.0007966893726144
1681945427.701186,0.3299419194337216,0.09695814490401058,9.768187450290204,-0.0010215340717670972,-0.0004352697249213189,0.0012000757152098
1681945427.7111447,0.1461258164099757,-0.003420898274556001,9.836703698237777,4.786028171571189e-06,-0.002229759725497395,-0.0003079238348756
1681945427.721136,0.336821078318299,0.022042071321313236,9.755322661604835,0.0007923200926431461,-0.0002162073647670503,-0.0016315166839514
1681945427.7311766,0.4212804222315994,0.17754211582559123,9.75194515591337,-0.0007000631119086641,0.002837787482515863,-0.0006979251747135
1681945427.7411714,0.13950806725484846,0.036720467083010064,9.852084775833578,0.0006984464017051519,-2.772694153714768e-06,9.70161518897368e-05
1681945427.7511914,0.12731613947233655,0.05492240556532862,9.867516328785527,0.0018145465525845385,-0.0031305094972427106,0.0006807812488521
1681945427.7612035,0.3866458058364377,0.18695374459876088,9.778465229976415,-0.00020681232878773815,-0.0004729042872847499,0.0003439942839439
1681945427.771157,0.18900932639827403,-0.014015554125888997,9.801754337531348,0.0014010308229744051,-0.0017674367696341308,7.503635705220237e-05
1681945427.7812338,0.3088545451138035,0.1815224805570972,9.825393344577039,-0.00039604811140380266,-0.0009556975226777911,7.83969181473805e-05
1681945427.7911506,0.23628020901414387,0.19551632769078514,9.865349299907473,-0.0027344221852458155,-0.0015547166416463754,0.0001309254904161
1681945427.801211,0.3728146215480703,-0.0475107018078836,9.698377580935155,-3.283432846283418e-05,0.001034357360293503,9.181005869763627e-05
1681945427.811243,0.22649069523205342,0.12324449377473741,9.831736595655169,-0.000246296793086031,7.397788622744186e-05,0.0011866648447583
1681945427.821241,0.2022639369490981,0.060100564879710106,9.813658872614857,-0.0006199460442598981,-0.00046879603912704606,-0.0001801420702714
1681945427.8311803,0.23300535217797352,0.004366138422975348,9.785431639888873,0.000847438780360454,-0.0005637650454048868,-0.0006644215435836
1681945427.8412397,0.30090616979912116,0.21624871246950736,9.82508734874146,-0.0015423311997281282,0.00013022027699392892,-0.0001503442880813
1681945427.8513176,0.23868076625398782,-0.025451050478853404,9.786580553556888,0.0016137477709156675,-0.0008316453776695141,0.0012462673940579
1681945427.8612175,0.2782705508562799,0.010971459827477777,9.773496100403845,0.00236884695187018,-6.718865898949628e-05,0.0001744979991461
1681945427.871177,0.2834404442326532,0.21910677228675413,9.833287207744835,5.3969298230968205e-05,0.0002676853966279214,0.0009683669660124
1681945427.8813744,0.182314393645822,-0.08428707019496536,9.785842735796635,0.0025890449486951094,-0.0006107492566609999,-0.0010660036468063
1681945427.891197,0.2244509896869586,0.15463998397814577,9.843987993501349,0.00047639076806134454,-0.00103949520539348,-0.0022253440228406
1681945427.9043474,0.3185303427098849,0.07816218897018964,9.777387590961572,0.0012519955059612758,5.869024389728504e-05,-0.0014180836268816
1681945427.911152,0.17145973535674122,0.353493501518543,9.95159659562909,-0.002580554641476704,-0.001385234820603935,-0.0012224905193899
1681945427.9211977,0.47736039845874106,0.06948500284201171,9.677234533903283,-0.0014577723003941195,0.0026675168878231943,0.0003715447847615
1681945427.931193,0.11698263102836702,0.164534637386268,9.898169190793913,-0.0021778728705488786,-0.0007742735120394465,0.0020490619527525
1681945427.9411871,0.22744640892898668,-0.16007077888189084,9.737004048021236,0.0014561580548614172,-0.00033356726519192257,-0.0012694238220457
1681945427.9512117,0.3800196545589396,0.19486392731620542,9.764300673069954,0.0008768688492515345,0.0012627196039077743,0.0018050432800781
1681945427.9612155,0.0848309017489804,0.16183946957175488,9.921563149597375,-0.0023432636581510948,-0.0012108932825147896,-0.0010444181506637
1681945427.971292,0.34233987519117687,0.09185331874460664,9.764630486980042,-0.002287389126065192,0.0006502860550505512,-0.0005697966088656
1681945427.9812703,0.4210792660688341,0.045544408259971914,9.700613702475106,-0.0001282000122823704,0.0035343977967242,0.0016527016878943
1681945427.9912488,0.15287659376609627,0.09165522764621241,9.858443654776918,-0.00045453035006296025,0.0017250271580982759,0.0011315361362765
1681945428.0011754,0.2349663634578294,0.16903494861527993,9.8470334201926,-0.0024606237018473002,0.0013379637070765702,0.0007746476795408
1681945428.011197,0.17886091451194594,-0.08068844375811732,9.787771807754853,0.0003888656243811442,0.00020026807695945696,-0.000775072444335
1681945428.021191,0.34339567090075795,0.1576174137124747,9.786276600844177,-0.000483611769695362,0.0017466328333366936,0.0003477222517948
1681945428.0314257,0.09148320236908349,0.0790816993493016,9.880309879464887,-0.001622773432991022,-0.0008778377868832094,-0.0022536436562542
1681945428.0412197,0.39077721717755004,0.11529976517689845,9.732175805654633,0.001073929547150288,1.2153910636011427e-05,0.0032963039585273
1681945428.0511796,0.1825535264574755,0.1741635154483587,9.88770740736834,-0.00155089345755124,-0.0011427082392942726,0.0015305059960927
1681945428.0612092,0.2522834878687067,-0.10887668396461535,9.739300120645051,0.00034971317604166473,0.00011122561868940616,-0.0023095313926343
1681945428.0712063,0.36101415145127463,0.12150323048699363,9.767689298353506,0.0005099185697160905,0.0014776743996523147,-0.0006327626296435
1681945428.0813606,0.17632625071160873,0.2191850177608068,9.89280869913362,-0.0020698204709123664,-0.00046916834099252757,-2.0325835898940417e-05
1681945428.091296,0.26127028752616693,0.003440909978658134,9.774471891494057,-0.000730571544901798,-0.00015886067816705418,-0.000715470826358
1681945428.1013975,0.30475307501452803,0.18637081896521976,9.827646800001675,-0.0018709133924927686,-2.140037573756756e-05,0.0011534977703239
1681945428.111281,0.1416901845299843,-0.09576806016351323,9.806429964604549,0.0008329170828776782,-0.0018609593909155822,-0.0003466740717296
1681945428.1212125,0.38562726265518216,0.2653063365484429,9.802664738578018,-0.003130412482566656,0.0008473474838501706,-0.0008510709275607
1681945428.131259,0.25725228796661725,-0.04215283695738758,9.766186573765024,0.0010545579465381187,-0.0003044973295377687,0.0019603851424879
1681945428.1413546,0.18904226293225973,0.0493071098855627,9.839205131154912,5.87832817523915e-05,-0.0008204693256450722,-0.0011815127917681
1681945428.1512651,0.2615822118543582,0.013163597630501732,9.76687672808534,0.001361537869604171,-0.0003685569561575035,-0.0012820721139316
1681945428.161257,0.33567121024429253,0.1592635640926295,9.780835907907736,0.0005523793644990403,0.000712131546940851,0.0002136137801106
1681945428.1715317,0.24642304397046505,0.13003443864339392,9.82493123387521,-0.0008278283658004362,0.0005202668193304296,-0.0002386325040016
1681945428.1812253,0.26613303516494347,-0.035962420340896965,9.753208809011205,0.0010906943154105132,0.0011412673256794214,-0.0015529305209521
1681945428.191219,0.18956063133997778,0.081476493906552,9.833570147382476,0.0011756673685113057,-0.00021733557614233572,-0.0019049406518344
1681945428.2012231,0.3210159569873366,0.2779752798881522,9.83214429847136,-0.0016104992328775502,0.00033623866132725727,0.000544058554701
1681945428.2112622,0.28681912489172534,0.03057048076301804,9.77150334275337,-0.00016695067865396852,0.0008007824668426025,0.0012049220850575
1681945428.2212963,0.059833560893034564,0.07191702345474268,9.916957230468029,-0.0007875678701387608,-0.0029136989188803205,-0.0004777998664532
1681945428.2312565,0.4042254552605536,0.09257932560576056,9.727528372653513,-0.0007116056273181014,0.00021441380931372538,-0.0005012768787447
1681945428.2412105,0.29735557114078576,0.1392262160902389,9.81913009759862,-0.0012092851540974913,0.00048264247056175707,0.0003995120524312
1681945428.251246,0.13053002947157377,0.03960613040837665,9.855688199066405,-0.00027535654541718444,-0.0021909974554452324,0.0006893394048209
1681945428.2612035,0.39078216289071277,0.16315948675040054,9.76260917979962,-0.0016585742980766633,0.000529953396445837,0.0007366610689904
1681945428.2712266,0.20553719990630537,-0.08596741126305625,9.774008866731023,0.0017050068742741047,-0.0004687792758614113,-9.0735568769698e-05
1681945428.2812138,0.2325272701011214,0.07958442250620647,9.799394633239228,0.0013257526325100952,-0.0005946676203190396,-0.0009065977764431
1681945428.291207,0.2741072881417103,0.22220302293364858,9.830815041103426,-0.0018690535836453966,0.00014810126910070866,-0.0010775671807233
1681945428.3012362,0.26564923819147096,0.07346208224184118,9.809949851320665,-0.0004690635888397458,-0.0006409074265807083,0.0012209406587179
1681945428.3063257,0.1804867832892813,-0.15988125019994423,9.776135938891002,0.0009018347668210951,-0.000737746551793365,-0.0014247656335238
1681945428.3202724,0.23716524580988058,0.161384615710056,9.837886374660775,-0.0005864062358268852,-0.0017305518324272952,-0.0003902508878265
1681945428.3302302,0.3945955450472105,0.11780085360519398,9.745215521934213,-0.0027854914748506312,0.002036438012168523,-0.0025997249876264
1681945428.3402,0.17113186558067553,0.009197464540941258,9.811989307631688,0.0007997632950905679,-0.0010331786996709209,0.0016407706162543
1681945428.350196,0.24014510401724048,0.09208912460053804,9.820415760140877,-0.0001587582507854511,-0.0009724583710444978,0.0002545834750752
1681945428.3602002,0.34643032117568395,0.11086031678571005,9.769655370562312,0.00047604215255357674,8.291537746087502e-05,0.0024193631716887
1681945428.3702097,0.25565623778540164,0.03534000968338145,9.798122308737593,0.0006667818494103718,0.000762032579727393,2.101836715596452e-05
1681945428.3802722,0.21051468370038398,0.15448020388056363,9.848081680301267,-0.0005435831753689934,-0.00042707607760796967,0.0006677207303117
1681945428.39028,0.2890423561486838,0.12830315905351183,9.799908845609142,-0.0015005902358427984,0.0002881738605658808,0.0007437188642914
1681945428.4002712,0.20082606089519067,-0.017275303623940336,9.805495620137256,-0.0011437153026670973,0.00014330152748695088,-0.0023873601575498
1681945428.4102664,0.3521481420882741,0.08277579191685312,9.74899788073777,0.0007230401467590457,0.0011088546946648576,0.0010201410505804
1681945428.4204094,0.3050116185095345,0.05145554381197977,9.771911497112079,0.0020074967388395044,0.0018058666700191143,0.0013710621743347
1681945428.430251,0.05197168751251958,0.15918912948212147,9.953080529746034,-0.0006277603485742152,-0.001988354307178054,-0.0006659244653884
1681945428.4402254,0.37393084923830944,0.08135274818253917,9.730939018061015,0.0003400654195767158,5.803602931764023e-06,0.0014258211768581
1681945428.4502206,0.22492226651241667,-0.07710930127860094,9.763576667017764,0.003163464592049387,-0.0001353975470878236,0.0004445824771072
1681945428.4602509,0.28606713206877066,0.31290383177056535,9.853311754423366,-0.0015475446735177716,0.000597394716822053,0.0004986179293017
1681945428.4702313,0.2709098333246381,0.022819361043518185,9.76207261044587,-0.0007149461397453966,0.0014113542299622897,-0.0004252767657045
1681945428.4803977,0.0677530202555811,0.023931754552315047,9.884507972051509,0.0011752693690285094,-0.0031659183316793444,0.0006170636507566
1681945428.4902687,0.5065118263118054,-0.018058546962054754,9.623738210328643,0.002041752872025162,0.0030367327106899733,-0.0017324527260963
1681945428.5002503,0.16162070116522145,0.13304732532188332,9.881890478350282,0.002037696819509197,0.00019503213298426887,-0.0002963649575714
1681945428.5102367,0.28309552463865945,0.15437358050143887,9.812098740460154,0.0013615304386355648,0.00041372816230093195,0.000828278239246
1681945428.520218,0.3316205721432271,0.29988477454676365,9.932366096609671,-0.0028469693538478074,0.0024294964880525343,-0.0044470568654243
1681945428.530244,0.3686303944551082,0.20707915895250872,9.699113811499116,-0.005467248047578617,0.00798319375572889,-0.0073788519484106
1681945428.5403044,-0.41670379266290275,-0.37299399799741295,9.921295817038589,-0.0012581803742497332,0.0021247500715510814,-0.0104991895613376
1681945428.5502682,0.3166451660035491,0.40772531636342624,9.68552528633273,-0.001872677164096479,0.0071595043563496994,-0.0019660263323341
1681945428.5602417,-0.2909196655224182,0.4521613637960188,9.835518083243533,-0.00555113593314887,0.006555201286074825,0.0029205271740328
1681945428.5702565,-0.557197817160596,-0.07472161505329379,9.88082443898985,-0.004124694738902309,3.783670243725988e-05,0.0053463245740975
1681945428.5802605,-0.28112235143681713,0.0274715105457844,9.793903705744045,-0.0032243017096813455,-0.001068941105298571,0.0065764105412061
1681945428.5902288,-0.007932636995385866,0.044998929182348116,9.808957560174878,-0.00036626835882799525,-0.0016851294821543115,0.0078914436044986
1681945428.6002314,0.07861155294716993,0.009916738422712876,9.774474286433282,-0.0009123965393932395,0.0007869896968807264,0.0032877491786028
1681945428.6102538,-0.010169265571520066,0.011854792663852677,9.885809736203964,-0.0020698549791680343,0.002335218903321575,-0.0013115261216763
1681945428.620247,-0.04800130046803973,-0.014845945541403255,9.761402621771825,-0.0012599560320520284,0.004321173310578148,-0.0045089367312495
1681945428.6302269,-0.09754762518381857,0.2742366567501665,9.796815765524608,-0.003910128489170563,0.004334952646179613,-0.0041218832601909
1681945428.6403637,-0.17479683273192995,0.25685677217593034,9.885780954594425,-0.005314909551840174,0.0015905820379510606,-0.0025061969180707
1681945428.6502602,0.23323167291096414,0.12137157756461991,9.733466813446382,-0.003451950005660739,0.00542274002613599,0.0043266953899409
1681945428.6602411,-0.028124752628126744,0.19406819160041455,9.95410483019541,-0.00590464136437392,0.005174678078255961,0.0073936852159793
1681945428.6702886,0.4116449085068765,0.321779666813254,9.646148044175895,-0.008018319633964025,0.015619643736591554,0.015472014481097
1681945428.680433,-0.4022718697836373,0.004651680436146045,9.844720073893113,-0.005481804334085454,0.014719523473803396,0.0218456853645737
1681945428.6902332,-0.5232624332376317,0.008320436621163744,9.956043301127355,-0.0059781574052565544,0.012982933380568235,0.0231307708191569
1681945428.7002645,-0.24997959617151372,0.1014323514834419,9.78923838838873,-0.006380354778766094,0.019174497037172493,0.0320714042055304
1681945428.7103086,-0.3251010853078895,0.4270408416480258,9.954206097833268,-0.010549170565392467,0.028077350505559314,0.0295570418703253
1681945428.7202473,0.4122459306143378,0.4100372008500863,9.544843360135898,-0.018494012038477312,0.06407767991354832,-0.0004511123524163
1681945428.7302706,-1.4558883797943496,-0.47168985960944626,9.447825452539247,-0.018728090234785524,0.09480465598518549,-0.0559580679518286
1681945428.7404344,-4.1343057080969325,-0.5354908577695398,9.58640897972149,-0.017870396793555152,0.09855297830425225,-0.1154099832755629
1681945428.750307,-6.043123618517961,-0.4721171019274748,9.947021709726094,-0.015105673120390949,0.07383097574337573,-0.1553430463654105
1681945428.760314,-6.404893824361718,0.0026829110945833655,10.169952686608099,-0.01414796450718142,0.032489442537544676,-0.1698016579729621
1681945428.7703478,-5.303397595067303,-0.5513493489974985,9.966917517410007,-0.0007156252099665944,-0.004547680902078264,-0.1648107673508231
1681945428.7803586,-3.8047631420501857,0.4438067811104457,10.014958697723651,0.0025510753574521164,-0.03665922128518654,-0.1360208894592826
1681945428.790335,-1.7119397030446704,0.43524773848008624,10.008655653887637,-0.0024141030563221365,-0.046757781204161755,-0.1014027427417342
1681945428.8002772,0.2666059767614657,0.48771131904840026,9.897667661127244,-0.006494852085383391,-0.03836765596966729,-0.0510265510064665
1681945428.8102784,1.2927308225439695,-1.0543189862406088,9.658793497245348,0.0012449963267290622,-0.018345503928585746,-0.0035043213983182
1681945428.820278,0.36859258368045517,-0.6408879468753267,9.867675136284245,0.009755545278917296,-0.007590164990707643,0.0356377643066342
1681945428.830269,-0.5186563273539301,0.08421361361172812,10.145490561109911,0.008588848550086386,-0.013179783640279354,0.0670447517651017
1681945428.840281,-0.705915069162871,-0.4478972336190374,9.859622398546009,0.0093604415188932,-0.02253014568928375,0.0818329621571
1681945428.8502817,-0.668849970249887,-1.3173840446684355,9.377503631750255,0.026021156832999767,-0.030900867894801214,0.075068095745414
1681945428.8603845,-0.011204250957903669,-0.8748321864585511,9.180471889926544,0.03697623158170515,-0.033688490318681895,0.0603843015151913
1681945428.8702629,0.8459864532349861,0.6727318313481667,9.528622860102885,0.029542194250718423,-0.025685237929354995,0.0280449036973412
1681945428.8804002,1.991459952533205,1.2847674431533354,9.70005439077028,0.015433877694098447,-0.005486024005777495,0.0036036064148764
1681945428.8902671,1.5788608870909824,0.4078301706086261,9.545674283020995,0.013288072676648353,0.008058979607747102,-0.0209186002147499
1681945428.9003143,-0.45755234690771646,0.0474121400384167,9.872868451285845,0.016912213916804555,-0.013008036846593166,-0.0714465286118094
1681945428.9103255,-0.325694863925801,0.24155001030650938,10.223814869201892,0.013761643553049555,-0.04172801895742815,-0.1222014482599799
1681945428.9211938,1.1514484523089852,0.8208945205457054,10.09634854245859,0.00031080534516083605,-0.05666987366265273,-0.1612291093451087
1681945428.9305527,2.350869945982408,0.34715315556236936,10.459285570765287,-0.009579740737475376,-0.06750910886867623,-0.1836322154385153
1681945428.9404674,5.037719012851527,0.3841877008516985,10.008525016274511,-0.016130819370782198,-0.04746156591827544,-0.1815002019983832
1681945428.950306,6.063085993235838,1.7911808489267138,10.050661101119788,-0.04454059121555718,-0.014737424725649827,-0.1751429643017356
1681945428.9603174,6.520932201609065,-1.246166342349712,9.302379439041905,-0.041402273354634464,0.027678955007432258,-0.155854737339646
1681945428.9703927,4.543667660671419,-2.5600969846831574,8.868549466125483,-0.008791362006132513,0.04612805745887262,-0.1202390919906203
1681945428.9803464,3.3009886385565266,-1.589315638457397,8.976273669495491,0.028366748333727237,0.047120390857544055,-0.0698613877874915
1681945428.990296,2.5109740734641544,1.4483210409732568,9.603065355828063,0.027432512349033836,0.04369854905183283,-0.0190314221662585
1681945429.0004473,3.2447223771097584,2.654745667704766,9.93718653506132,0.00930769905761184,0.06197800871231083,0.0158109684008057
1681945429.0103064,2.4941668066856906,1.800306500984484,9.668425952588233,-0.0037281757870395184,0.09427858794111292,0.0080587077419157
1681945429.0202656,0.304728820419675,-0.04205032243359282,9.49558526357997,0.0004166426284614135,0.1213870745057666,-0.0345733928960864
1681945429.0302913,-2.557894406027629,0.3744066280172361,9.792755290002294,-0.005171254957195619,0.12128912924641226,-0.0811900998932425
1681945429.040306,-4.594950595425309,-0.5224990051214906,9.80486833481263,-0.003024637103558933,0.10211945416837609,-0.1272638644558493
1681945429.0503116,-5.493124737484124,-0.4131408749310162,10.142734389859532,-0.004686280999367639,0.06826781132261824,-0.1504605318886344
1681945429.0602517,-5.432871807159174,-0.059263848583706764,9.995928898513153,-0.0007892110665912495,0.0327292004169034,-0.1542506273371283
1681945429.0703197,-6.186056947625622,2.352948914945975,10.820695790233424,-0.026132833190186576,-0.020941764914734658,-0.1462328936440055
1681945429.080351,-4.462560908025957,1.0031418060292527,10.950260154964765,-0.05000852608840143,-0.0672547788227025,-0.1316538061482016
1681945429.0904195,-1.331116547695627,-2.3498284952791,10.121840356119451,-0.02979002430611308,-0.08304204352003272,-0.1138486470562521
1681945429.1002965,0.6121829342468468,-3.763552171726347,9.596423738374844,0.01405095950603322,-0.0784528836263855,-0.1013377438766066
1681945429.1102877,2.13532602210139,-1.5264692231283985,8.964007275552206,0.03944933406552345,-0.053894331675140815,-0.0875404532534186
1681945429.1203785,1.4714398609689048,0.18997404727716474,9.384483223756424,0.02991879718147356,-0.036325783609539565,-0.0901834498626295
1681945429.1302984,0.5113913331381545,0.21110249295042757,9.43912272709698,0.02116805360679237,-0.03514400691200604,-0.1042823101860587
1681945429.1403184,0.2973532007100878,-0.004108213790562408,9.627277594840667,0.011677696641499103,-0.041742787812821244,-0.1363359894138877
1681945429.1503365,1.3661291446912769,0.3657541012092037,10.072936201615647,-0.0027732242320331773,-0.03735142787876292,-0.1744657363277976
1681945429.1603098,2.371393324323766,-0.0965119356224185,9.923852354025902,-0.014536882856576045,-0.024403065272925496,-0.2105563934427802
1681945429.1703804,1.9410641324921498,-1.7136381049559495,9.934338783777225,0.0008821164145431042,-0.029194315787835774,-0.2371681238991324
1681945429.180364,1.9527772714573681,-0.2217509896951351,10.24397087929622,-0.00014130274957881265,-0.042852199450612305,-0.2657035495621268
1681945429.190339,4.216370641657605,0.8692774672995165,9.996383818039174,-0.011837329757822724,-0.03249925386683645,-0.2805591430050437
1681945429.200349,4.639787210495041,2.6953801849246775,9.764712192342355,-0.060953391628775215,-0.011139108865031815,-0.3178679551464621
1681945429.2148254,6.147569093750865,-4.5674665629557465,9.71129008995727,-0.0365533068327714,0.04376809806765207,-0.3412012662273948
1681945429.2202866,3.946100196818872,-9.261462520604264,6.549398769542963,0.0603252131268985,0.061061104280251015,-0.3322204257828299
1681945429.230511,1.8300257542590834,-1.9260684395372383,9.738306271459633,0.08391150198546703,0.059369337455404944,-0.305805971799523
1681945429.240261,1.9396007549167442,4.192835179473693,9.491029732503756,0.06859900111725865,0.06800739938357475,-0.2406369950157706
1681945429.2503328,0.8634740364261072,6.3936684754995365,10.688315505918396,0.008106859024456365,0.06800324535104389,-0.188816567836434
1681945429.2603166,1.633396477220811,1.802347033388869,9.430143386613066,-0.0023388882996103456,0.09038958972178023,-0.1275881435257498
1681945429.2703416,-2.0837515381405023,3.3880675208905244,9.849863540300127,-0.010113192891054832,0.07283854185353411,-0.1014988477808539
1681945429.2803535,-2.918765639717982,-1.9593352605853664,9.927073351570696,0.03220080529688492,0.050167863584355106,-0.1062432508451048
1681945429.2903523,-2.8596947131274737,2.3649261909946637,10.17469488461558,0.024465860970680247,0.04147417406762788,-0.1048421915155951
1681945429.3088431,-2.5494510798962886,2.555035482026356,10.009598624469046,0.011742415471987979,0.03149873675750065,-0.118482699571282
1681945429.3103008,-3.8514664171606197,8.287482890254367,12.589331807978882,-0.0164970669782042,0.03163729104937543,-0.1330332960468833
1681945429.3203237,-2.670887701300499,-0.7910414110602811,10.06323749805955,-0.0019585492561842847,0.03199719267147034,-0.1519993599039618
1681945429.3303037,-4.071830984483883,-0.6120884699493748,9.103998370394075,0.03649336480340133,0.016238426400146343,-0.1923166568857733
1681945429.3404534,-4.942805824618875,4.639097861653805,10.294460977475087,-0.02291365005078997,-0.016581305940623285,-0.2103933151346747
1681945429.3502922,-4.616783687901693,2.1194878182040364,11.012679043599368,-0.047457779470978116,-0.06842193530690192,-0.2169954534155432
1681945429.3603568,-3.023232762740333,0.39367449379848474,10.671553766685888,-0.06065259440264864,-0.10890527368876228,-0.2229077871424262
1681945429.37036,0.18770945039469053,-3.3859450145998147,9.402111951730994,-0.0158265517737052,-0.11619659093423236,-0.2270851786715094
1681945429.3803575,2.1329262757132756,0.7342949867828539,9.220181515307859,-0.029792583310795255,-0.10069205172848451,-0.2199105526787345
1681945429.3903792,3.1435175979346597,-0.5392897949723465,9.690661100151422,-0.048327475935194195,-0.08194546410450189,-0.2150197829586569
1681945429.4003356,2.9973645234932276,-2.940252709829094,9.980692801267882,-0.04918112355544607,-0.06750218060641795,-0.2179881240707938
1681945429.4102976,3.358099761247764,-5.567450654235503,9.843203362855826,-0.0020417981645147604,-0.05885161852054108,-0.2073776479345862
1681945429.4203992,3.4866391850517835,-2.616684367284868,9.824900934705653,0.016128913690585927,-0.04873169627253833,-0.1992323304993216
1681945429.4302957,4.220668931776801,-0.47165277108379755,9.751732341997252,0.0018638389950466799,-0.03106997077099686,-0.1992153580767218
1681945429.4403565,4.7298171233144055,-0.012441227604296182,9.464775768572279,-0.025382017996080163,0.0009319039825644919,-0.2259945030790869
1681945429.4502883,3.4481724028979537,-4.102497308638413,9.387833282990456,-0.0021377496305649874,0.020656341231717525,-0.2683513964993064
1681945429.4604564,4.159889483363929,-5.022952668929081,8.189739511110986,0.054019510198411454,0.05578396797055251,-0.3024379517418448
1681945429.4703207,3.4299228398039574,-1.7878301874741205,8.256537627879032,0.08452423274788952,0.09774882573170468,-0.3199447597843711
1681945429.480418,0.9936260877158589,1.6585534776547382,9.6117165036793,0.08270554033114977,0.10550970328329286,-0.2980326916557853
1681945429.490304,-0.9120261947136908,4.241231315620614,10.303651864467664,0.05845011996320189,0.10105511559437476,-0.250831892667443
1681945429.5003135,-2.987641611055599,4.577929767393956,11.276279626162019,0.04633177747821128,0.06285714135901682,-0.1850880290848319
1681945429.5104418,-2.218720919604124,5.724665949854823,10.96659974770493,0.010189531421973475,0.04081772513235299,-0.1276357825380866
1681945429.5203233,-1.5872657975202176,4.834504112363073,10.230942287325206,-0.012605169407585017,0.03437613852960425,-0.0863074268681113
1681945429.5303495,-1.4115944854126095,3.4359977646149646,9.60034388930281,-0.030990086284443705,0.035843664131370336,-0.0704515855294768
1681945429.540305,-2.1213010426184713,1.587151106969618,9.391255908135722,-0.03579036598706408,0.03482009808156872,-0.0867253373843733
1681945429.5503216,-2.868559961911411,0.2884743022482134,9.57374058636513,-0.030462014760371078,0.027251479036963594,-0.1120921801311079
1681945429.5603323,-2.564592499894813,-1.9078529329654221,9.349538476852706,0.005513672256339308,0.02328666049269051,-0.1543696876150672
1681945429.5703344,-3.493345937140903,2.4752967633956318,9.360116928815174,-0.011666931252403968,0.016986392773764514,-0.2005868907553259
1681945429.5803933,-5.4117242196052215,3.1103814623290873,11.339397640827169,-0.07356026989874817,-0.03203270397238178,-0.216949542937905
1681945429.5903506,-3.365717342881493,-1.245757331972668,10.595318988114755,-0.06694102185487395,-0.0725582066281543,-0.2154389377218787
1681945429.6003425,-1.6850098242157996,-3.883520965168705,10.266007980570574,-0.03261223332572882,-0.09783164720905914,-0.2099531199318473
1681945429.6103451,0.7990410888322389,-1.072140536102686,9.664196700524771,-0.024459061276555952,-0.1019826867511534,-0.1866949703079764
1681945429.6203191,3.152126065800964,-0.38696875547991794,9.478503994012886,-0.03386133503920811,-0.08072123572057434,-0.1856522615534369
1681945429.6303332,1.8523021683226235,-0.6971836958208543,10.065751111509055,-0.07113546564862122,-0.07897046309170484,-0.2065485622269217
1681945429.6403098,4.699238242136524,-7.890852654401532,9.368735077784152,-0.007065850608269593,-0.057847919436616727,-0.2327303643805091
1681945429.6503806,4.047270615065662,-6.738727518751269,8.447848808604123,0.05905620843048897,-0.028990939381296543,-0.2529158200604026
1681945429.6603503,4.604988770235709,-3.0594659421354384,9.396760460733404,0.07986159481569725,-0.004256957769843604,-0.2807898725849692
1681945429.670328,5.932588536932922,-0.7169864414898174,8.605508579357075,0.07545696496845909,0.05024338196939037,-0.2984388377052848
1681945429.6803763,4.161699765338478,-1.096626722817839,8.916465461338822,0.07955695101823748,0.09007833551788806,-0.3077714349609916
1681945429.6904,1.543004665513029,0.03965283292006831,9.241722511518248,0.09614884097200696,0.10194716188747997,-0.2878549303394858
1681945429.7003422,-1.8914219042750995,2.1288337960749835,10.511349411580158,0.10034932355385573,0.08165105388026664,-0.2336517925840918
1681945429.7103455,-3.6967364757825023,5.624727566531398,11.767625996734202,0.08146191840820882,0.02439135658496981,-0.1615569944960181
1681945429.7203517,-2.389990998085907,7.32840110783387,11.22789411683337,0.03272309272566619,-0.006638409719642208,-0.0987458806020323
1681945429.730316,-0.5311448738340246,7.80293416867907,10.115409591637631,-0.020648797915653907,-0.00972434434274663,-0.0403633955401484
1681945429.7403266,1.0656380343181058,4.520364335990368,9.063608800621855,-0.04897410824141474,0.0163786337355589,-0.0330537762028281
1681945429.7503977,-1.7042524791532538,3.1363888808018454,8.825403417247443,-0.07654460363176063,0.019891431095139397,-0.0690137873870436
1681945429.7603269,-3.131974579857475,-1.3997392878972919,9.81397969874902,-0.05099146087293754,-0.010331988973763697,-0.1262287999970023
1681945429.770391,-3.999101872885404,-1.724192009637228,9.210774372319438,-0.03327306771807715,-0.041141414271538335,-0.2032261993271414
1681945429.780369,-2.2848028445810344,-0.2307638144979471,10.76964282382864,-0.04372793218505437,-0.07439820746958468,-0.2402565832716529
1681945429.7903998,0.815665618802916,0.9386717205164772,11.547278512577957,-0.0787301285628198,-0.08065155029433414,-0.2478846665007178
1681945429.8019528,3.8675147020865634,-1.6320597444909133,11.03794921369963,-0.09012482061443439,-0.05628482921787728,-0.2135396357161109
1681945429.8103554,4.011752847539839,-4.663987272505923,10.163619477423957,-0.06369206683913461,-0.039877798290744976,-0.1831863875967566
1681945429.8203304,3.72236755745828,-6.862876859675787,8.75121342092664,-0.0004982339882401463,-0.024053793230499016,-0.1797076221090857
1681945429.830366,3.255400552183682,-3.2915208229603654,8.365133587267715,0.02523944313027274,-0.006790481492662227,-0.1854967232328955
1681945429.8403864,3.82130973060764,-2.499172055887352,8.343061199101852,0.0361740734520179,0.020617800459314183,-0.2028011884075705
1681945429.8503556,4.000838482464066,-2.431937968701394,7.709914062005895,0.06470362330808747,0.06733142767160107,-0.2150662447792594
1681945429.8604057,2.604592219847627,-1.2099638636877852,8.774779714982937,0.08914100583932442,0.10113208702715683,-0.2093291040045325
1681945429.8703835,0.41825519106389286,1.7887994476918403,9.24319491143234,0.09699479484835108,0.12158088941789377,-0.1885703857523505
1681945429.8803613,-3.450249362817332,5.710502101823609,11.239162230716875,0.07405680480042268,0.09044059050312177,-0.1441019679886405
1681945429.8904192,-5.321280289154162,8.152783002183114,12.28975736941704,0.005163402450701194,0.034987900698856524,-0.1017788555008475
1681945429.900344,-4.319224621236198,5.801690024111252,11.657375630770574,-0.03687108427748363,-0.011357204479603596,-0.0666455309373442
1681945429.910362,-2.1719751745906266,3.0087182191826867,10.037470110634716,-0.047408600688380466,-0.0253637986981836,-0.0607124212664668
1681945429.920568,-1.3138556818802303,2.449917960771716,9.116819714613687,-0.06524622365666663,-0.021916697082997816,-0.0865013207775656
1681945429.9303615,-2.112322264165329,3.0381558708086924,9.420205518959317,-0.11360317494636406,-0.029960617501299115,-0.1282801236492697
1681945429.940315,-2.3617632910430335,-3.282800157849634,10.114943047159057,-0.10205225985601488,-0.059665744353499015,-0.1774662937504355
1681945429.9505246,-0.8007930829511457,-7.0432990839211005,9.490244807541693,-0.03216473479010741,-0.07533250939478196,-0.2219352628571097
1681945429.9610257,1.035109422433992,-4.038268515380043,10.199471116654658,0.006474353620454783,-0.08121735225512075,-0.2357575650793616
1681945429.9704144,3.9638945759165325,-1.0688365417191181,9.810464386971288,0.0037302414314740306,-0.05155114435541361,-0.2308909352404181
1681945429.9804306,3.7768504217428904,-0.7824037898964556,9.930986413891883,-0.010264068587507903,-0.021029172132654383,-0.2350541259628836
1681945429.9904482,3.7366846630301502,-1.8462173737025118,9.493084839795491,-0.01716103986894546,0.008635889464849566,-0.2369373496157233
1681945430.0004752,2.9727546386431825,-5.30929448182743,8.446656383443004,0.04041489177246695,0.03325309302223629,-0.2327893729788367
1681945430.0104706,1.175009811046334,-2.1845730787388833,8.843396422356996,0.07523629453105482,0.0330733582106673,-0.2170564587694708
1681945430.020431,3.1664517569298805,1.5294507600587663,9.044483628049086,0.06294171968874424,0.06649119121999114,-0.208038797555596
1681945430.030481,1.7036279266358685,2.6091098044392664,9.06351206471154,0.037818874399136275,0.10359726600241685,-0.2020411248785559
1681945430.0403802,-0.6198998878539861,0.8761132577844792,9.84020271595108,0.03809481256848335,0.1111945567141282,-0.1834057028872077
1681945430.05039,-4.289997031181298,2.32649191515553,10.734800943585169,0.037014988136162885,0.0847511394585369,-0.1482621337753836
1681945430.0604007,-6.007341917027998,3.823645700495211,11.744775269687086,0.03020956609794929,0.023778468070151278,-0.1159879397136275
1681945430.070439,-4.418769487562219,6.144034856022732,11.166880790363193,-0.01884448456924912,-0.007865492804722207,-0.0969374458772246
1681945430.0805054,-3.136917413915434,4.852267484645068,10.612277888443549,-0.06299755739960493,-0.02578028840470139,-0.107381788967282
1681945430.0904586,-2.1972258051636,2.1981397239476097,9.210820710953042,-0.08479431689746497,-0.022867107763662565,-0.1408066059929434
1681945430.1004288,-2.5766042481881803,-1.5325757670649398,9.24320725834049,-0.07290822212879042,-0.03307221469758154,-0.1857120897156302
1681945430.1163638,-2.0235125863769245,-3.1997055532088337,8.931871586483624,-0.008851374650799103,-0.05369169229446247,-0.2149079646450583
1681945430.1203609,-4.346850817924383,-5.287331228503483,9.003576866642828,0.022028798720143475,-0.07165440882743204,-0.2549912537914817
1681945430.130375,0.818296666224056,4.910916931767971,10.805153094206236,-0.055262685095816826,-0.06785977990955763,-0.2572040166241233
1681945430.1403835,2.62725026327622,2.1948061597289343,11.563059719187024,-0.10696358674730391,-0.05647387650434839,-0.2147975768429343
1681945430.1503606,3.7659214893332407,-3.8248217258621735,10.539187408935435,-0.08303051379982775,-0.03871510454850976,-0.1548074986321036
1681945430.1603875,2.7150869065390912,-6.3377181417390185,9.500062034333716,-0.010656300600699234,-0.03404398705861587,-0.1224414240104262
1681945430.1703866,2.5707122831464773,-2.3110037568402353,9.108075373314081,0.018162670624659694,-0.038862487904288534,-0.100077902851731
1681945430.1804287,3.0047832711991505,0.3605241473935162,8.667432337465407,0.0016337915849801434,-0.02570870680988194,-0.1054720859510008
1681945430.1903596,2.0263810009917917,0.4012857345496272,9.532264632237963,-0.03263103649723767,-0.031235062864146467,-0.1562432106119696
1681945430.2003756,4.028311358842944,-4.575324546496106,8.764268179396536,-0.02066740562990233,-0.0013428871494453626,-0.2386769558769766
1681945430.210367,4.4842174399770505,-7.252573978080362,8.2261721137785,0.05580838794639323,0.03863711339942197,-0.3041357602459494
1681945430.2203698,3.868810570863676,-4.0351608730886745,8.555377803191593,0.10712932649123826,0.08841745820176475,-0.334861775813729
1681945430.2303865,4.422446229288063,2.467639230321426,10.128140776917343,0.08488254194829956,0.1554567920567064,-0.2960788215977256
1681945430.2404552,2.4003247567030908,5.050150778840948,9.891678229925068,0.042603294539524286,0.2257308838809062,-0.185969745693833
1681945430.2504225,-4.641447994779949,0.6272219050578149,10.660383365711732,0.0932426877953135,0.2009945393322449,-0.0472254063469473
1681945430.26036,-8.528908734336717,4.755247249020149,10.80798019910985,0.09515513301176758,0.13346321203323322,0.0550590288358624
1681945430.270424,-9.61026819158703,6.0515915985834186,10.695510057698762,0.08032933633475248,0.05694052435687788,0.0894068126099999
1681945430.2804098,-8.526059856724675,9.839699453240161,10.226313102248373,-0.012307686920851005,0.0008981244492673691,0.0650808010714944
1681945430.2903934,-6.631856230714456,6.33534699625754,10.035342609614302,-0.1035848963685172,-0.01757621163426003,0.0026998828280601
1681945430.3003917,-7.1788854337879515,0.31099226593378104,9.484805068725267,-0.10974804137431918,-0.05598601615037014,-0.0575577709359232
1681945430.3103878,-6.339854821380302,-4.0301351241312675,9.815514501880816,-0.07934164641785317,-0.09598983867457479,-0.1205559651834074
1681945430.320392,-5.351432903281001,-1.8877157474004598,9.477330806143911,-0.05504761702877538,-0.13930915598181076,-0.1427048053127829
1681945430.3304567,-2.297361578605152,-2.4696069939980023,10.73293739001469,-0.046293744050663325,-0.1644168294051236,-0.1333157177549903
1681945430.3404949,0.4443009121871568,-3.7484359185961402,11.069346943079427,-0.01694223952311816,-0.1784584733391515,-0.0962380449754301
1681945430.3504598,4.494864054349901,-4.531941201201558,10.087978978667644,0.01939921553050861,-0.14906005479832607,-0.0538342277986113
1681945430.3604412,4.472400749885277,-2.820062598229138,9.53144175832631,0.04016913508902208,-0.12144281337547519,-0.0159712582362
1681945430.3704128,6.379484522396578,-0.7212115726530306,9.09576080419033,0.04505068041560547,-0.08051404919147234,0.0151526695581968
1681945430.3804762,6.302304902731262,1.6302653296038976,8.780625229600972,0.019047262454086177,-0.030174095301939697,0.0207580291199381
1681945430.3904772,4.681739738148168,-0.4292972366654052,9.165586636846077,0.023667853138260933,-0.006122030747729937,0.0077491100410814
1681945430.400402,3.515073881103102,-0.38788311743013437,8.814848675252753,0.040881420372115125,0.00964370377782219,-0.0125771341380779
1681945430.410401,3.1961814312156265,0.8869881618713742,9.303360915250817,0.0471445703485518,0.020144756818154516,-0.0268332138192955
1681945430.42039,2.171017685113321,3.0190522357084855,9.43886402706353,0.03175074735281717,0.025613425363617985,-0.0316499750596587
1681945430.4305625,1.9558330697404012,2.9552619275899095,10.241147069048706,0.007939712300836461,0.02884511298011538,-0.0287995840889517
1681945430.4481804,1.2371558107289475,2.4932015583304565,10.29124809970485,-0.018481838308527287,0.031984199716361614,-0.0138198108879033
1681945430.4503744,3.661095122145133,4.735293662776713,10.377345120761227,-0.02616849008895193,0.037425289900319667,0.0074826581868227
1681945430.4604032,1.7437916997859502,0.7512249918085944,9.916159185634703,-0.026763540286685338,0.059285161407591595,0.0218775757121737
1681945430.4705782,0.7140881726394954,0.7569369944041572,9.815917301325372,-0.03220577732727255,0.07175382025499302,0.0279694162773783
1681945430.48041,0.19076983150758525,0.32252067255750133,9.33818019264189,-0.04096743204205483,0.09109725512127811,0.0149703016969259
1681945430.4904506,-2.4409481105501376,-1.0647389220041346,9.418959238288876,-0.03719509039180043,0.082321576423666,-0.0058632296976749
1681945430.5004318,-4.472878469133086,-3.1353734960161734,9.727477200072844,-0.011042805756343406,0.049398711080203876,-0.0317805017811362
1681945430.5104449,-5.6902215298500725,-2.703326684445619,10.016589741089748,0.01450966445407828,-0.005342092184167509,-0.0511736962479655
1681945430.5204003,-3.2716947210705265,-1.4006001713763,9.89554763864917,0.023841615931357724,-0.03292833312103134,-0.0592308695894782
1681945430.5304065,-1.9167613518230175,-0.21892537284687497,9.808074416122318,0.019914946397242034,-0.047209957293097723,-0.0591144542676512
1681945430.5404146,0.9374078455542596,-0.1647791828853321,9.486475631562666,0.01921671063307017,-0.027926774364190526,-0.0448241289240424
1681945430.5504458,0.6479014663049636,-0.432773935487231,9.36912577726587,0.030810312118228177,-0.010661076391928068,-0.0283786020708386
1681945430.5604105,0.5758027742738527,0.7358306378308171,9.527210175318144,0.034203470146712926,0.0006784538805438672,-0.0052657937166397
1681945430.5704074,-1.3006799261044206,2.173940808432164,10.089963297935986,0.019772467871207705,-0.009602987263976178,0.008786715147912
1681945430.5804718,-3.0698411196330984,1.671257473952712,11.211329236230878,0.007114199988363039,-0.05500227411060537,0.0158677502068574
1681945430.5904338,-1.652301618555047,0.7575970020011459,10.919102120419238,0.00419291624097097,-0.0897342063964604,0.0153080169576104
1681945430.6004193,1.7333930129424995,1.5774796312144368,10.245445238318739,-0.001889863736897777,-0.08325679207480326,0.0104622589888866
1681945430.6104405,4.104633600128812,2.3731797662994842,9.656696435083914,-0.03167866423964907,-0.04243968116024471,-0.0006110798102919
1681945430.62044,4.456353890757996,0.9712095978756894,9.075965670868158,-0.044808470501980384,0.005335649411038806,-0.004653658205748
1681945430.630449,2.109783674899744,-1.1707860937843761,9.273536665814238,-0.031780796586114456,0.022058229008933016,-0.0149504336995188
1681945430.640422,0.22448911885623923,-1.3580179274661874,9.459175314188117,-0.01512821813286593,0.01154233282238211,-0.0202608387452666
1681945430.6504493,-0.1745123252542729,-0.4054168140794577,9.73030590057747,-0.010306221714976157,-0.007139309088680388,-0.0172378047836129
1681945430.660451,-0.0515913203575676,-0.13584610830717614,9.927423927999746,-0.01542338768319817,-0.024645401484551705,-0.0126620968339149
1681945430.6704104,1.4638482003977396,-0.545846293897086,9.654775287628071,-0.01162940551924563,-0.024409878564209828,0.0082458416464622
1681945430.6804922,2.3126159413098577,-1.2386037595444823,9.24011624050671,0.006091933698848482,-0.00847446270306275,0.0367604177909787
1681945430.6904356,2.214506188057305,-1.4228583303951692,9.180106436938908,0.028032024946417624,0.010795450278667294,0.0551245753186638
1681945430.7004166,1.4798138418305673,0.15432955614830046,9.330441519636079,0.031082852158971448,0.02666761741583143,0.0654154364484246
1681945430.7104027,0.05174099074874451,1.6147274201185007,9.865729152455092,0.015169597884873603,0.02900856251330525,0.0669325162189896
1681945430.7203896,-1.231302962124839,2.108681776553496,10.61638727250316,-0.012056542820395283,0.013559432933070367,0.0559054259675438
1681945430.7304096,-1.2155939500932758,0.654323036993017,10.472572280955493,-0.018727397410468426,7.357983183263509e-05,0.0385702010708745
1681945430.7404044,-1.6092169582280231,-0.5748924795999854,10.49328999677667,-0.00450776408267298,-0.019852905759265762,0.0152372504117782
1681945430.7504308,-0.6844819456155455,-0.5016361294563955,10.382281576070833,0.005053000717421602,-0.03241235017822868,-0.0158418472391669
1681945430.760459,0.9473593184638406,0.7872333300167377,9.842263642604168,-0.00035841017002049506,-0.02326205132439357,-0.0375654603821341
1681945430.7703898,1.8023666797968088,1.2214161144421647,9.442075116310525,-0.016980265925982823,-0.002083784003675986,-0.0478767882567946
1681945430.7804227,1.750144006086641,0.10435744859908709,8.91299814643151,-0.022032966966457176,0.023337217815656407,-0.0465262624901835
1681945430.7904737,0.28066785593347204,-0.38969892806272244,9.0627933156286,-0.01487312677893281,0.027597089507435047,-0.0233307666611973
1681945430.8004832,-1.1040698503736546,-0.7989884810842139,9.372177955239144,8.469860906894e-06,0.012866989361532839,-0.0075655523222987
1681945430.8105304,-1.266287917656071,-0.10254211131659201,10.054708455950434,-0.0019186016387602602,-0.006737319626268747,0.0053228836505557
1681945430.820428,-0.3201186510447061,-0.6955947115981725,10.121699501130042,0.006589306759988291,-0.016110759808761158,0.0178719666319783
1681945430.8304307,0.5583819097396838,-1.0701286364108678,10.0072911292636,0.01629873885951346,-0.01236682288187926,0.016163322189718
1681945430.8406436,0.9359654677205086,-0.9331651058437886,9.735443144259845,0.028243500252728464,0.001712027076290427,0.0153243626001175
1681945430.8504174,-0.2504792292408076,0.3129994023808035,10.371889610356025,0.026788951327671923,0.0010156670410444938,0.0118922312277253
1681945430.8604712,-0.2590057782147081,1.2608746647424756,10.648650359130057,0.01205944369572827,-0.003760541940237836,0.0086394818964298
1681945430.8705451,0.24680439949508812,1.4252748861548095,10.207177057199363,-0.001423845573888913,-0.0011651134278307844,0.0108534237834508
1681945430.8804252,0.18814279056494432,0.7648666620389146,9.76939961654406,-0.005148787976054356,-0.001106174842485816,0.0165754603686626
1681945430.8904445,-0.1034341297357239,0.16356441764564433,9.155408714370253,0.0029118394051125696,-0.0022456975198642815,0.0171967866363819
1681945430.900477,-0.00400725578249598,1.1726795218703165,9.27500580109931,-0.0021554280866962106,-0.0031751173447350503,0.0187882855999167
1681945430.9104376,-0.3430604457676748,1.4592466588951771,9.61990874734558,-0.018427430031275744,-0.008181471752469853,0.0159750404300983
1681945430.9204326,-0.3057623495803293,0.3921763723771032,9.856625626742591,-0.025239089784617835,-0.013808177142201762,0.0119793713557417
1681945430.9304504,-0.13812813773027718,-0.6098083808073755,9.78120027709496,-0.017660563267931334,-0.0176285344339222,0.0083091557490523
1681945430.9404137,0.5683873242025511,-0.8461716645953962,9.519827304164876,-0.007187256435997032,-0.011339553516563046,0.0068468912969227
1681945430.9505062,0.23526838960293212,-0.33220184041233264,9.567497831018265,-0.00440222053614288,-0.007488393635382248,0.0063755917827482
1681945430.960513,-0.2790040740916656,0.3889948806776764,9.652585044898457,-0.010820870557357415,-0.008898799521252297,0.0099634500685031
1681945430.9704597,-1.4452190767378694,-0.0557333508198336,9.804845911941399,-0.012148702256698639,-0.02419014928189018,0.0217122491913731
1681945430.980444,-2.78697092474613,-0.43031765923164955,10.776898848556083,-0.004750948531401632,-0.06808857241155085,0.0396701042073662
1681945430.9905088,0.02924991892204246,-0.1514095731802799,11.172068875563518,0.0050151980542637135,-0.09144483516777979,0.0655085761564667
1681945431.0004368,3.5315588448977837,-0.060560304448576914,10.218949878884878,0.019190508062762575,-0.06765777591527518,0.0826294962781365
1681945431.0104182,4.467548751501658,1.8449485855405041,9.50179002088791,0.0042534913101073026,-0.022518830633237057,0.0864072610157426
1681945431.0204554,2.5730279430228515,1.8186875612589886,9.530963051076482,-0.014037941810030463,-0.00014049724734610145,0.0811816696542199
1681945431.030405,0.2962483458821996,1.3626723796854474,9.832639317665757,-0.03534731580819384,-0.006421050626620258,0.0565095227676327
1681945431.04045,-0.47811979785176867,-0.6664191152450891,9.67635685075967,-0.028537843354911083,-0.022345281867176124,0.0266645402180846
1681945431.0504086,-0.1430062285868078,-0.6109538892698931,9.57666529792015,-0.01908322788134091,-0.036406346383647516,-0.0074878595304791
1681945431.0605469,1.1078790869441242,-0.6274187766292525,9.429029172067686,-0.01582063267419828,-0.03287164445512403,-0.0420067701024119
1681945431.0705032,3.218265180894325,-1.527821077059156,8.507911497995863,-0.0004388959736044382,-0.00394621272412017,-0.061815014062554
1681945431.080456,1.3829456382907452,0.4053731856823843,9.203856954406277,-0.007392150035781683,0.009306980799940082,-0.0584300104064051
1681945431.090561,0.4804736128308949,0.15764157214203722,10.493346866596903,-0.012263181928444581,-0.009936833138483285,-0.0353720802349154
1681945431.1004636,1.2010478135970952,-0.19790312456127332,10.18278823084757,-0.011970843639874124,-0.017253511125199145,0.003499214933149
1681945431.1104398,1.280811283639887,-1.8115397406000902,10.252887120541047,0.011980152974718846,-0.026656437910298595,0.0321137439924176
1681945431.1204937,1.8989866293049495,-0.8552658347340842,9.78648286628365,0.031045455490998436,-0.02584881702525789,0.0573230404871399
1681945431.1306243,2.753987304699884,1.099458452763776,9.588726630506368,0.02606034417540321,-0.011628744327294329,0.0709388945716317
1681945431.1404588,2.603283680676639,1.7163251569187898,9.588850539732128,0.005993849402014527,0.006691450886784056,0.0673848707693513
1681945431.1504924,1.9148830871359372,0.2914559719133588,9.478511241022975,0.003214878381188368,0.020699505472923835,0.046320823999017
1681945431.160485,0.9820367671831329,-0.3105096741749049,9.501826920609037,0.008375811458974548,0.025719575087826452,0.0192570444661076
1681945431.1704547,0.40330778533238876,0.17018361352430653,9.645277204531956,0.01006859259203943,0.022595461728504893,-0.0073828715366427
1681945431.1804872,0.8393902219387681,0.8384938545049913,10.10169401082025,-0.0021790056574062843,0.02754723224210302,-0.0209582633805577
1681945431.1904695,1.4815294236252,0.5626570463159623,9.904566166649754,-0.009372303129536054,0.04499846221711871,-0.0044565121178631
1681945431.2004192,1.07498978646515,-0.36609172774012183,9.666542742198752,-0.003174173660825227,0.06462064437421479,0.0259375684427912
1681945431.2104633,-0.45119358347365823,-0.3272918898874688,9.707024631224662,0.006207005879271294,0.06634718485916774,0.0611870829480584
1681945431.2204626,-2.1517778053893424,-0.1085574206753778,10.042635038600961,0.007595098187694509,0.04695024643365743,0.0767960343974526
1681945431.2304592,-4.0933805363671505,0.2788919126100247,10.464529618874451,-0.0021079232552297642,0.004287534482993459,0.083912389399379
1681945431.2404716,-1.529997586511607,-0.5237365292986044,9.995100052086874,0.0041584098057962605,-0.01673213257395669,0.0764558930414612
1681945431.250461,0.3846591888824603,-0.519148824181126,9.155087041639938,0.009149484330073083,0.00504067043925888,0.0703921635168488
1681945431.260509,-0.6793367691387752,0.2906814042992218,9.503227092074349,0.010352484993676208,0.009207770320887335,0.0674567167180474
1681945431.2704914,-1.5334793539769311,1.3304367533924277,9.959534260374834,0.0010429016905614632,-0.0040564918203717,0.0734672788995202
1681945431.2805216,-1.7189890772788612,1.757196579248175,10.059885171607807,-0.01383976653928726,-0.02403316817345825,0.0887950826900895
1681945431.2905562,-1.219894865156652,1.7010165388180654,10.081609638906032,-0.023676558357892796,-0.040251502635710215,0.1014229078310425
1681945431.3004518,-0.11772229978545486,1.287896200311428,9.77015389869309,-0.03017531858026934,-0.03931972419426734,0.105999851645797
1681945431.310689,1.0560688088373975,0.7638359253058683,9.442879189576427,-0.026768100694306768,-0.02470111350285766,0.1197764371055062
1681945431.3207295,0.627952285913451,1.1187309484550223,9.20383774770241,-0.030951392938844514,-0.00790910943099904,0.1258177478331025
1681945431.3304737,-1.0925781934069452,-1.274711992652711,10.39099513630977,-0.017936490638092897,-0.016660662837060546,0.1208700333255227
1681945431.3404624,-1.4901904434388404,-1.3309665779227238,10.67944467652944,-0.00338671995607614,-0.03967035566230419,0.1077613253611024
1681945431.3504958,0.24971668441208894,-0.9553568034216867,10.317977280398104,-0.000802832504260629,-0.03928447206073995,0.0931412149685319
1681945431.3605485,1.2112293756080412,-1.0623473875695535,9.65225942827592,0.002062697953676585,-0.024903815724561545,0.0860643703955109
1681945431.3705654,1.9378503568348682,-1.696496546546035,8.965837232942736,0.016901127555864745,-0.0046236386912656005,0.0871323813217576
1681945431.3805192,0.001969496145835298,-0.005497492520308956,9.03655253758816,0.009853368766335682,-0.0030871912118427807,0.0919300932901795
1681945431.3905432,-1.3190196994840286,-0.5781070714981028,10.179793788238333,0.011929852008081545,-0.0342893865019983,0.101894581736892
1681945431.4004722,-0.207358012328894,-0.7395018299368898,10.094428738196221,0.020672274748974543,-0.05181666416771436,0.1151779834645684
1681945431.4104729,1.1135560349424478,-0.23007075788283504,10.009354034762342,0.030551009359101614,-0.05410463674912238,0.1336122844832833
1681945431.4205031,3.121406336102768,1.136733602886737,9.742452930325403,0.0282323353836648,-0.03191522318525725,0.1505562011617119
1681945431.4304967,3.549376279045502,0.9561562224809346,9.592736659828573,0.030318952535646045,0.0010382134832028491,0.1645184699910576
1681945431.440487,3.103861041921642,1.9120289449574008,9.386806542080109,0.025130433479360725,0.026980060344338575,0.1761044357436593
1681945431.450461,1.646849026337021,3.0777427053481268,9.555719080776448,0.005227434754222762,0.034228977278586016,0.1839937661307747
1681945431.460471,0.7853807218988075,2.89981917989281,9.997906569187249,-0.025419394961738742,0.028030519537289664,0.1879442576783593
1681945431.4705536,0.06519896203667706,1.1753984707676384,10.031479188220361,-0.03486365819001342,0.013439074406700884,0.1775087807792122
1681945431.480496,0.481461436404907,-1.032330289947418,10.21985528819512,-0.028123983837322643,0.005636164890087685,0.1597553585189278
1681945431.4904697,0.8766725056012876,-1.0316767674348593,9.865624816805395,-0.01722287363730556,0.0063557350352967815,0.1394744161981042
1681945431.5005038,1.8775183874294137,-0.777009303583772,9.64490346807991,-0.012587680705823607,0.024777004249997094,0.1295490507501061
1681945431.5104718,0.6184547314525759,-0.19815297785042674,9.669844884633392,-0.024441441002499755,0.03151633214401589,0.1187132988589699
1681945431.5205014,-0.13700584380832595,-1.3456917538418698,9.730573621931256,-0.022276195527766128,0.027085218701007274,0.1100121979134972
1681945431.5304716,-0.6707798272255285,-1.9326793770009658,9.700743313247251,-0.00795343389734715,0.01280166389497406,0.110664660157531
1681945431.540526,-0.19198508797736819,-2.2938657721028717,9.590929536238189,0.011652361382864438,0.0033658899394793844,0.1161779780405457
1681945431.5505254,0.2870403516502493,-4.133027236400007,9.277727042350786,0.0775460981897508,-0.0023018604067166337,0.1595345382111962
1681945431.5605445,0.758744965908402,2.6827998314839263,9.478566443830811,0.08529955922508635,-0.010512511577713976,0.2116144840138848
1681945431.570575,1.6191593914313818,6.70020074073383,10.11471703258066,0.016454918041181245,0.00022608739023116054,0.2338310722726281
1681945431.5804794,1.281229212229719,4.95900229792044,10.105976474660054,-0.036761620775377174,0.014073722864050973,0.2463813070672448
1681945431.590573,0.9042120902739897,2.229544012266444,9.770115620187351,-0.05336849934519998,0.02112340325588052,0.2367880139964516
1681945431.6005113,0.30361646714944046,-0.2073617787463101,9.600893460127102,-0.05531538848207057,0.03526489808587047,0.1970370952504571
1681945431.6105092,-0.8617168711975195,-2.6108694630093745,10.438896594963394,-0.025601825614635094,0.032741197064389126,0.1645854358094628
1681945431.6204853,-1.940516735055988,-2.2334985876459017,10.716229156008842,-0.01094757325814191,0.017068917313337338,0.1295928303616936
1681945431.6304705,-2.557631062353059,-2.2518485909315453,10.53882250397095,0.0025485477531498146,-0.004898650000111741,0.0950206835287507
1681945431.6405194,-1.0587165466924526,-1.1516334415818321,9.957825450930752,-0.0037243536436941675,-0.016011110515791488,0.0866612662094529
1681945431.6505575,-0.4152849593656797,-1.7138333466628755,9.046806714640992,0.008597446524560948,-0.01739307111255539,0.0982450861948426
1681945431.660462,-0.029070477435659728,-2.7901375307429945,8.972171999457712,0.04001766319996244,-0.0239784069142213,0.1315525863784249
1681945431.670486,0.7797537745448584,-0.3566266681972949,8.59356427258422,0.06301055321583997,-0.01964908546182709,0.1819815878289635
1681945431.6805885,0.3257004677221295,1.6648079664771105,9.81522420369049,0.05766061165698677,-0.022454127769129886,0.2142287586348946
1681945431.6906044,1.381978708592486,3.776462123509742,10.135317880065907,0.021166017274361876,-0.013912150720216176,0.2412885372060235
1681945431.7004857,1.6754694004962551,2.351502866406869,10.131859181297376,-0.008667852416983104,0.014396588229815384,0.2427412663119729
1681945431.7105231,-0.16713689629820158,-0.10495104247311632,10.30048139179817,-0.0009063551195445902,0.014698387142144255,0.2230820302384789
1681945431.7205117,-0.22900685342883592,-0.21232068266209891,9.672704454580197,-0.0016919668020255014,0.0236685432321187,0.1838642899411614
1681945431.7305336,-1.6308535996510787,1.5140645913574764,10.169076839529755,-0.026789979685257058,0.011935511855790166,0.1509609017985757
1681945431.7404633,-0.9069140761515804,1.1010079781728437,9.69271481528481,-0.05576256638064223,0.004945719353529914,0.1438512746709283
1681945431.7504692,-0.5604267551067756,-3.133258755567967,9.570786383941071,-0.03173946216781757,-0.0026827352885707006,0.1515251789706643
1681945431.7604866,0.02242223736303432,-3.5489797823533675,9.165859121242864,0.01952826368406317,-0.0024961389777691943,0.1548301671164925
1681945431.7705095,-0.35702765751626037,-0.8626267988222173,9.905393820086461,0.04051520739729055,-0.006434953267672931,0.1505974922793801
1681945431.7805717,0.15226827222636982,2.082647757988874,10.704711203341168,0.02279148059721805,-0.008982159624513937,0.1575787310021813
1681945431.790671,0.019601912546493974,2.3977034960525,10.760248373640254,-0.002570805097791125,-0.014631720932866084,0.1674518231767113
1681945431.800485,0.2421358579387491,1.3853449250026144,9.974630923301634,-0.013105647448763087,-0.018898972998694145,0.1722257826941903
1681945431.8105135,0.6417239516329141,-0.43777186351289477,9.342340775153893,0.00035268081843047293,-0.019273299158486037,0.1735734735148842
1681945431.8204803,1.038855618798353,-1.8349639430971303,8.851711478806223,0.032990501230835946,-0.013551089352867567,0.1859976146834786
1681945431.830486,1.6910288109437375,2.3199929516551254,9.006934267374476,0.049048601552799546,-0.011420585815848651,0.2347996626513894
1681945431.8405724,2.0105281100939836,6.874731137887274,9.762368650161672,-0.016566538164049825,0.001495470665133582,0.2798378561156686
1681945431.850593,1.8740390102764122,4.818893648770914,9.873869534676379,-0.07152545210973306,0.013956516801344656,0.3037047777789529
1681945431.8605976,1.521010806885189,0.10506210727938119,9.204128996950487,-0.056362202492037834,0.022624625834815896,0.3117436562198098
1681945431.8706088,0.4877670348084132,-1.2881409407782543,10.57003092731837,-0.058256843823389096,0.029517247912356062,0.2689974997657235
1681945431.8806324,-2.3648654853443487,-2.5072985223414523,11.272682790022426,-0.04454437481591969,0.010044342543306902,0.1931193713563378
1681945431.8905876,-2.2207815265898483,-2.987790974742871,11.23465543697759,-0.05486744092480891,-0.011072294535073208,0.1050822083371575
1681945431.9005544,-1.6662190981412106,-4.451043134511686,10.405722352511258,-0.042599536322961734,-0.02169389070516277,0.040738740982383
1681945431.910553,0.8295919918456396,-4.773637603346536,9.083391794597441,-0.009956976941353496,-0.01160369791826564,0.0273326337802107
1681945431.921044,1.3728536707574681,-4.592966383573155,7.929804915585992,0.03797257676829128,0.016325024698356116,0.038102483423322
1681945431.9304943,0.7096104358354034,-1.6894963269614462,8.498526602687114,0.06284856969980634,0.0170185348716467,0.0787204374092515
1681945431.9405272,0.1803164005525878,0.732571287672285,8.894843988185281,0.06136399003951332,0.016763139930478968,0.1122918595093186
1681945431.9505234,-1.1425154705939946,2.4748280019973854,10.407712908549835,0.032982418666436274,-0.007027510015237809,0.1400366817134316
1681945431.960512,-0.1999591084415244,1.4408883499026364,10.080882779803206,0.010839428071884025,-0.011902538606268009,0.1506405417340691
1681945431.9705515,1.0300416993159496,0.9780306752667267,10.263380165859408,-0.00015367846044795947,-0.0022915127262200623,0.1769249532836373
1681945431.980555,1.1340529730164104,-1.279568423939166,9.88676086781123,0.02194735960545839,0.0162921586411836,0.1809218172448571
1681945431.9904912,0.7528266185659077,-0.22266915150511,9.803184057259529,0.03607453306513341,0.033490069572332554,0.1646428201812203
1681945432.0005195,-0.7313609592357261,2.820386374034973,10.06619063893731,0.007405070888209096,0.037214125228532555,0.1546810660975869
1681945432.0105128,-1.201553144021242,4.05685416302221,10.466084798084173,-0.04749139142173985,0.02513089988989863,0.1517943088429864
1681945432.0205517,-0.728474724065411,1.2168734308369873,9.813085441665839,-0.07313807090717836,0.016851636778736964,0.1844373438971932
1681945432.030489,-0.5993063351105146,-3.0012362736548606,9.230980767037227,-0.031794754888401444,0.002268235208853832,0.2095720265525277
1681945432.040517,-0.8189675422432436,-2.99470501378788,8.5254525216462,0.021068737960980854,-0.0016748469134015846,0.2098412458318169
1681945432.050556,-1.642791372063748,0.8939155803877596,10.188649022151806,0.019691649609066456,-0.023659847947765784,0.2032770012038643
1681945432.0605495,-1.1832138975572382,0.9604951063056159,10.629692046378166,0.0032724512227838257,-0.03312759015128717,0.1705311332362588
1681945432.070555,-0.41297748612495366,0.10331255633777969,10.444433709666948,0.0075717341017462955,-0.03552832158650966,0.1423868481534417
1681945432.080531,1.1461707178879652,0.7040192257222464,10.281677912012011,0.006823585136984396,-0.024706588085363815,0.13323567253527
1681945432.090598,1.8142315240896145,1.8937213850257826,9.56551920293118,-0.0010855196131602418,-0.001178753961048916,0.1364523265975411
1681945432.1006627,1.3789925251703519,0.21251883569361746,10.068776920473772,0.009545620431796967,0.006128522381499127,0.1524597947019036
1681945432.1105652,0.842281172727926,2.1624104881379176,9.338544171211991,0.001107824969687202,0.013021512663738279,0.1773134861606057
1681945432.1205387,0.11180437508922786,2.816495969090554,10.081932543896494,-0.028420627294824388,0.00299939664473775,0.1984650437253411
1681945432.1305864,-0.8522136625003967,0.6527511254372594,10.128775360547948,-0.03729864535647921,-0.01759991484855419,0.1979497019666131
1681945432.1406603,0.22778225311235875,-1.4410956930762095,9.651560126604762,-0.028593347978987438,-0.016857457224263604,0.1918618474620278
1681945432.1505826,0.32357272314099184,-2.2216675068515506,9.708677666226697,-0.006262050020078428,-0.018823785930951294,0.2036646251099999
1681945432.160568,1.2353726353858963,-2.425592207637269,9.402805959756105,0.019190631654719337,-0.004731438558977771,0.1944503579753335
1681945432.1705203,1.558828574946063,-3.0758999398370164,9.34188149981207,0.048155910024592706,0.019545153539199046,0.1725942586081917
1681945432.1805644,1.416561048330098,-0.5238224807400367,9.279136770913533,0.0645488898467535,0.03918001197245441,0.1757081095593865
1681945432.1906362,0.6342422506800376,2.0356588049392594,9.504111133048802,0.04095882448358679,0.053152444125361936,0.1757149640935357
1681945432.2006233,-1.8679624273012974,4.327500982512915,10.278370658104242,-0.014498218412719387,0.029073618625314462,0.1649471167939599
1681945432.2105567,-3.0090147513754313,1.9910929619493425,10.713021049448841,-0.04953276693669145,-0.013381105409967791,0.1438438091891701
1681945432.2205465,-1.6327802593889837,-0.625656843934764,10.28683115878881,-0.0535634552194176,-0.04616540951158811,0.123826036276191
1681945432.2310374,0.8419960407965917,-2.749865657425279,9.326934775181137,-0.02217308663926949,-0.04181873945055233,0.0990854520815308
1681945432.240542,3.7820070194273474,-1.1198417017068614,9.355101417549314,-0.0008861782395098884,-0.0071308756458842385,0.1027742717879708
1681945432.2505689,3.736128046748905,1.286068946824504,9.555818735647986,-0.01394689687441526,0.042061453558447495,0.1075032894032891
1681945432.2605095,1.07211914845995,0.8057332134316034,10.24177674210549,-0.02597700445906486,0.0549281906215088,0.1162380744236405
1681945432.2705402,-1.7145290191690523,-0.5851678904834317,10.286069334274996,-0.0181383160951154,0.030521364809394397,0.1182602961080964
1681945432.28062,-1.9715477492825808,-0.8114669803586939,10.177318465312823,-0.008488943358077755,-0.0039025663491802916,0.1170184258836205
1681945432.290579,-0.41167587598509825,0.1382500714322341,9.448529643227854,-0.006822406361250489,-0.017756895941391408,0.1193426866548951
1681945432.3005395,1.1064271783344493,-1.2443908982469032,8.901796305095324,0.008384627465344829,-0.010119340855356665,0.1356863771098549
1681945432.3142035,1.0392993301613216,0.5160244643321718,8.91382604557864,0.038592731600329166,-0.002690549764433001,0.1691088770049508
1681945432.3205736,2.0200631601100696,8.29237106067898,10.123659721723747,-0.0226119718420867,0.009211236773685844,0.2080659065860207
1681945432.3308818,-0.042275485633823516,5.116760245465249,10.532332304923292,-0.08506611923614249,0.0015387539527325525,0.2130991910117562
1681945432.340591,0.1603011353460836,-2.3164390059580935,10.642355917425471,-0.06781060527547789,-0.006545461815327386,0.1920009647029336
1681945432.3505602,-0.11307997242384925,-4.632245451320398,9.546693392591157,-0.015025643430261392,-0.0013550991633589163,0.1519091371911461
1681945432.3605635,-1.159597768578757,-3.6062929310428786,10.72260593410027,0.036016009142933146,-0.03825357163188832,0.1259556953328545
1681945432.3705933,0.48416176006660067,1.9731734811974015,9.75285393324752,0.010142099477585728,-0.050201197620804494,0.1038941089528496
1681945432.3805704,1.9428202520400628,0.7918707068428494,10.588417238282663,-0.02297894109007756,-0.05107448238055136,0.0985951442736085
1681945432.3905337,1.7218428856473162,-1.4076957699145016,9.17315957065415,-0.004476221018085705,-0.059549982801014076,0.1032430623191292
1681945432.4005976,2.9409955995780113,-1.8232922970549352,9.413311394480742,0.012305214121861169,-0.05920829562198626,0.0623404253738816
1681945432.41141,3.737710094382386,-0.9818690914131779,9.008722752112554,0.027515620317813294,-0.04351745918250089,0.015423666732281
1681945432.4212549,6.036475771053976,2.1296164781995057,9.279706494153995,-0.004404047052226103,0.0021480070929478555,-0.0088314143476192
1681945432.430539,5.025504679162378,1.7790059931037805,9.613106709795966,-0.04008675847340403,0.041946444087108355,-0.0329774636310641
1681945432.4405391,2.794531807960514,-2.175950478917709,9.651222151716912,-0.030626983457152094,0.05806265989125062,-0.0566031056922976
1681945432.4506032,1.1175456331216034,-3.557424213401495,9.851358696252754,0.0033435540447820113,0.05072763853626369,-0.0666938106996123
1681945432.460633,0.24725360498947052,-1.8201455267138493,9.82011282741934,0.024232646705490114,0.03301954888528752,-0.0694743673783842
1681945432.470535,0.6246331018647008,-0.24238107556054103,10.094197639173611,0.021366002880171382,0.01946160241947629,-0.0713361333591048
1681945432.4806569,1.5344479581763146,0.71500064643597,9.871906919353853,0.008219993875138847,0.024616372793295618,-0.0545286032837931
1681945432.490597,1.8592882695593131,-0.15956330603658533,9.611487464821893,0.01267232774672925,0.03511298234507419,-0.0296718943399493
1681945432.500602,0.9088506708664322,-0.28546351121669566,9.322835335807234,0.027919707208540215,0.04176925230139035,-0.0127735370305482
1681945432.510567,-0.04667653957616368,1.0286052018070844,9.787479739912252,0.02690858915168981,0.038170660168164124,-0.0037129329984192
1681945432.520574,-1.041874000476048,2.3606236211920772,10.273620754915004,0.004670883638771228,0.023422649978621018,0.001669038300938
1681945432.5305374,-1.3409037622060227,1.0328403794737053,10.230803761127621,-0.005369887317788837,0.0071803250368925025,-0.0077029149514738
1681945432.540525,-0.8782440043473992,0.5920899862048671,10.082365867679004,-0.008397501001289534,-0.006353358109030116,-0.0144882611465756
1681945432.5505672,-0.010215469621090247,0.13894976822529337,9.627889777198927,-0.006043192721141957,-0.004165771758599291,-0.0230999998283688
1681945432.5606315,0.303760886908887,0.636602052165868,9.76809595112651,-0.012752778344703163,-0.00040842335098909043,-0.0218829698396031
1681945432.5705898,0.13320536999812457,0.041196307061904316,9.822630851729176,-0.017761130091497428,0.003009931646296268,-0.0211740042549673
1681945432.580618,-0.28088659248477565,-0.8502247382599755,9.887594442147178,-0.009428469906641868,-0.0011123965489719277,-0.0177389028948847
1681945432.5905504,-0.05093264636244999,-0.6934504296720652,9.84422765032526,-0.004231702228101471,-0.002886900170720305,-0.0124311148655716
1681945432.6005874,-0.013267119347445648,-0.5498161703053365,9.886885937940704,-0.00037221572263700407,-0.004669835984987584,-0.0087602287066285
1681945432.6105587,0.3891751475809115,-0.284557442000066,9.7607470497625,0.0019896342309439546,-0.0025911155773741352,5.791946303802266e-05
1681945432.6206236,0.3897608697352022,-0.22107964063670732,9.68595003802487,0.004934096388180911,0.0007720614418730334,0.0053716779685463
1681945432.6305437,0.3365475760794053,-0.3106663246358466,9.578073264419873,0.009328360869897525,0.005664640275112137,-2.516708347243533e-05
1681945432.6405733,0.05602689609468263,0.3170743547546697,9.827118158006146,0.00875476234301147,0.004165484613701562,-0.0020170323086087
1681945432.6505466,0.25475869381181526,0.619320784788252,9.789078245918235,0.004863986600501548,0.0066722747507479896,-0.0015577482526306
1681945432.6605415,-0.25848875845745456,0.4255938721665802,9.963445526627334,0.0014624146951809597,0.002556158945973808,-0.0051947799046639
1681945432.6705718,-0.2372555862077456,0.41324054544661887,9.931734017573756,0.0005363837172535618,-0.0034747476405011767,-0.0036379592028562
1681945432.6806872,0.17592332689342838,0.5909408649159618,9.802970950838562,-0.004988235541930542,-0.001672447238190509,-0.0012869007886503
1681945432.6905797,0.07720491573749501,0.27176788761798054,9.87544908466645,-0.008240753246786968,-0.0035876770297884365,-0.0015331718140397
1681945432.7005951,0.13556350602918288,-0.05911191623154729,9.843232464948589,-0.0070382606122712365,-0.006091731089792072,0.0006476246517966
1681945432.7106297,0.4464089466625146,-0.3273270613634266,9.704097855744218,-0.0037692931502875467,-0.0027874516788742457,0.0002624224171857
1681945432.720626,0.31883961271944666,-0.31834094428736776,9.793209071095337,0.00032144072545858414,-0.002850003407224806,0.001590108763671
1681945432.7305677,0.46551434532388164,-0.19649383912818724,9.77950179706435,0.0003288929252125559,-8.212165966263528e-05,-8.999540015352235e-05
1681945432.740564,0.27536573238612233,-0.44572998635534417,9.796721705458962,0.0046528165365513135,4.9400012373692574e-05,-0.0036849188153747
1681945432.7505543,0.42795593579489405,0.05595339582030625,9.827853651267839,0.002936967722309356,0.0009743757271003019,-0.003425993910164
1681945432.7605608,0.4594902737177492,-0.02695602077681421,9.728202799294172,0.0057558538669913424,0.002922022251648961,-0.0021713133436743
1681945432.77062,0.2544394104610772,0.31700415669194126,9.844541728353436,0.0023334436661317354,0.002385581145882795,-0.0024678059388999
1681945432.780668,0.3122507606889921,0.23252787282906037,9.75099729696436,0.0016644464765274082,0.0035306511863420122,-0.002313992893428
1681945432.7906327,0.010389211739727816,0.25903858083225895,9.9310194919114,0.0006239303337821291,-0.0010052438545954739,-0.0024190470111672
1681945432.8006103,0.24632519876680803,0.251076731087824,9.814428708072333,-0.0004910562556225996,-0.0006159375625615365,-0.0022167600226704
1681945432.810612,-0.1697683076281759,0.04452845563378384,9.553437433795942,-0.00013197347041606403,-0.002530376216190163,-0.0011792981066857
1681945432.820917,-2.1364506067115916,0.28466408571422636,10.265304921225658,-0.0011811290286908953,-0.04938459188051821,0.0194506999569829
1681945432.8307111,-0.3451058915633643,1.4084907760027188,10.368990984464752,-0.010235527322272321,-0.09190703515137782,0.0622050371485646
1681945432.840576,2.364047791693256,1.0511019677728721,10.565123948220615,-0.01679957563843088,-0.11008298980508872,0.0936701912897523
1681945432.8506258,5.52744806025962,0.17570602025885532,9.620042343841204,-0.010688606362235651,-0.08386470084338142,0.107460999907821
1681945432.8605874,6.071044591039623,-0.039082939078469936,9.331306791785082,-0.004014074041698731,-0.045085711251099746,0.1079990510362084
1681945432.8705702,6.797436326466798,-0.427847370400172,9.208425938667254,0.008912444850949492,-0.004364308206171076,0.1049926747101243
1681945432.8806002,5.588957163392183,0.6696954321417667,8.518842772319365,0.01064904017875808,0.03352791065758137,0.0979172457474168
1681945432.890567,2.9717889438306333,1.1676353424618584,9.736446947429647,-0.0019680990822571603,0.030719730998137122,0.0907859970348771
1681945432.900616,2.6429726687776824,0.7392788546310568,9.906277910110514,-0.008846946457649588,0.01834914125035188,0.0911069382446702
1681945432.9107206,1.7550024275602951,0.08416825571400186,10.255867880293385,-0.009581598674455577,-0.0022486668704673634,0.0873473007696564
1681945432.9206204,2.143959071578147,-0.5233086952422216,10.34929911252496,-0.00433098995669888,-0.02380916731245057,0.0854358245151932
1681945432.930653,3.912431361442742,-1.42134773101369,9.66411489334859,0.012006425363234336,-0.01850079390058184,0.0867120493668015
1681945432.9406085,4.79626597978482,-0.842364686258221,8.957297844128616,0.02541575894857273,0.008066535944732037,0.0931937341111596
1681945432.950607,4.135874367570991,1.2598653261942925,9.623409237499166,0.011808722666238954,0.030864293918590406,0.0900878850835259
1681945432.9606078,3.6470522580284936,2.137487619030958,10.204495204093403,-0.03789877197217452,0.05576868133491196,0.0855559129732545
1681945432.9706118,1.3844098894148824,-3.1729485445530963,10.335452358112176,-0.021122269147405406,0.058315528016001594,0.0719593037384446
1681945432.9806125,0.3902977936096682,-5.957376087926288,9.35960278842697,0.04437458685294341,0.054936476086882284,0.0408303942995961
1681945432.9905815,-0.07011939579008035,-3.085878001778859,9.185998911610572,0.08642634103908815,0.05099087940013279,0.0041817510965164
1681945433.0006528,-0.29805224891039384,2.538762919777838,9.386181689094338,0.06064831855960357,0.05550997928336705,-0.0356084759813849
1681945433.0105655,-2.5551198112261257,3.8020440007843614,10.848865202911899,0.002113250348384599,0.035736094809710975,-0.0672694947105948
1681945433.0205858,-3.0178253386718104,0.03137060377282178,10.607670965095352,0.0017339618527509914,-0.0051792496417034616,-0.0766856204253737
1681945433.0305576,-1.016141131396742,-1.4382634703797834,9.271341540127985,0.03265008951467625,-0.012744911358558484,-0.0794541220647398
1681945433.040561,-0.9348166882127897,2.1987203983987245,9.427041194944424,0.028777207326305954,-0.02201568372899697,-0.0692537854892317
1681945433.0505571,0.6110080349629192,4.945182511207265,9.834120734938937,-0.026230699697832732,-0.007126849737132183,-0.0375861953479353
1681945433.0606349,0.9219135217338509,2.755988753040757,9.775360882175583,-0.05818151836024609,0.019655007708313618,0.0173020316752489
1681945433.0705616,0.8242420634119755,-0.4267362413498757,10.094320144759724,-0.04700592790588628,0.043914306601350095,0.0780543182509835
1681945433.0806174,-1.0663210925762452,-1.408712939087776,10.181260092413005,-0.023766880241706284,0.05324059900286942,0.1190584395545418
1681945433.0905695,-2.0047904394527243,-0.23146841419387348,10.346917684489032,-0.019832002595797794,0.04808113080980651,0.1360612456220086
1681945433.1005988,-3.492950223030072,-0.06955817717335258,9.891848010437538,-0.028534336325058925,0.030424498301312386,0.1197927613275941
1681945433.1106226,-4.4162059593593135,-2.3705012839681503,9.635618982380848,-0.01945487054457591,-0.001214495585235584,0.0693431143182213
1681945433.1206546,-3.4426938930174833,-3.035089979390996,8.841044946087543,0.010183615990436004,-0.024586300721353312,0.0218318161087925
1681945433.1307108,-1.7949661904827672,-2.11726980969444,8.63138718061533,0.03211888440915436,-0.02498000197340751,-0.0210870373529498
1681945433.1406343,-1.4350167958847309,-0.32735248896925184,9.402022146410333,0.03457484193542185,-0.023686306443771628,-0.04415171402517
1681945433.1507568,-1.473113094796251,0.6498624614885216,10.270668619780148,0.025842600616514496,-0.029048613054021045,-0.0435304138344828
1681945433.160649,-1.8863488431983584,0.5658884189838944,11.074601967207874,0.02324545537070603,-0.05450305358074598,-0.0182718950790469
1681945433.170758,-0.5939556888274576,0.9509486550617102,10.810775368732571,0.021450380347744807,-0.07797244310388597,0.0191085245924885
1681945433.1806402,1.3647457369526605,2.193074705208256,10.358657199607503,0.007328644090769631,-0.08293983481523194,0.0624199342447217
1681945433.190623,2.761320309984208,2.0886448763441865,10.034933012939433,-0.012907525563701156,-0.07566938099922281,0.0890784580725129
1681945433.2006862,4.707544877328144,-0.10097123442756613,9.19491319582674,-0.00859413435091962,-0.039361285869871775,0.0992540661710198
1681945433.2106433,4.455869921905451,-1.547607726147342,8.949238289183894,0.015670924246243438,-0.0036600379944356537,0.0933809523003991
1681945433.2206352,3.975135029513081,-0.7074315228672258,9.01221792780308,0.030988478462891638,0.028417035841308013,0.0782742295878823
1681945433.2307143,2.4397952725166707,1.1318557928738784,9.487283290310081,0.019534877048621415,0.04557015864418589,0.0581444297450478
1681945433.240781,0.2117153711690358,1.2274537452924397,10.36200781082535,-0.0018757033571669285,0.030073289068403695,0.0347951855975087
1681945433.2508514,-0.3517767408128905,-0.24741012952869157,10.293260371045246,-0.0068687245649815265,0.008141860395145467,0.0107863443436916
1681945433.2606733,0.08446946777669687,-1.1115625660731199,10.016877161270886,0.006252528591349058,-0.0058256435046142585,0.007524129515409
1681945433.270614,0.5667661924833984,-0.37260673740417205,9.974909506737122,0.010462013075617758,-0.011458040763326224,0.0120198494288023
1681945433.2806191,1.552689103375161,0.05040606830613506,9.508889388339178,0.010931233832963643,0.0008427051345844949,0.0298439413773711
1681945433.2906168,1.3951001717708067,0.3656405159205121,9.304843888037881,0.005676122973027832,0.018152417405635897,0.0518834498244221
1681945433.3006835,0.6952912860510511,0.3415852261626205,9.438513261875523,0.001562084337193851,0.030470950578502437,0.0661100764292176
1681945433.3105888,-0.1772127281156831,0.5710771898399924,9.876634686309897,-0.005199520323083113,0.03186466431947493,0.0735767949837144
1681945433.3206418,-0.4451350368539037,-0.3073724201147724,10.098251331262531,-0.003724987339919547,0.03134351874597547,0.0764013249891694
1681945433.3307023,-1.2479164541043737,-1.0744558025818591,9.966999197646246,0.01028735597690836,0.024913285778660137,0.071494767488807
1681945433.340613,-0.8061209161822811,-0.7317657548216563,9.747773263311652,0.02260284098648065,0.021285137165285982,0.0670225341337617
1681945433.350633,-0.7123831607500203,0.1128794290075956,9.423163550696088,0.022007047620255866,0.02067297166806243,0.0576544013338978
1681945433.3606052,-0.8890633067256161,0.986297453849654,9.334566858191986,0.011614777657616225,0.01888484572616613,0.055226290644973
1681945433.3705692,-1.2719849257856528,0.7288870723889677,9.663990488768345,0.0031528628504942187,0.009703372219255742,0.0553159472065861
1681945433.380617,-1.7628746978853618,0.15625879874571033,10.032331178753408,0.004919596063823921,-0.011650514211995016,0.0566214900928433
1681945433.3907857,-0.7148823891332915,-0.39556532035354985,10.05828595913098,0.011677172187567557,-0.0202888316720695,0.0621702950912411
1681945433.4007225,-0.34920553801519594,0.11518575968601551,10.132516841295445,0.01891375729076807,-0.02453139657846237,0.0714771990197594
1681945433.410635,0.2052003976148945,0.3115209318970752,10.308021784594853,0.017064521618107776,-0.02113257513976191,0.0733913500326569
1681945433.4206357,0.0006973392968722132,0.6545471288139961,10.375232791580865,0.004781067936024336,-0.01904025932332266,0.0670295302289422
1681945433.4306371,0.09190504406093937,-0.2470873050587019,10.235614118347751,0.004404870155836668,-0.01964017362068306,0.0576222148257191
1681945433.4406328,0.1466037742042736,-1.0041152728189522,9.774553469683903,0.013992602693574352,-0.020490587250432152,0.0465227682608063
1681945433.4506044,1.1280700538594937,-0.939854819365952,9.425858782442749,0.027096014897805776,-0.011267434986225696,0.0392504949587281
1681945433.466522,0.7997961596447309,0.3974284018086564,9.218940252747512,0.03361739893601789,-0.0017183831254385545,0.0327707287388737
1681945433.470629,0.46063027764356707,3.1250014787549842,10.03187830816719,0.013042948900312552,-0.00048681964152943693,0.0317653790580924
1681945433.480656,-0.46630347254021254,1.3409130113399688,9.838784872718703,-0.000283525406014967,-0.014585476560179377,0.0342249740379746
1681945433.4906683,-0.23475025822692722,0.796373321382637,9.969898586561802,-0.003425615587803298,-0.0269946345671523,0.042746959300607
1681945433.5006528,0.408130102962889,0.38128559499613646,10.331609603866042,-0.0037902318506176347,-0.03612641356631405,0.0551944952922757
1681945433.510645,1.435051499308691,0.45381615301381684,9.875943213687895,-0.004233844766583144,-0.02849585047105009,0.0655942354815896
1681945433.5206766,1.3928544350299012,0.39635624877302567,9.910751899831354,-0.007615789849321274,-0.022132188172329637,0.0738040376919205
1681945433.5306578,1.714095799736668,0.006520148549961932,9.64141622140637,-0.0066897050943140355,-0.008947765881710463,0.0787304062860902
1681945433.54067,1.9834626856006157,0.13288196759046228,9.567829238967024,-0.00664055051067439,0.010063313582515073,0.0786379743832047
1681945433.5506706,0.946437447114251,-0.23121349065605282,9.535693472861457,-0.007731568119451143,0.01962269430328694,0.068631032528251
1681945433.5607274,0.027943600358298223,-0.6695021630994128,9.6510800318708,-0.0057187159839076716,0.016982210155721426,0.0634071734267171
1681945433.5706482,-0.9208623199056596,-1.6492514196385724,9.55160474287317,0.010769239190161754,0.0006402812774624515,0.0558465701061184
1681945433.5807395,-0.29543362976452225,-0.4748860405141736,9.521660122632932,0.013937182218080105,-0.008809546182839134,0.0564244408625062
1681945433.5907533,0.3607357968412735,0.08487388284324117,9.60101107144164,0.01279759461809011,-0.008504830704970186,0.0550265145021374
1681945433.600652,0.8285801724387516,0.06634915653108038,9.787236916866446,0.011044177688987942,-0.0004004119475317183,0.0530413482802804
1681945433.61066,0.4484813188592282,0.4895404976980049,10.09618672950026,0.0032383270012001915,0.005339776006665678,0.0554883238392766
1681945433.6206915,-0.01022616387359676,-0.0637190348901489,10.134741534891278,0.010623246084809499,0.0027121211129889316,0.0605629515367444
1681945433.6306472,0.24799841022223346,0.27966538265601,9.93356837876642,0.012707864681909634,0.006160447197430405,0.0671777371781762
1681945433.6406188,0.3691392617688845,1.105653023144701,9.836322922175539,0.005008557501994824,0.008313584023178638,0.0758430902379449
1681945433.6506608,0.21704365205942522,0.9526932324926358,9.540410975393582,-0.004872538423712285,0.009441013186346511,0.0786195490973885
1681945433.6606586,0.00811364352829736,0.6116677923215054,9.439605147559083,-0.012407734859261384,0.007796689168827469,0.0817778800147469
1681945433.670764,-0.3435448384116903,-0.3821851815303721,9.591004514464716,-0.006535832730388223,0.00010974447234106199,0.0820448566692765
1681945433.680727,-0.8161913522072942,-0.3774809521330703,9.992804571276864,-0.0006682427606519008,-0.013075759915443408,0.070311309816211
1681945433.6906922,-0.13694471109192421,0.5020578135407832,10.33573449955435,-0.006188662795316044,-0.01651883593851369,0.0614807848351891
1681945433.7006657,0.014815523889268828,0.6302650568849973,10.594681552105456,-0.012265674470160122,-0.01648367135415362,0.0515100267249043
1681945433.7106876,-0.007197294223948095,-0.20967107874642982,10.512921333778973,-0.008052952084879883,-0.014278882502421831,0.0425076876300271
1681945433.720678,0.530612640011116,-0.6088972350002837,10.250217222847164,0.005045855875746369,-0.009523917474568882,0.0398258734959061
1681945433.7306347,0.39749083123564594,0.144320883345748,9.654508569519141,0.008917447146554855,-0.0030215108902513074,0.038151623727649
1681945433.740724,0.436842504989002,0.6422739921235333,9.300857236622527,0.007350477241182219,-0.0012230356961939227,0.0526374485808308
1681945433.750729,0.04150416556496142,1.369574799849773,9.133494280933801,-0.00511079487508075,-0.004890139642912233,0.0687388126271661
1681945433.760718,0.1609817443762543,0.7306114973735793,9.37530585410796,-0.013792780352491981,-0.011059289516082402,0.0817631353157456
1681945433.7707317,1.1471950782569398,-0.5578432084207271,9.523976493067497,-0.006704874610466478,-0.0062649939225656905,0.0967645589726861
1681945433.7807672,1.5049752759183495,-0.6841290963255561,9.662199686559957,0.006243960087703592,0.006409325071623425,0.0979194734710152
1681945433.7907677,1.5245852768165982,-0.171390690835711,9.873363755013374,0.006883070756881238,0.021551567329159187,0.0895088483112748
1681945433.8006704,0.4743708072036011,0.16981775377256003,9.922710106753888,0.0033341916940590015,0.026071340872320742,0.0788032059091027
1681945433.8107753,-0.8565824379252774,0.8190743074560051,10.319938126975666,-0.01288364627168778,0.010249260713632038,0.0665841196196969
1681945433.8206944,-0.7587972907282103,0.03767864761004278,10.160446655008283,-0.01647834040292606,-0.009603827585488117,0.0623617675620015
1681945433.8306968,0.13591851218394221,-0.895549174265263,9.577217532576705,-0.006331059215844628,-0.0156441176651968,0.0601067822891171
1681945433.840674,0.7162264256519075,-0.9819019694401346,9.389606046959692,0.01100751911902595,-0.0169520965166454,0.0629254710393841
1681945433.850633,1.4201229819940282,0.10951035148362696,9.281642940487616,0.015163717601730093,-0.00401534903070408,0.0677657146471436
1681945433.8606558,1.2019121633241308,1.4543743521994823,9.76318957393624,-0.00373804166171243,0.010099937162926658,0.0725217331665452
1681945433.870649,0.6354538142382756,0.8859786668016031,9.981222125311803,-0.017530092156951376,0.01596298409099498,0.0823575947898324
1681945433.8807366,-0.4343006281764213,-0.912408584873737,9.995592393778306,-0.012996122998075416,0.006727428708986245,0.0906863753217156
1681945433.8908165,-0.6691237415778397,-2.2931888031019194,9.62242262078911,0.013613692256336636,-0.005755582925558743,0.0891392101067002
1681945433.900717,0.25228560408959627,-0.8770423466333885,9.655489925098617,0.026448351057470676,-0.007844362910155101,0.084281170787185
1681945433.9106803,1.6162440056996312,0.44030663401634323,9.568413990499279,0.019532858710504693,0.012289375305828477,0.0742218364494736
1681945433.92092,1.5797850181271331,-0.018459400933862932,9.614121074832845,0.017588973450166582,0.03647278595542314,0.0580214839893277
1681945433.9306655,0.07770106683738713,0.40945600450915837,9.897152873525856,0.017602880357834885,0.04053403414578886,0.0511203278320725
1681945433.940765,-0.9852916198752063,1.0035633175499314,10.359199077725354,0.008444667683156711,0.028945753037473182,0.0457024928646977
1681945433.950894,-1.4919715389506036,1.0597255143058617,10.332516646564931,0.0004838640846403812,0.00473827354697218,0.0417745169716771
1681945433.9606276,-0.6759114515208083,1.2220827127892693,9.911162869297677,-0.006587746482311254,-0.006745807051692878,0.046484021516412
1681945433.970761,0.28897704926919837,1.1245179366967066,9.855366478367396,-0.013675711953504158,-0.01008930836206228,0.0569289047735627
1681945433.9807758,1.017923314838018,0.5127307058266046,9.282688988472378,-0.011357211002262134,-6.580306916066544e-05,0.0704795886295731
1681945433.990728,0.746614816807577,1.1778169131692138,9.588914520901092,-0.023251338598623036,0.006693878539777481,0.0788632724898751
1681945434.0007453,0.059423381730098146,-0.09743135192732084,9.817185670896576,-0.02824415139742972,0.004560512143237086,0.0821019206660683
1681945434.0107143,-0.44529161867438,-2.252010803046732,9.647987860205243,-0.008662587427929096,-0.0013053090239865785,0.0763861481564934
1681945434.0206947,-1.0301487551877664,-2.908023293565454,9.97335369587344,0.020048943667485535,-0.020702596076725206,0.0679490808862145
1681945434.0307114,0.5001681430947427,-0.8840421669180619,9.935293755074342,0.028588578497410498,-0.01686952537038869,0.0556971375363762
1681945434.040702,1.7503790053484098,0.29569803654590027,10.476418544294292,0.021120416097023677,0.002896128483159083,0.0471791197079117
1681945434.050692,1.7628432060874497,-0.6727638746865046,10.153772018017154,0.02770962092670997,0.02647672272712049,0.0471955072599347
1681945434.0607948,1.0240207417335703,-0.06841933595672381,9.680048975522727,0.03864804157866289,0.03779805425658915,0.0516098496037419
1681945434.070683,0.12146221824080955,1.7940196277308458,9.391059362181599,0.032355561568722754,0.036030350059398995,0.0714214090722497
1681945434.080741,-0.6125920915900929,3.1189732680334963,9.286902394247647,0.0035100551300909265,0.024342273923985074,0.0880751256364281
1681945434.0907822,-1.0454255459799386,2.2707202758805414,9.48940068557855,-0.025234853760597514,0.003601136804886603,0.1031464580911095
1681945434.100813,-0.548818544534986,-0.3287623297476093,9.570824896570471,-0.024105344500221896,-0.010905544348456928,0.1147188563364442
1681945434.1148343,0.20084124992901323,-1.0429663858173568,9.821483176417646,-0.005556540992304334,-0.01796403176141521,0.1099588890093262
1681945434.120684,1.3676893174154292,-1.422812482744851,9.913380220999585,0.00017128057800219081,-0.005708411950373505,0.0860946421044762
1681945434.1306849,1.609597365159198,-0.6180374994116024,10.101961548311154,0.0007354687974768289,0.01601193630869437,0.0581042860167916
1681945434.1407375,0.5178478797640554,-1.1113657415558247,10.289274661742018,0.007292909376345674,0.021247346309768093,0.0334284548180993
1681945434.1507664,0.06091596119350495,-0.8852965923889331,9.98351623287757,0.015376975472449891,0.021291098944377227,0.0201976448762114
1681945434.1607344,-0.5402412907157348,-0.21110630771391414,9.873242756854234,0.019138221597669935,0.01031460718462761,0.0162469484376605
1681945434.1707575,-0.39670394635149303,0.997823403935983,9.60145722227213,0.012014880225747268,-0.0007206264781778019,0.0239972938316758
1681945434.1808653,0.22452099385500895,1.5866277299975875,9.597383249297117,-0.001917326693751659,-0.006855517961781982,0.0448373724239762
1681945434.1906717,0.8894019192550106,1.0761170149379784,9.308956269530078,-0.005052240429519132,-0.003787113510029071,0.0676201004999573
1681945434.2007122,1.1490519213181976,0.19372781778963596,9.193099224768414,0.0029623912100683104,0.0054449523267646495,0.0819707233923371
1681945434.215103,1.2413090519404235,0.6451765628548328,9.411699100457113,0.006292062649340323,0.02141938873578594,0.0942818020003731
1681945434.2207055,1.5812716931612945,1.6786210674474922,9.647140923951628,-0.002756304018328093,0.03325748233956258,0.0996472780126031
1681945434.230698,0.4058518517301409,1.841220011553092,10.518711638443557,-0.023330393173871138,0.03694857948254949,0.0938158501404221
1681945434.2407365,-0.20639526366082647,1.1284628721599406,10.957728561598506,-0.04526505725701289,0.032112736841659426,0.0798373464959557
1681945434.2507012,-0.4556739484937152,-0.8444594159949224,10.356087193111282,-0.04512361619087748,0.02678212992193093,0.0626405831890996
1681945434.2607348,-1.0429710341919907,-1.8626935987560398,9.901448643528257,-0.027274428331263905,0.008697067285023981,0.0462122504132683
1681945434.2706814,0.1843014147499446,-1.472210505644412,8.962274769046664,-0.006478237686049023,0.00793351525816953,0.0450491700786049
1681945434.280783,0.47794877225435606,0.003150148039455684,8.777701176447415,-0.005213596103371612,0.015458359147769418,0.0542207491117413
1681945434.290809,-0.37713354253245346,0.05950014619972615,9.143007575938338,-0.0013311806026897674,0.010217556552406915,0.0679360498207505
1681945434.3006997,-0.8602504895507339,-0.7199316260647551,9.999743572827976,-0.0006784904175556436,-0.001090124499469385,0.078045362653106
1681945434.3107102,-1.5104473350168317,-1.2219581227230116,10.181541783881958,0.01879732747368931,-0.021174692399010923,0.0872643534558709
1681945434.3207035,-0.2592541157556023,-0.6436431616418258,10.562093612356618,0.02299601072130914,-0.02812688693031249,0.088728824676841
1681945434.3307438,0.9278721958811058,-0.851336480779018,10.118322384716643,0.030553469807705267,-0.015458451903149093,0.0865144078153069
1681945434.340701,1.418382114800525,-0.7528928005935087,9.773939892466235,0.039025902529288496,0.003716928230244815,0.0798006449359353
1681945434.3507988,1.0214170095851296,-0.11926352541215865,9.465740911624986,0.04133631517986693,0.01961797604399783,0.0764762182253297
1681945434.360746,0.2839105539430247,1.182938628318286,9.574805048109873,0.032807877233068765,0.024010972195176207,0.0719208065885003
1681945434.370847,-0.8048815076526243,1.9227832374899914,10.01140983881501,0.015050926718698489,0.012230380891323783,0.0644212011712487
1681945434.3808374,-1.1535048648790538,2.084693535159691,10.341677381442908,-0.005619285469809113,-0.00958654601931592,0.0595254954415257
1681945434.3908272,-0.18820733718450788,1.2764971917519072,10.071865977635705,-0.013744278201317357,-0.020812056547946826,0.0498684701043065
1681945434.4007316,0.9439202096096254,0.6594664559624096,9.741521730929264,-0.01497375809933055,-0.014498770294785707,0.0478671212213929
1681945434.4107375,1.135704813892975,0.583906457583525,9.793954507807237,-0.013906646322614114,-0.0066179945334424424,0.0493903253692086
1681945434.42072,1.2099259446417434,0.7890087086223381,9.773663254045463,-0.021107360804473275,0.004367915412130483,0.0475013386922772
1681945434.4307027,1.245053673200168,1.401136794413416,9.803411435999937,-0.04059870576019498,0.01780465238321416,0.0526373666244443
1681945434.440793,0.4086440268699438,-0.13237782539713003,9.756189026929478,-0.04890019624826446,0.01974849987072397,0.0617900919633801
1681945434.450787,-0.5534528613749405,-2.1664248497620484,9.625702906676352,-0.03053298901895927,0.009011677098975707,0.062354585202306
1681945434.4607563,-1.0042900321630697,-2.445022564396209,9.634178357005158,-0.0031787632401058296,-0.010302667929730664,0.0706367213743622
1681945434.4707963,-0.2535742424675803,-2.043544307294553,9.504751056454841,0.017567082883277775,-0.022202860884793233,0.0741127524989541
1681945434.4807785,1.00417281276218,-0.6976099062481658,9.60729202600092,0.024598425499474108,-0.01611212856158349,0.0718483645933564
1681945434.4908493,1.9978518107451089,0.7937577626130922,9.420778361398181,0.018237269156267,0.006214527939625973,0.077710518659919
1681945434.500711,1.3530229082482497,1.6203508951470418,9.912057141101393,-0.002007998815742457,0.024099653475935488,0.0810228083747323
1681945434.5107636,0.494393235996066,0.634891429765306,10.046877222229702,-0.0016174121717546133,0.02723754662453917,0.0898111109155114
1681945434.5207603,-0.14655310289374301,0.29352417157602745,9.88814605558656,0.0022013391574624633,0.023491369443534426,0.0947000030892785
