time,ax,ay,az,wx,wy,wz
1682026812.798967,1.650528527179301,-0.8523915859088689,9.70773935936516,-0.0008741368508930625,-0.0016539345780778487,-0.000904078026127
1682026812.8089292,1.7552934375923526,-1.0056931813872902,9.566393435778288,-0.00015814489730782492,-0.0013298241275698673,-0.0014256186679117
1682026812.8189828,1.8778449400130255,-0.8789424751625822,9.580975047116365,-3.0006769102613485e-05,6.790123253067547e-05,0.0007667173502855
1682026812.82896,1.7174331876108901,-1.025169119355879,9.581605952889824,0.0009631598951416449,-0.0002692369995001808,-0.0003620466578863
1682026812.839023,1.909421345402816,-0.7467179396120655,9.596214606401485,-0.00310115472117445,0.002613752980481987,-0.0003218081675581
1682026812.849054,1.568455397123568,-1.0736837795507197,9.655470334294874,0.00030900005344273193,-0.0017936234364198272,0.0003990250278152
1682026812.8590045,1.7075140707012297,-0.9435151127141159,9.625838626012555,-0.0005530157203545581,-0.002446678120814285,-0.0012617042649648
1682026812.868942,1.9155566279341698,-0.9381023896331147,9.54020775711064,0.0007456033934765932,-0.0004394840419380925,0.0014882997655663
1682026812.878962,1.7781068200304626,-0.8669834777460382,9.612825935409106,3.1831900343636025e-05,-0.0004640681953519281,0.0028469122351967
1682026812.889001,1.757041496342731,-1.0867747228297455,9.551728185384821,0.0013282418437560758,0.00047396613591196846,-0.0001228711463622
1682026812.8991003,1.776903652669337,-0.8460093290485483,9.617094675995737,-0.0006308919975609995,0.0006408434651670908,-5.2854548033301e-05
1682026812.909076,1.7102112022252662,-0.9033195489949747,9.649702215363746,-0.001184846614370716,-0.0007717850591845,0.0001568822061531
1682026812.9190583,1.7274848290430609,-1.0783125616460987,9.582295630073249,0.0010224013883011341,-0.001214714588727888,-0.0014885739784799
1682026812.9291098,1.7774420586587378,-0.8568660256554974,9.614643632902618,0.0003246473292294856,-0.0014020999974857973,0.0003446302015222
1682026812.939103,1.8809576527225427,-0.9069514761002596,9.538539202879232,1.3560079808280999e-05,0.0009724081190363129,0.0011057237733043
1682026812.949158,1.507818514093992,-0.9921690950032325,9.71345152665682,-5.9408627766221294e-05,-0.003659245851932612,-0.0011298268929235
1682026812.9589882,2.029732424417324,-0.882663674811573,9.481616137937108,-0.0003816890007961356,0.0010711144574315345,0.0006940531182922
1682026812.9689732,1.5861851525504775,-0.984553528758271,9.674660726354348,9.554434364002862e-05,-0.0025137425391108556,-0.0007211651083193
1682026812.9790168,1.8904254137285659,-0.9360892521807308,9.555750355402838,0.0001685346550575137,7.459890001225566e-05,-0.0004507262621186
1682026812.9890711,1.6786616050723353,-0.8438395469012006,9.661731714262954,-0.0011833632266834559,-0.0011919894772206769,-0.0002394876338653
1682026812.999031,1.8170732807223344,-1.0867794423421537,9.516448520925739,0.0016158154362729779,-0.000331068800147316,-0.0002845787804685
1682026813.009051,1.8170963462789054,-0.7558637921828864,9.643859647344744,-0.0014992747636100908,-0.00019660095504800236,0.0016410531114675
1682026813.0190268,1.7315653584723327,-1.1716766464125796,9.532589242383953,0.0017536706316525126,0.0007608127551628677,-0.0018588617805503
1682026813.029018,1.8176784529228556,-0.6106763047499125,9.643105610237049,-0.0022726426091276043,0.0010409320270616334,0.002615206105344
1682026813.0390706,1.6752117829749753,-1.190682218309385,9.595263758509486,0.0006483827303295419,-0.00021410086081975844,-0.0008731474064402
1682026813.057433,1.8270927334729659,-0.9893580864048607,9.553398002491866,0.0016556789969944235,0.0021529355517137675,-0.0018734253373108
1682026813.0590649,1.5082064434647193,0.25989217148957977,10.12398154323419,-0.0019030498448907654,0.0010115183484431167,-0.0008239803265891
1682026813.0689569,1.7729073568111278,-0.8678758133455543,9.631297459120132,-0.001676955511769105,-8.670710896464145e-05,0.0019617927335789
1682026813.0789802,1.881352376860328,-1.001926744897281,9.529001495637342,-0.0007858933425661124,0.0023645418598807724,0.0012968452518694
1682026813.0889635,1.7081716601770878,-1.0482942705904095,9.607408701749181,0.001150176419841735,0.0015419814790932373,0.0003356831019632
1682026813.0989983,1.608446862123649,-0.862315797188918,9.687272116146135,0.0002073013108745963,-0.002252216895538887,0.0010464856621697
1682026813.108956,1.9874073504235221,-0.9641391441113608,9.530449835611721,-0.001054835175150229,0.002219260878175759,-0.0008433453168831
1682026813.1190784,1.6988600373598295,-0.8757548144418834,9.586780541544849,0.0003045144394010767,0.0012830950752042258,0.0022005547524318
1682026813.128993,1.596159403701434,-0.9634924224000424,9.717890234940004,-0.0009520044164389946,-0.001766441432999522,-0.0009715083416662
1682026813.139033,1.880665944209448,-1.0675765432752335,9.513349272240971,0.00202188887967609,-0.00043277769379972933,0.0006583108205236
1682026813.149371,1.763617924796156,-0.7985708391578212,9.635533291746325,-0.0017134605712374475,0.00039907996231272196,-0.0007118551422022
1682026813.1595368,1.7253598247098063,-1.050198200270037,9.573553069391123,0.0002475150804171809,4.4420765716603715e-05,-0.0012166431535146
1682026813.1698592,1.7041950634701353,-0.9206471022956169,9.637691359774486,-0.001153538024798221,-0.0008973257457637881,-0.0029813008278719
1682026813.1791945,1.8352458732043468,-1.0791210982023078,9.529780980623936,0.0022420524419576094,-0.00019585446735911343,-0.0014323297783843
1682026813.189036,1.7126472485842428,-0.7934549655262166,9.657537529135658,5.6062120976905556e-05,-0.0012541998168472438,-0.0005088214658312
1682026813.1991186,1.848034848340236,-0.8536364971224208,9.588593974521707,-0.0015730045462297245,0.0003961026639236858,-0.0002804690867773
1682026813.2090175,1.700258578073519,-0.9377711949570428,9.657880037112628,-0.0007467461932858996,-0.0015652703518710877,0.0006992848228551
1682026813.2191389,1.823777229783262,-1.0178929028775183,9.545347450902213,-0.00030233931846955264,0.0005849777882194299,-0.0020015492465458
1682026813.2290494,1.7624265009886169,-1.0104148792443925,9.55087082883049,0.0010641177231695792,0.0009530361376042845,-0.0019944637443981
1682026813.2391126,1.630071514065208,-0.743583176014419,9.738729224497561,-0.0023329721867597387,-0.002726443850912382,-9.643683565032876e-05
1682026813.2490184,1.9697665488031493,-1.0849253837741306,9.422099942643928,0.0003212812619595358,0.002164500899791498,-0.0008310588438175
1682026813.259016,1.6010935829928659,-0.7916320885710213,9.732210781740172,-0.0010850021732594038,-0.002061852977395352,0.0017431079646544
1682026813.2689853,1.9128518710667997,-0.9862857886637165,9.493881655464543,-0.0009252007835472584,0.0019968469558533744,-0.0004175648920349
1682026813.2789822,1.6507685667683736,-1.1217474940009575,9.592968598929675,0.003419985798982859,-0.0007438257120290093,0.0005685479717217
1682026813.2890148,1.8428922353274388,-0.7555879127103258,9.620692862005097,-0.00019092003441607301,0.0010077920134993936,0.0003744581352807
1682026813.2989836,1.6116967477353954,-1.079710312198621,9.634040135759495,0.0024078220150553493,-0.0021169712386495303,7.528018782662952e-05
1682026813.309054,1.8815830967186238,-0.8933408701578024,9.548830300914267,0.0012447877773290495,0.0006043522390588686,-0.0001813680993504
1682026813.3190389,1.7343837925576395,-0.9298595034430575,9.601489737335978,0.0018672873807345806,-0.00022378873622765313,0.0010621301934011
1682026813.3290188,1.7670977579087073,-0.9369388533636348,9.615326911465141,0.00023450643432712556,0.0005015133851585463,-0.0014923029940686
1682026813.3390238,1.754318931220986,-0.958711035041793,9.573142186568084,0.002099001490267532,-9.414697122869976e-05,0.0005841782420762
1682026813.3490047,1.9621248528422144,-0.8742138012558782,9.52607878475084,0.00017000708731657046,0.004281956901008948,-9.269699343663848e-05
1682026813.3590012,1.5994766201565322,-0.9420860455905532,9.702835052584904,0.00046543560341235875,0.0004814283968136617,-0.0005047115393094
1682026813.3689983,1.775596911756013,-0.9293515348310019,9.544164569188558,0.000284417496993591,0.0017841346926572486,-0.000233163720753
1682026813.3790786,1.7026274850894425,-0.877820200123562,9.694127488283307,-0.0011546571290727092,0.00014055048938532233,-0.0005229780346266
1682026813.389008,1.6863347323650484,-1.0530896182933513,9.607547775100828,0.00044907585165894617,-0.001308613099809611,-0.001854773740109
1682026813.3989663,1.8145664419294125,-0.7756286006655286,9.602192318482475,-0.00108797823586017,-0.0009241457992988958,0.0010330699022747
1682026813.4089808,1.7551554465847952,-1.0303868890102057,9.574591776981046,0.0009303726745190993,-0.0009237641891033193,0.0014313043082952
1682026813.419037,1.716885481787784,-1.0052941949408503,9.6138507912344,0.00024455750709048284,-0.0009487533936524357,-0.0023398072354607
1682026813.4289873,1.7806318893268331,-0.7656196368617751,9.635086445260423,-0.002790821463775791,-0.0007810971914243016,-0.0010568114359043
1682026813.434162,1.7663639245975502,-1.1554264481071777,9.528132137684034,0.0005876537763906877,-0.0014099257270380012,0.0007141861004643
1682026813.4481025,1.7866876203019904,-0.9614610920654518,9.568746884020186,0.001365857821286799,-0.000613443906919686,0.00066911264899
1682026813.458039,1.9019670547691439,-0.9648010032919011,9.52393874608342,0.0010376546010606742,0.00255379749958825,-0.0006935856200866
1682026813.468242,1.6060273377736733,-1.00272406668153,9.659258033150538,0.0028347622731262796,-0.0010154395776179408,0.000210906598892
1682026813.4780214,1.6741133322629072,-0.8020203688833082,9.696593560919785,-0.00014994471154055326,-0.002824039266889099,-0.0002908964071534
1682026813.4880197,1.8888206171996664,-0.9224068247212822,9.524226507537824,2.8097533670656158e-05,-0.00029009982587499284,0.0007413747824616
1682026813.498122,1.8045212224666756,-1.0241328624527684,9.548506840962272,0.0018136323254208378,0.0007157357375118476,0.0003498458407707
1682026813.5080538,1.6904496426579108,-0.8264171778313452,9.676457276717514,-0.000901713006783938,-0.0004748870529788033,-0.0006023344013951
1682026813.5181725,1.8288279037814446,-0.8888201559467171,9.577632477620304,-0.0012929016925250496,0.000552180032191809,0.0007823550712205
1682026813.5280192,1.7341652089396127,-0.8975990150844333,9.637649280279991,-0.0022152736029123297,-0.0001440641546132294,0.0007950463203601
1682026813.5381444,1.855106240295493,-1.0271722517793358,9.512954911518671,-0.0011773985235884945,0.0024368147124060745,-0.0004391496896855
1682026813.5480497,1.6178467885772567,-1.1988514838104083,9.587122072561456,0.0032795440545590375,1.9465408357017845e-05,-0.0021133198298625
1682026813.5581193,1.7089049606965743,-0.6262049216810394,9.734266535046183,-0.0021426089900856374,-0.001823061205085966,-0.0001079894265271
1682026813.5680285,1.8620473417951613,-0.9937851962612053,9.519221131345764,-0.0015990944275932552,0.0008073669602322909,-0.0011149264302216
1682026813.5780067,1.7992569236115015,-1.1324001943397246,9.51871310954358,0.0030578924400087317,0.001286070040923996,-0.0001511953434087
1682026813.5880575,1.7145855337002858,-0.7714101283679853,9.686112732608557,-0.0008514322768509103,0.00030409037396947103,-0.0007919402688853
1682026813.598049,1.6544720170004292,-0.9601097094691142,9.658866252228274,-0.00018460287941275086,-0.0021486426852411816,-0.0001474770380295
1682026813.6080527,1.962641838330027,-0.7522890697724891,9.556440858396256,-0.003366018823079121,0.001442888414556387,0.0010081027156561
1682026813.6180258,1.6345796861911246,-0.9891918162823217,9.64947040760198,-0.0033641402995680187,-0.00032923590073352156,-0.0009495298273972
1682026813.628152,1.7102479909956825,-1.0915390073593072,9.581179474557867,2.5503391263242156e-05,-0.001671435845618846,-0.0007759315323196
1682026813.638056,1.8201436470270194,-0.9800642308686284,9.560666604507183,0.0013241534108749773,-0.0008697536525928863,0.0001688100036122
1682026813.648161,1.6468701236309597,-0.9465818371223265,9.663726667236105,0.00046396799326894276,-0.002735397847624099,-0.001652124932792
1682026813.6581392,1.9194480924990582,-1.0507937832410117,9.47780911110695,0.0029401895376361957,0.00024337610803750446,-0.0014531583421043
1682026813.6680186,1.780293258750775,-0.7409487798209257,9.663417504381995,-0.0005232283982836933,6.939329947119558e-05,0.000144971405331
1682026813.6780064,1.6968336409630862,-0.9266792672875294,9.62349045480493,-0.0014046319228301573,-0.0008135087773320981,-0.0012855500809959
1682026813.6881728,1.7910507873567547,-0.9493477671687394,9.574804912578378,0.0003466151843927179,-0.0008071660144591264,0.0005681483179219
1682026813.6985605,1.7619082681846747,-0.905176015565338,9.612700215278645,-0.0003649001936832137,-0.0006291005396611444,0.0004008962876983
1682026813.7086637,1.7220804918200063,-0.9321834812462172,9.596288761303866,-0.000493805083906027,-0.0011961053737645417,0.0005450449988134
1682026813.718058,1.76797905487669,-0.9758661327283926,9.588109937466283,0.00040959245204062603,-0.0013603723879894393,0.0014536662073228
1682026813.7293725,1.6363971205807266,-0.9863789108990331,9.647614500653418,-0.0002970752505491565,-0.0031220732421548447,-0.0018525353063009
1682026813.7380486,2.01443986001289,-0.9665637866985781,9.447860058089145,0.0015908642163497176,0.0007809321503821966,0.000556994682353
1682026813.748113,1.772455158770353,-0.8612418493578696,9.624335603095219,0.0003917140727595355,0.0006624540266284978,0.0011489183978997
1682026813.758108,1.7984593798643371,-0.9585499425979649,9.588126602337958,0.0009638834429807126,0.001036860025613417,0.0010758928709551
1682026813.768051,1.7141420281453545,-0.9358272209157056,9.636402984181723,0.0006327245697560689,-5.725558701007358e-05,0.0005067012842633
1682026813.77803,1.8390943709004082,-0.8869607075192437,9.577502147024099,0.0001793553614010197,0.0010327508112436925,0.0016850058035347
1682026813.7880352,1.727496143273466,-1.0181182389766852,9.595613045937695,0.000674433918968749,0.0011456132870309972,-0.0010002161271981
1682026813.7980826,1.6834601818881822,-0.8968113083581961,9.668847765147317,-0.0006834280131718774,-0.00017349570384741106,-0.0020194332011155
1682026813.808034,1.9048731217699082,-0.8781632811552162,9.533488639985466,-0.0010697140140458466,0.002383904700047304,-6.655942473534704e-06
1682026813.8181014,1.5611274396797659,-0.964189697381768,9.695920324406684,-0.0006018358424191234,-0.0018256723430551765,0.000212387168955
1682026813.8280418,1.646234998482066,-0.9651172909770716,9.63984996749503,-0.0006040550407388673,-0.0035687320561735556,-0.0010769310303143
1682026813.8381004,2.0444413106785846,-0.8834014786132934,9.471881565891021,-0.0015238419392723797,0.002037832873814258,-0.0006556030258647
1682026813.8481135,1.6606156489608177,-1.0246979058594232,9.624090112208263,0.0017275858814621583,-0.0008932079410903827,0.001415283813782
1682026813.8581066,1.805084904912311,-0.7619015665488358,9.622961476447422,-0.0027531949674778483,0.0005726650209834515,4.735250136631334e-05
1682026813.868038,1.7591286780626063,-1.044872789199032,9.56931699842609,-0.0006230614441572451,0.0002485694861941863,0.0004671900404505
1682026813.8781002,1.7282017470586406,-0.9243147389247944,9.623553882976516,-0.0012049649533906112,-0.0002029429464649162,-0.0005185179308168
1682026813.8880606,1.724110496268881,-1.107497112414682,9.563366340383626,0.0015856748504245043,-0.000696907987091455,-0.0013935692969821
1682026813.898093,1.7099130842484482,-0.9082117818544485,9.64573551145312,0.0008447018144024015,-0.001665847162442252,-0.0019125157397351
1682026813.90803,1.7870334276602309,-0.7133540151994225,9.658552603463198,-0.0026704920624521927,-0.001908002367889998,0.0004221296274923
1682026813.9180603,1.9250404184071672,-1.085266041367362,9.44627557995637,0.0016348302141281773,0.000910562357719176,0.0027370061596744
1682026813.9280736,1.5913627121290985,-0.7309613778811827,9.78193189197037,-0.0033283688215720456,-0.002463828165471008,0.0013821212213374
1682026813.9380546,1.760756185131341,-1.1682838606187438,9.501662992309857,0.0005310242152472425,-0.0018387111998944363,-0.0002033559268451
1682026813.948663,1.8798197190467294,-0.8754511571742122,9.544437749728264,-0.0007035440882120852,0.0009899092597727736,0.0002734878670312
1682026813.9582102,1.8355971661295385,-0.9810137928240565,9.54072686414683,-0.0001324820212820636,0.0025340377830889824,0.0001356288429238
1682026813.9680765,1.5395356504303594,-1.0940761375262726,9.678328715129838,0.0024275984042023404,-0.0021121120179139886,-0.0006615413714311
1682026813.9780338,1.9139444752379127,-0.7118988889230676,9.588038220347377,-0.0016788032679934282,0.0007295153992295515,0.0009768265752941
1682026813.988078,1.8064909808543999,-0.9462078397191903,9.561723061704248,-0.0014374072071049713,0.0018318243168402558,0.0006009355291612
1682026813.998018,1.6998792738328776,-1.0697074959034623,9.57549092684076,0.00023375857713635784,0.0012931350104629273,-0.0015221083432547
1682026814.0080657,1.6298485955389388,-0.8767673488341918,9.702444886613877,-0.0004569242045693712,-0.0020007497959313495,-4.9128792073551775e-05
1682026814.0180936,1.8290704198118517,-1.016372896368062,9.543148868838145,0.001541326560029516,-0.0009200458923177115,0.0007574008649103
1682026814.0280929,1.8395873489309191,-0.8470005408048903,9.588589880243179,-0.00028854935651257584,0.0008099811678886244,0.0005443218268342
1682026814.038086,1.6294158768216147,-0.9953617466018108,9.66559351063573,0.0014314349403313515,-0.0023315733754515617,0.0012226879933737
1682026814.0480556,1.8809890944270586,-1.1501423843202796,9.45947514419297,0.0037530146353816117,0.0015408861656911559,-0.0023185814626626
1682026814.0581267,1.7416704842997697,-0.5732382957070575,9.729085668619811,-0.001935494481931819,-0.00018132900444904076,0.0015467912470344
1682026814.072312,1.7406825571980418,-1.0776793087156218,9.559363850910326,0.0009430356633056961,0.00020611208465953662,-0.0005110678158811
1682026814.0781393,1.8213447589066527,-0.6659375009662786,9.66434161597578,-0.0029156107221744885,0.001261856799393889,-0.001522104850795
1682026814.0891366,1.6235420207400773,-1.0737057773125604,9.63830346020094,0.0010428908483161778,-0.0025800358152624735,-0.000143363968294
1682026814.0981002,1.7788091757581794,-0.9922371607042568,9.567965875371275,0.0005630615132196096,-0.0012374206952970724,-0.0027488441102318
1682026814.1081035,1.8940678501236312,-0.8324962544077673,9.56231190076176,-6.240419474233033e-05,0.000540267490746468,0.0003155924949683
1682026814.1183658,1.7534868012151286,-0.8222106645390749,9.634186385021746,-0.0017794069756637647,-7.031226180988992e-05,0.0017401151370509
1682026814.1280658,1.815427891310059,-1.0561792459639086,9.530504922308612,-0.00020882702520075893,0.0015289596130769205,8.014157525080049e-05
1682026814.1454098,1.7105965005843509,-0.988366740664598,9.60213865728522,0.0026186790818258435,-0.0007311696511800906,0.001578069351905
1682026814.1480403,1.7351057991286263,-0.711537233136616,9.681543659008328,-0.0002606185215672726,0.00019380239415403352,-0.001483001177024
1682026814.158758,1.8021659533230958,-0.8398324147045029,9.632369240509844,-0.0017302336005439326,0.00012377491115001327,8.275381865727508e-05
1682026814.168064,1.7596743675138287,-1.0078618390328424,9.581664893318496,-0.0012779864028308408,0.0006788399419190154,-0.001535520785313
1682026814.1781206,1.7275051610114902,-1.0742447332436744,9.56950801622968,0.0027021201092697496,-0.0005981544471951637,0.0004619911650084
1682026814.1882014,1.7698723705797,-0.8434357156414348,9.638199451856341,-0.00032358428301581,3.02682693931172e-05,-0.0011983943533263
1682026814.1980913,1.7462546078675711,-0.9296846059138958,9.618535978413313,-0.0005917961385012321,-0.00047225466223665556,-0.0013090175472311
1682026814.2080607,1.9112629948620632,-0.9413911628432002,9.51825958265411,0.0006297427782924867,0.0017148489347475467,0.0011098001140058
1682026814.218114,1.639750849767102,-0.8906144935630373,9.665908711478922,-0.0002773594081974805,-0.000502816109459165,0.0011861783440113
1682026814.2281418,1.5845525954201256,-1.0981094076124283,9.650609476703265,0.0022413001732803643,-0.003971438049504918,-0.00062394248211
1682026814.242199,1.8819122577251066,-0.8921484428530697,9.562121571337642,0.0013841228804294132,-0.001212867281863222,0.0005260540509484
1682026814.2488508,1.8304294301067288,-0.8303022667849149,9.605214824935807,-0.0010872362789475917,0.0004337084302101342,-0.0012404875725619
1682026814.2596538,1.6529858320347537,-0.8441306148118402,9.700394190073549,-0.0026812807342286755,-0.0026105991899380812,-0.0006183496572188
1682026814.2680798,1.783968751352719,-1.3170079138278852,9.44596512019604,0.0021932642177805895,-0.0010884277494948896,-0.0038645657606534
1682026814.2780774,1.8794708744431454,-0.6298468827868019,9.641438743618322,-0.0021854677280585665,0.0002720314094602009,-0.0008895561460517
1682026814.2880783,1.6855460772683397,-0.9192911133073545,9.636474510103842,-0.0020524697736454753,-0.0016025394962921847,0.0005398448428027
1682026814.2980852,1.7966895467539543,-1.2169481375110633,9.4890827329776,0.0011706719788681615,0.00033502938628999406,-0.0034510459646694
1682026814.308123,1.8169643212016633,-0.6939713497811264,9.652534703197311,-0.002037192478099563,0.0003729890326556462,0.0003766456955932
1682026814.3181052,1.8114065026502666,-0.9687870845530531,9.549728015131285,-0.0007717244285685219,0.0012000121920550581,0.0009865072660036
1682026814.3281147,1.7728123389360033,-0.9445404541125544,9.595060528567341,0.0006330978647666154,0.0006192454906513124,0.0029359386406727
1682026814.33815,1.7311265103294218,-0.9958074681032677,9.612099797591217,0.000535118205492612,0.0004378177723516498,0.0009194436587281
1682026814.34805,1.78127961030452,-0.8511560826938179,9.665249037693844,-0.0006789448992692046,-0.00032288448953279175,0.0019081389344651
1682026814.35808,1.8324723250049613,-0.8590864629626058,9.626318205451419,-0.0032103094719812186,0.0011295937762885286,-0.0003072634700797
1682026814.3680947,1.6963795398279957,-1.0997754784906828,9.48580154578115,0.0008845567442813917,0.0008680985766565046,0.0006247907748334
1682026814.378204,1.6342926107105735,-1.0024632469805281,9.637528474649727,0.00042934648794966683,-0.0006968861426337954,-0.0016487556405476
1682026814.388375,1.8473981839701699,-0.7994234797192685,9.648371863794683,-0.0011814885953461791,-0.0009215505678368222,0.0015121325576333
1682026814.398216,1.7349370884907156,-1.0428478581141265,9.566167743645916,-1.1741683895869331e-05,-0.0008045696231459452,-0.0002569944027922
1682026814.4080875,1.7177366510364926,-1.004167699661182,9.576622923078563,0.000955706951960091,-0.0005195446295365161,-0.0018853034254275
1682026814.418154,1.8335204826870455,-0.9864888265013032,9.586633592339608,0.002312084967692081,-5.6141925490091305e-05,-0.0002439591463766
1682026814.4280982,1.683866801372216,-0.7397095578298438,9.667490626439035,-0.002485722699974166,-0.0011945866665187916,-0.0019288993336371
1682026814.43845,1.9213022991377016,-1.086524850210371,9.535126607183047,0.0013517088064663437,0.000926943803349256,0.0007201392307766
1682026814.4481058,1.6266595820081238,-0.74369305418929,9.691814028456502,-0.0019060675251460293,-0.0005162406732673477,-0.0003173538845143
1682026814.4580874,1.8625946343471502,-0.9632507712027393,9.533453143528167,-0.00044500709281645377,0.00027130191290927573,0.0019088687566695
1682026814.4680877,1.774755462823483,-0.9958368360126763,9.593043820876899,-0.00035672014674426955,0.0004866164758578728,0.0010811072878428
1682026814.4781358,1.6586184021060861,-1.0661890362678728,9.583375135257349,0.000916972619322495,-0.00063431871452645,-0.0014394027076773
1682026814.4881086,1.8176450710801353,-0.9670433936929917,9.611466281296822,0.0023396501415456077,-1.4044209325510228e-05,0.0007797588931285
1682026814.498347,1.6965621155740722,-0.7153872112593852,9.63810646030792,-0.0017719583071275225,-5.169009791871158e-05,-0.0016852741956822
1682026814.5081296,1.8896415108364344,-0.8948038759689291,9.620220913324449,-0.0021757677098274506,0.0003368661547240985,0.0021685305272117
1682026814.518138,1.6046925461911767,-1.1695242280360105,9.541113243060007,0.001390798117152223,-0.0010306642469740408,-0.000698835252609
1682026814.5281248,1.7453810520750128,-0.9251219115827934,9.679176194555778,0.0002870328717663996,-0.001764942004490515,-0.000967403304588
1682026814.5381413,1.8587494666762259,-0.7962412298363561,9.544170752418882,-0.0012913955615302495,-0.00017461711612459606,0.0003304894652106
1682026814.5481608,1.855833513384438,-0.9485501888916353,9.588941378991464,-0.0014795224459180712,0.0013337463729195345,0.0001281819876171
1682026814.5583029,1.7379104938312389,-1.134685600845919,9.504343237715593,0.0026246300217282153,0.0015420210147767662,-0.0001280772395543
1682026814.568071,1.667963981459343,-0.8453282365921719,9.721544464822479,0.0004203890968778617,-0.0009424129486408013,-0.0003605646908394
1682026814.578113,1.849639536192811,-0.918467891755606,9.554305687917111,0.000637933023030562,0.0010275417439769765,-7.631316670400298e-05
1682026814.58813,1.837468702446592,-1.0357266896460626,9.51022995624596,0.002749802923594265,0.0025493088771663475,-0.0002521899424604
1682026814.5980904,1.5233166243570628,-0.9149933528615899,9.747721087261484,0.0016571772888577213,-0.002156461824309553,-0.0009931245714537
1682026814.6081188,1.8259583069364844,-0.8727708689380043,9.59316443825204,0.001363269024559014,-0.0016841318976765602,0.0011727984400354
1682026814.6182728,1.8777575020810988,-0.9624404069713125,9.515939193957491,0.0012097475205222227,0.0012849675730513973,-5.434128810835278e-05
1682026814.628194,1.6845637880290305,-0.9375981742728322,9.633157128509085,0.0005801870786443198,0.00018895988527407542,-0.0008452379971854
1682026814.6387825,1.7654094780827385,-0.9575482462916536,9.607431777147639,0.0010611357495974223,2.9902441640582414e-05,-0.0010255285434536
1682026814.6482437,1.7699559740519715,-1.0051762540864428,9.570176209493804,0.002851125860229332,0.00011893394626230101,-0.0002752767305932
1682026814.6581745,1.7241984633628054,-0.873667498341303,9.642983248579943,0.0012190772469076675,-0.0006339189575567922,-0.0008321850456408
1682026814.6681678,1.754386514882453,-0.8370420340608979,9.650729815012749,-0.0005813446076361849,-0.0009423976788716352,-0.0006328778237215
1682026814.6781216,1.911462726494587,-0.9442324914608166,9.533098307764236,0.0007489462330549268,0.0011936827681224824,0.0018768719618097
1682026814.6881206,1.6045563375973693,-0.9695781168474674,9.668456677440618,-0.0005884274428021013,-0.000806801554584297,-0.0021770162403695
1682026814.698248,1.807951823435763,-1.0018630979085528,9.569085668738936,0.0016951884683782047,-0.0007326694356147622,-0.0006775796774886
1682026814.725372,1.7458406357632257,-0.8848261117712521,9.612766142748503,-0.0018069809436415763,-0.0007028702365358635,-0.0006559743907414
1682026814.7262795,2.1832840461087204,-0.6002963568262705,9.481723591738666,-0.0014247465028928588,-0.0005534824037212269,0.0013288670905754
1682026814.7280953,2.2850750956416572,-1.8754600887220771,8.998597058404007,0.0016172946170224358,0.0017718429089363268,0.0003248508890979
1682026814.7381496,1.6119875303523676,-0.8865027547164068,9.679888026672524,-0.0003090108377868631,-0.0005374778077852975,-0.0011328206293396
1682026814.7494063,1.851438008407923,-0.9035467674801615,9.55763401739173,-0.0008533071103674825,0.0014369364804301206,-0.0010072790447734
1682026814.758218,1.706387285620031,-0.8781965595140264,9.646808468437607,-0.0017600196372106187,0.00023813402652329304,-0.0005844602257124
1682026814.7681398,1.8370106480662838,-0.9420397741640488,9.563581464297545,-0.0012891669804987787,0.0013996766000859866,-0.0002424762480072
1682026814.778108,1.6756352652164308,-0.978553882588901,9.635947394778311,-0.0016344733027373417,0.00031265366981862713,-0.0025353877700976
1682026814.7881074,1.7255967310344125,-0.9713955037003891,9.61607306319415,-2.5171340526183325e-05,-0.001205020961778255,-0.0005565121665708
1682026814.798113,1.828981875437291,-0.8930589161098832,9.575644940125246,-0.0009002314630744413,0.00016996838502977634,-0.0004786542978249
1682026814.808112,1.8410751465689101,-0.9518465831995383,9.565794174991098,0.0001197556328290962,0.0011981498170524434,0.0011608521907478
1682026814.8181937,1.7156498292735438,-0.8663003995929459,9.644470477912353,-0.002180246224472245,0.0006065785574334074,1.4585429977651476e-05
1682026814.8281846,1.8225854039415146,-1.0221829475820299,9.534666255789954,2.5122211808006444e-05,0.001720072282806901,0.0006925962969549
1682026814.8382075,1.7405463730092,-0.9232810984188682,9.624498948054876,-0.0009386052858468019,0.0015945176635238075,-0.0002834521129838
1682026814.8483136,1.714067986438455,-0.9281459404264281,9.622772698423537,-0.001740271786728927,0.00101710671583703,-0.0012069404021016
1682026814.8581164,1.6762359140694962,-1.06904864702178,9.603245341874569,0.0013263541260186704,-0.001045199452988709,-0.0002018889773748
1682026814.8681085,1.742050573021363,-0.8682804473315462,9.628418894258346,0.0005384794827641681,-0.001981745025345418,0.0012629290157351
1682026814.8781767,1.85149103246835,-0.9800797985057689,9.5515982944769,0.0013859721828322926,-0.00022080105005283917,0.0003904555795602
1682026814.8881695,1.8360153564871968,-0.855568706659321,9.600207038560171,-5.8035794935576965e-06,0.0009534060603325374,0.0008028645405434
1682026814.8982005,1.6692774127020336,-0.9076820612058091,9.649198956524314,-0.00035930858278300824,-0.001092898934152836,0.0018589628033228
1682026814.9081829,1.7391434926769553,-1.0734095734200517,9.565042976310398,0.0015197169824852405,-0.0008824193534928333,-0.000249176182609
1682026814.9182358,1.7843426885538263,-0.8229968195154337,9.635536454083512,-0.0012343850524468743,-0.00039590537858357014,-0.0005058440275601
1682026814.9281187,1.8021742213080745,-1.034440475447661,9.541603287441058,0.0011151501549748772,0.0004594327473383869,-3.831753396612799e-05
1682026814.938226,1.8232851190657258,-0.958529538585209,9.560145925518217,0.002284154213208359,0.0014071327046906608,0.001195107806649
1682026814.9481244,1.6666123801280706,-0.7749906469458713,9.71294339073907,-0.0015774931880699354,-0.0006287292492952364,0.000717918724928
1682026814.9581463,1.7278875553090545,-0.9075913681246965,9.608659183585983,-0.0017402818249632008,-0.0014296698894093217,0.0015497690199995
1682026814.9681802,1.706219385903906,-1.1691204059001405,9.572359682550939,0.001999170208943232,-0.0021921925189116566,-0.0003590682882927
1682026814.9781506,1.8518710151359632,-0.781256893471904,9.599380660002263,-0.0007683543607849343,-0.0005948259127186837,0.0005282993532605
1682026814.9880986,1.7336048856425201,-0.9816857050644962,9.606167011007706,-0.00013433454695358456,-0.0010601127557390152,-0.0002510427858791
1682026814.9981835,1.6069708924657204,-0.8654248026014653,9.723213793978285,-0.0020371745505317106,-0.004408789403467617,-0.0008221274603269
1682026815.0081823,2.089044860671307,-1.0731387403037926,9.382434563591511,0.0015342583565494045,0.0018616126387289696,0.0010472111042477
1682026815.0184026,1.6678013927835265,-0.8920353761937501,9.652816869555448,0.0006457536164573033,0.00017706055072482904,0.0008978465792611
1682026815.0281518,1.715697801807109,-1.0079261904499497,9.624375746911632,0.0009542153525122838,-0.0002237805653519678,-0.0017698343273363
1682026815.0382507,1.9229996140689025,-0.8337477015746899,9.554969398333442,-0.00033919452572374873,0.0025951278045022053,0.0002500023564212
1682026815.0482874,1.6269188377869583,-1.0203591156668539,9.618712446578408,-1.845275451868607e-05,0.0010010545851600835,-0.00187937555724
1682026815.058222,1.7979310913880624,-0.8605076040906926,9.611820120929037,-2.6663181961175286e-05,0.0006296745527518695,0.0014540333812479
1682026815.068255,1.751041688532974,-0.8571347735943637,9.644999479312288,-0.002115789388047877,0.0006061885043166093,2.834001666682565e-05
1682026815.0782273,1.7158490043023118,-1.032285952982572,9.582173119051483,-0.0006309107433761,0.0001703425600489906,-0.0005725325446687
1682026815.0881956,1.7179699845859202,-0.9562633056099695,9.60781311564062,-0.0006692551239420234,-0.0002915725839541926,-0.0015593503031991
1682026815.098146,1.7222352115164918,-0.9457254343280446,9.609683943510584,-2.7413075117552098e-05,-0.001255318382145376,-0.0001601512905321
1682026815.1081934,1.7953634593548717,-0.9632096738504896,9.576801802202722,8.957209697722e-05,-0.00017945190520862953,-0.0011573961366079
1682026815.118192,1.8317429548585304,-0.8319713811502717,9.589548623930389,-0.0010540755554956339,0.0007678740428975681,0.0004150272451229
1682026815.1282122,1.6500429505120315,-1.0468533622282667,9.623679144098272,0.0012768307336260228,-0.0014531361015542137,0.0004899240901582
1682026815.138281,1.8553687661215525,-0.875817983013109,9.578411461413468,-0.00011197435640109952,0.0004721080509228529,0.0003606660628579
1682026815.1481814,1.544654862239662,-0.9602435595262918,9.694102985563998,-0.00013690527303505175,-0.0035665047227656918,-0.0006079151190928
1682026815.1581955,1.9650411727418418,-0.8100183116482088,9.557067894038454,-0.0022640631104425056,6.118396095822388e-05,0.0003543142100684
1682026815.1681812,1.7534928470397775,-0.999498290282883,9.581395834207148,-0.0008070972049531403,-0.0004633311842320366,0.0010487126872763
1682026815.1781888,1.7835735657955964,-0.9918931138798843,9.58041063661175,-0.0006666622711025449,0.00046799478984174946,-0.0004168093565962
1682026815.1882691,1.7425239450307353,-0.943092916431003,9.607897823588043,0.0003380523619942453,-0.0006279830662843136,0.0011388661676906
1682026815.198311,1.7195316150015538,-0.9156477779449854,9.628882178529985,-0.0013804467055685825,-0.0006790168858150788,-0.0008567589230946
1682026815.208177,1.8264712444023226,-1.0105593845064935,9.55059181479971,0.0007276995476237894,0.00012490693682773197,0.0002924757880978
1682026815.2183175,1.683389536096681,-0.9658287354092793,9.633754014171021,0.00040434971384558884,-0.0010191368582991146,-0.0012203686766437
1682026815.2281368,1.8234562386072057,-0.764158743516838,9.635924810382585,-0.0011315814617633105,-0.0011689011546963328,0.0023421353997551
1682026815.238191,1.820290963819458,-1.0637771755241756,9.528208486703344,0.00045241642845470024,0.0006069573739780538,0.0008661874324903
1682026815.261681,1.788798189964774,-0.9254541679050071,9.584042802660498,-0.0001566718164676216,0.00206279594672273,0.0008360053051151
1682026815.262621,1.3595248789018435,-2.0872235803140504,9.429462901326884,0.0020446101302343043,0.0013195944991134189,0.0006862347816936
1682026815.2694278,1.6166784267696708,-0.8614949119158472,9.711517245273134,3.705299362589934e-05,-0.0003258658486052016,-0.000758794964116
1682026815.2783563,1.805344895696628,-0.890651650785716,9.596614043355054,0.00045056101654462275,-0.00045178084398157586,0.0016063820238346
1682026815.2882006,1.838925273969321,-0.8629446800047614,9.588776343145804,-0.002135528289161692,0.0018288473543486676,-0.0003359693929664
1682026815.2981822,1.5444933323629886,-1.0159358548086523,9.69697818722776,-0.0002021141360777709,-0.003111635890903964,5.517724080758893e-05
1682026815.308236,2.0187930537050285,-0.9188508114971132,9.48533975247201,-5.5328104608263555e-05,0.001871686495029196,0.0006217914504818
1682026815.31833,1.568478656505158,-0.9318337914033302,9.707148316248901,0.0002598238727090656,-0.0025755786625060915,0.0018604532323084
1682026815.3282585,1.7238871242269695,-0.8605119551116275,9.644723184439657,-0.002277844505990214,-0.0027778612672712125,0.0004526827122904
1682026815.3389874,1.9049481035589664,-1.1110005056308307,9.46927572418371,0.0017894294494184215,0.00041398296815928047,0.0005711439169831
1682026815.3481402,1.6712396504288765,-0.7564960692657909,9.703140499583991,-0.0012463122154739278,-0.0014356334086687288,0.0009958178141974
1682026815.3586805,1.8586944463545843,-1.0431680307222768,9.490315937318625,0.0005623248624329034,0.0012536589810501293,0.0004791255213208
1682026815.3683655,1.653412705002589,-0.8201373252459971,9.704344700129647,-0.0020915676578583055,-0.0009327156987773729,0.0006236500210948
1682026815.378182,1.7695361158918022,-1.0804857365419167,9.551048215217603,0.0007128194533590619,-0.0007509112965511179,0.0004325581120215
1682026815.3881576,1.7938807721397763,-0.8197386411652372,9.624730400031146,-0.0014743017049356998,-0.00019399388406273957,0.001407460238494
1682026815.398152,1.7908215909680654,-0.9189591956425142,9.59094241668592,-0.002522234593233558,0.0007697288340340369,0.0005640436300896
1682026815.4081645,1.7723946334916,-1.1349084810382621,9.526199374456716,0.0007690754786561523,0.0014611591306290849,-0.0011786281958333
1682026815.418313,1.785746233682547,-0.9997081882269288,9.557122886712891,0.0027129150655846816,0.00159676415715455,0.0001814510777481
1682026815.4282098,1.7137462244753054,-0.9286987036202052,9.640719522123968,0.0014586261012644868,0.0010774618804367281,-0.0020522080723307
1682026815.4382534,1.766629072610596,-0.7028352289693899,9.696490604138441,-0.0025475603761314107,0.0004985446297378431,-0.0003020543500892
1682026815.4482484,1.7559562971927634,-1.0446619929625625,9.558875177903442,0.0005295396918364058,-0.00012954558472353468,0.0016440166308316
1682026815.463321,1.749479517004502,-0.9292730542629749,9.6144157112436,0.00034028501910414525,-0.0003813646516491892,0.0011124206229001
1682026815.4682927,1.4844095494071907,-0.9819934985162131,9.73599472879346,0.0002412213240023894,-0.002984602955579765,0.0003185659751184
1682026815.4783373,1.858591976515112,-1.0725197540992755,9.491112066300941,0.002094510650734643,-0.00026884738207556174,-0.0015727741539589
1682026815.4882617,1.7956679808562934,-0.8346923302108773,9.614462611535473,0.0007124439986039957,-8.706642900434814e-05,0.000303660622973
1682026815.4981656,1.7183557015574804,-0.9596664615245531,9.614944238351223,-0.00012983809929586533,-0.00023495745023548233,-0.0021270866401605
1682026815.5082726,1.7510563852180985,-0.8875978602539188,9.617079837887925,0.0003779210903526917,-0.0013197769941194987,0.0006270153552182
1682026815.5190294,1.7760871949273143,-1.004554389191762,9.57834526841192,0.001166916942376893,-0.0005635405624040961,-0.0010195811174921
1682026815.528234,1.777356119124917,-0.8892719699999095,9.606436058388406,0.0012816702882124257,-0.0010783625714596015,0.0009857604035064
1682026815.538429,1.7586894993556341,-0.9578961231425605,9.603552353493525,0.00020170157284884547,-0.00034895010435249355,-0.0015709066193662
1682026815.54858,1.8487183723963705,-0.8199072218558462,9.592569828563489,-0.002269296650919836,0.0015427204900725006,-0.0015083340823761
1682026815.558178,1.79420059548024,-0.9403909959363989,9.581367148292603,-0.001501512275919549,0.0016496781730635582,-0.0001146642154194
1682026815.569562,1.7571508391860777,-0.8971319841700905,9.61437396188094,-0.0026284156910412275,0.0016772011199089546,-9.980368317288554e-05
1682026815.578202,1.6592551022647728,-1.2454679248698888,9.546915842495476,0.0026290959666556727,0.00013048338682588226,-0.0008906858403347
1682026815.5881803,1.8136120117962673,-0.7255623201113031,9.658639146586287,-0.0010578039941234235,0.0003804478000833573,0.000812530795753
1682026815.5982592,1.6791701096917322,-1.0134372685506041,9.607924998848755,0.00052021771310469,-0.0010426050648060573,0.0001691753148921
1682026815.6081986,1.845910113943058,-0.8589178658829322,9.574270918067457,-0.0006621780858130761,0.0005071129110119755,0.0011675525910109
1682026815.6182542,1.7815070774673658,-0.8626391258475266,9.611094302764307,-0.002271898578168216,0.0006821877374460232,0.0012673939507808
1682026815.6283584,1.6783243290519319,-1.0145754521803176,9.637964795404589,-0.0014977643232088594,-0.0011215856427076699,0.0001214940437935
1682026815.6382506,1.7502906273989454,-0.9787964916386049,9.585030636989092,-0.00025984684218625416,-0.001437115552008888,0.0006881096504517
1682026815.6482148,1.7707300259019798,-1.0012952665280301,9.577530108419838,0.0004345387297051035,-0.0006976347957903182,-0.0007170647278539
1682026815.6582124,1.8549347363053539,-0.8848388586414612,9.585603197226645,0.0006208119058730614,3.064283880176512e-05,0.0020668424420878
1682026815.6682916,1.714358082247287,-0.8893446761712406,9.632263164927826,-0.0018613636641304197,0.0003066835228719589,-0.0007848712977133
1682026815.6783423,1.6834753134138323,-0.984208418299492,9.621420820368483,-0.0003533695783377808,-0.0016263568220521326,0.0003967867104225
1682026815.68818,1.8900771564960552,-0.9810815993166229,9.515911942792595,0.0007217473009797167,0.0009325412430084546,0.0007089661538489
1682026815.6982074,1.6341619935219596,-1.0175234278063736,9.641095659324169,0.0014846923506305818,-0.001439722584047401,-0.0008482110116742
1682026815.708242,1.8315467837575345,-0.7796197305217192,9.619493350663827,-0.001070857675571323,-0.0003973907534013971,0.0006504857318364
1682026815.71833,1.7766952070336,-1.0468511156785967,9.559811427587984,0.0011892872317277431,-7.359900169736397e-06,0.0003531960409023
1682026815.7282157,1.6297299275921757,-0.9553509119150349,9.664224478193969,0.0009154710915104003,-0.002300284954549354,-0.0008381443459652
1682026815.7383122,1.861511317127664,-0.9007223544022166,9.568463416651369,0.0003510978245379237,-0.00026253740849142067,-0.0005155309464893
1682026815.7482402,1.8383642417708603,-0.9550140641972624,9.558829472830935,0.0005414659321286894,0.0012469454869199613,-0.0006578368030599
1682026815.7582457,1.6918847434573228,-0.9831708856575677,9.621524258649881,0.0012596945193220318,-9.489251023497897e-05,-0.0009290356084815
1682026815.7682023,1.7655406018917283,-0.9107626927277531,9.628115618788904,0.00043903581231456815,-0.00015563065679959748,-0.0015355128690711
1682026815.778218,1.7964661429843078,-0.8472682541320277,9.610126147490053,-0.00034031607596397227,-0.00018877768040323034,0.0006709786701835
1682026815.788195,1.7553743032579228,-0.955302144590026,9.60628736781658,-0.000460633960985779,-1.7744802909114506e-06,-0.0003978199221305
1682026815.7981882,1.7329988857032699,-0.9558430634527657,9.609817303529136,0.00037530360365215805,-0.0010109456040857472,0.0007607453606911
1682026815.8081956,1.8273355768460637,-0.8060737277357921,9.614273973711917,-0.0024268504105515033,0.0003797014374425574,0.0010066164412424
1682026815.8182278,1.6914835244703244,-1.016669696718464,9.618577774029273,-0.0008041123957077968,-0.0011297819436261237,0.0012100255570262
1682026815.8282957,1.832037994970033,-0.9857021772110243,9.547537218023466,-0.00011902871851652269,0.0004944453384944483,0.0006501133192219
1682026815.83823,1.7048206713997998,-0.9665241321377308,9.622641603220753,-0.0004088610335117426,-0.00022378907184115337,-0.0009118985746167
1682026815.8482218,1.8329265971847872,-1.0372570922698723,9.524934509923986,0.0010890839388090496,0.0015602375677478172,-0.0017519636441133
1682026815.858209,1.821302654925249,-0.8228534850527497,9.607620809030355,-0.0004357152812463207,0.002265074278511452,-0.0002294349379949
1682026815.868185,1.6359394595079124,-0.9984391034396806,9.645811406571775,0.00016856871061072084,5.1129105560945135e-05,-0.0014982650883607
1682026815.878199,1.789569767406012,-0.9598341726643301,9.586018509840926,0.0009709676536822328,0.00029515428032439466,-0.0006786972645781
1682026815.8882551,1.7666538301959258,-0.918256279993905,9.61008058046976,0.00030677454541245164,0.00031079314914649677,-0.0010776656109951
1682026815.8982463,1.7725823758878978,-0.8394282746494959,9.626613298571552,-0.00036527691649057954,-0.0002770685236967729,0.0019159679230656
1682026815.9082046,1.8008431072430118,-1.1022575574437667,9.518035358297807,0.002770681499868794,0.0008118214301673069,0.0014871615147572
1682026815.9182756,1.7576834339456153,-0.8123253573434618,9.63846471760851,-0.0001980061795146004,0.0011404095353536382,0.0006698617815859
1682026815.9282806,1.5760065327607917,-1.0225862753941968,9.677337928448285,0.0005664164655974584,-0.002150877569097021,-0.0010694851063303
1682026815.9383757,1.840936037524992,-0.996760232822987,9.536427407503957,0.0017417363613236492,-0.00035344058047701325,-0.0013187193673215
1682026815.948278,1.6492842679960145,-0.9610603420616792,9.654121492956177,0.001324102247474731,-0.0022082427299036657,-0.0025134285807721
1682026815.9582994,1.9659698905299605,-0.9485685278656287,9.487117570265513,0.0028302706598071735,0.0012950038471981947,-0.0004488631513081
1682026815.9682674,1.6603696600711888,-0.7982751811982177,9.7097885344166,0.00014323039565508882,-0.0010251052334300933,-0.0001359295694268
1682026815.9782288,1.7303392137257265,-0.8763912373492908,9.625968702291685,-0.0007545622571648108,-0.0018733542231538997,0.0008725114620179
1682026815.988211,1.8431318060684914,-1.0440018737050982,9.53592449772211,0.0017551578481121413,-0.0005154838043415635,0.0012685217824187
1682026815.998236,1.7774380156790168,-0.9165606747083785,9.609833201231167,-4.194867501570608e-05,0.0005369115241294145,-0.0012628379173688
1682026816.008231,1.7880455411055223,-0.812150596717699,9.626021896611796,-0.0009684087392090028,-6.211551883449861e-05,0.0018250691299331
1682026816.0182974,1.753393735147074,-1.0891846479242273,9.545955197885172,0.001016810549791079,0.0005812327153391432,-0.0004630169261358
1682026816.028343,1.7169338086591732,-0.8891984218785512,9.647165168472005,0.00012272525136342713,-0.000636924101559868,0.0002127605128921
1682026816.0382087,1.81949974786096,-0.8803304858072586,9.595023161969891,0.0003935715018463386,-0.00044284495510493895,0.0027232237497233
1682026816.048221,1.6927764159269538,-1.0609959987243915,9.599963146521516,0.0014817147731560525,-0.000860813469095832,-0.0003233150474838
1682026816.0582285,1.835521378755125,-0.8758009029043642,9.587625687108511,0.0009463850538588641,-5.912135795399403e-05,0.0010878308547549
1682026816.0682771,1.6604949736944705,-0.9004884448740823,9.664634349382563,-3.1780915674835916e-06,-0.001997768663407785,0.0006929505487792
1682026816.078217,1.8125995046933385,-1.0317608495899462,9.53967952925546,0.0017491983929260125,-0.000895833282077452,0.0001747653458155
1682026816.088292,1.6933239444821675,-0.8823534783015596,9.657191094912589,0.0001812191727976585,-0.002170612705428395,-0.0005125588633231
1682026816.0982444,1.8600800005675866,-0.9343879401775722,9.548680475951437,0.00025722878984240407,-0.00018057579949474445,-0.000126977114763
1682026816.1082864,1.7765344041795945,-0.7864390484182171,9.630979635918248,-0.001798773693994941,-0.0003403934151188134,0.0019469051929777
1682026816.1191096,1.7297287888270878,-1.0614900181975855,9.580572009474611,-0.0011501935812954678,0.00021914714160822387,-0.0018771240849159
1682026816.1282,1.9027086429516304,-0.8651224564341831,9.55506011496597,-0.0012981251003369874,0.002196524320231217,0.0004396309248991
1682026816.138202,1.581333255171311,-1.0007438877777801,9.673414373657446,-0.0004103489539545618,-0.0010731608517771743,-0.0005170217611007
1682026816.1485956,1.8352578472562748,-1.0279643314054596,9.543228892440789,0.0020833571934444407,-0.0002044187487907353,0.0006083933275081
1682026816.158216,1.7304347473427653,-0.9935157023952582,9.610849826897816,0.0021936193876294537,-7.438615059399591e-05,-0.0016588174168131
1682026816.1682153,1.7107872936029784,-0.8182125784391863,9.670173722394212,0.00032688819391240475,-0.001572365315953761,-0.0003989288944862
1682026816.1782067,1.9593833711721182,-1.0050856291838226,9.458676090057464,0.0004669822946961003,0.0032463046343414806,-0.0019166102994344
1682026816.1882524,1.6138653145946795,-0.76235941478785,9.732729243174917,-0.0015484320770813849,-0.0006305964739410756,0.0011619632003717
1682026816.1983256,1.8338409203556059,-1.0646828844866374,9.515757818074887,0.0008368697385743514,0.0011865972664570745,0.0008661599584743
1682026816.2082093,1.598727024107611,-0.9185932886828378,9.694264282133512,-0.00035894992175511707,-0.0018770808356217575,-0.0006310191366933
1682026816.2214675,1.7891207955117703,-0.8467602555350329,9.618381276882554,-0.0012381135645888489,-0.0019456256287741682,0.0024248342832438
1682026816.228227,1.7471684911258711,-1.1247089851257206,9.555345900868533,0.0003041603619044129,-0.001458723707687004,-9.271014836800492e-05
1682026816.2383015,1.9151197823877004,-0.8996144612660633,9.5457886247617,-0.0010757030846539578,0.0020098962483975505,-0.0011272187240533
1682026816.2482898,1.8145982477462042,-0.9800955296514011,9.548683847932427,0.0006915820928989895,0.0026945874088266705,0.0004995732905231
1682026816.2583942,1.5416142796148393,-0.9944205941876174,9.695385270636704,0.0008704064962769476,-0.0013383953284613176,-0.0015448260948173
1682026816.268235,1.8828365629671795,-0.809740133195325,9.59922821988975,-0.0010816554838456712,0.00046760323163059445,-0.0001564354298747
1682026816.2783124,1.7580391998388547,-0.9082186371988041,9.602992527874003,-0.0014068847180696959,0.00020051209272097767,0.0009250327001214
1682026816.288315,1.9032896268455386,-1.0506717150793956,9.479959606369361,0.0010820156142578368,0.003159136801709813,0.0014409772864897
1682026816.298283,1.4556929192535424,-0.9069605920108048,9.776239864849867,-0.0021712912271909125,-0.0016677282008673107,-0.0033068949252478
1682026816.3082364,1.981464276426802,-1.0143003545854596,9.451275019673556,0.0009053877105655853,0.0019368867468723073,-0.0001571738522611
1682026816.3183565,1.7756636318889973,-0.7396882458210299,9.664008711129446,-0.002020436954232465,0.001344550374895754,0.0019271220679516
1682026816.3282752,1.7375838629439677,-1.049799945333622,9.566714033536687,-0.00022744454998794444,0.0013017166226360467,0.0007074882613383
1682026816.3383236,1.7009836571518107,-1.0209437271716988,9.597716629859018,0.0016318434109203344,5.2631952175603654e-05,0.0012372149375155
1682026816.348287,1.7009570533505645,-0.9165315025038366,9.637134347336767,0.0013919441639457966,-0.0012266352937676925,0.0013676131364777
1682026816.3582728,1.7402132540786246,-1.0336533163113464,9.579874403297651,0.0019522305290134419,-0.0008418308187314579,-0.0010873639386258
1682026816.3682387,1.838709677590679,-0.6693417984734589,9.652145145440162,-0.0030731976056888885,0.00025378910116529417,0.0001628533808402
1682026816.3782308,1.7614884774362347,-0.9486747590451151,9.603830305780846,-0.003825326348263125,0.0006356172537243838,-0.0014800274640433
1682026816.3882225,1.7277928380870005,-1.105785986001508,9.565104721776496,-0.00019577201216579177,-5.952020086453982e-05,-0.0014043917309604
1682026816.3982248,1.8181796929879759,-0.9086989386627066,9.570429998201622,-0.0008369182705603305,0.0013300239519822021,-0.0014774064894877
1682026816.4082236,1.6332508578732863,-1.0354306427423916,9.645088388301433,0.0017577591897216627,-0.0019787653265845215,-0.0002160329733155
1682026816.418285,1.8183039476979888,-0.923915661347274,9.565597222242012,0.0007738946756426307,-0.0004510365577414756,-0.0013473968848697
1682026816.4282682,1.6821221503386143,-0.8297382704121399,9.681037545481663,-0.00016076063012996792,-0.0030200001590842004,0.0007525610143207
1682026816.4383304,1.9476807227634303,-0.9589995733008437,9.513590140590429,0.00033208972635126547,0.0006289250915704227,8.385929855334365e-05
1682026816.4482186,1.7194398586606954,-1.0390706571324875,9.573467615079252,0.0010775091936462203,0.0007838926267664584,-0.0020537210058532
1682026816.458224,1.6474328482939535,-0.7479919958366281,9.71977176060069,-0.0018587433037174793,-0.0024012270777530134,0.0001606066815443
1682026816.4682982,1.894895797096073,-0.9694338875122993,9.528964155223658,-0.0006573402772080964,9.211698158333653e-05,0.000473909765657
1682026816.478332,1.7363683818913331,-1.0095020289019283,9.58400307057054,-4.1941921932934004e-05,0.00016363440944172018,-0.00099498977774
1682026816.4883225,1.7317713788012168,-0.9332608345905141,9.612845344559428,3.5215915486657604e-06,-0.0005210640478892751,-0.0002767375100515
1682026816.4982736,1.7396760975387016,-0.9939059083977454,9.601923763866024,0.0007396402549714227,-0.0009233920497837198,-0.0007669882744662
1682026816.508245,1.704339410938692,-0.9200674495531627,9.643209887368847,0.00018568919218509784,-0.002265995128232333,-0.0008441057417653
1682026816.5183566,1.7955097688150967,-0.9997099557551188,9.561438410167913,0.0013010708758278546,-0.0012441358427847837,-0.0013190593000612
1682026816.528289,1.899294664837738,-0.8195097521928779,9.557919306991225,-0.001003058399146043,0.001489473852131014,-0.0004682076525054
1682026816.538268,1.637114017986605,-0.9834068088702421,9.657131839182703,0.0005246887469171485,-0.0015641424350993037,0.0006411647062637
1682026816.5482855,1.7012891944205224,-0.8761377320488537,9.66826594488174,-0.0013293765762367087,-0.00278791488054883,-0.0002804651286564
1682026816.5585496,1.9105038755757486,-0.9243566753078981,9.53597029757376,-0.0004710706166390626,-0.0004979795668673335,0.0017386527587009
1682026816.5683343,1.7089462958012256,-0.9952943278969961,9.601824807740517,0.00014023527601061308,-0.0012057725076282482,0.0006501022597663
1682026816.578343,1.8092014925439295,-0.9480815491404365,9.580855630512868,0.001307749964104265,-0.0008462896059299225,0.0022713604720197
1682026816.5882666,1.7802723811720709,-0.8579295591757378,9.614438870731458,-0.001072339554851595,5.4856225272072844e-05,0.0007272224046178
1682026816.5982823,1.7816122580696985,-1.0461962678105847,9.55315973924082,8.583599580125175e-05,0.0009552566086314856,-0.000964812598016
1682026816.6083443,1.4851013982177814,-1.0060543018113368,9.725644701659615,0.0016542088811033373,-0.005033143384348818,-0.0009919969726465
1682026816.6185758,2.055710880824177,-0.7395205894031994,9.505570428186711,-0.001101400245282283,0.0001450107345170613,0.00234547780006
1682026816.628266,1.7773569939554175,-1.0757386001094926,9.550500788430616,0.0009806647971270352,0.0009168959436463246,0.0006996637547277
1682026816.6383193,1.712961200321446,-0.8313994537152429,9.650690268016442,-0.001705998792448461,0.00010550754881938836,0.0004135435318462
1682026816.648314,1.828172618720554,-0.9567356124489936,9.542205418677531,-0.0009043096091156765,0.0012972416841879185,0.001509546886024
1682026816.6583295,1.6895199068970277,-1.021933443705286,9.617314075826084,0.00036189697358263916,8.913409887731818e-05,0.0005338827485107
1682026816.6688068,1.710704154980443,-0.8714853267514473,9.656504876861476,-0.001087981999310091,-0.0011428294784320524,0.0007488295540102
1682026816.6784143,1.945401184553536,-0.8839201000075658,9.519607587251711,-0.0022059559040253263,0.002469588018405223,0.0008348974387049
1682026816.6883214,1.518796918465138,-1.1601952155898452,9.637844518421314,0.0014396449473842638,-0.0017798349266430283,-0.0010281164560578
1682026816.698295,1.7982227810998712,-0.7724683294384979,9.643475499670478,-0.001525705889245251,-0.0013968907817148934,0.0001393738074116
1682026816.708296,1.8038374125002463,-0.9998174964331518,9.554139057303804,-0.0003164812122129508,-0.0004923918032793482,-0.0001802635507769
1682026816.7183645,1.8023813011966372,-0.9818457080326142,9.558471593474184,0.001010466644148343,-4.4606059921019447e-05,0.0008196054712757
1682026816.7284346,1.7690124894974248,-1.0417037603758335,9.557706104197576,0.0018114321788415815,0.00102788618768596,-0.0020805244695506
1682026816.7394,1.7585363115171115,-0.8110941501385371,9.637329016348827,0.00031606966392306245,7.125677478934264e-05,0.0005849187599383
1682026816.7483432,1.8174909499102838,-0.9897714357299147,9.561645868017674,0.0012366124890913087,0.001095321497147736,0.0003844861511029
1682026816.765648,1.7538150595015451,-0.8439175461965976,9.63340479160794,-0.0014776387425676613,0.000614765350312479,0.0015903771726303
1682026816.7682834,1.1651030800769586,-0.6304255491871659,10.025441907443074,-0.003613351733069918,-0.0024388394997535653,0.0008665316143892
1682026816.7782605,1.9207650448761602,-1.2011208178386388,9.437434715877055,0.0008197396252192894,0.0014302242216017382,-0.0013678934320918
1682026816.7884448,1.739445910429421,-0.791442866521204,9.65923436400308,-0.0009922435877090868,8.391696177103014e-05,0.0010975212661437
1682026816.7983034,1.7351797245436529,-1.1428828167751304,9.545736964708915,0.0029751923187097424,-0.00026552429805256467,0.0002038222608976
1682026816.808442,1.8123995205234165,-0.9343375901308679,9.586298315893586,0.0028630567615143916,0.0006602277386856247,-0.0001888204261772
1682026816.8183477,1.6750439723477628,-0.8724647025100346,9.666199495053544,0.0013081132005373045,-0.001205030636927005,0.0001065743725635
1682026816.8283064,1.7967081195500865,-0.9074447447800689,9.59163524626683,0.0012820405033641367,-0.0008205745772985947,0.0012807927431427
1682026816.8383958,1.8034529406699402,-1.0323956023900656,9.554725723575965,0.0021999526961737647,0.000421085159320403,-0.0005136438541225
1682026816.8483198,1.6944863537403854,-0.9202064390574786,9.666142952507034,0.001474998833938846,-0.001146913046079987,-0.0009469328343979
1682026816.8584623,2.029007841231387,-0.7337272640898539,9.534698141572246,-0.001355091185093674,0.0035320426037149977,0.0018477764914282
1682026816.868306,1.5370881936616543,-1.0163432457497188,9.69431758689668,-0.0008626170336694119,-0.00047935590060834386,0.0003677285147719
1682026816.8782775,1.6419145536329018,-1.0189781080602085,9.634757072247218,0.001613966673420101,-0.003544523890707188,0.0018705025885142
1682026816.899202,1.8283443644459951,-0.9487908651534998,9.56549757631263,-0.00015890463503620049,0.0009996053073629018,-0.0027495821833722
1682026816.901514,1.0765984268545619,-0.7419491887676416,10.039442044558099,-0.00030418143771852185,-0.002828884881864618,-0.0014330734394602
1682026816.9084687,2.0819789378357085,-0.9192349404752712,9.434439512185683,0.00036113341106580057,0.0012715454285386106,0.0005498939297981
1682026816.9195356,1.7214984610859414,-0.9190236564615276,9.62057972145234,0.0005727539024056437,-5.243079671916823e-05,0.0020683309574965
1682026816.9283326,1.8550216758360571,-1.0375648803230733,9.505982348266656,0.0024160075454247045,0.0017800583621783305,0.00228512722411
1682026816.939073,1.6240556093444642,-0.8573563669432539,9.708320470737672,-0.0006234336168254666,-0.0009166903771161099,0.00067396169639
1682026816.948319,1.8151806499807852,-0.9216445668063679,9.571808206923215,-0.0014176681448419108,0.00035101775028551635,9.578476770597304e-05
1682026816.958312,1.6726165689172736,-1.1048780327660033,9.590676317572758,0.0019652653348066367,-0.0014616905098471125,-9.345439152044451e-05
1682026816.9683044,1.7164150991510398,-0.95689785781257,9.618285705249823,0.0018862857238218778,-0.0022648584765420296,-0.0010080213088653
1682026816.9783444,1.8421086117760788,-0.7789457227549346,9.596058032873877,-0.00021813015614405786,-0.0013100872330834687,0.001417518667819
1682026816.988281,1.7226000109899642,-1.0132691865502432,9.596209520196062,0.0010752881351227303,-0.0021665363496449074,0.0012834099342003
1682026816.998273,1.6990301769782163,-0.897343674468336,9.658664981500175,-0.0006554876465790393,-0.0030106917386002285,-0.0008124375145993
1682026817.0083456,1.9164443161583105,-0.9001749989076225,9.531302550829341,-0.0005005047981490062,-0.00033592323056260657,0.0009101383492239
1682026817.0183272,1.7196219321568003,-0.9349082356725497,9.629757570413188,-0.00021254263993959196,-0.001503063309314272,0.0012986845266428
1682026817.028276,1.7471004222405733,-0.9460622114919356,9.599800022419332,-0.0007631405930643493,-0.0012001869111619144,-0.0001307075273357
1682026817.038332,1.919322000164509,-0.8694170706223748,9.548933553453377,-0.00020137174650995142,0.0005920391110760733,0.0034258416725211
1682026817.048302,1.7264828765744922,-0.9831420630038528,9.60535837369571,0.00013017846009224281,0.00012750490538828192,0.0021994608558602
1682026817.0583172,1.6956709786111848,-0.889644886588125,9.64854519259978,-0.0015007609646287994,-0.000641033097458635,0.0009034247940294
1682026817.0683022,1.8011465742537502,-1.1256051043966253,9.514774374459058,0.0019447779893122588,0.0005983878113021297,-0.0003679961793236
1682026817.078342,1.6311657157468566,-0.991670670573615,9.662932338756402,0.002969978873178608,-0.002232865179743837,-0.0009089139185957
1682026817.088287,1.7608862656735311,-0.8304443364995268,9.659161624636276,0.0007131925668661695,-0.0025066512070266093,-0.0011242503661773
1682026817.098354,1.9577987319269214,-0.9529590462384834,9.46760602830985,0.0018099063611301536,0.0014961789228810144,0.0002969308860488
1682026817.108329,1.7416310238922355,-0.8629883770973786,9.633826050053095,0.0005001242688523447,0.000991769045367247,0.0009239211084209
1682026817.1183145,1.7113559941777123,-0.9360057891177643,9.62733997218596,0.0010548029087477221,-0.0002908515891208914,0.0019334775005122
1682026817.1282787,1.6807144540495287,-1.0185301217419542,9.612274749135915,0.002490530210856617,-0.0019411434507201866,0.0017181610454431
1682026817.138385,1.873947815276175,-0.8182137094112776,9.589325150561187,-0.0014802699767950313,0.00103723794322555,-0.0005933671619854
1682026817.1485713,1.7624171496677072,-1.0890588470978575,9.545239454321305,0.0034132662841269306,0.00014206343710917372,0.0021581257040966
1682026817.1583984,1.782010988210912,-0.8214544877526567,9.63441850220199,0.0006163394610530254,0.000776819405040838,0.00155163076293
1682026817.1682963,1.6406128985144706,-0.9136772767746197,9.677692283315086,0.00022331608782184367,-0.001808527968197476,0.0014272035203762
1682026817.178331,1.774342219650467,-1.0272800832208666,9.561842975113063,0.0020688243595217734,-0.0013409890249359167,0.0010654819069318
1682026817.1882958,1.9372559951014514,-0.8963159782782163,9.527379884020375,0.0014560161625236062,0.002007659410459596,0.001753945185425
1682026817.198306,1.6512729301889975,-0.9469628937143076,9.649606722963444,-0.0001902207802367748,0.0008960237603442338,-0.0016577105399332
1682026817.2083418,1.8872280083472344,-0.953038230458877,9.536093359886623,0.0010067371164319344,0.0029561245788296444,-1.7078722652022005e-05
1682026817.2183776,1.5413167702415602,-0.7587662102191848,9.775046800940169,-0.0026827727446075782,-0.0016773968901807788,0.0005063055885844
1682026817.2283614,1.7904098458334703,-1.0975414132335946,9.534601647534055,0.0002959584574869325,-0.0010716739254741313,-0.0002964855067543
1682026817.2383518,1.693686168633515,-0.8492851819238061,9.666065319180621,-0.0012638129220737897,-0.0028098885060183643,0.000556602944795
1682026817.2483618,1.8275504638752715,-1.0665488330847275,9.52099438484913,0.0005865369838426815,-0.0009196712402947842,-0.0009674079612008
1682026817.258448,1.8070365760313365,-1.0204691533933479,9.56046306736709,0.003501199155216826,-0.0008060365639380951,0.0012390993523299
1682026817.2684,1.75009882101712,-0.794064664305428,9.650077860887722,-0.00024307397626724823,-0.0004860459257092337,-0.0006049302302412
1682026817.2783182,1.8204087777734137,-1.0367215117684996,9.540808917999678,0.0010685780514241262,0.0012194216469664039,-0.0018279304623715
1682026817.2882972,1.7697225321349552,-0.8330206785710924,9.630553688698278,-0.00034033311725142277,0.0009686916685374244,-0.0002491489414237
1682026817.298304,1.801613479711397,-0.8865954758016016,9.589860149911338,-0.0012087171422753675,0.001757300025607615,3.949667903410995e-05
1682026817.308403,1.7446310001410879,-0.9833950959527332,9.588273310229726,-0.0010250372036030519,0.0019614508451574445,-0.0010899849131814
1682026817.318351,1.6299829735870797,-0.9656959145167487,9.647816377655658,-0.00128171305507713,-0.00026661953719471965,-0.0025305369764677
1682026817.3284276,1.8003204150807939,-1.005470847397272,9.565216157235216,0.001137858681086129,-0.00010009543426977,-0.0002599841810874
1682026817.33837,1.862528941536371,-0.9082432584805497,9.558417312084897,4.3020624515706826e-05,0.002106379113487706,-0.0010072643764428
1682026817.348316,1.6352291509244254,-1.0121482693301143,9.654444572543609,0.0009743166211687149,-0.00038096878690969987,-0.0018979971192888
1682026817.3653767,1.7561852955603856,-0.8161957579772227,9.658965497896434,-0.0027088619615005883,-0.0017358913803660644,-0.0003251667495928
1682026817.3683023,1.8038577407322918,-1.5321292240680249,9.36911368377438,-5.457345736402431e-05,-0.0008645608804480133,-0.0021796262718848
1682026817.3783126,1.8784637603803966,-0.9496494393048489,9.545660971022395,0.00028888348784310205,0.0013643217290553783,-0.0017131945479772
1682026817.388353,1.7704573130930115,-0.7695330705496982,9.65115893479026,-0.001954110175304272,0.0006560982772900937,0.0003207702992372
1682026817.398315,1.8322443961328145,-1.0702997838057426,9.520702582166322,0.0005611925834045726,0.0023593276997699183,-0.0002037224022783
1682026817.4083362,1.6583042717083138,-0.8661051263091329,9.671327228014713,-0.0006476609828189574,0.00015767326895688155,0.0003066328225545
1682026817.4183462,1.870448386129976,-0.9386390801974952,9.54749963989599,-0.0008074815886127704,0.002474065337369609,-0.0001195306087024
1682026817.4283082,1.6681608077108865,-1.08482345680089,9.603714215239503,0.001715652648164057,0.0007604391939263334,-0.0008966381557397
1682026817.4386785,1.660796043754018,-0.9109077440703298,9.6550710149865,0.0013353127243554,-0.0014739823798388734,-0.0005810986168794
1682026817.4483657,1.7970610502839952,-0.9799631916233476,9.556749760592158,0.0021440783421047046,-0.000585890991777958,-0.0003851504426561
1682026817.4583948,1.6915023224536967,-0.868027907103398,9.667101905941875,0.000513519827021546,-0.0018584560998330716,-0.0012617070589326
1682026817.4683328,1.9249919284740669,-0.8903481823628888,9.536005926675472,0.0012958166218360568,0.00032197211021509536,0.0021294231572542
1682026817.4784024,1.7121709785605046,-0.9134004283714409,9.62332466606832,0.001320771221976202,-0.0008354721432574076,0.0033993850100673
1682026817.4883292,1.7748871478269892,-0.8779503470364872,9.612574534978224,-0.0014299621655818196,0.00033276868464326417,0.0006333514919393
1682026817.4983969,1.7477647061483084,-0.9298075702937818,9.610761788565345,-0.0006122594818065745,-0.0005367217964756015,0.0024673076567128
1682026817.5083706,1.72309106554441,-0.9886485642973691,9.601613901063828,-0.0007258867664449091,-0.00039664617691431106,0.0003282446285598
1682026817.5183947,1.8190814336258052,-1.0020638559960022,9.550323385786653,4.446418622797844e-05,0.0010051898243471497,-0.0011614981468878
1682026817.5283873,1.7952073635052548,-0.8801060915652964,9.616130400096159,-0.0006942191681816156,0.0012771259069006976,-0.0001329452626518
1682026817.5383534,1.6604858367691193,-0.997869165989423,9.651635308521184,0.00039505996943509005,-0.0010061132680667397,-0.0006485310278944
1682026817.5483322,1.8465899902354277,-0.9074642813417334,9.550453891050404,2.0330527684028724e-06,0.0006393540972485392,0.0003319631667696
1682026817.55839,1.7476784776420524,-0.9197397644233904,9.612461752963394,-0.00034703607756359466,0.0003979601803872078,0.0004075931955017
1682026817.5684054,1.686225676741061,-1.0401076018546733,9.609302561567283,0.0014738988332173102,-0.0011059267066431937,-0.0001429988898448
1682026817.5784016,1.9422599536787093,-0.8786853046604275,9.541781998854452,0.0006200621461996806,0.0021972744683729185,0.0005122758319489
1682026817.588447,1.6212159650707159,-0.9326811045255894,9.672866332901439,-0.0010440241804258214,0.0001386818513830791,-0.0022530075058452
1682026817.598429,1.8999888041420467,-0.9311890696806668,9.543907264487009,0.0008204793213452536,0.0017837647502688331,0.0016216746461
1682026817.608391,1.5764176783756447,-0.8822008210820793,9.708966784485856,-0.0011855918230223416,-0.00149374294496212,-8.488727157187855e-05
1682026817.6183927,1.7789337665210652,-1.016789133100842,9.548976297252256,0.00043490830110530043,-0.000899184408658737,0.0001844463275634
1682026817.6284008,1.889351659053925,-0.8812223563652579,9.560795055128702,-0.0008708030175562851,0.0015799941007226634,0.0002585826313011
1682026817.638346,1.5762416383734574,-0.9905282814115833,9.690340543840465,-0.00011530942087557868,-0.0022704495406148965,-0.000218256738793
1682026817.6483324,1.8799478941912595,-0.8837644680726038,9.58173627934901,0.00035964702095373446,-0.0009222688353670831,0.0024367520689852
1682026817.6583762,1.769801151306374,-0.939494314848405,9.600721827840031,-0.0006338925135433662,-0.00013847749434889157,0.0006523408099897
1682026817.668354,1.7572795908646375,-1.0106081299693093,9.564861843875201,-0.0003079030737455455,0.0005320653798704195,-0.0008362812351546
1682026817.6784098,1.7709734878967287,-0.9590864637664516,9.581319327418733,-0.0013375859524617528,0.0017200293183596248,-0.0038288234628848
1682026817.6884005,1.6575802005443008,-0.9324803923218452,9.659810371180502,0.001417647609728507,-0.0024075543747574487,0.0012517442099638
1682026817.6984837,1.713850413355467,-0.9262652973518118,9.642529129137214,0.00012758105427363359,-0.0029633701501709502,-0.0003896179970465
1682026817.708405,1.8518517100983378,-0.955141858171892,9.536730066419898,0.0006912208269276481,-0.0011111648536870807,0.0003397958224527
1682026817.71841,1.7591422551450426,-0.9137450109866819,9.614130482639071,-0.0006651447085016879,-0.0006622717868658412,-0.0011220156576595
1682026817.7284968,1.878826269360749,-0.9346402176979153,9.539442275296048,-0.00032468402361446487,0.0016183858305774867,-0.0004115695029608
1682026817.7383485,1.6742136472935212,-1.001533590979251,9.607642330794151,0.001436632305749393,-0.00018317210756272156,0.0001844446977488
1682026817.7483747,1.8304346126322684,-0.8677056230873136,9.581624274852325,0.0004706832760810816,0.0007812865729194881,0.0015523661003103
1682026817.758449,1.741686215578328,-1.026474891724684,9.591934046705392,0.002288256115382154,0.000394971108649163,0.0012841627920866
1682026817.768392,1.7542987727273238,-0.8873855714054809,9.627076523469519,-0.00013059143281410348,0.0009094428798925088,-0.0010020510655007
1682026817.7783492,1.644198246202992,-0.979073195349445,9.649373096605112,0.0012198374331398355,-0.001947852359706696,0.0002544860925413
1682026817.7884486,1.8837658109250641,-0.7658720941225147,9.597399398778782,-0.00202041365073439,0.0004594323430801756,0.0009563370711989
1682026817.7983656,1.747329982741124,-1.0505855127235226,9.57227567735919,0.00033433634044194294,0.0001345839643678744,0.0009757050882913
1682026817.808346,1.7556756949314551,-0.9723763070921945,9.595196056589337,0.0004222374661530497,0.00040130054749234345,-0.0003125284694246
1682026817.8185542,1.8585369834430767,-0.9027005678094985,9.559496946615493,-6.391060828577942e-05,0.0022728955807875648,0.0004805932856984
1682026817.8284376,1.7214015928251905,-0.9283118638835918,9.630215100321697,0.0005220918129357349,0.0010897405132197428,0.0012692360777296
1682026817.8534634,1.7256089015426084,-0.8976623126047054,9.639858796921846,-0.00152794639805265,-0.0007904149822600496,0.0013087433343176
1682026817.8546374,1.7933938436129198,-2.198331218039372,9.13621418680535,0.0002345043041152733,0.00016363654000050405,-0.0011637314584217
1682026817.8592453,1.9702986303920393,-0.891811296335608,9.491508399661873,0.0001834506006270834,0.0020050571779482006,-0.0004495832964889
1682026817.8683565,1.701483461737727,-1.035861170050153,9.605610107602827,0.0011471504038913633,0.001334870930121403,-0.0019211148738972
1682026817.8784194,1.7390629428081548,-0.8591126338946112,9.637197600310328,0.0009579441862784416,2.0222466633203175e-05,0.0007000452477373
1682026817.8884904,1.7564494354253157,-0.9429868531624127,9.597585115659179,0.0005634366348500227,0.00028620318896211105,0.0002295311877392
1682026817.8983767,1.8577957395679587,-0.8780951714484548,9.58246170169182,0.0004837245512065345,0.0014086259594501913,0.0022218017710261
1682026817.908475,1.7830104215748623,-0.7978398407665566,9.6348729173661,-0.002085267061726259,0.0017561891929092919,0.0030488236678652
1682026817.9184728,1.6857196988443552,-1.1218262020130128,9.581260397209533,1.0225424124284803e-05,0.0013441792762899135,-0.0005453474715463
1682026817.9283755,1.7216841669702325,-1.0047380319066221,9.606681434379643,0.0016791504196038089,0.00022327505342730107,-0.0002234563127271
1682026817.9384906,1.8233248511219815,-0.7972099821693754,9.623631639855873,-4.1176757985694556e-05,0.0006151421567844411,0.0019643852154845
1682026817.948568,1.5609323413967178,-1.0996928343678403,9.659039385961327,0.0015476428727987488,-0.0024429599163958704,-0.00127475023159
1682026817.9585576,1.8509831218696824,-0.7951528435161314,9.592095013037097,-9.631483699305866e-05,-0.0014251959935443863,0.0014678145688381
1682026817.9689405,1.704353943231189,-1.1321219202648907,9.576772646276604,0.002174988048582482,-0.0017421914780150476,-0.00180001499952
1682026817.978423,1.9225470435918097,-0.629733192860317,9.622568635588719,-0.0030828822237281336,0.0009660550344783983,0.0001032254530005
1682026817.9884408,1.7142855082278867,-1.0878424706812413,9.571355032661934,9.8512695428989e-05,-5.467933653334972e-05,0.0003803819289319
1682026817.99838,1.8745102629853112,-1.0000758451478082,9.521716722909183,0.0016638493746852796,0.0021086279019071424,0.0010360343602374
1682026818.008354,1.6122866147553012,-0.7434685636170018,9.750109794119407,-0.0031260901076552335,-0.0007494371880890415,-1.450664188686968e-06
1682026818.018742,1.6892430636347127,-1.2123460762600717,9.551008055245541,0.0008015170818428015,-0.0010504238773124507,-0.0039107528410963
1682026818.028357,1.8749335931918218,-0.9063086736205272,9.549082693957,0.0024082004831283707,-0.00023122495936239173,2.055683749544227e-05
1682026818.038369,1.82665287597263,-0.9607205338390742,9.560362171575896,0.001564456274013419,0.0018556536513681344,-0.0022306455195061
1682026818.0483973,1.776464924191812,-0.7508775246778768,9.661703602829292,-0.0006219693863187399,0.001040201826590547,0.0010300939774029
1682026818.061385,1.7171176855623067,-0.9603269393649456,9.626793376498352,-0.0005187529343135472,-7.067643972220176e-05,0.0001386344537027
1682026818.0684123,1.7292005329261977,-1.051858561071084,9.583839527965637,-0.00037196157484172226,0.0002396429599712052,-0.0025052017428092
1682026818.078381,1.8251787438583078,-0.8401981357995489,9.602869642227498,-0.00038316770834797854,0.0003472954379575027,0.0010457360639125
1682026818.088362,1.8298418363173923,-0.9960691102132854,9.537560363063553,0.0007765235069690192,0.002028144375699993,0.0010524418192804
1682026818.098376,1.6751807124289748,-0.853597303435355,9.679200985280005,-0.001235520682599369,0.00038230834383087316,0.0002623053604625
1682026818.1083765,1.8892351476114337,-1.032864740904234,9.501846401661325,0.001331221020909033,0.002801891902261979,0.0013422939681336
1682026818.1187105,1.658964751305861,-0.9569903238323098,9.651475445415496,0.0012123858376052888,0.0008036523900781138,0.0002742502709739
1682026818.1284676,1.6582589635546123,-0.8339044168353184,9.697262749555273,-0.0009453056824246353,-0.0014147683649046916,0.0003532047720514
1682026818.1384287,1.7093989319139424,-1.0920480508282644,9.57887240172667,0.0007143126602051866,-0.0014769366695258155,-0.0028967334784678
1682026818.1484468,1.8346532169190204,-0.9178920465336646,9.56153324527732,0.00103730300207533,-0.0004201091971978202,-0.0013447735820077
1682026818.1585102,1.851811424680905,-0.8693415141712686,9.584072042430869,0.00014990368069241818,0.0009016167892943515,0.0002719850616418
1682026818.1684434,1.663388207284511,-0.7744469628698396,9.71649911623054,-0.0033142246156249856,-0.0011391004331966234,5.332949681955183e-05
1682026818.1784515,1.8428756901445909,-1.153108028300307,9.49180442711215,0.00028924855587313266,0.001105022898798706,-0.0016904879722855
1682026818.1884394,1.6626129900783704,-0.9053768100765149,9.647845127448528,0.0007862075071050071,-0.0016099693892726522,0.0008058210822642
1682026818.1983726,1.8236207294803637,-0.9579905049859379,9.55035559045273,-0.00037571231836387844,0.0007503669785924686,-0.0018089566275588
1682026818.2091267,1.7315149540590533,-0.846252307100531,9.64958430384066,-0.0009654223756841789,-0.0008183467639479436,0.0009879910956956
1682026818.2184944,1.7429268247695675,-1.0578270956925293,9.581533837456686,0.00047476870733299614,-0.000955440260928768,-0.0003285346448532
1682026818.2284925,1.8219650706598018,-0.8495098292497667,9.587956712037323,-0.001497403690790445,0.0006635693947421859,-0.000752832171332
1682026818.2385168,1.8428451164360338,-1.0175122635772305,9.533841872009496,0.000720257772244818,0.0019834421397960564,0.0002831473119445
1682026818.248567,1.5549854826439387,-0.9087325241960051,9.737803058168517,-0.0010682490279478702,-0.001770547506139051,-0.0024403905391804
1682026818.258546,1.8785296206300457,-0.9161775506614455,9.55265521337049,0.0002810604542507996,-0.000506908721679932,0.0004478355275355
1682026818.2684891,1.7646128430271184,-1.028024676901493,9.567244787485182,0.0014455938178482798,-0.0001306487502030596,-0.0006958203286044
1682026818.2784708,1.79243553129609,-0.8788822346784192,9.602262930014797,-0.00026991739826745146,0.0008625101388450837,-0.0014196544781438
1682026818.2883687,1.7640481045251544,-0.7937553064295605,9.647559291864807,-0.002599350046919979,0.0005812242836855926,-0.0001467445528246
1682026818.2984333,1.7494816299508176,-1.0844893906306325,9.552169118373758,-0.00036343460779953866,0.0007183111209847631,-0.0015206261433772
1682026818.3084807,1.6862476698849045,-0.9454546427849507,9.644828183803572,0.00039543074173081365,-0.001265380025887075,-0.0002573680959753
1682026818.3184175,1.865529775869227,-0.9976726906394117,9.526983111183732,0.0010815941802581929,0.0012327880230968177,-0.001222986624401
1682026818.328445,1.737782905846312,-0.7502573059072521,9.668756105355733,-0.0011315723789377917,-0.0002759478477668867,0.0018291619142988
1682026818.3385096,1.823547488439615,-1.0480864442137834,9.533147351167564,-0.00031015682791286594,0.0016332632815949572,-0.000379195566114
1682026818.3485882,1.6449528531483473,-0.9011149002887161,9.685850633111878,-0.0005198803251611179,-0.0013335593999532199,0.000764101498004
1682026818.3583844,1.7497660268403241,-0.9996803980324565,9.584606664804658,0.0015398401114525013,-0.0021266683698126848,0.0023428774892241
1682026818.3684323,1.849579645778536,-0.8549936684628391,9.574587862746297,-0.0019451867877455548,0.0009712899908489135,-0.000697311608877
1682026818.378436,1.7286920407297577,-0.9758831179663745,9.602962990473166,-0.0010365917771988648,6.678493249837146e-05,-0.0006753507897369
1682026818.3883965,1.706206993101562,-0.9933829364577283,9.608019054394802,-0.0006770868948504564,-0.0006249981936434737,-0.0018894166115782
1682026818.3983767,1.7465941079284233,-0.9021205589700827,9.633901440331991,3.8917166625970915e-05,-0.0021300180416843036,0.0009827731863484
1682026818.408419,1.8644746228443665,-0.7217643513891279,9.619141105884575,-0.004344267946337773,-0.00022493142097087396,0.0014841851533279
1682026818.418504,1.8045841110788021,-1.2254233358229032,9.477343565714117,0.0019563206090119295,0.0005831101935868537,0.0016689964412367
1682026818.4286418,1.7124209564482968,-0.8626337194809024,9.656178350016075,-0.0006279185764192624,0.00022437185017156456,-9.30701045430938e-05
1682026818.4384272,1.7473898241567447,-0.8189726592003901,9.65730496743789,-0.002195885978077772,-0.0008209577323025092,0.0015795692614633
1682026818.4484558,1.7271209223727773,-0.9576557060916125,9.612274750458182,-0.002567297189817657,-0.0010396290674443798,0.0001177679385878
1682026818.458465,1.80574725827822,-0.9714826140580259,9.5579490352996,-0.0018725327929312312,-4.0517287874439346e-05,0.0006221585079916
1682026818.4685073,1.792144144684731,-1.0721141929654867,9.538356011248654,0.0009903553913411796,0.0006725150631361259,0.000426974600356
1682026818.478576,1.6143429357659271,-1.0381887738272322,9.64149540630382,0.0015405784182229252,-0.00151277729935456,-0.0023595587246231
1682026818.4884353,1.8148190008919234,-0.6819480903674139,9.670516992447602,-0.002772558972706006,-0.001202423284769125,-0.0001728041226155
1682026818.49844,1.9223640096997219,-1.089339148412827,9.464653491874781,0.0019939552818581644,0.0012245840952626959,0.0025648804602101
1682026818.5084434,1.6485490464947963,-0.8959342495767304,9.66710956619997,8.511172912301897e-05,-0.0004309143672965015,0.0006270219908915
1682026818.5185049,1.7436140436607783,-0.8599377648017108,9.638972888468942,-0.001630022316410416,-0.0008798190770773794,0.0004414951998628
1682026818.5284195,1.649016756604028,-0.9939615284753931,9.646023687227787,-0.0011405102239309688,-0.002798353108452642,-0.0012170026440284
1682026818.547748,1.8184910678020167,-0.9672316403987196,9.560394137657422,0.00115091685243704,-0.0011897513684487762,0.0005897772369794
1682026818.5524387,1.6296692248062814,-0.6831823526123032,9.758395415127229,-0.0012950988321839868,-0.0025830103772039362,0.0008006117876507
1682026818.5600204,1.854619856490094,-0.9507934171011588,9.542154684504862,-0.002196635346346709,-0.00046891954731498575,-0.0009875294182561
1682026818.5684683,1.9090419694645064,-1.0626469753167405,9.483175181978387,0.0006729549417464898,0.001598255612145192,0.0002545009937025
1682026818.5785666,1.6493972572569138,-0.8127324647311512,9.70511802148024,-0.0027081041357022778,-0.0005370774188602848,-0.0003784474812559
1682026818.588415,1.8344345616974018,-1.0841951284333575,9.512489403133864,0.0008025761482108188,0.0006907750065675073,0.0002820389216654
1682026818.5984917,1.7817209557662474,-0.8434756834877479,9.62398155835267,-0.0006521160305750152,0.000928433258752426,0.0009488682133965
1682026818.608427,1.7066888133627731,-0.8916508729233414,9.642809982747146,-0.0015778542210478762,-0.0003545509110839047,0.0012401941802241
1682026818.618539,1.8242873329176907,-0.9804329663738051,9.553692332519798,-0.0004785463072483642,0.0009582425609810772,0.0015535005094139
1682026818.6284168,1.770589071920442,-0.9649484273423443,9.587621559182905,0.00021622234188109138,0.0009910327800046886,0.0017289748937915
1682026818.6404788,1.7253460668926464,-1.0174278374877708,9.59852577882559,0.001109939249070293,0.000693742084583305,-0.0002584938321374
1682026818.649382,1.726549738154883,-0.8958176754654322,9.643835619799326,6.387116790796077e-05,0.00027240315522413834,-0.0007815322734527
1682026818.658534,1.8948690540307622,-0.976029729262217,9.504510067079899,0.0017961211386515166,0.002205107218035885,0.0011485558223799
1682026818.6684473,1.6469488045076444,-0.8741497518042868,9.676517515209415,0.00025832269899864836,5.597152262729921e-05,0.0004578714595996
1682026818.6784132,1.7050223857035436,-1.0149328133119266,9.602129223906385,0.00023560620566862955,-2.3353006623533683e-05,-0.0025785946183018
1682026818.688547,1.805601785746499,-0.8810508564422848,9.618051149959028,-4.6782783991557573e-05,1.8353895721721074e-05,-0.0011071124009899
1682026818.6984768,1.7551568366034935,-0.8884876663025743,9.62139748599184,0.00029745100835761815,-0.001243400083593918,0.0019159613455999
1682026818.708541,1.8021572791698373,-0.8866017238285602,9.62101227608211,-0.0016139941335344015,-0.0001358800753388377,0.0003952942659966
1682026818.718505,1.714378881264123,-1.0369825616566277,9.592144730188187,0.0007198949438311979,-0.0013212486240669766,0.0010695768158771
1682026818.7284937,1.8369101378420942,-0.9620863570295574,9.561262485448351,0.0008197227725371309,0.0004985575232469379,-5.7678449723843695e-05
1682026818.7387087,1.6906142141738618,-1.018716677764225,9.60256327380378,0.0017995072911734392,-0.0005512423989854599,-0.0008664300095401
1682026818.751188,1.683349433987928,-0.8891006353838276,9.653902803971224,0.0016907180760069459,-0.0036115613336993855,0.0018928608932188
1682026818.7585018,1.9362776842664882,-1.0065774098706686,9.488585933229334,0.0012086393337352177,-6.397355114440837e-05,-0.0007569490827731
1682026818.7684257,1.7001260079793261,-0.8400350045986117,9.668316418131473,0.00021139998623192067,-0.0020044882557695115,0.0012282856495008
1682026818.778418,1.803315422609772,-1.108203760012653,9.518690740295291,0.0016683190027115009,0.0004497647585905612,-0.0027436314977816
1682026818.7885275,1.7766576891500656,-0.8750213231776288,9.629587569107931,0.0012451697010421603,0.0001349463375210848,-0.0015355179913453
1682026818.798539,1.8714517487789954,-0.7075386668050133,9.618960677502352,-0.002325546180662604,0.0015769976681681433,0.0012830497451946
1682026818.8084676,1.7693125896638464,-1.0445620815790573,9.55810138157015,0.0005149969639977556,0.0012778727767400863,0.0023738145699613
1682026818.8185303,1.6974357037474654,-1.0479514363501434,9.603524702261888,0.0015543696887485507,0.0006758639659625209,-0.0002778578911088
1682026818.8284965,1.7600377044150688,-0.6834025131736441,9.689583029884698,-0.0032568465782381816,0.00028283516795475725,0.000661635991361
1682026818.8399808,1.692284065441006,-1.0439498372087688,9.60752139823452,-0.002250268256390839,-0.0005922293596512627,-0.0018856978405378
1682026818.8484375,1.787739560211492,-1.021192621175938,9.54953304435765,0.00012422110245455131,-0.0006484635335360336,-0.0002767384413741
1682026818.858463,1.738839627173882,-0.9143485756757628,9.631154979322986,0.00023597335865023402,-0.0014631995920903556,0.0001393662404157
1682026818.8684485,1.8068176923862154,-0.9926082527338411,9.568711973395695,0.0013196581640944269,-0.00043649274033700185,-0.0005121874984465
1682026818.8784354,1.7648364979412603,-0.6963319058742244,9.682424547626185,-0.0024696983541246114,-0.0013298286316700272,0.0021428269554749
1682026818.888441,1.7480559571406216,-1.069858413571638,9.557994611625574,-0.0007236475448761013,-0.0010444792761513165,0.000564420350071
1682026818.8985388,1.867121149650464,-0.7860330793903159,9.58762899844338,-0.0033615441954415767,0.0009708934471215514,0.0018917573341755
1682026818.908436,1.6366419924149787,-1.160248663054764,9.583105137621601,-0.0003503701287518183,-0.0004890373857082194,-0.0007673649944476
1682026818.918552,1.8713367319938048,-0.8781704664447422,9.561174390315301,-0.0012641923712302476,0.0014540731224660464,-4.838501458239949e-05
1682026818.9290185,1.7033647302511021,-0.8278914364663285,9.683654198001435,-0.0017935646186055317,-0.0014203576199610663,0.0038486368592717
1682026818.938506,1.7184397189768958,-1.1813751086221393,9.544831765393068,0.0008119027236122559,-0.0008742162798590973,-0.0005699257727823
1682026818.9485512,1.914589798981235,-0.867069161955735,9.538398159950491,0.0008011051618100261,0.0014224082802766888,0.0023138356499262
1682026818.958556,1.6653803365038147,-1.101170269621562,9.59907732529408,0.001897461551354621,0.0007347025770229927,-0.0017322291515879
1682026818.9684792,1.7926376981658587,-0.7161652447765597,9.67303686038407,-0.0014337092560684653,0.0007939477392883468,-0.0006239436462633
1682026818.9785223,1.7036956587664949,-1.1119279074343282,9.596395686939754,-0.0002568697880840321,0.0025463597819997174,-0.0049158333696536
1682026818.9885051,1.615414258674657,-0.9793333357009719,9.640122783638185,-8.249868391054003e-05,0.0020909984537523965,-0.0074360402196757
1682026818.9985216,1.7756012947970392,-0.8843803237770035,9.553354846881662,0.00034520341574867646,0.003667677484786274,-0.0079750189453474
1682026819.0084636,1.7060888725508272,-1.003665841696511,9.65623776252543,0.001272315928845235,0.004244715770664207,-0.0098183251813165
1682026819.0185428,1.6277476501783161,-0.7631337488745872,9.727902147805025,-0.0016889848820376171,0.004322482660792974,-0.0121772097319476
1682026819.0284653,1.5580948379020876,-0.6279579500079737,9.73531702083297,-0.0037144210669791127,0.003921013926520473,-0.0136922173097841
1682026819.0384507,1.2996284474718838,-0.6881393771355582,9.749316345929365,-0.009442096155384175,7.676014274563415e-05,-0.0187407186150662
1682026819.0485632,1.3233945641308025,-0.4944595742043711,9.65445869836366,-0.01408775405812319,-0.010736482135107682,-0.0052002713911346
1682026819.0585642,3.1783909312201732,-2.9839023860830425,8.827181954628779,0.010000752513007988,-0.01915373585788374,0.0241751937299855
1682026819.068467,4.77952481812061,-1.2765190430381372,8.580666327397632,0.021568000673784355,0.018702001945955497,0.0242191912710555
1682026819.0784478,1.1225538470670298,-0.6792648162960926,10.107126307676845,0.02198642571837499,0.019238776410100914,0.0159657864004262
1682026819.0884857,-1.543368887021286,1.0144202538533846,10.99483881645567,-0.016926533263487396,-0.001975681173915661,-0.0112475011393539
1682026819.0985284,0.8835474969551871,-2.469510096310828,9.264316835606007,0.005880625088404564,-0.0005047541491172641,-0.0274107152491919
1682026819.1085894,2.9184226021738495,0.7741391072600435,10.237249943967239,-0.01360367751119601,0.0035708821082720767,-0.022031135287892
1682026819.118567,2.308568795814512,-1.1434737156609156,9.310852468257286,-0.014950959023819831,0.004451388613748406,-0.012387630891811
1682026819.1284463,2.100041246627373,-1.4462414520623372,8.850926130615047,-0.007166454920030552,0.0008942292161307181,-0.0035763242177776
1682026819.1385343,2.2952368929431075,-1.913305409300332,9.206362830085368,0.008751951175171857,0.00900305077943521,0.0050053460162021
1682026819.1485083,1.3902102353587817,-0.16976492531753246,10.356256833557717,-0.0011993737864555171,0.0012883043954438976,0.0010256156545952
1682026819.1584709,2.046990180333559,-1.3149468245435985,9.631267713696895,-0.0009070662407558295,0.014671191241913437,-0.011483779539179
1682026819.1685026,1.139405905500351,0.13287381828589032,9.722389077446625,-0.012419083400724227,0.013664387952063253,-0.0164901403606049
1682026819.1784678,1.9538113595617768,-1.1749386387989031,10.079421985045432,-0.010463458845799245,0.012654776140666858,-0.0154387703061215
1682026819.1885571,4.064015941603662,-1.2052333687216927,9.797964693396374,-0.007120630925979298,0.046822143663038406,-0.0100363589719049
1682026819.1985466,3.603664796751251,-1.9104611025891896,10.175850474254386,0.0021529058629309607,0.07900349829651038,0.0076388056494184
1682026819.2084825,1.3276016418621057,-3.7487796634000965,7.610968341162957,0.04534822872407354,0.09400487266339837,0.0327561671018488
1682026819.2185488,-5.636098417419335,-3.079601173462701,7.5169003136842,0.06316797992180367,0.04481536355948797,0.0559710027754195
1682026819.228594,-6.542356948536498,0.8501740169457018,10.758520267282838,0.05640174073178181,-0.08223137731453128,0.0466698022663481
1682026819.2386093,6.854762298418266,-0.32459262499535424,11.235355149257785,0.03163252805704242,-0.02200672183343449,0.0567677194356806
1682026819.24867,6.004488668977687,8.174794560560695,9.684053597039899,-0.046565180554015095,0.012485042728507513,0.1193598235130198
1682026819.2585337,11.959398545303978,3.1125991225957574,7.737382344458077,-0.09675084263400846,0.15158740296962928,0.1375213438749201
1682026819.2685122,3.4006593754861627,-4.135432303093696,8.803082693697913,-0.02504106116422186,0.1945620056993784,0.1164759198307879
1682026819.2785015,1.0010756072794156,0.21783405042858583,10.214948329546802,-0.024714354215375142,0.2258278465007838,0.0515556508779414
1682026819.288502,-5.9730877386013495,2.728524396697788,13.361597412680549,-0.08809394970442569,0.15018200802230808,-0.0231972331076971
1682026819.2985315,-4.357115780806221,-3.04969773326875,13.875772750525467,-0.09455759743430227,0.07188236416213205,-0.0682357376337162
1682026819.3084457,-0.9998827072570166,-10.348960722695338,7.9726782726291265,-0.030309890966010347,0.05449867236232288,-0.0762981450080983
1682026819.318528,-1.793263983515056,-5.129551213346329,8.462592308544469,0.043099074730982755,0.013531985720370952,-0.0481654716551415
1682026819.3284998,0.39935188856332415,-5.6490492014714935,9.324692888066368,0.05618902436738567,-0.006964001966210959,-0.0040383789584152
1682026819.3386836,5.976327417390621,1.7390352426671636,8.309709255100595,0.03883052255346811,0.04406643739676976,0.0504441583633311
1682026819.3486605,2.8018633451382886,-2.506413795210842,8.738299794884414,0.0605081092162915,0.07374309621099977,0.1120661893963702
1682026819.358604,0.8793636928885643,2.4327293372986367,10.990748885342443,0.045399454275047206,0.04521464890265478,0.1198807010531314
1682026819.368653,4.407212196887059,-6.9861416456956755,8.205692973176518,0.11245068872200273,0.09758726007449253,0.0640705773711093
1682026819.378558,-1.270103133652717,-2.734753116366443,9.594611935958877,0.14287540120192316,0.08134704951170607,-0.0051279937744252
1682026819.3886251,-3.9512443361887306,3.6565328087610354,11.176977324229401,0.06828868596481036,0.040517152102522026,-0.0548694407463185
1682026819.3985565,-3.815953069567438,-0.7633963426833722,13.34979922838264,0.04075667362880963,-0.048928925436583316,-0.0876182963967434
1682026819.408492,4.266405967104971,-5.252154387355234,8.454661018419563,0.08008990539860585,-0.0012058888198301294,-0.0921801900386921
1682026819.4185514,4.4128708917351265,0.6547398488158301,9.792105306921263,0.08460045685442281,0.018536920918532988,-0.0638104950904957
1682026819.428638,6.077739397146968,5.14646492360926,8.182339028105758,0.006113804341217743,0.09554922920559442,-0.0202963029861561
1682026819.4386282,3.4595924403819516,-2.6474426005487186,10.19066229621464,0.03538001417847248,0.10413665234705927,-0.0118549926102272
1682026819.448551,1.4464828882608487,0.7097170534953052,8.15284441162639,0.01632029141239187,0.1348419568782659,-0.0231349574297778
1682026819.4584975,-3.433989385552799,-2.9408561866605867,12.272162941974775,0.053099987956537725,0.05185462676471424,-0.0475998198509327
1682026819.493322,4.145359257962817,-4.590879880726523,10.02116572138938,0.09564545213016332,0.054555474546480034,-0.0885279452324025
1682026819.4952328,7.95913585201067,-18.4149774563252,-0.17093794841269805,0.14860327088147626,0.09354759905488502,-0.1200211545348279
1682026819.4981923,-9.14348945809368,8.316963523841059,16.479754429978406,0.10528734305483378,0.024530865457806167,-0.0939929908037297
1682026819.5018067,3.2565096782779688,5.784777782099981,12.16638964154632,0.06847893305340891,0.019369309156977408,-0.0459473332285992
1682026819.508565,6.834660383453485,-4.370047836241546,7.843551826125047,0.13180106310727363,0.05466839463061989,-0.009615873348724
1682026819.5185552,6.52768647616258,3.5579994892024676,8.336646783257779,0.07925219677654052,0.1261192821340424,0.0215000851184018
1682026819.5284913,5.751469277820557,1.5083257883036212,8.140180912173479,0.07738637879679283,0.19027634591255335,0.0292115999489911
1682026819.5386298,2.595027983272523,0.42492996876233735,10.499665677916676,0.05545444898768215,0.21074368826512263,0.0196220377564318
1682026819.548478,0.23565153545153025,0.34661454791235113,8.354007115162506,0.057053564578362796,0.2257330983790098,-0.0130920413777343
1682026819.5584822,-7.261784816710648,-1.449093525723144,13.666373840020901,0.057704341554339615,0.10834964238521196,-0.0717002576112858
1682026819.5685165,-0.3499215766908731,-3.528467389786106,10.30676124113955,0.056608416824390585,0.06490641415277043,-0.0929352691292874
1682026819.5792663,2.2668471764512987,-7.556715863995969,5.995755540939822,0.15372687004425276,0.09961565606161495,-0.0881069948792569
1682026819.5884838,-4.149062428951898,-2.8722246372900773,9.602937789462395,0.1850551963375987,0.0300480327579781,-0.078717393231403
1682026819.5985825,2.9934999769417088,5.589021471317178,10.145317079496408,0.09755467170042037,0.048622805800832204,-0.0317317148566357
1682026819.6084912,4.325574374448028,3.9606232138097868,10.085398438844562,0.04917632554983227,0.061832381734295054,0.0284957351267226
1682026819.6185048,8.691539752886381,4.789786779408243,7.602339283279143,-0.0014508744435115784,0.1637232658410928,0.0537053333699591
1682026819.6285822,2.179304971858179,1.6225350814979762,9.997366863514904,-0.03695480911338666,0.17892767576053847,0.0472824784099944
1682026819.6385665,1.3766967367621685,-2.1103864353267205,9.336000739692398,0.0019369385299311936,0.18408586061403515,0.0149019459366686
1682026819.6485133,0.6179525485020341,-5.247279927624395,12.233865787287675,0.0354782898889726,0.1593295031381846,-0.0502069307386986
1682026819.658584,0.8146872122678035,-1.8800574143113395,10.986007975937783,0.05676946379739661,0.14532330257898704,-0.0971394603967778
1682026819.6685362,1.9811818607309528,0.02376535837293291,11.019425737435302,0.041543967874633464,0.15366345699815365,-0.1000812923431508
1682026819.6784725,1.9561352428842091,3.31825604793458,10.092146866316693,-0.020789197870876325,0.15404356922516957,-0.0576156204462162
1682026819.6885087,7.463232484898647,-1.8818674560942539,7.604225283617959,-0.008465671681907747,0.23494561212944554,-0.0117732485652081
1682026819.6986082,2.7021786874504827,-1.9770997492072961,9.530030521718544,0.021017169099006607,0.2583773342085443,0.0161658261075504
1682026819.708526,2.67038280153617,0.766151503467473,9.914369898393478,0.020338201298723546,0.27947898598281373,0.0367848226904757
1682026819.7186832,2.1193159325978446,1.2374532036965014,9.046775268804568,-0.009316673093945044,0.30015823215635573,0.0317519573598988
1682026819.728593,-1.1396681854175879,1.1853737743568098,9.294193855636104,-0.02273331267269104,0.29350852356899754,0.0218368066578991
1682026819.738589,-3.9981994386315978,-0.8162629750954665,11.140703599319508,-0.02299503276368178,0.22535348749771097,0.0092038923047371
1682026819.7485504,-1.2230000295609904,-3.978658924850444,10.924745529060125,0.001402347984260354,0.18951798810172024,-0.0195173187077156
1682026819.7585511,2.414385841263811,-6.834708764619189,7.878022226909662,0.07765585940389844,0.19848946434636985,-0.0284776626050583
1682026819.7685966,1.5181738339021709,-0.580848087500603,9.49052274484711,0.07837208631728758,0.2031249045699795,-0.0208513023227564
1682026819.7785544,0.47694442267997406,-0.6984266264492806,10.359884049731736,0.07085891324494978,0.1863341816940075,-0.0056306076131872
1682026819.7885933,0.025705621021415045,3.323899138931025,9.333187450822127,0.016142226695542272,0.18872728219539647,0.0147756753593571
1682026819.7985723,-3.138519754681069,-1.8688285819795518,8.807913778858723,0.03012334025797135,0.15209403639555114,0.0126531930744536
1682026819.808648,-0.892601132262414,-3.3754027774876656,9.161873438838454,0.05493786557722946,0.12412971887930009,0.0058859434082992
1682026819.818571,1.7587966138342928,-5.241961177119201,7.0166759591556,0.11593946437958169,0.14941172727589394,-0.0116593673721067
1682026819.828647,-2.654621453371237,1.4612795917501926,9.275051995750573,0.10971433655804937,0.12277392562016484,0.0038335664301999
1682026819.8385372,-4.282180412165349,0.40633636748022867,11.917785220907366,0.06340665381763225,0.052486012588872796,-0.0038402400806657
1682026819.8485336,-0.20385419207688904,0.6110650676103971,10.625172644586463,0.06622488103194463,0.02987337011980725,-0.0212448382645956
1682026819.858589,0.3574836970249675,-1.6341445155098782,11.368166206754342,0.05609265040907887,0.0157610364742124,-0.0270496638387553
1682026819.868555,2.4968671769841078,-0.005041478194560533,10.095385776770033,0.0627820721575065,0.03825464203209377,-0.0211857272207848
1682026819.878595,0.5095848557709577,-0.9054131798530677,10.518190294750886,0.06135331850731615,0.03564007677239566,-0.0169156299799792
1682026819.8886464,3.5115089106478603,-1.3912010632943688,10.087328961356109,0.06518618311969762,0.06265049051685417,-0.0010499475885294
1682026819.8985202,3.150073272976871,-4.040753124620452,10.0411125648481,0.11203721231008079,0.08878385410961566,-0.0012481486320607
1682026819.9085033,4.346822800325506,-0.8752649729726406,9.825184329565484,0.11271386653035328,0.12811438309171067,0.0033775578357167
1682026819.9186049,4.643181199852199,2.9284000303685422,9.334226042659314,0.08272671110250723,0.17829058127496863,0.012738391394902
1682026819.9285667,5.787815692478119,0.562660725288145,8.819188690036238,0.04463617673486383,0.2329884110113437,0.0273225946456082
1682026819.9385066,0.9050187471538144,-0.5838214252876271,6.816938124264911,0.0798832810509677,0.26735546983670533,0.0163650238990672
1682026819.9485478,-5.536459826460016,-0.1703875305740536,12.05841109083418,0.043815774394545384,0.1769408351484891,0.0017341035562426
1682026819.9585705,-2.564818673197219,-1.4696554536884732,9.87768804260009,0.07024452288338477,0.11916873080176572,-0.0254137957364432
1682026819.968576,-2.5738185957138255,-2.665589900169259,11.165895708854285,0.08200023129651995,0.061682473746898496,-0.0582585906505696
1682026819.9785864,1.9096551149015604,0.4693521492597753,9.344253204987027,0.07088877539197369,0.0683263504973708,-0.0549904269993416
1682026819.988676,1.2464996759881173,-2.013325220832754,9.367561313998202,0.08264790491743836,0.07492969717390295,-0.0511498054385296
1682026819.998486,2.6150193294905733,-2.4454286265450547,9.630660987335732,0.10350207367998102,0.08854545758524004,-0.0430702356517426
1682026820.0085883,5.815256493454393,1.950447886402958,9.062987125325778,0.08729409990409814,0.13182860887959127,-0.0277904992818943
1682026820.01865,6.8898064283585985,0.9070452774520698,8.187103791476192,0.05633381130206103,0.23738370345898138,0.0005861143452935
1682026820.0286143,-1.5362573036791827,2.110659088159746,10.341238012677387,0.03658508825642429,0.20997479788061904,0.0188175445526726
1682026820.0649571,-1.2141766945659154,-1.1063729240265898,9.80476450475247,0.057939116341062386,0.18854290183045458,0.0035329032560698
1682026820.0664656,-20.86938177372159,-6.345762699715684,19.34728054328859,0.06367428185045931,0.1299050894142134,-0.0184483708709589
1682026820.0687282,-0.2948419048686321,-5.229108847596224,8.57557795701123,0.0793127256491442,0.1316006595386761,-0.0384996099293343
1682026820.075485,1.535077273823611,-1.3924431350024993,10.107186024700326,0.07593760996842815,0.14383790138744776,-0.0438246479153744
1682026820.082773,1.3756758187751421,-1.274342721159199,9.724127197427068,0.08798875062394355,0.15305124682661414,-0.026471174684178
1682026820.0889397,0.6029934775888308,1.8128594780365268,9.179431869966239,0.07761890004020366,0.15806318017336923,-0.0082420812815539
1682026820.0985744,1.2407241958575495,1.408731651384971,10.244047902261531,0.051166047395604146,0.1518329940878245,-0.0056959063641838
1682026820.1085727,3.990996903955495,0.5330199952909815,8.306819097261647,0.03685035323021559,0.20923888983780148,0.0095741782441623
1682026820.1185858,-0.009313660586880162,-2.014474294464303,9.689252306637417,0.06272114572533526,0.20505468262270288,0.0204176573187001
1682026820.1285453,-2.18919489026744,-1.8539232916090675,9.937733767853201,0.08055309969316324,0.17600204026977526,0.0030204997036494
1682026820.1385396,-1.9485391111759987,-1.5551531931976426,10.920763424162416,0.08890565344430001,0.13448271858088365,-0.0151629442244879
1682026820.1485696,-0.6897334009159918,-0.9785646153875809,9.65958186144137,0.08871502595193916,0.1164820930010633,-0.0315684800863377
1682026820.1588438,1.0096657471104296,-2.055906274898785,9.236353326415376,0.09499556718121063,0.12216944331049992,-0.0190213056177012
1682026820.168863,1.2284457476804107,-1.9174536107596158,9.340316900786874,0.11529347145189892,0.12892383591413778,-0.006714525063347
1682026820.1786385,1.12597049879571,-1.817998313675652,9.126466156132441,0.12725340184640418,0.14104038924783818,0.0008357232307903
1682026820.1887095,1.2463456717000938,-0.7212574359135394,9.417191491653034,0.13024116930452795,0.1484527562946351,0.0063014557689316
1682026820.198637,0.4253638939083581,-3.3461218753923427,9.431738001943847,0.16018268130971375,0.15487066156521026,0.003983161748562
1682026820.2086108,-0.4427813634821926,-0.5865662833233496,9.44898713266467,0.17208162634543533,0.14541340296751917,-0.0084034431621543
1682026820.2186644,2.182597496604348,2.31758272179254,9.270818794347846,0.12926397041386004,0.1692718663601241,-0.0149083932757489
1682026820.2286346,1.3659808178058124,-0.6833079002180747,8.827053914676396,0.12989212387099114,0.18799988583405847,-0.0163967082172743
1682026820.2386675,0.8033199841736728,-2.6206732796940866,8.943071003548274,0.15288468551049827,0.20095999337670087,-0.011142744113516
1682026820.2485445,-2.300740572057109,-2.228982601067296,9.444534615789381,0.18587536224807003,0.16255890935523296,-0.016816635978233
1682026820.2585506,-0.06674029614980212,-3.3232845069480232,8.285573559925988,0.21363144669572554,0.16089468721590977,-0.0281962504506222
1682026820.268581,-4.478825232986053,-2.9457659254427986,9.133769428802037,0.24433651166656695,0.09896033481687062,-0.0373715883016697
1682026820.2785487,1.983243094377741,1.0556255728906292,10.3681694073801,0.21445257697068826,0.10968186451359557,-0.0444274818420521
1682026820.288871,-1.5121177619202133,-1.8736602836813812,9.280761529304927,0.23821001328027555,0.09529343336248153,-0.0262446137040965
1682026820.2985983,3.186103952424473,1.763116672990859,11.09957489269787,0.20608253575599558,0.11505895612208086,-0.0134229868546239
1682026820.308548,0.7576299706309526,-1.0512473647141924,10.076024921663512,0.22421635918250934,0.12466070901813053,-0.0043414918601624
1682026820.318661,1.7193389551323977,0.8382307562317592,9.902269492658949,0.21289382395868842,0.1329517744680198,0.017186862054456
1682026820.3285763,1.0895023680438203,0.7866539271964327,9.634635755194484,0.20657714193600593,0.1517905060420415,0.0295202514260895
1682026820.338638,0.2992121506259545,0.39754746932059154,8.740804071174995,0.2142760615049086,0.14759970899648225,0.0250243922799714
1682026820.348695,0.7504960113338862,4.9962402086656,9.897218186031006,0.14558353792427117,0.15446616060678633,0.0323238099098094
1682026820.358657,-1.502979702380743,1.9219703205185843,8.655725340035849,0.1354066015133462,0.1468377374478948,0.0376241566717513
1682026820.368967,-5.111715431917324,1.8248172918500316,11.20587302907648,0.10477425842651794,0.07802690263767618,0.036427515196789
1682026820.3787155,-3.4518377669783193,-1.4906977082223807,11.98862229427982,0.1360160590336191,0.01205604968158103,0.0247710762649663
1682026820.3886237,-1.575524809142401,2.1430811402294565,10.871937517241186,0.11484829890079071,-0.016942624503230006,0.0215826636284478
1682026820.398621,5.625998034225014,2.4445245690149666,10.13954308139684,0.0903091228451792,0.0404957007095452,0.0325169550359137
1682026820.4085784,3.593416644764999,1.3796800949387227,9.549260240829694,0.07446040874284668,0.10338486580829305,0.0478268774330504
1682026820.418681,-0.8821011240834832,2.7030785545601863,9.763430040401252,0.04791001865044865,0.09365803258280814,0.0567460009932406
1682026820.4286222,-1.548269165153883,0.2434775688692261,9.768425613771857,0.035304376544300846,0.07581055054512446,0.0643220940709002
1682026820.4388578,-1.4291338240188745,-1.5295630252875188,9.879938187521105,0.060311201586854525,0.052670048616718194,0.057851465988148
1682026820.448732,-0.719781688013458,0.5866919378267754,9.732584995039579,0.0536808601657582,0.04526155738180549,0.0572440015256293
1682026820.4587004,-0.10661712398893686,1.9696065797480402,9.328505919916976,0.0283958006948249,0.04942970269943223,0.0600806648015864
1682026820.4685814,-1.1978297015597918,0.4501656066507405,9.877511274866245,0.025814950230473383,0.031560234523059665,0.0629535863280184
1682026820.4786625,0.09618044107107493,-1.8771054409691765,9.381319446905406,0.039294344116300894,0.03542882780461552,0.0613974729657061
1682026820.4885693,-0.7770676387717287,3.0766974332482286,9.648751593522602,0.019053256773825262,0.027722565938486512,0.0737084025621302
1682026820.4986944,0.6613556493728454,1.4701314889824275,9.778511968259153,0.0042461700285356795,0.029417721859518423,0.0740876818179972
1682026820.5086129,4.504696173682049,5.6374405259240685,8.477293928208647,-0.05899142527214769,0.0836152081811464,0.086251648712147
1682026820.5186543,-0.49032713143158463,0.14185089660056732,8.0007442482415,-0.0686817655818937,0.09052200479078178,0.0798845911502726
1682026820.5285687,-2.2420905508456346,-3.0809302749451666,8.691001209859296,-0.017055544645520275,0.059414302588564796,0.0915080184221156
1682026820.5386724,-2.374907239429952,-2.422500829371256,10.548701832211655,0.0028274343320045894,0.01857444111719858,0.0693492317676432
1682026820.5487068,3.684154555452454,-3.341638379373748,8.388379587491258,0.05606216020675295,0.05177217159905719,0.049838586348284
1682026820.5600045,1.0598871994128591,1.5599866588152072,9.607097941649586,0.0407868666390973,0.0804031551274284,0.0308295140147097
1682026820.5686505,-0.5783504046856239,0.6531687581289978,11.468454834213837,0.012175065350603934,0.06380358051421148,0.0119802706047781
1682026820.578616,3.529201841544957,-1.4686951086849114,8.571220618226812,0.035135489160905156,0.1015880613957139,0.0109365336701162
1682026820.5886164,1.0138109619868256,2.3537175612783994,10.04628927707881,0.009526321277925286,0.117954952057709,0.0253167586505301
1682026820.5988324,-0.22618469389832235,1.6391177699377637,11.750231790969671,-0.01831283900587225,0.09996495959434218,0.0277048857986815
1682026820.608794,0.8368324140963583,-1.5425949378547772,9.34851575561066,0.010218533329728226,0.10671309320678356,0.0372233154356368
1682026820.6188347,0.13616459147602936,-2.243978544856266,11.021086046904243,0.022295400835201245,0.09311540588246923,0.0347556160867102
1682026820.628742,1.2388170305643105,1.2272044584345363,8.512004664540415,0.0318857467020824,0.10734225537654453,0.0376545140623934
1682026820.6387177,2.41781175530046,0.22802096032038566,11.783231030179486,0.0009132071266655769,0.11822662207408566,0.0459619635820277
1682026820.64877,1.8959478460612045,-3.2887988468410727,9.074463120547478,0.04892514062774717,0.13895963656738775,0.0388284945964701
1682026820.6586373,1.725613153538385,-0.8105251347141471,9.98345380217067,0.059408210723880354,0.15622507361640225,0.0362723084270842
1682026820.668684,1.4361284060991688,2.135670431444369,10.454806785538631,0.027141827957278587,0.16559082974102154,0.0433724807679541
1682026820.6787386,2.517443553082547,-0.6511121782934967,9.246153959589982,0.036328417257717883,0.19256203038522632,0.054251203882683
1682026820.688716,-0.308277614513776,-0.8553703573562887,9.950549853039751,0.04731934305742033,0.18248380818875243,0.0539976904272921
1682026820.698675,1.7664976412615856,1.2747414634286256,9.514116560664576,0.04007314314113084,0.19649271332540333,0.0666140342235453
1682026820.7086835,-0.5087119461318144,-0.3843010776055858,9.577540742727889,0.034543436140266594,0.19567891643670793,0.0574971201002486
1682026820.7187204,-1.7443496159426757,-2.4187385529367096,8.367494342243392,0.06207542024318357,0.17643577894110926,0.0491955788910277
1682026820.728757,-0.9129821908669503,-0.6078055085530562,9.199231334041867,0.07108600465358927,0.17034997490481976,0.0353134820341952
1682026820.7455614,-1.1699344169858092,0.3213962071261261,9.099642325929633,0.0699773960381534,0.1617291137705531,0.0322865551441796
1682026820.7492497,0.6368190954882416,3.286916155351933,10.91393737988014,0.0448718939318766,0.16721259996439813,0.0333239497721083
1682026820.7586474,0.007048667670143366,-2.054965678306806,8.682909953765058,0.07389197084727904,0.17482168671454174,0.0332844840466864
1682026820.7686594,0.06257619608067995,0.6180781056256432,9.625599025305107,0.06953593271269361,0.18476529452589893,0.0350793102860339
1682026820.77872,-1.3268929126740123,1.490648518152712,10.021656673741205,0.049686545506067735,0.176771826855685,0.0350468779086955
1682026820.7886405,0.8039400519501889,0.08334969943451698,10.054818469664719,0.04603674451462373,0.18378196414615222,0.0298291357338317
1682026820.7986352,-0.0194027570828489,0.2348939113588791,8.471153704179073,0.051438152490839606,0.19583679436772064,0.0313158748775609
1682026820.808665,-0.9403223740176215,1.8899995347565441,9.648951454105266,0.029633736314375415,0.1872719662860041,0.0366658108413107
1682026820.8187833,-1.851421513603811,0.7886266237627972,9.430148311875667,0.028152548686376764,0.17291929800402586,0.0386172743618376
1682026820.828642,-1.111257450367731,0.8614923448194408,10.135141498099262,0.01462475751676461,0.15788565939222576,0.0390130231261141
1682026820.8409324,-0.18546012080589996,-0.8352043135825821,8.778731254481222,0.022894953873201434,0.1664069401689886,0.0384743610501177
1682026820.8488605,-0.4854759129996681,0.26806980215854703,9.397234997739357,0.03252236258382724,0.160303867323674,0.0401410708308108
1682026820.8586173,-0.35695624957962646,2.162815954071674,8.879009303177625,0.005312672509043869,0.168464296838868,0.052242635387171
1682026820.8687108,-1.939620909075432,4.875987280239894,10.006380987666017,-0.04432634698112171,0.146819721843652,0.0603242987871058
1682026820.8786674,-0.3379761713644741,-2.333432813216114,9.73470650591892,-0.03463538622260003,0.14335177051250772,0.0825456554174311
1682026820.8886547,-1.774868265510009,2.3525587381802024,9.336395714838398,-0.029490856488779995,0.12133209984917402,0.0897024223685153
1682026820.8987195,0.2620735198957153,2.6557598330939656,10.228756972056066,-0.07754533909500218,0.12617712959796973,0.1003307575464137
1682026820.908682,-0.8909357859804536,0.38050241136787216,10.615433149252198,-0.07869827618148255,0.11942810006118695,0.1012943262338526
1682026820.918736,-1.0822596152857717,-1.4540601586614978,10.217050702139252,-0.058328845733362826,0.10910857099530145,0.0777273872971423
1682026820.9286768,-0.9918529063257673,1.223704374212929,10.645603696161585,-0.06638914967337207,0.09979197854968558,0.063732022988785
1682026820.938668,-0.13572113445719436,1.7444993388780494,10.424151904520786,-0.09233245998908182,0.0974541484834577,0.0632912019371874
1682026820.9486778,1.2205559157036552,3.4545474035222354,10.022995953021567,-0.12616476952080025,0.11070195841756518,0.0682458305835612
1682026820.958623,2.554140197244964,1.529827189976664,9.512424332175367,-0.14618731346661704,0.145397657251115,0.0803367743372805
1682026820.9687111,-0.36442828866635146,3.259969292722971,9.421408779367098,-0.17065119794500822,0.14256951585217176,0.0902543539285548
1682026820.9786465,-0.12842347014139416,-3.3765143931464263,9.738362520917587,-0.15481485301498663,0.14752145215864707,0.1040919819950945
1682026820.988641,-1.9752537671119272,0.2559460462560231,9.567385833603781,-0.11996979867979403,0.12498967759576558,0.1047188961982615
1682026820.9986298,-1.0584118326878724,2.743835120082586,10.69100113778608,-0.17086111310368962,0.10981915462732214,0.091058435487736
1682026821.0086706,1.8224262048103776,3.5073348759659617,9.054131463951062,-0.21219489430915375,0.13846656459259818,0.0947579840302355
1682026821.0187228,-0.6813417816796431,-0.10714808856356797,8.830440660765047,-0.21003741544805635,0.13871661180249573,0.0987032229184992
1682026821.0286298,-0.6016652006616922,2.3589319205604142,9.570916193366498,-0.22787771885123584,0.13587966649239283,0.0919507766246684
1682026821.0386715,-1.4189290454566115,1.1098738673970538,10.115018506574273,-0.2540708136856125,0.12935995153414137,0.0946377838134654
1682026821.048684,-0.9064222730865074,-0.6259006617467574,9.550729939087486,-0.22737164957438552,0.12052542193413124,0.0987319747090228
1682026821.0587049,-1.1745824426997091,2.4446967735001794,9.823423843027008,-0.2659527536680624,0.11528946129410356,0.0911733904957659
1682026821.0686872,-0.08375262092875367,0.27890937343082195,10.16706308432292,-0.2635663876193341,0.11352273380132713,0.0883755782723315
1682026821.0789342,1.2773813891435364,1.0160439692025338,9.24592353430194,-0.27963926650736903,0.13959751786796826,0.0878882432460673
1682026821.0886765,0.3569039050292849,0.7523112075999415,9.303475738373672,-0.2835678405885138,0.15163554462408715,0.0806533346056826
1682026821.0986788,-1.6286992275730325,-0.567195453424069,9.634454532611372,-0.29694446653978107,0.14136899649560294,0.0577294254779704
1682026821.1086447,0.6026042232692221,-0.8003084742241654,8.908258099665785,-0.27729112156408764,0.15453663855044272,0.0604430126130469
1682026821.1186662,-1.0841467725151948,-0.5743548640066876,9.529113119105459,-0.28266844692821264,0.15564032348853682,0.0504672588884718
1682026821.1287465,-3.7328510073842724,-3.646906295077714,7.788865754383997,-0.23898473099837758,0.13008239986109665,0.0326229954242594
1682026821.1387105,-3.0405292832325608,0.4678221261422661,11.363881429129423,-0.25102177763954275,0.08811236079800187,0.0201307429104931
1682026821.148726,-0.8548947319537922,-0.06371223526729433,8.496715986270345,-0.2494356702130157,0.09447145789811894,0.0129132285818346
1682026821.1587248,-0.10858493923580684,6.929777864894627,9.276429108825674,-0.3397471137780902,0.0910113772356272,-0.0145325096219889
1682026821.1687958,1.3543912208513085,-1.6015351060097338,8.981063441573237,-0.33616459695495526,0.12114254050460395,-0.0188432572305313
1682026821.1786375,-0.09417764062964418,1.7807989608793953,9.137868228596176,-0.3432008758475988,0.11374848369240627,-0.0351182570576779
1682026821.188641,2.403678807163249,0.017070632623119652,8.757293989776516,-0.35293309017159635,0.16904677136579338,-0.0467112822353951
1682026821.199124,-1.8492531976960123,2.228099821900567,9.743518806034384,-0.3826750829565964,0.15415953834036708,-0.0342391965806595
1682026821.208635,-0.4765584339615034,-0.038122089854582875,9.832482873035634,-0.37434242865533857,0.15997570718321055,-0.0297960838198773
1682026821.2186964,-3.3767495135674674,-0.07825371384327139,10.888743687015573,-0.3916312430394955,0.130175648597974,-0.029885311973106
1682026821.228801,-1.410197761755167,-0.861917638197354,10.454346671941368,-0.3835616910576406,0.11632514498965295,-0.0190905736655108
1682026821.2401855,-1.245734914232381,-0.8493309987440739,9.82588250133609,-0.3731530906027768,0.10873104167649743,-0.0098439579725377
1682026821.2486603,-0.09673079075779914,-2.6631280117103757,10.670985501692549,-0.36731898302104377,0.1068652306106733,-0.0235379854112975
1682026821.2586825,1.7106139184268205,-4.846099892308695,9.05451730753356,-0.31391548853589796,0.1414087226606987,-0.0273250969022623
1682026821.268665,-1.7853503373484232,-5.060070120684265,11.223641217196423,-0.28034680788855443,0.1300418036481477,-0.044943833154451
1682026821.2787,-1.3942017362704942,-6.765868285797629,10.812171213306586,-0.20768715823201964,0.12135426930372067,-0.0476049085974804
1682026821.2886744,-4.8450864377421725,-7.29387261276423,11.785819203634986,-0.15102327689921874,0.06685014434426544,-0.0625490521907917
1682026821.298724,-3.690334432389799,-8.47429829800363,10.561028844440035,-0.07586446148125192,0.031909169694899375,-0.071778294992458
1682026821.308637,-5.841001026296287,-6.52049113516976,12.069422492031652,-0.017603888887446628,-0.04933406406050407,-0.0780334969878308
1682026821.3187015,-1.21704305670899,-1.9498748943795956,10.116636532092839,-0.026765772075646004,-0.058752005951829445,-0.0675159072399251
1682026821.3287263,-2.439259532084364,-4.239815463709642,10.643705304101882,-0.004356398835002585,-0.09886684472129237,-0.0542535981059185
1682026821.3387325,2.615180201929712,-6.407893318267411,8.93771537247801,0.04896273415897171,-0.06942592026985202,-0.042225708615791
1682026821.3487017,0.11189621733988599,-5.044146029190375,8.07667409531259,0.10895384298271603,-0.06332329225961036,-0.0169779261469952
1682026821.3586912,1.491395289107145,1.7672740540881557,10.366395583181916,0.08086712059833945,-0.043485555200939364,-0.0130673231452814
1682026821.3687065,-0.3442621617320263,0.025390881477007025,10.848334541103819,0.0548673259057195,-0.03822919860438759,-0.0073708634719364
1682026821.3786457,1.5049657615595562,-3.2096654047489657,10.594548649246782,0.07964957598320928,-0.02362929734228922,-0.000409591606643
1682026821.3886504,-0.7859743677018329,-4.778111752223484,8.206718251002473,0.13585294287618888,-0.018604290382510387,0.0066557727858312
1682026821.3987038,-2.3858816992219323,2.3783081964724055,9.665095342676882,0.10887828613011062,-0.040667410518708993,0.0059117186918743
1682026821.408695,-0.5526223578968814,0.4812181426646054,10.825418057236455,0.08003391654441158,-0.038557758306259494,0.0040427815273292
1682026821.4187007,0.5292854603658912,-1.4492732498264282,9.954839617828371,0.09086974211625819,-0.01578491726781397,-0.000894412527617
1682026821.4286685,-2.209486955353917,0.6137463783396327,9.008579890404906,0.08742369981152778,-0.013064975549958181,-0.006985301513981
1682026821.4386952,-1.165225345014785,0.9866480240057212,9.767892087314834,0.05924015765910243,-0.0186953926273433,-0.0097643941536657
1682026821.4488366,3.5357321217234454,0.28427466733894924,8.160192105588441,0.0505734318383105,0.046581281652974045,-0.0259543595731369
1682026821.4587002,0.5261318662020869,-1.5819917542647772,9.199985639065627,0.05816809500251991,0.08888033029225702,-0.0100528703898302
