time,ax,ay,az,wx,wy,wz
1681944579.213101,-0.3777529737201891,1.8938590522587024,9.549855903088279,-6.82280373532692e-05,0.00018041317255001167,-0.0012440696905604
1681944579.2231076,-0.4885485431474315,1.9389947331157482,9.665272329898011,-0.0018288152264821708,0.0005883280211875524,0.0006897363031976
1681944579.2331114,-0.6065309006880614,1.7355040864597715,9.611556763278053,0.00022419907527512406,-0.001301123875038803,0.0001283272553929
1681944579.2432692,-0.47827952080641245,1.758897140664992,9.607775049194293,0.0009245467033011009,0.00013273511794486268,0.0010287274176017
1681944579.2530923,-0.57044717635834,1.8611510073492334,9.615103261181837,0.00032031610199660427,0.00023555408793966823,-7.69299536249532e-05
1681944579.2633653,-0.4663533285710631,1.8550978717643147,9.611509854948517,-0.0019271774268564516,0.0023373520209698795,-0.0018788589245877
1681944579.273178,-0.6878697142729341,1.7653229465308704,9.678959979485876,-0.0002738818941181768,-0.00018467164318744901,-0.0007080092641762
1681944579.2832122,-0.4893635910097388,1.8221530429178383,9.583387597300026,-0.00034577115519313496,0.000738832287652693,-1.4348219824482368e-05
1681944579.2931151,-0.6151602363141477,1.789352102806691,9.638364159667367,0.0008593712930756902,-0.00037130439938341526,0.0009527256165393
1681944579.303166,-0.5357762091833239,1.7770982922945022,9.608589535619325,0.000863078471828271,0.0005752973468164493,4.748496345664127e-05
1681944579.313091,-0.6469124886199286,1.980739260226243,9.694825638447226,-0.0024606053360653225,-0.0011569796689479789,-0.0002162739715776
1681944579.3231118,-0.5519569941483371,1.7125575721327084,9.609845462423415,-0.000691472657994466,-0.0006410205800346445,-3.0376979825545717e-05
1681944579.3332074,-0.6036263278512984,1.9010821112240714,9.64820498026449,-0.0004213873894974745,-0.002660864172307344,0.0022081571782701
1681944579.3431137,-0.36293274490814786,1.6748877668090831,9.510249266496492,-0.0007976461892720473,0.002865976971265104,-0.0015651869203201
1681944579.3531375,-0.7098164764927247,1.7711008696398818,9.6801502628984,0.0023405400714934053,-0.0015525838526034216,0.001145321029494
1681944579.3631246,-0.42312233097232527,1.8506713405380613,9.578070600477439,0.0011260946628654127,0.0008438907767816748,0.0012027141906083
1681944579.373124,-0.5717668222127725,2.005563039743165,9.708374801112589,-0.0030138107400976425,0.0008714590465730492,0.0012414471979946
1681944579.3831763,-0.5942872911105646,1.613560319502651,9.586053852679957,0.0005762357057951709,-5.6513347459848036e-05,2.6993189262698725e-05
1681944579.3931775,-0.5690855997687471,1.8388630140064697,9.646207258547514,-5.632875755769903e-05,-4.04826571503552e-05,-0.0003682509145936
1681944579.40326,-0.5814623487234889,1.8295353489010677,9.643984091138796,-0.0006303832564847551,-0.0006723106445444424,8.28745228000985e-05
1681944579.413153,-0.463599673593988,1.9547594555815588,9.610947708575214,-0.003243313095813787,0.001144524777583302,-0.0002583318005553
1681944579.4231884,-0.5915385345542006,1.5704652906226355,9.585004313378395,0.0011525328033764727,0.0006728942014715527,-0.0001756722654453
1681944579.4331524,-0.6133092458446088,2.028307691607586,9.69482345670581,-0.001502096530885301,-0.0012970297052682896,0.0011852029396914
1681944579.443106,-0.6213244721061247,1.5416576695105597,9.596600572648196,0.0028419688440694322,-0.0023580075722227844,0.0003604306525313
1681944579.4531326,-0.5322782906524429,1.855941318618536,9.613342127790363,0.0009938470741180014,-0.0008171798474127251,-0.0025825548532656
1681944579.463125,-0.5184603227971628,1.9020454485203764,9.63410007391933,8.85983681629018e-05,-0.0008973047455732338,-0.0003228042355975
1681944579.47317,-0.5199997168044261,1.7492320193789657,9.58235191893104,0.0017388846490888209,0.00023407355688538075,3.523743967066839e-06
1681944579.483101,-0.557549618361587,1.783164314760883,9.625634896440314,0.002690347026702247,-0.0006253753985364912,0.0007348018384301
1681944579.493138,-0.5348171090137848,1.904622474998913,9.654860657522406,0.0011890602922325043,-0.0003247332048415882,0.0013509607210517
1681944579.5031133,-0.4240313880231245,1.8445964521001996,9.575261019577084,-0.00017925285591737102,0.002546350101602016,0.0007344335003518
1681944579.5130892,-0.6167566799281811,1.9110693372437182,9.675631228640004,-0.0031148255106836823,0.002199525235588961,-0.0019570702302507
1681944579.52336,-0.6645775848115224,1.5298448444524795,9.606731486742099,0.002713436695384466,-0.0002192947131758523,-0.0009456723078391
1681944579.5331898,-0.5097871013276407,2.0200226038536675,9.648001067981554,0.000841853929537993,-0.0005903511661716835,0.001922801993228
1681944579.543218,-0.5439107138737691,1.6728019117712047,9.587048434647489,0.0008273500037223369,0.0013300564333013083,-0.0026380551594546
1681944579.5532897,-0.6466879593132266,1.9420389948902042,9.715587255844897,-0.0005860506685992028,-0.0013536355052654386,-0.0004461083176783
1681944579.5631168,-0.4880662945353638,1.7572102823484976,9.555393784356774,0.0005252030635497444,0.00012155609187941685,-0.0005694210144928
1681944579.5732102,-0.5712805409591053,1.9665905622708455,9.688865605472477,-0.0026558284288279686,5.375458504449799e-05,-0.0003749489865503
1681944579.5848615,-0.5272016642516176,1.6570192842903833,9.546080381839744,0.0015075743906471446,0.00040913876970815623,-0.0001164146547443
1681944579.593163,-0.48740314176895577,1.831466018310702,9.593794610319039,0.001284400898639063,0.001799802317264652,1.1704132216523722e-05
1681944579.6033127,-0.6494337139685201,1.8921457932782035,9.703746432057445,-0.0008442198103677972,-5.762573987586945e-05,-0.0005247128742984
1681944579.6132133,-0.4906773335465583,1.796803329325547,9.56921136314849,0.0004521885776303054,0.0008085001276596409,0.0006450242048823
1681944579.6231966,-0.6084919202615947,1.913067043905465,9.713435534820826,1.7478040414753498e-05,-0.0015130976616302778,0.0045804067899235
1681944579.6332755,-0.5946016587142808,1.6624456686754348,9.566623303061302,0.00041455945574999596,-0.0004771051047768393,-0.0006171089212647
1681944579.6432045,-0.5593780378328956,2.0412529250199785,9.708426772754668,-0.0024758748243713766,-0.0015559501513610417,0.0033011720201694
1681944579.653368,-0.6135471794898305,1.5759120860511677,9.577038588460729,-0.0008106762142826493,-0.0006957869711063776,-0.0022685259196213
1681944579.663217,-0.4367094854040192,1.8139401507822843,9.55238336760048,4.9502582982568824e-05,0.001175046902538886,-0.0009285655419579
1681944579.6732535,-0.6310712077011096,1.7264986058470324,9.65091845390966,0.0015966087331658525,-0.0001690212753262568,-0.0009315101511082
1681944579.6832087,-0.4625956345314291,1.9236351752736756,9.59873696450622,-0.00046648853485501356,0.0014142424652542646,-0.0003466419025561
1681944579.693166,-0.7250515888197484,1.6265979958591672,9.658018935999731,0.0021002707865476282,-0.0013138322065571033,-0.0019824222277156
1681944579.7031577,-0.4426427423973556,1.961381276115248,9.608974936403802,-0.00025300910062085117,0.0005861005210110965,-0.000415937191551
1681944579.7132063,-0.4778817343790636,1.9576103338151514,9.638621054014106,-0.002509427012292887,0.001387771184869379,0.0012686522363447
1681944579.7232966,-0.5965480420895409,1.57828336124315,9.568344533675022,0.0013857277426063627,0.0013188857694016376,-0.0008335333864442
1681944579.733237,-0.6726942803967597,2.0303931805683137,9.75689109481496,-0.0019476391099951832,-0.0018953191960956366,0.0006975544069656
1681944579.743197,-0.47693359376132405,1.728647494908363,9.55906891092405,-0.0015501944480712597,0.0007742302924830608,-0.0016940847586146
1681944579.7532136,-0.6903937971156047,1.835203806156025,9.685282409881074,-0.001142235567520805,-0.002131124988015647,-0.0004122098057768
1681944579.763223,-0.3089022160238686,1.8129097198335495,9.54387552216375,1.9671693622895423e-05,7.573440128028751e-06,0.0010902005865001
1681944579.7731917,-0.8668641998222042,1.7604432984857137,9.69540453762299,0.0010262153188951555,-0.006481151527438823,-0.0058530151459625
1681944579.783186,0.5271860255638148,1.777491900741495,9.637568650972403,-0.0015115575593733204,0.002491917746644662,-0.0080636135849407
1681944579.793205,-0.11364644013026298,1.8707087987698783,9.343120886279273,-0.0008635717166407225,0.012428426791787767,-0.0002914908423325
1681944579.8032546,-1.2020225830195987,2.0395332820463663,9.882037323680187,-0.00192713365490245,0.0003413049247521046,0.0058451703202673
1681944579.813375,-0.19419735054961046,1.9467629503576582,9.62311360722984,-0.005035942404956886,0.005378643297241971,0.0066666163888522
1681944579.8232455,-0.8184332124307085,1.419832397434231,9.54546251797415,0.0008880575824262565,0.00369336748840014,0.0036613690585591
1681944579.8333397,-1.0266850757165302,1.9438751705556583,9.669002233461333,-0.0015188710370804851,-0.0007415791873912924,-0.0002829389727911
1681944579.843182,-0.8157403470608371,1.6042879667529328,9.648260185963476,-0.0012070602838453962,-0.0008131594638126122,-0.0062247870105556
1681944579.8533936,-0.6491555704731324,1.7335149587967302,9.649873446416514,0.002332726309793844,-0.0028817874752692196,-0.0025151294271699
1681944579.863191,-0.5453606110927333,1.9451394119090277,9.553963950986518,-4.630908806611116e-05,-0.002291303028900791,-0.005798241737043
1681944579.8732471,-1.4380856612807846,1.2002741698306916,10.055571794911561,0.00686550394354579,-0.02742288943851346,-0.0358063887420347
1681944579.883455,0.42323334507641136,0.7884286580785502,9.831298818379334,0.0069835660966564095,-0.02927305641460775,-0.070987180954521
1681944579.8931794,-6.728067074097852,10.98219349721042,6.748575823262756,-0.05876870029769894,-0.1070297493924876,-0.0337044793728045
1681944579.9032917,-2.0228192484281906,10.068914669625253,13.121987729895386,-0.1867556676761777,-0.17167762946772164,0.0305772375699826
1681944579.9133513,6.885167987471787,-1.9067904301334346,10.217899068518838,-0.12748675876736085,-0.10511954327232335,0.0089554934215494
1681944579.9233537,10.130749114760894,0.8563251752037128,5.537857805121719,-0.13420638142390143,0.01978534713683561,-0.0742724623146704
1681944579.9332206,8.212408018194797,-3.7014665309032346,4.8131146830951135,-0.07281987570699498,0.1508303970381849,-0.1532433639827422
1681944579.943177,-7.735671225671361,-0.8149338283026376,11.828877604272503,-0.06495240939258018,0.0625163242655149,-0.2168478529515913
1681944579.9533272,1.8174451374896956,8.918306015788541,11.76426358077696,-0.13063915384075614,0.02208357200695531,-0.2324373434844664
1681944579.9632242,1.1756946539184618,6.299517675553913,8.722502476199828,-0.22841842153824596,0.04217521314294238,-0.2414873998227766
1681944579.9732022,0.38767767377833406,-0.9911348842777438,11.267067140546812,-0.20659248985840195,0.00016714863061231692,-0.2178332816425017
1681944579.9833465,1.6803634893487749,-3.7377914409298207,8.475799112645023,-0.1263369929710687,-0.006716553452337019,-0.2008249621453932
1681944579.9932046,-3.468027563721145,-12.68581485262465,5.720052660317576,0.007862055624233269,-0.03943274587919938,-0.1966035972896269
1681944580.0031886,-5.997909781834011,-5.511702319767019,8.39177588742392,0.13106736791526663,-0.15972508624277282,-0.131218345052307
1681944580.0132587,-0.7216284923667217,9.878213800001875,12.901115882852409,0.06399670084008749,-0.2059116666610441,-0.0325035091105154
1681944580.0231998,6.579488187471848,14.806940879695095,16.43772025580912,-0.10504591825078406,-0.14057713951113085,-0.0027701269450834
1681944580.0332336,8.564437790576184,3.3676051029211793,12.063359612867849,-0.11934542033069216,-0.009510068627107755,1.5910916286061838e-05
1681944580.043212,3.9866664199383344,-1.9089789111878266,8.226488141511663,-0.06601359479984231,0.062219684033677176,-0.0283771093550375
1681944580.053434,-0.07945026148768039,-2.5502159721644815,7.407125625736741,-0.008203499845798334,0.09370095444818244,-0.0740245442453078
1681944580.0631983,-2.8364834023617767,2.1516101122026594,9.491695423881128,-0.0008289869504218944,0.06495811673962008,-0.0978553529444388
1681944580.0731823,0.3266855701383442,6.3442112634189565,9.256618457772863,-0.06488385000364981,0.06564578436499971,-0.1157518189016035
1681944580.0831954,1.1463024026245445,0.7910457566819862,9.188934677541912,-0.08031494099086366,0.09083920370296646,-0.1221833388868025
1681944580.0932028,-0.7440540181334143,0.2545569436446033,9.417025135223122,-0.0676394463672016,0.08216425812859916,-0.1352917413774184
1681944580.1031797,1.637955846274954,0.023198433673457104,9.519658194709306,-0.05084979398033709,0.10744155964717557,-0.1262551407876662
1681944580.1132095,-2.263558197965544,1.2729066302181182,10.635439359068586,-0.04827809666527107,0.08393875468180997,-0.103499659484928
1681944580.1232183,-1.1488730429254816,1.835189670213859,10.633447945789424,-0.03522504433434579,0.058592431943783774,-0.0770608197513273
1681944580.1332004,-1.3007754077100904,3.4537400776665077,10.154193447990222,-0.05704250758592372,0.04693566503377553,-0.0448167483869246
1681944580.1434746,0.10616525776929932,-0.30953074392340624,10.794245038591738,-0.030637780797049947,0.037282524461101446,-0.0130133211228302
1681944580.1532066,0.827427363175658,0.9098758773291303,8.607321742967882,-0.005866884349475231,0.05692487247031419,0.0138203546789237
1681944580.1631742,-2.280894651560358,0.03992383042380297,10.479899574483396,0.009340353229880355,0.04165204961478325,0.0124767346692034
1681944580.173288,-2.2271461010264844,2.5177519806570636,10.33139453193613,0.004593937015482019,0.009048436957196935,0.0203333747026273
1681944580.183198,-0.14640604830879744,4.485733232971413,8.248148853589777,-0.028901105458567937,0.02501775954514632,0.0090514163871058
1681944580.193203,-0.05061987160452477,0.21043123426084473,10.228913256909104,-0.02896334780806998,0.025794759941339996,-0.0071933904278329
1681944580.203182,0.6989675562151342,-1.9043173914949703,7.822989857793782,0.022086894645419883,0.07056149844561484,-0.0339122872415236
1681944580.2132723,-0.8650430447494817,3.338232361214919,9.321778328040145,0.004532927842052981,0.07260897572075789,-0.0582763190928152
1681944580.223242,-2.220093020148634,3.4551952942508315,9.12033526433125,-0.03417291981436344,0.0817207542674513,-0.0716809939208678
1681944580.233288,-3.5705676736102063,1.9963951831654454,11.218264555798442,-0.03855051377256309,0.03318951956243888,-0.0710839565458945
1681944580.2432635,-0.49291161135267686,1.0545746335571042,8.905672200778184,-0.03768228239493015,0.05553100420773696,-0.0788255344691923
1681944580.253311,-2.9181275090006715,-0.7883461712174987,10.397124610016146,-0.0017214923843280492,0.026726847708663678,-0.0699159960809401
1681944580.2632763,-1.5608154545957764,2.12852839267329,9.63365405524371,-0.007292206809498544,0.023175182133899935,-0.0715742867055586
1681944580.2750394,-1.02617209940347,1.3555545328932577,9.840458556687349,-0.0023951703320229346,0.021725863487423645,-0.0703017945948294
1681944580.2831924,-1.1964906514959779,4.782784337241221,9.444564535518714,-0.04716046325538207,0.018751506452009476,-0.0692837398114851
1681944580.2932217,0.8783967123874844,-0.4320313125096843,9.054000589326746,-0.027362314400130962,0.036137155397676514,-0.0762403171125105
1681944580.3032982,-0.49791086316395133,0.11659932036951885,8.998187352432577,-0.01569954413187095,0.041675173101275255,-0.0873702924314192
1681944580.3131895,0.8907285271520444,-1.505237772029276,9.345744902061613,0.010190298404717617,0.06668220287983692,-0.1186530675354651
1681944580.3231726,-0.5955004403156097,4.4002201205008,9.378197858412962,-0.016816139210441335,0.07636346779757079,-0.1292003105941466
1681944580.333268,-0.05908219593995411,3.2224538389410777,9.343799487683468,-0.04936254375728609,0.08260459123779755,-0.13440032411248
1681944580.3432689,-0.6034082735368258,1.668428019028044,8.625121039905942,-0.04511633384483745,0.08219169132881386,-0.1463800828519514
1681944580.3532014,-2.618426856333825,3.3535722297923494,10.120366916724523,-0.06787307965856003,0.06736622725135515,-0.1614905904594115
1681944580.3632147,0.5579519631059813,0.6247412245170448,10.719569561851518,-0.06271714506745267,0.0720648825313317,-0.1576372097793272
1681944580.37323,-0.22933900471955584,0.040628551106340546,9.373676990236053,-0.03150699445850218,0.0931081467697155,-0.1554385136428526
1681944580.3832622,-2.809580980914092,1.9431124054927236,10.570712612699277,-0.03661199975338339,0.07264565750598581,-0.1482297937932661
1681944580.3932486,-3.473110210265772,1.89440820595695,10.352934319382532,-0.03456156813288108,0.03678097449080536,-0.1264828007283858
1681944580.403271,-3.882472315666529,2.071772797174908,9.39035777290631,-0.042102361158108025,-0.007841928720168454,-0.1275661598506621
1681944580.4132288,1.392259673570941,0.4533001221385307,9.690306680154047,-0.03142614274981428,0.014540256533627748,-0.1042532186570814
1681944580.4231725,-1.637350124282553,0.6768074224574269,9.531416449529056,-0.014819638332800814,0.0070495930390782995,-0.0890490348997763
1681944580.433256,0.7143594679067301,1.5732136297342296,10.06549956969811,-0.012634919102761677,0.02234790205317651,-0.0686966340604475
1681944580.443277,-2.94944663427732,0.8585082142137658,9.971695702766421,0.005315462842888155,-0.0007638925373974428,-0.0507307212415388
1681944580.4542794,0.3658245261743119,3.729700484517917,9.95303411216585,-0.02414885612272454,-0.004066863277245246,-0.0428354564669779
1681944580.4632325,-2.2248757664601966,0.8620515518153453,9.018178497998525,-0.018958161485221333,-0.006849287919314734,-0.0500113490584543
1681944580.4731884,-1.8601188500625914,0.7144850023296386,10.583891422792732,-0.012771226069275873,-0.03714422441595142,-0.0382305543485335
1681944580.4832354,-0.9853551291024958,1.0964913338073967,9.46377175035012,0.005614989845485484,-0.034165463306138344,-0.0308549377682856
1681944580.493303,-0.9288900471341239,1.781538927664271,10.664857460122075,-0.005354898151331586,-0.04731032452021195,-0.0227848041418245
1681944580.503202,0.7759303949060374,1.6841199907344235,9.056373470750852,-0.0010957502510006336,-0.026290968068708644,-0.0090534194919518
1681944580.5132313,1.7879064974874006,1.7371706466105894,9.269685222322188,-0.010503539986988122,-0.0028864174397371664,-0.0076471140223792
1681944580.5233078,0.19805860918736964,0.8191555580085073,8.50273391670861,0.005884460379207649,0.021012736372523783,-0.0069951677310517
1681944580.5332904,-2.227006069486178,1.843034207356098,9.751133481305494,-0.0021436348538480415,-0.004873274587510727,-0.0154642473521879
1681944580.543245,-0.5300166659931472,2.3330121084359923,9.806018811980362,-0.008778920161558741,-0.002162392274623751,-0.017432763389056
1681944580.5532236,-0.705134092359838,2.8930839858863386,9.449477206085245,-0.02360541383824455,-0.009229509294846524,-0.0237841356161287
1681944580.563234,0.47581281140688664,2.1163148196684123,9.557183281762322,-0.031184729396244632,0.00695424457981115,-0.0257118653121641
1681944580.5732608,-2.1909041998475156,1.6422536802897862,9.421040502036202,-0.016574695851177077,-0.009564836148599615,-0.0410235162439993
1681944580.5832126,0.17387313374535787,2.503825417635895,9.596548891855333,-0.039875258707029626,0.008636659475050395,-0.0592022921505621
1681944580.5931976,-0.6453897097505268,0.9965340498281972,9.240179384016914,-0.03378268848917486,0.021461506241406896,-0.0769714872899702
1681944580.6032407,-0.20026958284901414,1.7171360869325791,9.375441194403745,-0.04646181849053055,0.0397729805961584,-0.097905756122177
1681944580.613305,-1.467434985531589,0.5071671335409235,9.691248402130359,-0.04196360476313322,0.046717783015117996,-0.103943170196121
1681944580.623259,0.3074291143788459,-0.7809146346476424,9.143008001868631,-0.021006256427887747,0.05674575014140274,-0.1062529023352316
1681944580.6333258,1.5432934925720978,-2.4136053663089103,6.5340977114310865,0.01894849700022673,0.08909676140462454,-0.1196599538984946
1681944580.6433046,4.015950037091109,-3.233857235636441,7.921337581560598,0.04968968302716425,0.1392301681388483,-0.1302451502147368
1681944580.653227,4.944275795572343,-6.865728076795136,6.0515066718405714,0.12846778074932688,0.21281421850771595,-0.1568218480411223
1681944580.6633372,0.8861329366167039,1.709358296681518,8.169093813617042,0.13522268289663433,0.2475766040387407,-0.1917770962777785
1681944580.6733243,-1.3695325736948745,4.813374242129007,12.051316648038988,0.07121362226281502,0.22985881941495276,-0.2182611088815382
1681944580.6853108,1.7143614417417075,7.6963763732179284,11.035568843362848,-0.005702086192870952,0.2744636320207449,-0.1954906146588972
1681944580.693195,-6.941943055913149,2.5576759720879267,12.459358749291258,-0.016576606411257765,0.22398557689318493,-0.1870182316365889
1681944580.7036333,-5.09345057293319,-0.3008336043157634,13.375373439117217,0.01308736178201577,0.13929203003954646,-0.1605992626014403
1681944580.71322,0.5273888199172893,-3.897021822284559,8.752221919407928,0.10089489878392134,0.16107267941424522,-0.1381567727389983
1681944580.7232912,-3.101411588678009,4.561614073936746,11.059730409244212,0.08001213870527127,0.15436812964283364,-0.0964722718659094
1681944580.7332466,-8.199313964898236,7.494793583063451,10.238398614194999,0.04064475723427392,0.05749652993072369,-0.0568509969475916
1681944580.7434845,-3.9148719586409144,5.480847057154807,10.462236566843274,-0.04512717146097794,0.01789513280049271,-0.0394012529018572
1681944580.7536726,0.5407742258027847,-5.452725356606294,9.804301474820871,0.0616619922270091,0.044778727744912865,-0.0188620287540606
1681944580.7632475,-1.2017895141683326,-0.36511729166096674,9.385027792404616,0.09284950747721384,0.060393018337845286,-0.0276612389448336
1681944580.7731955,-3.241211905655822,3.624631652643061,9.606017420492512,0.06668151470772196,0.07032069480726053,-0.045644411033695
1681944580.783263,-10.365554934625887,8.43381909924192,8.448149061800144,-0.01286419884470576,-0.02354162888629564,-0.077255928105419
1681944580.7931964,-1.6464543146035948,1.5140180633465719,9.889574966461973,-0.05557204244883143,-0.03165232318129868,-0.0980020101729086
1681944580.8031957,0.8606047390002145,-7.451089096700117,8.831938459630688,0.06461968488772994,0.022909148812671625,-0.0816696595016173
1681944580.8132615,-4.26816667358005,-0.8969283024037412,10.623764875651887,0.11968161247938235,-0.010280053020829866,-0.0916041146579436
1681944580.823303,-6.510321011548128,9.864250875567672,7.201712327058921,0.03118757711831471,-0.03872895801900024,-0.0914082165423086
1681944580.8333454,-9.201425385637213,5.432494918456803,9.937124304915443,-0.030341753787851946,-0.15735706439156752,-0.0890448849263838
1681944580.8432229,6.429982629762555,-3.1372118428334663,10.093061169882525,0.02045792875777409,-0.07305301408911066,-0.0431554589036158
1681944580.8532617,-3.618689392124216,0.8346284221405342,9.706224396160252,0.06824895074892658,-0.0804666396484018,-0.0458746190729788
1681944580.8632553,-2.404304587239841,12.550744250794752,9.557016768190303,-0.0677633110644344,-0.10360051688087846,-0.0573274205985716
1681944580.8732488,4.931141038540274,4.4058003904227965,9.566514878089684,-0.11666322694263552,-0.028890750642693593,-0.0396071310702017
1681944580.8832538,3.5054824759207817,-7.69487050185757,10.922103000671234,-0.01624093084634017,0.0134427806722141,-0.0208329345646551
1681944580.8932805,0.21277210307726513,-3.0570228968861395,9.3977181410796,0.06567577112103087,0.041174020843160984,-0.0469051871064356
1681944580.905033,-5.976772740060824,7.24447665673211,9.736230839324438,0.003475486926506657,-0.035475739263151965,-0.0443374078336409
1681944580.9133008,-5.0466698144431,10.867246052135744,8.400145363252417,-0.1032092591398595,-0.0962513433378918,-0.0355465013149431
1681944580.9232943,6.9651604174053965,-3.0508299783682102,10.438694490682117,-0.09147390719181049,-0.007177989949054255,-0.0100001442793062
1681944580.9333358,0.871731111019654,-8.737266680217958,9.10970523832274,0.06088885736606385,0.01924088653387068,-0.0249584737780741
1681944580.943252,-0.9036432510496176,5.085365994796779,9.659964912631,0.04276106362371892,0.015842799983227063,-0.0414077054324797
1681944580.9532902,-6.092715513121399,14.263066894841534,8.761679120293786,-0.11775108792593926,-0.03666942044296718,-0.0473602015140703
1681944580.963262,3.0791413229037947,-0.45230015826251024,11.5443373418326,-0.14772203926275493,-0.011415483231378531,-0.0285131066653183
1681944580.9732802,1.278252436109538,-10.747533845417045,8.398374855053234,0.027937457240315777,0.02923440999802751,-0.012773327677255
1681944580.9833975,-2.7002356485452355,-1.6948815656275098,11.578066675650728,0.08694868260515408,-0.008936588323082658,-0.0416707481804541
1681944580.9933312,-2.079023155949605,7.517482822340403,9.770333151361907,0.010002878017724592,-0.009790644408917259,-0.0566796820226362
1681944581.0032728,-6.859524276496597,2.0644696794257524,7.90963747126229,-0.018375256662864336,-0.08451379392577928,-0.0901311423245123
1681944581.0132418,0.6245426593626812,-0.940114139618326,9.638815504048562,0.012622500599401858,-0.08080146733859722,-0.1132412116590193
1681944581.023322,2.492392649556066,-1.7713141613309746,10.287944951477492,0.046901582767372406,-0.037706909004120735,-0.1240128438535383
1681944581.0333395,0.7917983100219321,4.349587230917672,9.027185375569415,0.03361237908344689,-0.011804475556986996,-0.1245337288442305
1681944581.0432527,-1.2768934815603412,5.3137105140345415,10.062506009836685,-0.024110261811868247,-0.011902460440371066,-0.1353840838733366
1681944581.0532422,0.794057753205541,-1.5531234970000347,10.240556130493582,-0.009125432993288475,0.00023119581168726307,-0.1240424524608305
1681944581.0632603,4.057569747943783,-4.849438996036867,7.101236342874622,0.06586211451631255,0.02548679781372948,-0.1444774578872374
1681944581.0733116,3.5266251304617926,2.100390177698593,7.022356914656303,0.0549662021484478,0.11141054120600026,-0.1711290191474608
1681944581.0832465,-7.11983210441742,2.506102165735169,12.927501882514145,0.03368836995634812,0.02519500544363228,-0.1733079116407088
1681944581.093235,-2.1485462177258787,4.545543967427727,12.326656882089509,0.009011906401170312,-0.005694477315337204,-0.1545427601400069
1681944581.1032758,-1.7855451087206382,-2.4409682214655763,10.702979292017556,0.0460922197710973,-0.024054327567600554,-0.1382410090032271
1681944581.1132982,-2.986694657448541,3.909968351120769,8.76297324515511,0.0470688956051049,-0.05693694276254601,-0.1284978847566298
1681944581.1233008,1.0962472209944343,1.7989877277539932,8.998411896642615,0.026858841037351196,-0.04470411162702615,-0.1290147613349608
1681944581.133434,0.3618877418517905,-1.0910799455992148,6.253508525012839,0.07199081890348377,-0.021622601678044775,-0.1327336292329481
1681944581.1432843,2.3234855126889116,5.4665679119129535,10.817192351629245,0.01805597603998199,0.011562457829497538,-0.1547513912978819
1681944581.1543655,-0.6163309350171954,5.122474656023743,9.939284573716371,-0.04386739787470795,0.0489247107165643,-0.1687092642846754
1681944581.163525,-0.18442547212681007,-2.759735233424278,12.41292316854507,-0.010458945477861935,0.0444977947633453,-0.159014866835182
1681944581.173342,-2.251847039714357,0.4872213840816812,7.269826181412161,0.03436679208173767,0.04126566185970279,-0.1551489244762114
1681944581.1835148,-4.671805953844231,1.5602371585303547,9.901014982486164,0.011408636044128773,-0.006346734129235683,-0.1858696203294447
1681944581.1933022,-3.503531679107831,-0.3894175751405656,9.582575206182343,0.053980660851369766,-0.03708012502759408,-0.1836726378265074
1681944581.2032535,0.30650499434008854,1.5331407091231795,10.18941607810575,0.04035574154765035,-0.039289470671083654,-0.1729581068816832
1681944581.2132652,0.28900731694343545,2.9622045951599043,7.277743027741526,0.030928973965879923,-0.0032740610294388927,-0.1839645515742949
1681944581.2233489,0.1670569265509932,1.0929146518325366,10.991111181624243,0.024501221954458106,0.0002949015926320413,-0.1735098223748854
1681944581.2333238,-0.7983602605785323,4.717181309660552,9.348866937713582,0.008260415263380153,0.017632550233593114,-0.1496699165168455
1681944581.2432609,-0.12539861539826136,2.7348971587235584,9.808626798102598,-0.032430261083271045,0.012382115899429289,-0.1518891017499617
1681944581.2532723,0.5682149769606113,-0.33398599316660177,7.499845783430927,0.011366261275606642,0.05702431267046718,-0.1635235409799269
1681944581.2635906,-9.335738250353884,6.446601969132888,10.98595707088607,-0.044563886417728245,-0.058864788954533204,-0.1586840610566786
1681944581.2742448,-1.6061868583277703,5.613428829609906,10.193772186068362,-0.0916807806991448,-0.09957459206724449,-0.1388298134866408
1681944581.2842066,3.226028474052962,-1.1188105497257892,9.540439928737054,-0.06983146004141595,-0.06076329001744355,-0.1151730205479315
1681944581.2963626,1.4590584093365189,1.8370929984076705,8.752782911949637,-0.03954302961607659,-0.03217031579048945,-0.1231987487140349
1681944581.3032691,0.8137368877831598,7.0145385212864495,10.468074831278395,-0.09295173600679625,-0.01608997092705099,-0.1167478870216063
1681944581.3132672,-4.3691315819393095,7.912548497194127,9.609089885521803,-0.1569995491623361,-0.07234275920415852,-0.1045784514012984
1681944581.3234415,3.0869747766413633,4.283563783019463,9.162396056432804,-0.2086137412092209,-0.03980372220625147,-0.0936959322157553
1681944581.3399189,0.555919640342933,-2.963328991580258,10.339949875791797,-0.12917323508527506,-0.012408886976677885,-0.0947529311838797
1681944581.3432877,-12.610330401343907,1.7618664004835947,12.94462889872666,-0.11803668865326701,-0.08529734537507595,-0.1137862067285231
1681944581.355032,3.869215908375963,6.453573054500683,9.829530769085288,-0.20398175621128872,-0.029983805572535077,-0.1187501187983206
1681944581.363581,0.987017743451685,-2.8313326234166554,9.882125984411278,-0.1742560844500566,-0.019109589410386006,-0.1211723547044447
1681944581.3868616,6.805399976365827,-2.2260302032106662,8.64797526894107,-0.09006974105600418,0.0490090776984674,-0.1668996821704558
1681944581.3885405,2.9719164941766985,15.809766445091206,7.720544214174101,-0.1626424422892465,0.09133377829699274,-0.2278422575059584
1681944581.3940206,-0.8437586304017106,-0.4238398515473339,12.727150361110795,-0.16846964952809979,0.04785929722522522,-0.2076418261590651
1681944581.4032705,3.782736916484432,3.1244867872575712,6.962747830461685,-0.17242215531942032,0.1274508068678107,-0.2166439603629759
1681944581.413317,-12.623037070794108,6.1253441158724415,11.083327322559612,-0.22843342817369008,-0.007924590963176964,-0.2490980188909224
1681944581.4233153,-3.615185552882475,6.764395425392688,12.14274310052209,-0.30171702479858903,-0.09260977298054314,-0.2321258645120314
1681944581.433306,-2.510622415274133,2.113963284565181,6.757436389729117,-0.303332368200353,-0.09339222234013246,-0.2313025306525877
1681944581.4450636,2.7970494909415318,1.7914251465862197,10.299900492810618,-0.2989904961409299,-0.08273147306563305,-0.2623655061784438
1681944581.4533,-3.5746547014575096,5.880442253194669,7.84293947358146,-0.3542717088733592,-0.07494279770440461,-0.3173549037042311
1681944581.4633155,6.138908737926682,4.078523618631818,10.449996671038027,-0.3800048797107806,-0.00833199696922586,-0.3371046941343001
1681944581.4734535,-2.266653849096005,4.1650129571607,8.683205293284182,-0.43886703446443354,0.016028462594934637,-0.3805597286287001
1681944581.4833722,-0.22744445018892734,-6.132164892263877,10.46810339534868,-0.3590095889810397,0.013510969651902734,-0.3952411274972609
1681944581.4933014,-4.292433646398012,-1.8227985489234264,8.076210662276651,-0.32556735845514273,-0.03197554546983312,-0.3935985426965407
1681944581.5033915,-2.747400920034079,0.1020012795134083,7.39975728209212,-0.2821696705869878,-0.040584335908723054,-0.402666286713188
1681944581.513287,-3.364142706972206,1.7581566972945115,12.72147947789035,-0.3074649675627016,-0.07065756892572551,-0.3957335810723952
1681944581.5232918,-3.762381087892248,2.4411716289071097,9.891156635822545,-0.3068480534599396,-0.1178534935974866,-0.3716863553586653
1681944581.533311,1.4240197895349929,-0.797916596856154,9.58465992451061,-0.3129042967626667,-0.08636106777553726,-0.3837464015546492
1681944581.5432994,-3.1742365365983285,-8.474836625863457,12.98247468280853,-0.20430908302928566,-0.10000362714642892,-0.3582610051694563
1681944581.553311,-6.590595937494177,-7.341607702827357,12.849257975600578,-0.0976400057604953,-0.18198622492150754,-0.352308050877159
1681944581.5633512,-3.2264329949043677,-2.664754187273908,11.272855898937864,-0.04228029723626502,-0.1954657131390357,-0.3167356412473372
1681944581.5734098,-1.1373851875115482,0.04779378196394834,13.213925710182238,-0.025776936826334088,-0.2236513945580834,-0.2587749521794966
1681944581.583331,5.085055253687756,1.0632846334715256,9.393683227367644,-0.04937814039652891,-0.13683268761152523,-0.2143044333520583
1681944581.5932674,-1.4664170247086368,1.2250427358775462,9.826693725418636,-0.05281987444621581,-0.13901000971464475,-0.2229976813855818
1681944581.603303,2.9367109197079166,-3.4910267972368403,9.629881327100218,-0.03927310439512072,-0.10587307697788333,-0.2337809960904768
1681944581.6133118,1.749562818141094,-1.3538033057233971,7.445710133147374,-0.024521941705098704,-0.044921629835333675,-0.2393422882619551
1681944581.6232889,-1.9917029028379465,-3.4647558673047163,10.72822183785177,-0.007042911350054872,-0.06753623015624165,-0.2581356327596358
1681944581.6333516,4.322631994290618,-4.606748674934793,7.897747569304447,0.053542406847981824,-0.006316820466765017,-0.2533672313752821
1681944581.6433656,-0.20611198951457302,-3.691132077870186,9.407550040302775,0.08853777652114667,0.028757322003633453,-0.2456622283521345
1681944581.6533246,-5.564376908713008,-4.715269402026019,12.154866531032956,0.1616434417070905,-0.050659926907121684,-0.2349675308528593
1681944581.6633296,-0.35506148676730565,2.345767192119507,10.512016292294454,0.1405727705471869,-0.040522573848217426,-0.2220394324126891
1681944581.6733277,-1.541529588554623,3.285547973609258,10.947393764907707,0.10498251105793524,-0.052406146901916285,-0.2270040224853209
1681944581.6834354,1.2481550231576155,5.887006213800738,8.897744515512684,0.033164358339652804,-0.03756172619066405,-0.2571779351297072
1681944581.693355,5.929264882658038,1.9569872775459918,7.958381993761747,-0.01434854602659271,0.05003879613305389,-0.2891546945634535
1681944581.7033262,0.7461727894559329,-4.0996398587843945,8.023701204309369,0.034481732519844946,0.08746848568457694,-0.3134861152234725
1681944581.7132957,-3.5218357792148836,-3.143088088596104,9.00403532473061,0.08163794340816224,0.04819809060741248,-0.3347201209130934
1681944581.7233405,-1.0199022501387618,0.37543128885629706,9.409128233564708,0.10225188136483243,0.04000604940277659,-0.3301827173295668
1681944581.7333586,-3.162156787335647,4.540145947124769,10.493150662915802,0.06162704984873684,0.002344348193613227,-0.3064955632749251
1681944581.743345,1.765706147626025,5.383990406009467,9.36054550300295,0.00039386320138678474,0.018890628810656382,-0.3113302152219466
1681944581.753314,2.1068659273768504,-0.8623748322817527,8.799886981735712,0.0052028594924895125,0.06098063284340385,-0.3262282769742659
1681944581.7633047,-2.847971668088822,-2.584320874125701,9.79986133952455,0.05161244202582641,0.03156950713255142,-0.332907096630638
1681944581.7761655,-0.7779127948506993,0.6897974950106368,10.19072004956016,0.07287543203092801,0.021155721280029308,-0.32637910652787
1681944581.7840157,-1.1694877091931764,3.8093225951962806,11.05822967446763,0.04813538770970147,0.011439276173844,-0.3215240697923354
1681944581.7939644,-0.5674187036656367,3.3198254527783915,10.90676608494564,0.017620726680687263,0.002943037841089133,-0.3198747794690779
1681944581.8038597,0.382889610556726,1.1904757302759774,9.937961575898502,0.016977748105172108,0.01452090170943741,-0.3202759485307387
1681944581.815677,0.3762276734556191,2.3046704525201145,9.594902010114502,-0.006418029111861593,0.018031564379795542,-0.3183792095246962
1681944581.8242111,1.6379510139835818,1.3658128714484852,8.19070047481899,-0.012553891077107351,0.047905301064363234,-0.3209286491933516
1681944581.8333676,-0.06333608493151796,0.14987141469073748,8.94972844843788,-0.0014901539215133978,0.05065779096233392,-0.3213779192033461
1681944581.843315,1.9791812729606564,2.4846636427553,8.070022493851646,-0.02188516305880082,0.07808770496111,-0.3162261705461195
1681944581.8598812,-0.35733345219277374,2.0433984028475534,8.268753554924606,-0.034896552503165076,0.08406632922959753,-0.3201452355447463
1681944581.8643444,-2.810797400461987,-4.73921848162527,9.371838265666106,-0.002065376967444139,0.06695978644192481,-0.3274384896817854
1681944581.8769505,-1.166317869258693,0.13326184856850493,8.662133368927233,0.012299103108266788,0.06745122760263435,-0.3270031969609908
1681944581.8866909,-4.041869838046897,-3.77638782671571,10.478310900944706,0.07141393854196373,0.016482454343742247,-0.3183997433248213
1681944581.904039,-1.2342496905886577,0.3943995027648341,9.157731335730126,0.1097777836939043,-0.009162340406406611,-0.3082215349736861
1681944581.904915,16.74318467492115,21.58782375819944,7.956171328336817,0.06871044068379954,0.020245310746193377,-0.3169819276395491
1681944581.9132752,8.443696686084646,3.1375643089305365,6.833857093246104,0.026566023103713348,0.140207146115302,-0.3529640297952345
1681944581.923473,0.6479593731824607,0.1424389517783535,9.478226542003634,0.03262240603258312,0.1663005408496128,-0.3732184629502943
1681944581.9337356,-0.2916131788472594,0.15579813160440106,10.47852909278612,0.01303499641437476,0.16768012778296099,-0.3919015388551405
1681944581.9433825,-1.9233231761633554,2.368985237144521,11.01101889334553,0.012924771888919204,0.15668889688339882,-0.3968807618680647
1681944581.9533489,-2.4708929081620163,5.389414168077164,12.088844238978208,-0.03829338952458029,0.1296847425453719,-0.3924046318593672
1681944581.963328,-1.0829306201186788,7.3299569080156015,10.918586196904169,-0.11657948916363789,0.13088504685776353,-0.3917129199567488
1681944581.9733317,-1.0771247255308523,3.0479776265619725,10.231027799675092,-0.15672657418576086,0.12958639353278723,-0.3910020749631575
1681944581.983314,-5.083386481438447,-3.652841594545958,9.211995852879236,-0.09683245998676313,0.09328704067679396,-0.3810818355146101
1681944581.9933093,-7.114824933239161,-4.389166292402779,9.565088294232634,-0.025130839814984395,0.009607115303023394,-0.3658538918557814
1681944582.003386,-7.169788820455503,-0.38633686849220567,8.54883971078329,0.027141852659245177,-0.06204718495941867,-0.3649590175214461
1681944582.013301,-3.4690130628455282,6.996677871041389,10.33502661868711,-0.05171371891227916,-0.09038725703334471,-0.3704375486436537
1681944582.0234244,-0.04518138373271224,7.961354013452765,9.831468853832785,-0.1327803879753554,-0.06332591289104356,-0.3400501172605208
1681944582.033382,-1.7540148521145114,3.6608947683254143,9.791933583864823,-0.17564488560263455,-0.06477646096296756,-0.3274187903466872
1681944582.043368,-2.4476078822209075,-3.218936609963287,9.071561826414419,-0.14746594139371916,-0.05879358486941915,-0.3041593592229537
1681944582.0533423,-9.523948438732894,-7.362697453989614,10.08920547594185,-0.017549524788125898,-0.1500917457887352,-0.3096139292779616
1681944582.0633428,-5.6721242657093995,-3.508718502495965,10.834823600945407,0.03434240365037169,-0.20059317819457403,-0.2839472453656844
1681944582.0733385,-4.90403704175833,3.9931770944052403,11.044882916005749,0.03307094603772192,-0.2422823986592545,-0.2717941861215285
1681944582.0833385,1.1592560507142289,8.132128906869044,11.388190372961509,-0.07649549265343722,-0.2227233507147186,-0.261139975077217
1681944582.0933273,4.11210112844139,2.3824581676045327,8.57705326477392,-0.12568529862301347,-0.1441124202670268,-0.2439520071807555
1681944582.1033485,1.3525803212955023,-5.847829846830227,7.575959395703995,-0.036678111192932294,-0.10472688022338172,-0.2381608198943785
1681944582.1134045,-4.994921053417625,-4.637281989274299,8.54415762056488,0.01969704261829892,-0.13929058496370925,-0.2525998811784438
1681944582.1233196,-3.227457177514317,0.57886655702068,10.617489670896921,0.0362597872908777,-0.17076359649500056,-0.2487632494035414
1681944582.1333528,-5.171599275141135,3.604487670492974,10.88088808481064,0.008319744180107953,-0.21117664797439328,-0.2451027046504668
1681944582.143324,0.3093979727253636,5.948296466594153,11.4465560794907,-0.07172191483323184,-0.21646057371290056,-0.2409732948604277
1681944582.1538916,0.6153473371369043,-0.40428318789525636,8.163920652704753,-0.05081652263072253,-0.17222288965926966,-0.249828950649803
1681944582.163321,-0.3167451129476043,-0.011888192043677406,10.560197123071742,-0.04927889673860801,-0.18107779631038814,-0.2604476373258284
1681944582.1733506,0.7793574227281528,-2.097915339234113,8.4939310958613,-0.008348021853322058,-0.13782359536078304,-0.2628270249429396
1681944582.1835184,-3.4296720233598825,1.4889517216769534,11.285896668632944,-0.0032951227907339815,-0.18232829894499655,-0.2667281787458113
1681944582.1933596,0.07370881299087448,4.951672028321214,9.989158988200044,-0.057544273798232376,-0.1652702343151444,-0.2607143681111983
1681944582.2075703,-0.20704314477339336,2.770233072844753,10.588428945121821,-0.08946297730943056,-0.16003110054083738,-0.2554775934281996
1681944582.2133577,3.8336999395777926,3.398521448116259,9.259457364046394,-0.11437729662331941,-0.12259564993803924,-0.2410501550498656
1681944582.223366,0.41703679536635885,-1.8640359038089174,8.841718239933495,-0.08907331036403396,-0.0988563864314448,-0.2411677401128462
1681944582.2334294,-2.834175223141949,-1.035929993856508,9.1823430849994,-0.05559107175378626,-0.11989926293592755,-0.2243821184697798
1681944582.243438,-3.0828191978159616,-0.1075156170641038,9.792209964121472,-0.0379637620825359,-0.1562729804369111,-0.2113484900060347
1681944582.2533422,-0.07846510885373538,2.7714834664633594,9.411548991348866,-0.0581294008191274,-0.1472464320376213,-0.210129887944763
1681944582.2634676,1.0062009012305697,1.4975860773125165,9.841933674241137,-0.07230997771914478,-0.1281166420483891,-0.2065387826028517
1681944582.2733378,-0.7697658821629004,-0.10182092297479693,9.045889354005146,-0.0687982955132456,-0.11690572175385248,-0.2076620768371275
1681944582.283397,-2.277726705405041,0.5947595310647349,11.063835562372256,-0.0701490017671652,-0.14575634781332167,-0.2009752999606779
1681944582.293323,-1.2681739829144127,0.672844917211512,10.42281816336123,-0.07200452334583334,-0.16571782906317387,-0.1802151511970213
1681944582.3033204,1.3152607542244399,-2.123668036492153,9.978590058417218,-0.05373700607049992,-0.1465266346916972,-0.1626288007560423
1681944582.315939,1.7714496728395615,0.7720677876086233,10.900937522953573,-0.04471902658020211,-0.1260816364583614,-0.1400607686105421
1681944582.3246424,2.45765276408566,1.432348614739421,9.81256768005203,-0.0659504856831753,-0.0932229336330187,-0.1299043010535887
1681944582.3333895,2.543785981058668,1.786649718846284,9.466726344137658,-0.08110346993234267,-0.05358236839300697,-0.1166967685881308
1681944582.3433902,-0.863918245813975,0.7663341951999931,8.99868742479973,-0.08266943376150174,-0.05328115675076874,-0.1126397262874296
1681944582.3534918,-0.8632571600138349,2.0612983390944826,10.03438240460337,-0.10096252884854956,-0.05423392593523241,-0.1248962591949156
1681944582.3634937,-0.6465608031421414,1.6513433230605286,10.279619053224087,-0.11958549102650264,-0.052346717210695226,-0.1258362542453459
1681944582.3734918,0.292615413123173,-0.7562166447805683,10.330310529199329,-0.10575564451037192,-0.042738579412192335,-0.1157462607684782
1681944582.3834176,-0.2846184347123171,-2.9206225406810526,10.783078231047742,-0.06808871463944925,-0.03922327318222881,-0.1253031354013136
1681944582.3934011,-2.0484018775810657,-4.605000264492411,9.97393870738371,-0.002016474034257924,-0.051359866403328944,-0.1335644881787947
1681944582.403577,-4.5843632971612465,0.022773492471434616,9.333681353448515,0.016473220560193496,-0.09486626083993606,-0.1499926905694655
1681944582.413415,-3.0514002629332793,-0.3473983293617574,10.094396496832076,0.015599555818961526,-0.12421664822823435,-0.1610909264150313
1681944582.4236932,-2.933025281951526,-1.1626594143314621,10.56918748379692,0.02868831600660285,-0.16044968845925425,-0.1710154573980025
1681944582.43954,0.2799886810663939,-1.3715576108176364,9.577851270312685,0.0485785956319513,-0.13838253586888696,-0.1604108225169829
1681944582.4436848,-4.136526018637341,-0.9641911627979524,11.14047950615084,0.05173991739473212,-0.16203624332904187,-0.1704950492444685
1681944582.453477,-1.2902417110465518,-1.3597687861373942,9.114971719558534,0.0703100440883022,-0.15982788666609077,-0.1780710827174834
1681944582.4633846,-3.030867189712204,0.015591955900940575,10.409884222069296,0.059781037550588036,-0.1939823595388129,-0.1852372001472166
1681944582.4733825,-2.412488891028159,-0.36378893946438073,9.526713157260483,0.07072485760132659,-0.20567053311799754,-0.1954835813108137
1681944582.483353,-2.8977497387133284,-0.7627332623173593,10.544910014992041,0.07237668634605557,-0.23571657451500924,-0.2021796714130095
1681944582.4933429,-2.6785383040442228,0.07717989109963286,9.150043978546602,0.08249220502944772,-0.25238111228215837,-0.2018935542169264
1681944582.5034122,-1.8585563003299561,-0.8908681105702307,10.275662159914585,0.09271569288490711,-0.267296342845605,-0.2022279511752776
1681944582.5133488,-2.5108609066772547,0.5057737312498682,9.699082374720959,0.09419098836902393,-0.2864114293010215,-0.187508211618965
1681944582.523435,-1.058622555219691,0.9106647910645911,9.827694498175156,0.07882544740700245,-0.2892264484360038,-0.1743741493287733
1681944582.5333574,-2.401637730187114,0.9071416295284769,10.041550402952907,0.07562663373712739,-0.31308360342596825,-0.1530624638858488
1681944582.5433528,-0.7220939719589093,0.8085585885897186,9.835896154574154,0.060265393689027356,-0.32364487198689706,-0.1376187216106108
1681944582.5533524,-0.48079298207860643,1.151469732000113,9.984025044474345,0.05009650891644776,-0.33035405739153234,-0.1219242821994475
1681944582.5633605,0.24480939509748376,-0.8163657650443367,9.56319762214546,0.05626878488031382,-0.3341626288023928,-0.1084406833711317
1681944582.5733464,0.07588982768810922,-0.6565942647498019,9.435238007597361,0.067366670204541,-0.3396484320443695,-0.1032702635589293
1681944582.5833652,0.3137211035530078,-0.7567147937026798,9.116987190764114,0.08569548708831914,-0.34571050360643296,-0.092913293427532
1681944582.5933828,1.7296724592183892,1.1434582198383727,9.931618342603745,0.08311159006227868,-0.3378819172089187,-0.0872411887708357
1681944582.603452,2.255150453059274,1.1523228379717763,9.852924328335906,0.07292267510467783,-0.3209894812772337,-0.0838016282382658
1681944582.6140516,2.9388111642441395,-0.011350449623100138,9.9186186148401,0.07150147971246018,-0.2911809041730016,-0.0805894594255141
1681944582.623392,0.672976309062281,-2.2939376345243714,9.39402036045487,0.11595755275246367,-0.28870787890004745,-0.0826309557619742
1681944582.633549,0.9281113077393786,1.4780101196364026,10.140671522785285,0.11199582238848568,-0.2846411539067827,-0.0931868042412451
1681944582.6434078,1.7908783159614268,2.008373812809214,10.072343065462007,0.09336187778338836,-0.26018979854359003,-0.0894584294024161
1681944582.653383,0.927703413539354,-0.004705781109911712,10.572265137772632,0.11005676937251334,-0.2501333032791404,-0.0831946294370344
1681944582.6634035,1.3665805472448467,-2.8806129855855063,9.30022538067369,0.14737422298427977,-0.22441022375456818,-0.0745105456176451
1681944582.673381,-1.1858639721300352,-0.37655299886759774,10.30495984528189,0.18682216012640565,-0.24265344681284354,-0.060087987369602
1681944582.683832,-0.1077514662725818,2.2645288827437753,9.199168321090088,0.16832214385592292,-0.23661182009823112,-0.0548268455627611
1681944582.6935034,-1.4968077153242538,2.733133002747086,10.414012167686645,0.14355150654422816,-0.2516021112636976,-0.0526108976069143
1681944582.703418,0.9832444386151068,1.269190675806894,9.578121191673137,0.12309678082406303,-0.24089617296265106,-0.0589456010225466
1681944582.7135203,-0.21668264064844253,-2.510766418056995,8.441824183357934,0.15628767520633224,-0.24492319820608996,-0.0491060141089609
1681944582.7234824,1.072113414745182,-0.29686465517716776,9.106304806666046,0.1599555234717679,-0.24004007794988425,-0.0565308343234709
1681944582.7334497,0.41403404406885236,0.6666517754977149,8.981656282074297,0.1610382587919022,-0.235195871485385,-0.063530781454151
1681944582.743481,1.2380680402454567,2.7548346663572847,9.72435647133917,0.13159682248856053,-0.2276439666120054,-0.0753320913377455
1681944582.7534132,1.2665898206526913,3.8324992346446543,9.690735874587691,0.09032008918138862,-0.20977628747101348,-0.0944155018392256
1681944582.7634916,1.1033055283085769,4.030050474414698,9.33947211049455,0.05146035489477617,-0.20066064993192287,-0.1202703427138975
1681944582.7734053,3.296521094337869,5.136175893054356,10.226778311429888,0.0007958204493997408,-0.16385217441222147,-0.1374015073838881
1681944582.7833967,4.3026122338742505,4.031872521049639,9.985013493965669,-0.03356206405516097,-0.1124963672034927,-0.1514026235404661
1681944582.7934413,4.198129887946737,1.6284758299608912,9.5004553733666,-0.04742230204189378,-0.05731841736082778,-0.1610190432134322
1681944582.8035042,0.70996236351575,-0.5551806243674328,8.025815080391617,-0.0231996963309884,-0.03866029622870111,-0.1687513004604033
1681944582.813389,-2.6354046487987115,0.480426331198052,8.583014319707544,-0.0012746967284165522,-0.07912361856446382,-0.1451537172856978
1681944582.8233914,-2.5020329497901446,4.362740705680472,9.247430068748926,-0.03664282454446633,-0.12043275618218033,-0.1307880144181898
1681944582.8334253,-0.7915158650188525,5.548517990600392,10.286245430759061,-0.08144564926949661,-0.1419328441357637,-0.1131410386028937
1681944582.843508,1.4253511880692742,3.033404741979826,9.823419468499768,-0.11482693979998927,-0.14200950978339102,-0.0889167274895361
1681944582.8534348,1.9987639831260902,-1.7509625476814359,9.144680653155373,-0.08894557760338018,-0.13255182310671598,-0.0626068647566489
1681944582.8633804,2.1641513160895216,-0.7242999267508335,9.542633909017187,-0.05543901728602533,-0.11963307563945014,-0.0557202856603315
1681944582.8733656,2.2535749298428343,2.9830250384758954,9.171934403117609,-0.07481205827110372,-0.10125515241808704,-0.0397044691804102
1681944582.8834076,-0.40147355024102055,7.32431362178332,9.054957560591877,-0.14856053571013322,-0.11505435982364853,-0.0368376608553579
1681944582.89338,1.857959155994353,4.070649209085908,10.036008991024795,-0.20805403989854998,-0.112350791403338,-0.0440352942410162
1681944582.9033756,1.8167765992413383,-0.661759229161398,8.25550527259811,-0.18442995612852234,-0.09227458795326435,-0.058862977809017
1681944582.9134445,2.6040297438465783,-0.26550588563075794,9.037669854179265,-0.1704938688431222,-0.07535137671049899,-0.0773542906704596
1681944582.9234786,1.060304723435364,1.5041636549208068,7.7401729839915685,-0.17552900634937832,-0.05649390352558249,-0.0780578787985495
1681944582.9334793,-1.1779292982622105,1.7470294713060457,9.286918851348277,-0.181201616488074,-0.08219973294002565,-0.0704031969967535
1681944582.9434078,-0.02611456691002744,1.1798828223772448,9.42650809706845,-0.1992208733031254,-0.08862957220626466,-0.05596690360338
1681944582.953388,-0.8449910070323527,-1.1719154884951861,10.351170085594973,-0.1703773799107696,-0.11151456491860606,-0.0482004817190817
1681944582.9633777,-0.19714309301998195,-1.7688027334462086,10.075943042919146,-0.14458717245004887,-0.1256936740642887,-0.0409523557487181
1681944582.973442,0.24827996083646545,-2.1255950127301118,11.410837419498902,-0.1173279619178395,-0.13497238344161372,-0.0322410363319567
1681944582.9834764,-0.2755146608780382,-2.680075841958132,10.585397303364713,-0.0777360451664716,-0.14652204921300999,-0.0187691852065972
1681944582.9934423,-0.7274997339650429,0.3187468307129889,10.777753523936445,-0.0821079409762842,-0.1607779272226263,-0.0085072742390683
1681944583.0034273,-1.170278812598574,-0.36636533979830066,10.2170152220655,-0.07519377046737528,-0.17553737492736135,0.0046056533151068
1681944583.013512,1.395788764440004,-2.5506649334491267,10.427975506513308,-0.05105267487918133,-0.16571385446016865,0.0158791289117881
1681944583.0234344,1.0947409858302706,-4.2903815827995535,9.650909465732788,0.0017344254817556032,-0.144805001044025,0.0227844704326936
1681944583.0335054,1.1646396097433067,-2.9221913802653483,10.076367090432203,0.04587203988888584,-0.13202992471427577,0.0279726561543294
1681944583.0434124,-0.9415373234388977,0.48879695718133775,9.842632620511894,0.0447244930424439,-0.1316635082056364,0.0233860507991858
1681944583.0534744,-2.71537652650182,2.091104229431186,10.508800387396924,0.016341982314972896,-0.16295639455739724,0.0135266025003739
1681944583.0634518,-2.420109323211526,1.1150497711740348,10.171867346525683,-0.004416088629491952,-0.1866612168680587,-0.0005356624338081
1681944583.073405,-2.1003864742183067,-1.5287304300141453,10.346219232040804,0.012391319064070956,-0.21055980360248222,-0.0168567515525272
1681944583.0833895,-1.1750478640666993,-2.198279086722574,9.598486784432998,0.042389625678591746,-0.2170390320084524,-0.0315416726830652
1681944583.0934274,-2.286622494404074,-0.4310111853612691,10.03888715931729,0.056760710833428256,-0.23781170431610366,-0.0415112387004545
1681944583.1034558,-2.530650125446278,1.198267252778666,10.041385842507614,0.05253768077089721,-0.26308058313426713,-0.0496897484722784
1681944583.113488,-2.366215513326286,2.695849609606182,10.226425307076536,0.021313777120260415,-0.28790865294542933,-0.0509331386151961
1681944583.123457,-4.667261685585571,7.651042976844644,8.718118671983742,-0.04941340536353847,-0.33426218077544795,-0.039382253921335
1681944583.133548,-9.03112710082842,14.935254370643893,6.380645750579472,-0.22239555947006365,-0.43756261519469275,-0.0570380959275416
1681944583.143466,7.773234156910691,1.2322021348352323,10.14826674544966,-0.2639972999113758,-0.3727520323244109,-0.0248200401279381
1681944583.1534655,-0.3943550997383006,-4.087432932526815,7.607610102807258,-0.1619293372663721,-0.3616551647600334,-0.0327851783099821
1681944583.1634796,15.563256299625216,-5.001284471419536,12.485331461849096,-0.10054164112761706,-0.21032622955529442,-0.0452831286552599
1681944583.1735144,8.816674446072096,4.811780133598826,11.073650942195584,-0.10812216113070042,-0.06945684827506805,-0.0244518901768377
1681944583.1834278,10.08503202895597,2.243983319977404,13.749650842502172,-0.12398241402067033,0.034733727438452384,-0.0189803495618752
1681944583.1934962,3.228031958972068,4.894677755593179,9.812442153920436,-0.1894771180306775,0.11719196032944743,0.0023498486529798
1681944583.2034402,-4.609002158391831,-1.6632006621417477,11.378300850210726,-0.14894537890325593,0.04998162456592995,-0.0129807071375898
1681944583.213471,-3.054334374738173,2.994033008434169,8.135016509261051,-0.18497122134548322,0.012700120993330488,-0.0190856728318384
1681944583.2234857,-8.248663286159129,4.186901733836095,8.70217393285171,-0.21016813498522374,-0.09258626933471985,-0.0450746204319647
1681944583.2335076,-5.822790604152181,2.3233799976018874,8.614639469983766,-0.26117357511739614,-0.19846556991478956,-0.1006496410432509
1681944583.243425,3.942717335653297,-5.162186045959877,7.925873435030223,-0.21019301871679688,-0.1660425046309788,-0.1230508621397665
1681944583.2534006,-0.6380941873437664,-2.636628774563154,8.475774775115886,-0.15853623778731282,-0.20471100006253254,-0.1480610679450682
1681944583.263472,8.994671368869257,-0.24604653075649843,9.260537574550018,-0.16568613210804484,-0.1188752269108455,-0.1666594307485274
1681944583.27343,1.8452319169130103,2.423409583193315,10.224768758056477,-0.1854075904339249,-0.109527326341156,-0.1730802815023115
1681944583.2835186,8.737124332162496,3.40748939877202,10.693193820349409,-0.23382759004851622,-0.04680808738323676,-0.1701515923801115
1681944583.2935977,4.475253383042223,3.341410710883855,9.350023627276848,-0.27641030743678413,0.013782580891369935,-0.1652002941432646
1681944583.3034382,3.331021954785213,0.3867209530282975,10.318323156332642,-0.2753572331117955,0.010291681202321623,-0.1584015201392821
1681944583.3134236,2.6641227607068387,1.4412484724393853,7.97637496392466,-0.2887290039726291,0.03473098058859779,-0.1323658089700392
1681944583.3235223,0.08046201714257706,0.5295775842809952,9.09755740665479,-0.27300663522574803,-0.0006801264885302473,-0.0962496932211569
1681944583.3335032,1.7781423868635404,2.6396179538382882,8.477417237691434,-0.28912427539848423,-0.008977833837169016,-0.0561684269073656
1681944583.343435,2.468644803132031,0.8480177969851728,9.901846980734144,-0.28940755206942276,-0.006868750310516574,-0.0174708097788742
1681944583.353542,3.965064713557677,-0.16764923133795417,9.446786143703456,-0.2684768206786058,0.006572883716177537,0.0227567281958409
1681944583.3634064,5.355653517004257,0.9637221264331588,9.29364977789755,-0.2713090646447525,0.055287886486112874,0.0527697455522366
1681944583.3734508,3.410573668697696,0.718269558244588,10.167377884743553,-0.26859933687745735,0.07352575268737943,0.0717106078204461
1681944583.383498,3.877594418135449,2.5221572899333076,9.598716424301701,-0.29611114886225604,0.10973923412437235,0.0735432196792909
1681944583.393624,3.43941316207283,0.3837715259200298,10.446757913404769,-0.30596205660370257,0.13909633582949477,0.063708848172123
1681944583.4034889,2.813027505802091,-0.6179800020618308,10.116097180775377,-0.30563619302571143,0.1596796384768836,0.0424522783991643
1681944583.4134605,2.567797877373459,-1.2297676225194731,10.004434937990707,-0.29852706719827204,0.1857449175135693,0.0167800316971489
1681944583.4234746,-0.3269032070629736,-1.1238358906914543,10.508815625585763,-0.2981446041034716,0.1707863431604893,-0.0055264385032704
1681944583.4334502,0.25855138954683093,-1.662222661354116,10.054295960980255,-0.28936644175024634,0.1679587817106216,-0.0183960415038517
1681944583.4434984,-2.4073259085842507,-3.1526124905085626,10.654436192674789,-0.26657895172573715,0.13107101764377277,-0.0237758915486982
1681944583.4930148,-1.1060159916400445,-2.244272033430889,10.145261508301836,-0.230344731384839,0.10094403549966995,-0.0218614331993511
1681944583.496498,-8.200800006425025,-7.093254647738036,12.029058055100773,-0.1921133916862903,0.051660632463705246,-0.0141292802605084
1681944583.5000331,-8.641988882216046,-6.847882703689747,12.503676749221043,-0.15074964023404178,-0.006575913553253929,-0.0028250908094695
1681944583.5050206,-2.7509369636273333,-4.572634467021668,10.430940537726563,-0.11885423782444382,-0.027479642568707434,0.0064716174651631
1681944583.513234,-1.3605653784859861,-3.478629665816574,10.470360228472327,-0.09095093458932552,-0.044224699987658225,0.0075408544775792
1681944583.5202272,1.6413864014565047,-2.173874146925627,9.355187712248178,-0.07849474875897973,-0.02446297792669877,0.0088749773253449
1681944583.5215943,7.3604756000382,-4.304994143577609,5.244549673467743,-0.07031049984571798,-0.0028280230777019133,0.0074835013051279
1681944583.5254023,2.8848064612456743,-1.3888269587743252,8.530649630578502,-0.06821326431510302,0.019106016266539707,0.0039725073997625
1681944583.533414,0.1935626920612677,-1.4814055417425291,9.571439482351018,-0.06228942081379081,0.02804649214639654,0.0006018206163072
1681944583.543443,-1.0954207407416432,-1.6252641178526295,9.85281166008997,-0.04965053065942963,0.0192836761899807,-0.0056481018278053
1681944583.553621,-1.9230281794440265,-0.7839161518216015,9.98998577678179,-0.04014066779303855,-0.0023008367356434547,-0.0075134366366318
1681944583.563441,-2.4732163805056335,0.292808480277798,10.489210520403104,-0.04436915088157796,-0.0362940219291262,-0.0081535532686165
1681944583.5738368,-1.8568850801578545,1.107153306468377,10.394876010577502,-0.05672246561544643,-0.06342561962503182,-0.0088034972164086
1681944583.583469,-1.299703360379016,1.4924338246669775,10.52083207965113,-0.07540578207243905,-0.08367963669673349,-0.0096294667187384
1681944583.5939462,-0.2943824715602246,0.835213347408291,10.29863699261142,-0.08179492745581995,-0.09609764809055009,-0.007742415330117
1681944583.604463,0.34247107521030545,0.8413070658111484,10.176328991507756,-0.09104209447693609,-0.09680517976222451,-0.0109054540830901
1681944583.6222737,0.8362750192549031,0.6838378857275446,10.003477076283547,-0.0987865012377423,-0.09208779070193833,-0.0109042452263883
1681944583.6234252,1.256627499424847,1.980120571450445,10.01642999492394,-0.1079062853188483,-0.08731685051800848,-0.0210272550198486
1681944583.633541,0.46853086266114286,0.4042998579166181,9.788388520849074,-0.11604412143185497,-0.08767084919664847,-0.0327214534941366
1681944583.643578,-0.16395896811169414,0.35004658780380987,9.726111226166653,-0.12288873727699834,-0.09668995908483238,-0.0393337953451327
1681944583.6545289,-0.13746514232239856,0.04413467292263111,9.754279296605882,-0.127380441907469,-0.10963265023041803,-0.0461263369384459
1681944583.6640482,0.3225163688011001,-0.14238583453501838,9.560887978105768,-0.12972625760783132,-0.11509760516904925,-0.0525126058223894
1681944583.6751187,0.7174331803099433,-0.08030674206136544,9.507984839505188,-0.13359097999522812,-0.11998816162711395,-0.0495448644819906
1681944583.683576,1.1331642494239487,-0.4343933438575705,9.56520223068486,-0.13600076374576284,-0.12083057536746629,-0.048339893257921
1681944583.69356,1.5380627684347206,-0.8970918218416226,9.265995452024766,-0.1322948035523949,-0.11397186650962039,-0.0425118069711378
1681944583.7034974,1.5638989681119744,-1.373488969161198,9.315487719096847,-0.12011674003117002,-0.10840483487780023,-0.0342898603144339
1681944583.7134814,1.3452149971186615,-1.301732311472529,9.499990708138894,-0.1127482151965514,-0.10464811337848622,-0.0275310754391602
1681944583.7235572,1.4573813490086573,-1.5325815477466507,9.634382272540895,-0.10261750295655508,-0.09953766620905811,-0.0137761404353431
1681944583.7335668,0.9732589964577852,-1.9918355453133525,9.740707442938213,-0.08677906971209422,-0.10101213133339272,-0.006541320270603
1681944583.7435174,1.4939512716331587,-2.2336933839590185,9.576948231443374,-0.06772258090240474,-0.0943625269894778,0.0034224026289531
1681944583.753476,0.568574068489953,-2.4329234709274976,9.920662848304987,-0.049089102479574966,-0.09896339732700123,0.0035374526318856
1681944583.7635496,0.9856766823929656,-2.292414940825212,9.813205665203874,-0.030515680970315665,-0.1001879925228996,0.0076003734406777
1681944583.7734828,1.14422873050851,-2.1797161436629238,9.558201564655159,-0.013410915877540818,-0.09937014905580646,0.0071300904650935
1681944583.783539,1.1017547100244691,-1.8550631544643355,9.438700677598819,-0.003311738739002806,-0.09529247165008653,0.0004869660747
1681944583.793934,1.0830028764067883,-1.6556316751866107,9.398173592626597,0.007952246341643135,-0.09577889761784608,-0.0033026488113454
1681944583.8034625,0.9404066791135334,-1.3052192327529613,9.427387040047012,0.012101976478475196,-0.09711475335545595,-0.0128690648439577
1681944583.8137405,1.0602594570759325,-1.0877052415946415,9.28418247494422,0.015489779967695036,-0.09511348861495196,-0.0209129090967825
1681944583.8235042,0.8689312135868636,-0.6693078954735621,9.582322675528735,0.01401076768156995,-0.09920231901718596,-0.0285551465663365
1681944583.833539,1.172136124786809,-0.5482111413274946,9.59398406687901,0.012117637280876836,-0.09945168007219614,-0.0320956643286398
1681944583.8435533,1.4044972799583035,-0.8805653154419076,9.617183823074859,0.013212391838926838,-0.09655830379698585,-0.0396517265203646
1681944583.8534908,2.030364720762975,-0.6887255773620835,9.688478666766628,0.013974996944575603,-0.08918698790336567,-0.0368733118835142
1681944583.8635566,2.7168264845993777,-1.3307330931901358,9.448591665331172,0.023500730507495623,-0.07147394486420663,-0.0360714170697382
1681944583.8749752,3.167216632641585,-1.5035825041923796,9.337204849404571,0.035335805383407984,-0.04511084240445972,-0.0321695927146128
1681944583.885769,3.556391961429112,-1.7795573078751112,9.199057640145055,0.05184204839378039,-0.018253890028866782,-0.0258310708764246
1681944583.8935175,4.7644053533500275,-2.192915938919335,8.382580100468214,0.0709813226403978,0.018513583911968962,-0.0194413225713423
1681944583.903566,3.772077842856843,-1.6767525390242435,8.804346891975065,0.08232229180850588,0.04907563670726239,-0.0175397239241055
1681944583.913563,3.6354155491183238,-1.0654063984405926,8.643552917556656,0.09210160897434999,0.07509946034851864,-0.0114453361916593
1681944583.923492,3.48979155435732,-0.7353536622828124,8.764790902058834,0.0904397682397991,0.10173838846488041,-0.0130179209250262
1681944583.9335418,2.898307928732429,-0.42384692729245566,9.00357894697609,0.0882311383728192,0.11937866034748434,-0.0162610441061905
1681944583.9434855,3.052968417506429,-0.3756848431885487,9.448032510720301,0.08213047519979866,0.13664728694205264,-0.0198406383010796
1681944583.9534893,2.9107442165971382,-0.18904908343626375,9.619998594076161,0.07714049794315975,0.15183757702640652,-0.0233943584922007
1681944583.9635625,3.4806637795479474,-0.28378874869071763,9.779888135601285,0.07317402210592439,0.17535247803349147,-0.0265142555895498
1681944583.9735386,3.0925502632947115,-0.4126772609820794,9.818970064200292,0.07078205531706097,0.19598330817308188,-0.025684927738016
1681944583.9835827,2.8609755109237844,-1.2702746281746422,9.837656390384783,0.08136327191416501,0.2132477024012534,-0.0177917528513125
1681944583.993496,2.266079578087917,-1.3152897447548673,9.566737393565996,0.09765140351071146,0.22443303405257276,-0.0072348901617578
1681944584.003501,1.9667146842978054,-0.5648681916382575,9.714170475937557,0.10271814453170587,0.23154166134633622,0.003852276682178
1681944584.0137322,1.4404560214993223,-0.2375258416820342,9.444086637761519,0.10476193577572993,0.2371086213824714,0.0181043938186713
1681944584.0234797,1.0961563047938307,-0.44731546574371306,9.568448490436335,0.10864478879268363,0.23792260761618733,0.0274027463433095
1681944584.0335336,0.9326153877752357,-0.4618955452588993,9.483397378222087,0.11132677977701605,0.2414703725971021,0.0366438728210278
1681944584.0434706,0.446770785217367,-0.9988039830100273,9.860016235197746,0.12331282119548106,0.23516168488731656,0.0356282692787
1681944584.0535572,0.6138418458642508,-0.2653978632705671,9.82392441234546,0.12249815494927005,0.23980187451898466,0.0280967846897193
1681944584.0635607,0.0599499243435044,0.32517240732512914,10.274699178833831,0.11711808808188678,0.23236537614403355,0.0211023882415839
1681944584.0735035,0.12184753247263791,0.5296879885188599,10.0391269384399,0.1053037700175925,0.2321644920419471,0.0089963826735266
1681944584.0834594,-0.819276986022903,0.8406034800210608,10.338782999134505,0.08840769307879948,0.21829098929801055,-0.0033049314829758
1681944584.0935347,-0.8327409363064379,0.6742272493635484,10.133257662708225,0.0760978661420522,0.20426218392097628,-0.0158022112759998
1681944584.1035268,-0.9992415293073797,0.9429376865387102,10.179120702100864,0.06335650564900477,0.18589116412576512,-0.0248813062521866
1681944584.1134963,-0.3703848307268813,1.182911290327577,10.192383596536862,0.046129374700178284,0.1743117836761152,-0.033397288209503
1681944584.1234698,0.3109520951475163,1.2936142643988804,9.760009639662053,0.030900308378639173,0.17482063282035312,-0.0370699178043059
1681944584.1335852,0.4429077353681413,1.1200628736840095,9.669243022939794,0.018255977462347642,0.1737471196150771,-0.0437594513955763
1681944584.143493,1.145986750106705,1.0656777470334622,9.237845004586706,0.007072122686257935,0.18449604256493407,-0.0454310040536574
1681944584.1549952,0.9354804311539722,1.0898104316569572,9.424637925355322,-0.005946110139120807,0.18837743268534898,-0.0434510085347345
1681944584.1635425,1.3994791949786303,0.8928094932434318,9.163326379352158,-0.013718060346286587,0.1982015092183405,-0.0375898714724234
1681944584.1734986,1.3529446531015603,0.7516503831633214,9.21691109650812,-0.02319046817584792,0.20748829006984656,-0.0304583210113695
1681944584.183487,1.3214766854779718,0.09687877018035804,9.27333606623928,-0.02382880872075746,0.2141359646054529,-0.0203410416457108
1681944584.1934817,1.0489877841370407,-0.10791333754200888,9.336703730692902,-0.022868323454544037,0.2186277582833149,-0.0079352261114171
1681944584.2034764,0.8961150282276712,-0.8960306787114638,9.425533319714237,-0.014026866542189135,0.2207083414754518,-0.000416173747485
1681944584.2135854,0.9478852881830687,-0.42907729902236147,9.53326166187088,-0.011354845238694088,0.22526102583966656,0.012968756110663
1681944584.2235234,-0.4882742829791547,0.2715231697037825,10.157974680379917,-0.011553303709315697,0.2175959872041866,0.0182418905582972
1681944584.2335382,-4.476224086222181,4.007524934833423,11.929172528048575,-0.05649248589119358,0.1686167345863205,0.0234423045453378
1681944584.2436442,-7.261109629981839,4.638309480898707,13.378187760756326,-0.11743198271693385,0.08244557913226333,0.0165654726710864
1681944584.2535512,-7.953366040842226,3.7977841919516466,13.25465185640958,-0.16385922922605606,-0.008683075444687492,0.0157089744147607
1681944584.2645276,-6.394991191041764,1.1258573530030536,12.19179810838091,-0.17533729863582015,-0.08618221662037458,0.0134292224806496
1681944584.273566,-4.751538997273025,-0.92196685981961,10.95490894221044,-0.15757433849391303,-0.13153500096781173,0.0137221299496241
1681944584.2835188,-2.8804031167394943,-1.9350038404051753,9.83120823628099,-0.1298534855244475,-0.15372670523347295,0.0074000310537167
1681944584.2935152,-1.8837038037927072,-2.0430015415457263,9.145345744331385,-0.10106064526434544,-0.16384119432079783,0.0004896917066299
1681944584.3036492,-0.4141993577176703,-1.2314830091553022,8.834189857645319,-0.09195782764221959,-0.1568208307958553,-0.0041116794186881
1681944584.3136458,0.09197132092195788,-1.7247963595763558,8.573254874571383,-0.08382870604250033,-0.14062509475071988,-0.0122993403661302
1681944584.3235097,0.05097679905989331,-2.1014492516850276,8.685836185613331,-0.07094622826985064,-0.12910677588740857,-0.0102581532287648
1681944584.3336484,0.21233528106368454,-2.4301545373142726,9.020327787654981,-0.05529735226344204,-0.120917525556121,-0.0029725396621278
1681944584.3435051,0.12748199822569398,-2.8001940971959494,9.102577870201664,-0.03426742464032622,-0.11279072661345467,0.010666619838471
1681944584.3535326,-0.9075289939797658,-2.7260379012954843,9.623110934690384,-0.015969486679290747,-0.1255243908506746,0.0177577983972379
1681944584.3635168,-0.9164509859935592,-2.981835271814578,9.750937393431727,0.006179645952654417,-0.14397548630805246,0.0208673522260733
1681944584.37826,-0.4460817989714341,-2.6940743903491757,9.955531481781955,0.02740446825366807,-0.1678101800424314,0.0195423204836198
1681944584.3835151,-0.6581755878917441,-3.817215148144946,10.11898838278536,0.048214392547908685,-0.18327691919308803,0.0169814544182964
1681944584.3935049,0.8546688227388823,-2.676890881584437,10.035004375083412,0.06895670362517489,-0.18992072568373775,0.017257486322219
1681944584.4035828,1.7009430247266795,-2.1554416335936666,10.063088626382656,0.08535291940265655,-0.18663411186430262,0.0169477219146438
1681944584.413545,2.515798301296773,-1.3402281771653788,9.94663465035023,0.09357104856564637,-0.171541583051968,0.0235218096908875
1681944584.42355,2.642955500092363,-0.8508922900511954,9.90636198237766,0.0977486972709441,-0.15334072743984709,0.0328226004180261
1681944584.433575,1.7179537500015543,-1.0166916250272975,9.813200440932345,0.10860187114472078,-0.14586912230690338,0.0389712814626046
1681944584.4436257,1.4249154114451694,-0.11069042780299923,9.925042760053165,0.10725291941472909,-0.1423976917700922,0.0463663142558881
1681944584.453517,1.2815905133812928,-0.22406793141253856,9.754605038799795,0.11027869856735631,-0.13735301482801016,0.0482185360428639
1681944584.463606,1.6171506175662549,-0.08448599000908366,10.044478124535852,0.11097835470183044,-0.12965069215724995,0.0497072589036771
1681944584.473518,2.271606210504499,0.10272804486451127,9.935452149377767,0.10953360286108722,-0.10912729687634773,0.048312111609871
1681944584.4882026,1.7646730005369367,0.3285775349064732,10.201918128591803,0.10210174056050507,-0.0931995995077526,0.0411004227039166
1681944584.4934754,3.2441517113710043,0.828433932574125,9.338012694957476,0.09566009529703304,-0.07076061361043502,0.0396613728639432
1681944584.5035577,1.6807376108959007,0.4142484485695611,9.798325564083495,0.0880966164795278,-0.05688293266647605,0.0301176038023778
1681944584.513501,1.707794041517603,0.7877104488711383,9.65925228515258,0.07642520165178068,-0.04345993057893266,0.0188281916466304
1681944584.5235224,1.7937617601498064,0.9341728238754733,9.39565036142915,0.06706768048419384,-0.02877316418363581,0.0128873613116093
1681944584.5336096,1.8370657765317395,1.4406757028485895,9.549393379284485,0.048545023593146365,-0.01635052782371514,0.0062289664906212
1681944584.5443137,1.7192166599672625,1.2716301090687643,9.579590670721888,0.032274015941049665,-0.007423814785913046,0.0049069499050029
1681944584.5540287,1.970561613521082,1.0796020750720485,9.444396639621198,0.01962026207358597,0.0033712471060553507,0.0023060114740156
1681944584.5635908,2.5115037603951884,0.9391196821283794,9.22386864166552,0.010418248341495238,0.0216247390935708,0.005400548308412
1681944584.5740843,2.0782041602486183,0.9533341999352909,9.341165558055545,-0.0004238550599203768,0.03187111383845085,-0.0006322634021989
1681944584.5835762,2.362707173425103,1.5718224635344435,9.238874836752975,-0.018443963263773285,0.046449903921880774,-0.0004799709736606
1681944584.593696,1.9188734923681836,1.4689224318063523,9.297653224771803,-0.03504601878727378,0.05325160665250034,-0.0057175477582267
1681944584.6049635,2.1978313504355556,1.112116651077851,9.230138468824233,-0.05170544333336442,0.06479801776895816,-0.0077756160485795
1681944584.6159256,2.2302216932505785,0.36474920574799885,9.063194855061102,-0.05710852032231581,0.0766401052438126,-0.0110739228862575
1681944584.6237192,3.1321712831042934,0.0666330425249351,8.98989091363396,-0.060224202415643836,0.09424948461231708,-0.012934802247887
1681944584.6335804,3.2907128332410185,-0.765323925308909,8.816687376071622,-0.05092651697170091,0.11891280860677542,-0.0131826057645729
1681944584.643554,3.3496587997186844,-1.3419924281909792,9.078933612085292,-0.04222298634362261,0.14247961417697624,-0.0125030830118111
1681944584.6535966,4.010313203019594,-1.9022669092385696,8.933377520720287,-0.018435127192785367,0.17221579382881227,-0.0049721697892299
1681944584.6635776,4.097320701735458,-1.7120329335964275,8.86794786086038,-0.004824201411167732,0.2037940429231929,0.0039645359770157
1681944584.6735778,4.203433905666448,-2.161181723591685,8.518290441966707,0.01628766154358668,0.2394217620810709,0.014058532976801
1681944584.683693,3.1556890436352054,-1.840117291914028,8.724979845122665,0.03133710593066838,0.2605267040452347,0.027912677117879
1681944584.69361,2.4333876837132555,-2.2372218821074203,8.81397160895173,0.04663333199776905,0.27538049033412526,0.0377120886382409
1681944584.703648,1.0412046273409232,-2.0306968757530193,9.18727339852392,0.0624342732553202,0.2699451549039323,0.0467954676982709
1681944584.7135675,0.8202148706942517,-1.9989646307538282,9.311273192589427,0.07711419015034715,0.26406892094159545,0.0529158961412259
1681944584.723575,0.3857204986638283,-1.674279140018074,9.384610794765736,0.0880298734840174,0.2578452713184522,0.0568753991660424
1681944584.7335553,-1.0626658809886411,-1.0389347863060945,9.947303778537744,0.09593606349963973,0.24419678231894118,0.0526988383766957
1681944584.743529,-3.5638811914210144,0.4234100762748725,11.287521120912142,0.0816137212184028,0.1999485955142216,0.0432287294802018
1681944584.7535408,-3.3368883996288163,0.10525027193655326,11.252023219926812,0.07372729241754863,0.15939275471769032,0.0311332557734795
1681944584.76381,-3.107121800264041,-0.5202125589189442,10.767088438588264,0.0729640681888148,0.12632305268961957,0.0129888223868557
1681944584.773692,-2.238202333885698,-0.34646680159922794,10.29832597422913,0.0764551379248982,0.10541028804622839,-0.0005733511957577
1681944584.7835486,-1.6328410234166997,0.3949402990106918,9.834881865249754,0.07098114507559504,0.0966594697518312,-0.0088094735133699
1681944584.7937098,-2.4009180269768247,1.8051487012246101,10.203079604389139,0.051284443206923984,0.07861666682819594,-0.0113290307658961
1681944584.8035333,-3.648603708489073,1.6507170432549023,10.529366926640018,0.03069793970980836,0.04415686110059096,-0.0111658155533722
1681944584.8135276,-3.0796810997210233,0.7719896344612998,10.041840274520172,0.023798058846020695,0.012802882977313133,-0.0036660485516539
1681944584.823525,-2.7477479629024195,-0.2620269835017479,9.376441484409012,0.03431323039005216,-0.016493502183841033,0.0003788454609685
1681944584.8336442,-1.7231370574454508,0.7645715169134668,8.957075776799028,0.03278374084117969,-0.03162088755239905,0.0070612447720714
1681944584.8436368,-2.2204362153517545,1.8663511995094755,9.230423908589316,0.013475117243289363,-0.05067107872345722,0.0104925910395332
1681944584.8536594,-2.80648154145799,2.2124366162120204,9.858317051289257,-0.011483750243081627,-0.08299525045534194,0.0217286076781102
1681944584.8636637,-2.358974783602727,0.7733875248824996,9.935594253857271,-0.02354069377796043,-0.11193495426406784,0.0291656524327346
1681944584.8736985,-1.073382846170312,-1.7578763693785118,9.488001202378916,-0.008574668515159027,-0.12483778532469048,0.0262093495961972
1681944584.8836098,0.01814827230220985,-2.4756858379608166,8.903115001682089,0.022832500755944923,-0.12263361162611211,0.0248393908527442
1681944584.893576,-0.036136085476507665,-1.2240540415547647,9.524461959312635,0.030415541703010585,-0.11779656282158311,0.0238351848360844
1681944584.903551,-1.019926748369409,-0.674996000015015,10.198443510899443,0.03298081986576376,-0.12708088095843914,0.0237523977097817
1681944584.9135382,-1.3587967201066726,-1.0645684590981284,10.39715713013567,0.03459499119899702,-0.13946004613924556,0.0235253319528647
1681944584.923566,-1.8246848934533473,-1.560654863986378,10.515909105855982,0.04446974973057646,-0.1581445561543961,0.0242052067455598
1681944584.933735,-1.39957891144765,-2.415896257518412,10.208258258894599,0.06458932381750615,-0.17645735932034914,0.024912592807109
1681944584.9436038,-0.3100838502065681,-2.0485478210434103,9.454103991030848,0.08671628307819546,-0.1798252610575211,0.0262334280100413
1681944584.9536126,0.5780056533363575,-1.5462296412812975,9.130219232059485,0.10113106287563922,-0.17419301600898907,0.0289985210087844
1681944584.9636445,0.7346075089512019,-1.4299108524344508,8.906174598402284,0.11666476945268364,-0.16522000215741775,0.0220546450850316
1681944584.9735646,0.2627626787357272,-0.5612599608975617,9.343442856287131,0.11566830787533007,-0.16014094400867712,0.0117143679794618
1681944584.9836311,-0.15267059659633608,-0.2581244675436971,9.778931003310634,0.1151941952436494,-0.16485726709277537,0.0026950121659548
1681944584.9935813,-0.002051382900302571,0.1011193635237313,10.212918493747802,0.11092209913660915,-0.17318702753655615,-0.0004411448340169
1681944585.0035558,0.5768567238890602,-0.39175428511548244,10.08039210355369,0.11265866581799304,-0.17328388047618085,-0.0030020677100173
1681944585.0135758,0.775053963690516,0.013918403391657246,10.288770742222091,0.11237478262107281,-0.1756488147202519,-0.0023172513197413
1681944585.0239131,1.512281525297618,0.4067768795722886,9.955247251058685,0.11079041293359194,-0.17143786998041252,0.0061565193732031
1681944585.0335877,2.437875442832591,1.2859526535444155,9.812137712420933,0.09753929598039641,-0.15793009192813787,0.0178909961518594
1681944585.043552,2.888764730914472,1.28544763175599,9.534494834376224,0.08633984826019986,-0.1398823716506292,0.0308436423924514
1681944585.0540729,3.6639400793407835,2.480839527218068,9.66566718858261,0.06658579163421123,-0.11293058951025674,0.042699622773821
1681944585.0635395,4.962936403349767,4.5182407059861855,9.904274997292042,0.024610981430635455,-0.0710707910019551,0.0545593452092954
1681944585.0735762,5.245005062640432,4.891830709416762,10.17878707744883,-0.02882829942655845,-0.023725108268057248,0.0626483623322793
1681944585.0840318,4.960224660530596,3.3953850637760588,9.851490820580214,-0.06295057067358975,0.02392487390922681,0.0575409707066365
1681944585.0942743,4.864053576614537,2.8401626375988944,9.46266215819417,-0.08643632766094929,0.07570849622896689,0.0455029260751553
1681944585.104989,3.5492240702982287,3.0408148404300457,9.777671143395295,-0.11453087667011932,0.11371733507548121,0.0223057128873416
1681944585.1135898,2.4193895761108872,2.6243897326664367,10.110480109131517,-0.14172133032892392,0.1415514399404808,-0.008534510767763
1681944585.1235926,-0.23340744799426982,0.8655673081453735,10.845829499953407,-0.14894520986739956,0.13789856501735634,-0.0308362479868582
1681944585.1339884,-1.611763364861967,0.5737073879741971,11.329543909854143,-0.14880629830552372,0.11432978615576987,-0.0466594669583491
1681944585.1436825,-2.2364624770265658,1.4728641916305165,11.793751238502566,-0.15597235013586708,0.07837783238503279,-0.053819351977413
1681944585.1536176,-0.007379503970899449,2.3370155724262838,11.234860944951494,-0.18424601568124244,0.07038060961936082,-0.0592516224446943
1681944585.163645,1.3751140718195656,1.791081156961462,10.361606692027033,-0.20867351729859007,0.08657502992677465,-0.0677798103156737
1681944585.1736617,0.8880445984213884,0.40673308363289756,9.985571040502425,-0.22402317300320235,0.10318067931679412,-0.0847332041326216
1681944585.1835852,-0.5298447602190558,-1.7310136564221608,10.012902307228805,-0.21325759174826273,0.0979677452568015,-0.0913890312972716
1681944585.1936717,-1.5195030318753595,-4.343181342292041,9.780225934309682,-0.17114972362850875,0.0800264863873249,-0.1078805412712744
1681944585.2035933,-1.4318324366804287,-3.303468878018938,9.599321789524822,-0.13296296906369828,0.05914432766488363,-0.1132414649787596
1681944585.2136848,-0.321031271200172,-0.03351218283159319,9.635681181666326,-0.1379053436296201,0.048714038155921804,-0.1144743274512938
1681944585.2236953,0.6869436125316698,0.7210777611437689,9.644367622840129,-0.15287260456059046,0.04803044119679356,-0.1106907810631445
1681944585.2336495,0.9986844299140917,0.9674094081929314,9.561657258484576,-0.18004540582792422,0.052661758023808264,-0.1050024564924887
1681944585.2436914,0.8992312660211187,-0.9586800143575138,9.444374931781757,-0.18000288334821332,0.0547096768735873,-0.0931999992194823
1681944585.2537346,0.2187785136663538,-2.328058635194317,9.66080090617185,-0.1633545941626114,0.044743418388194664,-0.0885733004275015
1681944585.2635877,0.9604043541041795,-2.7801235268245046,9.470198703239253,-0.13475192602952574,0.0415663320281146,-0.0760056387248686
1681944585.2736547,1.206992844664371,-1.8992839787634632,9.610679192118077,-0.11712953763276565,0.041755746472446946,-0.0637526075902632
1681944585.2837467,1.729539510763576,-1.1228378195189463,9.541564055575948,-0.10822892320027021,0.04667790675543449,-0.0544117290142229
1681944585.2935996,2.6673152089121257,-0.5639210816051075,9.277897745163745,-0.10701768215650294,0.06346549111539386,-0.0446671481791189
1681944585.303594,3.4414346609667428,-0.5348930826468838,9.044553881390827,-0.10398222515982602,0.08833772767356635,-0.0305069621267965
1681944585.313588,3.6669857392396414,-2.3900159730197283,9.081785569881767,-0.08547733846559881,0.12245456647666572,-0.01850173916549
1681944585.3236556,3.2369675832008236,-4.156083619171423,9.164258956900355,-0.0354732367212385,0.14792976159703433,-0.001193510516291
1681944585.3336184,4.012246053314171,-3.8982002113860035,9.061709007156317,0.011783412228781497,0.18357413512485846,0.0166037900757738
1681944585.3436103,4.0865752750906665,-2.9876870100365673,9.19486958416601,0.04086913971787159,0.2214482552944049,0.0336383682128735
1681944585.3536136,3.5568312751689732,-4.0847871893728795,9.174037557903969,0.07957615146884557,0.2588617166954224,0.04756469916671
1681944585.363593,1.3143061953389468,-5.4885781537428375,9.590952483641791,0.1330770431172794,0.266939569531799,0.0562470991548844
1681944585.3735657,0.8997823180130313,-5.1634641422231455,9.441436668079131,0.1827505176996214,0.27002728154884503,0.0597088251647302
1681944585.3835611,0.2519928158363659,-3.174608612664394,9.737196792873254,0.20700084944043737,0.2575904493366577,0.0597936761018582
1681944585.393592,0.4976979318104922,-2.188443942424778,9.46349420896074,0.2179913855000094,0.24978659137217463,0.0523176443216153
1681944585.409944,1.3055789274083955,-0.5638971052230773,9.03429165422553,0.20432737669259612,0.2503972643038711,0.0456607330974885
1681944585.413574,3.345949682371457,-0.27016032403627294,8.292012989818613,0.1987818430312501,0.26423539174494926,0.041234667265112
1681944585.4235992,3.168799758558129,0.29986807673295823,8.301954001946074,0.18303428051721674,0.2868718231363213,0.0373872395989247
1681944585.4336095,3.0726221320700255,-2.1599864246196385,8.015314847163578,0.1996764269233462,0.31753324162837976,0.0269494362559863
1681944585.4436023,1.7262371220584662,-2.0328900502939344,8.149841920674655,0.224931453965504,0.32778101601184123,0.0161729555961438
1681944585.457013,1.9442453889044666,-1.1443158074788333,8.457956325761389,0.23882821985058797,0.3436625912793265,0.0067442914855429
1681944585.4636643,-0.2934292435183089,-0.10958724496368462,8.814486866147398,0.24188634647950635,0.34139374859095684,-0.0015076437580636
1681944585.4736476,-3.3400867766491973,2.956022775968768,10.849676344769646,0.2100475151487456,0.2953563477812703,-0.0087236484128287
1681944585.4836495,-5.741109669678273,4.685918643489083,11.963036048812077,0.15272958056639208,0.2250317300502978,0.0017239639396076
1681944585.4936173,-9.001453173515097,4.129924427126193,13.26549516079457,0.12765843510384972,0.11884967689142538,0.0111394718673774
1681944585.5035982,-11.781102625738757,9.183717175908455,14.383007273598018,0.031175829276186756,-0.016916554475511495,0.0212018534925528
1681944585.513669,-7.248887049473056,5.696176640335537,12.57706370693565,-0.017866082046208133,-0.11121593582662863,0.030034554043109
1681944585.5236378,-4.323601973431489,5.328169467092292,9.34216241276336,-0.06110711441490465,-0.15018484461856046,0.0499808852013894
1681944585.533635,-2.5061790266240815,2.7044923119696267,8.74004718043403,-0.07372454473169647,-0.1843541198861682,0.0589095455047437
1681944585.5437186,-0.6744723284117863,3.823698062488268,7.706128366275224,-0.09934443363154856,-0.1835686880596686,0.0398050051566907
1681944585.553626,0.38374341346978874,4.378912273743787,8.658440457934637,-0.1524120839581933,-0.16543880957224344,0.0292289786425181
1681944585.5679183,0.2436838048555781,1.8956727973924323,8.584427877225506,-0.17879936586653816,-0.14009668336705616,0.0080964479979821
1681944585.5736809,-1.0275828376560316,0.10853084534989904,9.621066439251486,-0.18724502533740453,-0.13665541671109155,-0.0154562621924332
1681944585.5838084,-0.6448303904637391,-1.2096905193808243,9.833960981715553,-0.1784430023389629,-0.12971651863258163,-0.0452391031745127
1681944585.593628,-0.4492980798645537,-4.067978287918505,10.165743985321471,-0.14904735982073172,-0.11385809589483373,-0.0535344156983545
1681944585.6036444,-2.835299919026652,-5.482481441011087,10.814267272247784,-0.07687650416371766,-0.14551270187751073,-0.0496669906738451
1681944585.613654,0.08080425745410126,-2.1728135384181773,10.686824210465097,-0.06356187436065838,-0.13810398801427218,-0.0480747270944765
1681944585.623654,3.193147620701045,-0.645634192636837,10.048771594181925,-0.07847706485303582,-0.08481155940268863,-0.0167148850473812
1681944585.6336415,4.091872472805829,-3.0354183011131473,9.430006887836885,-0.05751838011698588,-0.016154349569332583,0.0431764040526696
1681944585.6436205,3.3914575499492123,-3.362478409256779,8.775794911737204,-0.02473076485932698,0.06463431813658817,0.0785340208944627
1681944585.6536374,1.1721620585354913,-2.482173803544283,8.800000865071592,-0.00756227692051107,0.14410916302999524,0.0811768386897393
1681944585.6650324,-5.030954645603271,-1.626744332717608,9.296695721831524,0.0016912936914020482,0.1576082985223418,0.0524816017982312
1681944585.6736572,-10.93900486975367,-2.807119235191656,10.978393207890052,0.0066490996988458825,0.09937744220609337,-0.0115183239418319
1681944585.6836343,-10.763668640709955,-2.425664962076105,10.049902563665428,0.02751771954432753,0.02008094034983322,-0.0566472421947172
1681944585.693745,-7.502246555410195,-1.6389795673147067,8.8726660413621,0.0424237091522978,-0.020796237522824817,-0.0812724615994147
1681944585.7035968,-7.250347689882741,-0.44190449081407035,8.976098260257643,0.05528760947746109,-0.06986102588246665,-0.0754793744149855
1681944585.7135992,-4.596691201608848,1.5599216676018097,8.999712891236404,0.044700554339638786,-0.1007831762759481,-0.0427990566554716
1681944585.7236097,-3.1340484800296924,2.711545280771269,9.367812398383183,0.022073948136698107,-0.11643097548971626,0.0012477878749133
1681944585.733628,-2.859226291164558,2.4189851873165935,10.519254141782527,-0.005683520165376848,-0.14726547066222423,0.0394664544996568
1681944585.7437108,0.46310580596321477,1.4253546310914733,10.712354447716413,-0.02204462595532827,-0.14443193906757792,0.0693606276449509
1681944585.7537725,2.590704826297067,0.7347878476179264,10.874043443964387,-0.03285525060167835,-0.11220393003946949,0.0763714153703996
1681944585.763681,4.690870551578109,-1.069976752079031,10.834410613342651,-0.026771496452976065,-0.05579523292004579,0.0671845291194268
1681944585.7737312,4.6386150851934165,-1.7033454089769384,9.648515902599117,-0.012116974036835735,0.016985189718097773,0.0447952662047692
1681944585.7837424,0.45155634582732607,-1.3310432019786833,9.427323862842698,0.0015367081912796732,0.03149420906974296,0.0059256570798107
1681944585.7936933,-1.041141683623643,-0.5404314685571655,9.270548822010028,-0.005976831760556829,0.029596373516944545,-0.0292715515556982
1681944585.803657,-2.4688207842485452,-1.2363091021663395,9.434309735665765,0.00031906500318294734,0.006546686424402685,-0.0496978845062903
1681944585.8136466,-2.0130615204010804,-1.2132049864234788,9.609158203090287,0.009783775851329283,-0.018508740710169527,-0.0589037399354628
1681944585.8236585,-0.7623561512100694,-0.17174169496799127,9.822734880256958,0.010881703178968118,-0.028157314175577045,-0.0518599833908728
1681944585.8336794,0.4730632312178646,0.6416547184782695,9.96356806002041,0.004379107208269432,-0.023679575332870878,-0.02971392232806
1681944585.8436873,0.8040694937431743,0.24327698759045133,10.02062240808348,-0.001283340746843953,-0.012297720222979905,-0.0142182066652229
1681944585.8536897,0.849265705625272,0.16617315688810066,9.851880933221812,-0.0007526233574412346,-0.0006406476311970152,0.0082807530102082
1681944585.863712,-0.14357719418961953,-0.3003411466831304,9.866300447143662,0.0013116034437700924,-0.0011870768731689681,0.0153114896652051
1681944585.873793,-0.10228118674053027,-0.12554279046628167,9.67562933082613,3.0447996823883177e-05,0.0001067374368402694,0.0178722523537227
1681944585.8836298,-1.0978611957058433,-0.5379349007699524,9.611722494589579,0.0032524195164026107,-0.011501952651565865,0.0092582864139922
1681944585.893634,-2.291717592872713,-0.7429838617793652,9.867096799077132,0.004704418454560259,-0.04554164920248565,-0.0309531252446821
1681944585.904631,-1.7636374359633966,-0.8793205788644839,9.826565138103525,0.009556553612535072,-0.09009860051588038,-0.0669311221304587
1681944585.913757,-0.21532099890259257,-0.5386770257643269,10.162989252180672,0.008644734931145814,-0.12454457418612842,-0.0749542276921919
1681944585.923725,2.2973437983054126,0.0757973028740132,10.509080409899672,0.008054297698058306,-0.14519841963267915,-0.0618251200380972
1681944585.9337082,5.993009078844808,0.899891237612233,10.404489847676281,-0.0009625009030928794,-0.12685653719076684,-0.0338044326368025
1681944585.9438238,8.237486630992176,-0.28325721436837537,9.839322127692842,4.70030889009181e-05,-0.07606004807445778,-0.0083783382165483
1681944585.953706,7.970630697208398,-0.5106907223026133,9.358069422594745,0.010467821430549444,-0.02494825894113073,0.0116555922117778
1681944585.9636476,7.114635735711818,0.5545092484310722,9.080718478579922,0.004950380971836936,0.020530727895366307,0.0271959145006486
1681944585.989016,4.435318467620629,0.7191758178335398,9.335124210363215,-0.004727228027515858,0.05072754215859635,0.0425928783056088
1681944585.9913168,5.5338144799342635,3.6156981436508024,9.38525125200168,-0.021157872898710857,0.06339514705269303,0.0391299266752549
1681944585.9936135,5.036628949522686,1.4820410750029662,8.709007693287347,-0.030762386437067326,0.07809549706364678,0.0315412532922574
1681944586.003681,2.4047007282857793,-0.12521483175538628,9.31529615268871,-0.030605912742661393,0.09271326093859775,0.025576229059393
1681944586.0136497,1.0071936293928196,-0.4142238280947005,9.347340049594605,-0.024725822822459657,0.10026741275861145,0.0139751544606634
1681944586.0236642,-0.046156184843542315,0.11296404535364316,9.707166104948953,-0.02705076869126679,0.09943136203921388,0.006491063480521
1681944586.0339055,-0.7578458824277639,0.7344446212764454,9.966568661346995,-0.03856577596588878,0.09343487325068418,0.0078167611186155
1681944586.0436409,-0.9810664218134636,0.3264632363233413,10.224121947903866,-0.047686525662469344,0.0886671331170003,0.0091972927015968
1681944586.0536623,-1.4280185306251016,-0.41513212643210917,9.828437909427638,-0.043226682875840666,0.08174309688543002,0.0154813852545567
1681944586.063655,-2.7981139879986823,-0.3323144213454767,10.328879918493373,-0.040175502122016364,0.05774117879822712,0.0184628077235766
1681944586.0740752,-3.1811370262364593,0.1235469272845528,10.872491634982838,-0.04501854164763271,0.02337937135571579,0.0179487679538079
1681944586.0836482,-2.0996780490837197,-0.455827078120026,10.343957871239452,-0.0455672480481443,0.008291762582948161,0.0185803834733315
1681944586.0951903,-1.900007833636976,-1.731937796898717,10.070315798334176,-0.030995633488750497,-0.005043431605763121,0.0204342779156514
1681944586.1036797,-1.7408154595568166,-2.6838746596160115,9.889176355104471,-0.007462051352383564,-0.0202783030905865,0.0188343998429128
1681944586.1151547,-0.18242878551409566,-1.534964021882988,9.439368369462667,0.0030405209211026643,-0.011191620699511021,0.0123272965115257
1681944586.1239238,0.5854104673651277,-0.9135163533782374,9.315354950196614,0.0010842282339960977,0.008209179344267879,0.0076370554429241
1681944586.1337256,-0.009887279831149159,-1.3768999118008367,9.380836013882682,0.00335956172438919,0.022166375709465145,-0.0002136716234735
1681944586.143775,-0.41815478482198715,-1.5793776261460368,9.25056214723578,0.013452435390715159,0.031965430307307294,-0.0068790290120295
1681944586.1537182,-1.7699738821269402,-2.123563118726672,9.561086220140101,0.034480538251185675,0.020902744827625466,-0.0113948687526634
1681944586.1636672,-2.0248322592883463,-0.45848492465901575,9.837767298879943,0.03834740123616592,0.0038757062288883675,-0.0154700960579565
1681944586.1737866,-1.4286957858987641,0.7093677364666461,9.980906602513713,0.03128269714165773,-0.007263836687243631,-0.0151782456401041
1681944586.183682,-0.9964453877869546,1.6019899359763157,10.170764621751184,0.011031452454892333,-0.010630255988876087,-0.0140741999808004
1681944586.193951,-0.5949182383396868,1.0235772901224767,10.27863909059097,-0.0012816007495414217,-0.010694810690638022,-0.008247252701526
1681944586.203728,-0.48873878033323703,0.5005342994232933,9.987749316315599,-0.0016463431478930108,-0.011255491131499602,0.0016683732733009
1681944586.2137263,-0.12705787487399192,0.31040302037656325,9.56643249814223,0.0004037577556712255,-0.0031138696812370043,0.0095600176987
1681944586.223686,-0.6625111917725206,1.0655545789525545,9.749832937999997,-0.006118484502699585,-0.007439872547870022,0.0198648505297252
1681944586.2336771,-1.5468958585165076,0.8107005734937934,9.811134561762387,-0.018373845230153334,-0.023275074771394216,0.0088341174100288
1681944586.2436612,-1.337452501236308,-0.38281854015528194,9.996637376977718,-0.021782761075913967,-0.0430983686370505,-0.0115820776286772
1681944586.2537577,-0.6108832181707089,-1.7170708978312845,9.549709565298464,-0.008604917946889787,-0.05356339682319472,-0.0372416909399679
1681944586.2636733,0.03352759388381202,-1.7665113313778111,9.827401871850869,0.005048479016272241,-0.0670261313229844,-0.0490809950593165
1681944586.273662,1.4167417517613676,-1.4564902970274394,9.530661769912967,0.017491798597501704,-0.06322295316309567,-0.0512393761041811
1681944586.2836623,2.0269237112569187,-0.49411227421368686,9.860792874277347,0.01746379391084947,-0.059080374546149936,-0.0380845788481882
1681944586.293655,2.7265982718131685,-0.41303867124652455,9.812154237951345,0.0168649930169446,-0.05010824169395298,-0.0157025429967096
1681944586.3036752,3.0338376369780318,-0.46638400646531203,9.673539601904444,0.018126609833404354,-0.03703180257152863,0.0096563211095281
1681944586.3136468,3.247571931599851,-0.7677018862603634,9.5058422370628,0.024099584533494787,-0.020448314231334853,0.0314059544739076
1681944586.3236537,3.05682610812462,-0.9336561424767594,9.32082584326809,0.032510343474930065,-0.0013721914783870078,0.0376283701893636
1681944586.3336973,2.4856459790929732,-0.4454999819082913,9.394540052846137,0.03895580015875069,0.012520426985826776,0.0390242290136166
1681944586.3436828,1.292097045460532,1.1600199312770878,9.805882875562828,0.021773415750690354,0.02332140798848391,0.025225457587535
1681944586.3536994,0.0037055602317417505,1.313989649458163,10.534885059727706,0.0005484806464530092,0.014383339021532786,0.0109106580179878
1681944586.363773,0.42898687826734144,0.2606173907379914,10.084785742552796,-0.007953512326591763,0.01734637138594474,-0.0055729785549691
1681944586.3738673,-0.4048724006255236,-1.5321585793458927,10.042336715536829,0.003820791385664201,0.01634812168767338,-0.0153675127390078
1681944586.3836763,-2.152447250561802,-3.0229688264546772,9.959603343559174,0.04356903398051366,-0.005062425738848346,-0.0157737128052166
1681944586.3937562,-2.3110780736099197,-1.4744414116154192,10.184149350472428,0.057131230725360735,-0.029584566228485928,-0.0113008526700786
1681944586.4037352,-1.950084591034186,-0.8983636987179417,9.954773905929244,0.06345328130095954,-0.04717378513073417,-0.0029779902274957
1681944586.4137254,-1.6828453555102634,-0.6174468375915817,9.865294863121946,0.06030734536922196,-0.06297238455614097,-0.0025764504994503
1681944586.4237452,-1.2083669951427651,-0.6694935209358237,9.663412494195496,0.05785398989144226,-0.0691544507120146,-0.0069165482732704
1681944586.4288168,-1.2174830002120793,-0.6319698477091312,9.910525071721075,0.06148165464824184,-0.07735753777350302,-0.0038583149749091
1681944586.4427142,-0.2298029114579059,0.0037204824180448286,9.709897909254353,0.057629025924988996,-0.07434185844495834,-0.0044524401041916
1681944586.45305,0.2989929308081288,0.5405377167985599,9.786007373673785,0.055662065521424046,-0.06744484630470651,0.0035707874607988
1681944586.4627805,0.4659137522217716,0.9485039635550814,9.763311417973812,0.04722659386662205,-0.05806669250644658,0.004654930756683
1681944586.4727998,0.906866819115099,1.3867424258728382,9.75461082458123,0.03571293782455614,-0.043312222818827295,0.0062319457915374
1681944586.4826972,1.0528489422846545,1.2572145317210977,9.546660503979867,0.0238376570822792,-0.023094878501063985,0.0079711432021805
1681944586.4926906,0.47147957155749437,0.8939934099342357,9.730848512188008,0.01055527499750481,-0.010050584386884089,0.0046504471369781
1681944586.502737,-0.8241779596689182,0.014366742417815243,9.677939027362692,0.010656251032533553,-0.01643538803249129,-0.0001422189257345
1681944586.512735,-0.9261612745403364,-0.17439747395286517,9.939572138484834,0.011727338444790712,-0.032352338984978905,-0.0059620883862725
1681944586.522707,-0.18830591175266137,-0.62059341436331,9.789122857305077,0.013714203543032285,-0.039074979546765934,-0.0185448295983723
1681944586.532812,0.34837070509214957,-0.467262845588129,9.982865475136048,0.015110981648448988,-0.04752297683762455,-0.0187287713947943
1681944586.542823,1.2729602536070816,-0.3019837197489059,9.731611587445723,0.013607089722016767,-0.04343063767675301,-0.0188947368028811
1681944586.5527277,1.684620886713848,-0.793727633107121,9.929098687399877,0.019096887972543837,-0.04132023497912337,-0.0115972973021916
1681944586.5627546,2.493913878701647,-0.28004710739085925,9.46726495200584,0.02220808867665693,-0.02528765761282299,0.00348079783495
1681944586.5726717,2.1336506970875484,-0.12207367949262346,9.646321725545171,0.023297070056663993,-0.017163916963196312,0.0129958995071002
1681944586.5828395,2.2713443822689654,0.16086146129115725,9.48364271730563,0.0215698943208856,-0.006345394000594227,0.0229974043008633
1681944586.5926893,1.7641203838773891,0.5375433152078293,9.739435970932051,0.013080829791735348,0.0019485018068875844,0.0174894787755557
1681944586.6026783,1.4548470942560863,0.005125472563248308,10.038634391713218,0.013160103633703159,0.007690438637592859,0.0118294738617488
1681944586.6127431,0.7214625859318684,-0.06181718571396747,10.221015393408766,0.007388851103058709,0.008820200493777726,-0.0023774566675773
1681944586.6227844,0.515220058434569,-1.034843302868452,9.923993915428152,0.01781519334962814,0.011016748727961228,-0.0158223129424503
1681944586.6327229,-0.38947215526781853,-0.8116999985904535,10.059977443984623,0.02241826282523466,0.0011143120835187409,-0.0250599097076109
1681944586.6426945,0.2133226019218408,-0.5371327374652973,9.36001740991935,0.023768575420652464,0.00493663487628352,-0.0326216753187826
1681944586.6527288,-0.06064563926604433,-0.18011795389147767,9.284219794802652,0.021240849900777792,0.004448886154505863,-0.0282979096832922
1681944586.6635065,-0.22339503520879533,-0.5825726016194785,9.203719496221956,0.023435863185064864,0.003898722015779173,-0.0157476693007401
1681944586.6729531,-1.2185551770953709,-0.7336752802222636,9.47055384034059,0.03448449534569091,-0.0074897423675388914,-0.0005907399195483
1681944586.683159,-1.919492169029989,0.32391388779792296,10.155548954886527,0.02864554717435409,-0.03105377151429863,0.0126741955441185
1681944586.692753,-1.515625582272157,0.3708608613819721,10.342339188569756,0.024371548197890797,-0.05019665644103029,0.0208978549030372
1681944586.7052722,-0.764352735462446,0.3058891967607032,10.2058806049038,0.019236905377218203,-0.06116513542432349,0.0239369411405869
1681944586.7128294,-0.25128289029329554,0.1791562192811826,10.29643721703492,0.015202720639292166,-0.06366442848948063,0.0259960748639651
1681944586.722721,0.23877271629716068,-0.7977436726413989,9.891119666905048,0.027062836935314076,-0.06257800923430434,0.0248212002602168
1681944586.7328048,1.152578598807728,-0.6875631524127744,9.351335588246597,0.03705069339095878,-0.04615573335379868,0.0189117722597667
1681944586.7427962,1.288493721849685,0.08609332853560453,9.235668073924657,0.032050568249610265,-0.025276885895053714,0.0066059509676643
1681944586.7527256,0.9664558198198734,0.377766665330978,9.366965944582558,0.025414286410744162,-0.010758706810419454,0.0027604589390331
1681944586.7627306,0.09120067573372251,0.15315490860659361,9.562747266135165,0.01807246614878307,-0.007431703985965953,-0.0072656498837522
1681944586.7727711,-0.1446936968401265,-0.1702967628644684,9.685001287685441,0.016058897851705015,-0.008661476551112064,-0.0135945912066153
1681944586.7827094,-0.5019946908849543,-0.45632729079079143,9.782713095389877,0.02056374964316832,-0.018411129987817756,-0.0180053442332199
1681944586.7927625,0.381843243588038,0.5015482632548179,10.053807895830394,0.01594676516128478,-0.022854744875872697,-0.0150636426720074
1681944586.8026905,1.4837537342479556,0.8988008645945126,10.234225091600187,0.005519025882372898,-0.016258847118818795,-0.0128834146621874
1681944586.8127294,2.4598258412161047,0.48207097428295015,9.958625679218688,0.0007376496301740075,0.0049424573920191315,-0.0030601030762544
1681944586.8227096,1.76778070077451,0.35791184799461595,9.89148393133075,-0.0006545564113708491,0.01811843667964198,0.00596173605069
1681944586.83276,0.5537360608186287,-0.010725375059724918,9.907756658220455,0.0025835274764215285,0.012665310385248735,0.0134630257648178
1681944586.842748,-0.1851384985657833,0.18097462406969367,9.883200479034873,-0.0010213951522876066,-0.001769757029247082,0.0117579436314054
1681944586.8528025,-0.2656268985509454,-0.036829898862339595,9.734825978519904,-0.002133340414619038,-0.01586554661873401,0.0073501638521202
1681944586.872748,0.6164353705665444,-0.32124358275301734,9.824856463190638,-0.005883684419498631,-0.021011631610728703,-0.0151689733925512
1681944586.8827813,1.4024599673154339,-0.2561314432466475,9.475170063540778,-0.006934093451612828,-0.006583346653510487,-0.0173388525459221
1681944586.892783,1.0893181926153477,-0.3770643140002267,9.419836517782223,-0.005404483052145744,0.0054687468470580895,-0.0185939382377318
1681944586.9026997,0.35579640701649085,-0.1209027618727682,9.694863050692613,-0.007110837063924252,0.007984826204087558,-0.0139000687363794
1681944586.912699,-0.14287851411971125,-0.44433053128582717,9.793332050901773,-0.0010967884458967549,0.0047625414918532425,-0.0021407233166745
1681944586.9227147,-0.7206678371620238,-0.7358618528647911,10.089256545279884,0.008845646387233582,-0.005929406902769008,0.0030881234829076
1681944586.9327576,-0.41980764757354094,0.30732919002565723,10.20116946025142,0.005905322270621059,-0.009972508122037206,0.0075803090271302
1681944586.94272,-0.36073708121318404,1.1114074218901575,10.424955129731252,-0.00970099836244389,-0.0135936397383467,0.0144404273864575
1681944586.952807,-0.11688275078909739,-0.1461271567999406,10.371296135331958,-0.012405608130665057,-0.016181766273104987,0.0178507201757975
1681944586.963624,-0.2472319590805082,-0.5793040605341983,9.81579421086651,-0.00643211068766857,-0.018652602297743442,0.0197447639343091
1681944586.9727402,-0.2670463563196317,-0.9019850687122777,9.493559545987823,0.0023653162020662237,-0.021441055598937556,0.0155399412301131
1681944586.98272,-0.2748253511168331,-0.6672657991594187,9.409036855249473,0.010861027966028395,-0.025054465924131457,0.0153018830728479
1681944586.9928846,-0.1874853861187216,-0.3742471612138082,9.397889248277055,0.012679784824271028,-0.027969729861806885,0.0067249651451357
1681944587.0028164,0.3643988175077563,-0.041550184882789276,9.507529314387398,0.00808766263095439,-0.026334270688514405,0.0069774299313076
1681944587.012731,0.7434928202171863,-0.683952694126837,9.51781654712095,0.014778912519767623,-0.022073681259154498,0.0056870904204198
1681944587.0227537,0.9782532143620388,-0.2596604652141786,9.512634737584534,0.015945308753470583,-0.01590349753778213,0.0045745785732516
1681944587.0328865,1.2637238947852028,-0.04033568419421597,9.692022092757764,0.012801136245396914,-0.008349360816894611,0.0077954189304956
1681944587.042771,1.07133365003628,0.0827428736820563,9.663956013340671,0.013449325212487569,-0.006455478785460717,0.0153439211112209
1681944587.0527346,1.482254863089219,-0.06289684718403858,9.816281622218467,0.011034046519331606,0.0015288279879412058,0.0207200281706401
1681944587.062774,0.687001730153944,-0.4676913117849854,10.040297542500191,0.015844393571349466,0.003347648548279249,0.0245088234928199
1681944587.0779424,0.030739753301964823,-0.4011488181956404,10.500409393974694,0.019322560489471105,-0.0076344006987876835,0.0261548616376468
1681944587.0827425,-1.0286887136020655,-0.5338578307895316,10.98028949437931,0.02354153690459705,-0.020069645541259812,0.0228091542062112
1681944587.092788,-0.17926660606691033,-0.22594771018230175,10.611497352714766,0.023355357185061987,-0.029562726934457238,0.0096505804371782
1681944587.1027482,1.2444631686602883,-0.29434107012756666,9.813328001753781,0.02445372300775599,-0.01739184764347125,-0.0033597919705561
1681944587.1127226,1.3012179079012733,-0.3820256378896956,9.44770150702372,0.024805420683883198,-0.004232078519928653,-0.0121680397155932
1681944587.1227305,1.3277088420257264,-0.3855304799889072,8.883637437426437,0.028292574802524405,0.014290591447255937,-0.0170342728111199
1681944587.1327634,0.8075614353719577,0.7315889378831204,9.081051765471319,0.019939245692055834,0.022305104812376887,-0.0186881843569925
1681944587.1427777,0.7383608139439349,1.227309255570261,9.315325411444997,0.00359772270133827,0.02886921666968678,-0.0152353468897989
1681944587.153481,0.1475686398194875,0.71512957313596,9.806827714519086,-0.00618024733259329,0.023211352065447076,-0.0088990043464354
1681944587.1633284,0.2654833620831576,-0.2402463327906317,9.899409103854811,-0.004126213400723774,0.020529768761943217,-0.0036269707220843
1681944587.172829,-0.811305750377132,-1.2687768192364972,10.259266043054716,0.013975986575549123,0.006062602563532074,-0.0036271942395023
1681944587.1827328,-0.43207393580536657,1.3448713821504943,10.70133527767418,0.007966496187916994,-0.00861831259724137,0.0013485304930009
1681944587.192762,0.6370059332862367,3.2766348385000303,11.036811571990768,-0.03183001137724857,-0.002784643512173517,-0.0060394230845621
1681944587.203138,0.24135769512035893,2.1854353093763117,10.745845198516886,-0.06157946699983984,-0.0011199731665536541,-0.0133114505174807
1681944587.2127264,0.27272695325188895,-0.18360148212271762,9.514853996638843,-0.05538245766935745,0.0016520228830901142,-0.0160711641970328
1681944587.2227411,-0.5426499144305191,0.2545507703171822,9.046397964623486,-0.04751110590513765,-0.00803488843017109,-0.0156351487699202
1681944587.2328246,0.6589710295991902,1.7600188684455402,9.014888516021422,-0.05927570533946,-0.004365459810159053,-0.0131909560027769
1681944587.2427728,1.238703725228455,2.0806424198822073,9.586832744741292,-0.08747994829270374,0.009418086017836048,-0.0133944239082983
1681944587.2527878,1.562920846443277,0.12532856598499445,9.878916985525633,-0.09042567211792853,0.024465126419694647,-0.0161396275821379
1681944587.2628655,1.538508531103789,-0.9930836960988255,9.843951027906442,-0.08186717879682281,0.042634948950077745,-0.0183343134436062
1681944587.272811,0.4303607066541118,-1.4082201610391132,10.173625264349436,-0.0676636749404696,0.04258656531705104,-0.0191737051668814
1681944587.2827342,-0.5201620615332967,-1.737066478407531,10.039568088787389,-0.053667615418878996,0.034697011299387556,-0.0209527082356861
1681944587.295576,-1.083830386081702,-1.2626629857279812,10.392179733394952,-0.04794687540534498,0.007385899778254905,-0.0213850486639193
1681944587.3026996,0.07407050958679366,-1.3853867998560678,9.834074537915548,-0.04204623244425646,-0.00213786821425819,-0.0175557519856146
1681944587.312796,1.4152884172796314,-1.5300742295005871,9.158757313492124,-0.033676073275476594,0.005592874401389767,-0.0098261080297878
1681944587.322785,2.2181824967631183,-2.086004909625947,8.701437004347111,-0.012598454638788469,0.023604343847420967,0.0001881849870779
1681944587.3328028,1.7567679658718574,-1.1450342569946843,8.714246629569635,0.0027486468396849435,0.040719409422165564,0.0013013105758228
1681944587.3427615,0.7206090385617825,0.4339135103153551,9.692953221025894,-0.00360037391494708,0.04365899307196345,0.0028093105333619
1681944587.3542776,-0.5185003560515836,0.8307226885278095,10.335963995185079,-0.015316511306594748,0.03136921438631057,-0.0073512747499397
1681944587.3627653,-0.7135551219824354,0.5014534044379854,10.9716007841573,-0.026866776799580872,0.018080927955661862,-0.0164289541158131
1681944587.3727827,0.11135522012119786,-0.5622385959050074,10.346679962635726,-0.02071345599231593,0.012498015626499695,-0.0260439060244015
1681944587.3830056,1.066232986441664,-0.04711669812923775,10.00220985756269,-0.01627517683249023,0.01672349194162665,-0.0291476409497908
1681944587.3927517,1.751965702924064,1.6783300989921586,9.407435190992567,-0.03784031925305728,0.038257916733820056,-0.032792241460388
1681944587.402874,0.7570886883485471,0.8041729020262138,9.442260054550752,-0.04852580102233717,0.04692161721216379,-0.0243231571826389
1681944587.412742,-1.0076724505757535,0.1088590561874779,9.74954891596106,-0.054443570039866364,0.031513767306726885,-0.0150925565126589
1681944587.4227843,-0.4661373029528731,-1.2277946963562347,9.602988171464862,-0.03989883186414958,0.01968675985083261,-0.0011765399563363
1681944587.432871,-0.5673742458245447,-0.5005060231260549,9.528976576792054,-0.03294112023818943,0.007763672857768188,0.0114653388422676
1681944587.4427545,0.471522237855334,-0.24311653261021798,9.826147458590635,-0.03502534357473103,0.006979961243197857,0.0207080532249757
1681944587.452771,0.5084022604571191,-0.5403526649785737,9.597097029407495,-0.036343498387830464,0.01187711913228004,0.0231176250067302
1681944587.4627695,0.626135437421662,-1.6569640000838428,9.539036167674983,-0.02433831282645518,0.01824994922336465,0.0165960386779853
1681944587.4727938,0.029411141233400266,-0.653343665658849,9.481657426910767,-0.020979414998896006,0.022784450405676008,0.004567387831653
1681944587.4827652,-0.6767276051025946,-0.005965962993355658,9.926828719634605,-0.025515443735546046,0.01568417289576405,0.0001803494210117
1681944587.492864,-0.9027995841334129,-0.4426879951744007,9.97150264245304,-0.023767083152360206,0.003090916103248912,-0.0050102501723221
1681944587.5028083,-0.8815537870835429,-1.232710024903861,9.860898999809255,-0.009025738387005539,-0.007233309190188528,-0.0003363996825418
1681944587.5127904,-0.8144853944168863,-0.5966134307066359,10.168452122452777,-0.0023638177118601596,-0.019949564358092895,0.0010902534390562
1681944587.5227544,-0.09140738898831183,0.007837880239577285,10.0442368031639,-0.0029282558150384424,-0.023354492364557167,0.0046688286506333
1681944587.5329213,0.9754068349252348,0.8595615075751872,10.284479300695061,-0.014013199226642563,-0.015902524640863825,0.0090291638311692
1681944587.5427985,1.7238730042701134,0.6534384866136189,9.791217046869438,-0.02501736593868229,0.005519431393732322,0.0101528268691846
1681944587.5528066,1.09173079484939,0.12305576430661387,9.613890999177476,-0.028425535209859628,0.017413606980255104,0.0087742715527066
1681944587.5628335,0.5384527557530513,-0.3719962063354102,9.302127284761314,-0.02408344921817151,0.020455556449654185,0.0087400487077185
1681944587.5727794,0.247150736375954,-0.19073751556392957,9.175406900614393,-0.021355116074852257,0.020664109165730103,0.0044799478177675
1681944587.5828552,-0.516421439313334,0.32573489029842373,9.562652801894927,-0.026701533166563977,0.00930678009382969,0.0027357046760381
1681944587.5928504,-0.5568967541784157,-0.10973719449276247,9.862162629169875,-0.031043616173199468,-0.004687157774628729,0.0003075421240874
1681944587.6027908,-0.6068921842311987,-0.6242992640338846,9.865633054276893,-0.026881661991110684,-0.017418439946902117,-0.0022154372732392
1681944587.6127732,0.13540001328380588,-1.7179720821487496,10.388112445239388,-0.01498758693958542,-0.022626991933589295,-0.0017960426944545
1681944587.6227765,-0.09817243421820024,-2.264285574216624,10.345368069751222,0.00819880628560543,-0.02654150643024377,-0.0053225645411065
1681944587.632825,0.48438556927802456,-0.9607192520939963,10.342158546056254,0.012078844529940028,-0.027012380278521743,-0.0038597636471739
1681944587.6428518,0.8905184404071587,0.5385634849641995,9.843393280836134,-0.0027998866409309634,-0.015449363611941505,-0.00267325729013
1681944587.6575952,0.5642808505910922,-0.10087900900860601,9.690569979242598,-0.010207763883820619,-0.008211468319727966,-0.0027782112906924
1681944587.6627738,1.2486433384911058,0.13046225108244175,9.25955612557442,-0.011841231464817236,-0.0010307323541552849,-0.0037434493738464
1681944587.6728325,1.1412978744439424,0.09343758214636702,9.289981031046452,-0.011444123475836093,0.011092928709469006,-0.0018285446881554
1681944587.682934,0.509971084111651,0.5829684364138987,9.516390319442454,-0.014326646589742448,0.012716515262542109,-0.0015547256066701
1681944587.6931934,0.21493546053779428,1.0139795289984053,9.647662318221986,-0.024411933143816567,0.01025276031085157,-0.0002551799721321
1681944587.703075,-0.12571843447737882,0.9347756281747831,10.023251684080428,-0.036356989419111564,0.0013075834349543642,0.0037992392585375
1681944587.712809,0.007239832742907225,0.1919151199083539,9.95456311152166,-0.038288177139536334,-0.008159609492897492,0.0077785931912013
1681944587.7228136,0.5654233562100182,0.12051126250175648,9.682579486913612,-0.040807307489417306,-0.00829411219592705,0.007951250617648
1681944587.7329304,0.9542928874120742,-0.7903289110756286,9.587106036046572,-0.036121630190950896,-0.001165660151212498,0.0065556264866837
1681944587.742854,0.30909346620134986,-1.3081195624917623,9.70288278046582,-0.02471812764615486,0.0003707350089589727,0.0046056388796069
1681944587.7528443,-0.6738221986550799,-1.253238528404588,10.232814089824675,-0.01663563429678964,-0.010562374522995462,0.0009675385931269
1681944587.7629955,-0.6735429534354137,-1.0844765662122269,10.293007268194875,-0.01396313368093032,-0.02098114851066369,-0.0007455597247234
1681944587.7737153,0.11805366724182303,-0.9528553990720424,10.484503098902803,-0.009025394615322934,-0.0244735242822344,0.0015558902209387
1681944587.782784,1.308794376856512,-0.8847303244814401,10.130804901696445,-0.009241064714074987,-0.012538814187955053,0.0038170484744706
1681944587.7928567,2.1648715999426846,-1.0304187696473839,9.392526168470098,-0.0005552276110736972,0.014196482981952861,0.0101090686780163
1681944587.8028746,1.531245200819146,-0.49511609136862794,8.959579017080047,0.0031965557568481118,0.034037804437193266,0.0203054722782918
1681944587.8128376,0.43883301608956393,-0.5118103655152002,8.890124096061022,0.008882150055059105,0.03951560558859545,0.0225414697465249
1681944587.8228903,-0.7715593547734486,-0.32496979178082286,9.223263135389175,0.009895913012495537,0.02839450660124964,0.0221101202455111
1681944587.832867,-1.0954014388947093,-0.5412874696714638,9.581433061719345,0.01566911557008831,0.007320869489517923,0.0184843566653081
1681944587.8428416,-0.18813394873814898,-0.04467899598864424,9.792837642452518,0.013616248859312443,-0.002560098972421617,0.0103341376793333
1681944587.852807,0.6194042942236105,0.19391838256704227,9.915257105855995,0.009746402668416292,0.000495980850891189,0.0036096831003897
1681944587.8628192,0.6450814580290726,0.13224053417769463,10.230179403181788,0.00444047271690845,0.004322970533269,-0.0020267075474611
1681944587.872784,-0.3056883263756194,-0.48069982862499216,10.49128799568084,0.005534083886009554,-0.003065395861438877,-0.0086999667424014
1681944587.8828838,-0.6110895561121009,-0.3090127854816043,10.453135792856871,0.007727055743619753,-0.015560652008485934,-0.0138140173244527
1681944587.8928237,0.15629997577223523,0.39733547988348517,10.275312780294165,-0.0010413249214040942,-0.01759724584754154,-0.0124607394996336
1681944587.9028354,0.45819499796524416,0.24342108171050034,9.847415629292499,-0.007035542220998487,-0.014730456222640792,-0.007724248020654
1681944587.9127853,1.0666352735300435,0.10618990091462209,9.471896423526946,-0.009447702059000966,-0.005112475534630554,-0.0017232668201676
1681944587.9228292,1.0195565579638408,0.19827348049815677,9.314185367005681,-0.011961246038321676,0.0069246590440808775,0.0051753086422332
1681944587.9328482,0.5390229859690803,-0.128382618423784,9.461388948173967,-0.013287438039164174,0.011423338441091559,0.0096270542976209
1681944587.9429104,-0.05647580739249673,-0.30804085638497614,9.365996018339391,-0.010545997244038445,0.009443976976913803,0.0094823039521225
1681944587.9528823,-0.7115227218840847,0.09599521133356492,9.962096433833947,-0.013374518739283954,-0.0036016375471522983,0.0054135640070536
1681944587.9629042,-0.7387810599055127,0.3243985066523856,9.998886098227883,-0.020945413906246522,-0.015960640800967752,-0.0016095537307909
1681944587.9729738,-0.6020085912462884,0.5813205350722087,9.974671804611113,-0.030529185552050277,-0.028438316539529204,-0.0108941776293567
