time,ax,ay,az,wx,wy,wz
1682026896.8057785,-12.256828207321275,-9.112426997830203,14.583581099538726,0.20071327011317197,-0.2874704691450594,-0.0656561156630627
1682026896.8158402,1.7931214761189824,5.201476053417914,11.572174142083052,0.11967449464497679,-0.26410110368136624,-0.1150066157698742
1682026896.82576,0.9828615105048252,7.5394320439939175,13.39354636086658,-0.004042094038760422,-0.2541540426101656,-0.1183639814972989
1682026896.8361015,3.354536994758086,4.396522779165833,11.570667680141886,-0.08656479143558792,-0.20400999152892998,-0.1037909066200367
1682026896.845812,3.615054001286521,-1.439807773327656,10.34264028693204,-0.06559365895981553,-0.16962778630288505,-0.0804237475514523
1682026896.855776,7.653686615147627,0.44518995107411946,7.77411972709442,-0.08546110008367568,-0.06908609091609046,-0.0248409764737002
1682026896.8657582,5.4014453342425615,-5.401518528957267,6.621179756904492,-0.01304603066789906,0.013489678555307071,0.011945713880647
1682026896.8757594,3.6860121816187505,-8.368792656626525,7.171406992455234,0.07695483719194669,0.07385001843253254,0.0463191816687472
1682026896.8857682,3.33590022149937,-9.53088358654546,6.991645189212818,0.20139255784616067,0.1211782098292068,0.0755006844282038
1682026896.8958418,-0.4075930799343853,-7.089215543317915,8.280726810992125,0.2834119155917705,0.1328342573218374,0.0584930503845103
1682026896.9058163,-0.6319535704795605,-2.34878865332301,9.623264466770346,0.2912846983858146,0.12435587512151293,0.039561501342047
1682026896.9159095,0.4630921499866823,-1.2159119239805591,8.405487679966804,0.27379640453767173,0.15542877311755907,0.0264162650436051
1682026896.9257803,-4.3007682705755474,-3.9470557765329755,9.831308620557854,0.29314376015114796,0.11580251667185384,-0.0013705528237037
1682026896.935787,-1.3789731184680358,-3.4837844340313797,9.088403859262172,0.3210496057415262,0.09560633915127137,-0.0158097645163647
1682026896.9458008,1.6641116513279315,-1.9832156233266287,8.869340498060728,0.33351354588618715,0.12444701837328526,-0.0086554152786843
1682026896.955812,0.7937114880193802,-1.9051427843000137,7.767323765088252,0.357262864988037,0.1366567799521327,0.0117537748172767
1682026896.9658835,-2.6616822079723534,-3.8382556181332586,7.740263141186547,0.4114583814354743,0.10553207861755953,0.0374274836957343
1682026896.9757762,1.0171016972564098,3.6147847529210937,9.07943174768236,0.39077544409168785,0.0854810212310161,0.060265588212002
1682026896.9857695,4.522261714407088,3.911667147118335,7.697184321385767,0.34483730556593756,0.14326831769572254,0.087736787843693
1682026896.995779,1.9018104478843925,1.7032796405695725,7.972939271575151,0.3322071349668831,0.15675121245654022,0.104360642480839
1682026897.0057604,2.7969442464825667,0.39666163517841996,9.101415016049527,0.3282899947639871,0.18386913986542092,0.1128049815177806
1682026897.0157728,-1.686761018523572,1.655089100270101,12.010433530150678,0.32904975521869606,0.15769526714558907,0.0906679952621348
1682026897.0257926,-9.019079545144146,4.77373264230704,16.255268639913144,0.26967726567274675,0.04721795265784553,0.0644297400593646
1682026897.035795,-13.26423080880949,4.701700239257625,20.266749728059487,0.186502952378261,-0.16797171754253754,0.0342787193238623
1682026897.0458536,0.7589559774258916,-2.218867773308232,13.690064680627989,0.2099969996415954,-0.21751478261671237,0.0333237523317225
1682026897.0558274,7.157648362394906,0.5104337065099166,8.581841707974476,0.2146115359741424,-0.13491770837964343,0.075132029700268
1682026897.0658212,5.319697255566548,1.0129518615134128,8.541512728370467,0.21797899804534623,-0.09310580109291762,0.1353580677986033
1682026897.075767,6.855728374722089,4.783545103538716,7.9024929772770856,0.1783068445262276,-0.024849211542795468,0.197929146337498
1682026897.0857518,4.497774852945011,7.1302467497906665,9.535276740882413,0.11508990265446059,0.01251925169589038,0.2546032244443782
1682026897.0958087,1.9206962352705008,9.276933216808377,10.199846968894821,0.02599089568844213,0.016820684339775044,0.309223758625973
1682026897.105831,0.08803367324200422,5.356215697396171,10.808648978003133,-0.028171074836514206,-0.005984208116553924,0.351421880173672
1682026897.115805,1.4859852571820586,-0.15382613245741833,9.53362209361115,-0.0054602813124738836,-0.014885751837033168,0.3719557995080836
1682026897.1257727,2.646002364025972,-1.7961349752436777,9.099143660231784,0.03205936290301998,-0.00039629968855811446,0.3618539447069057
1682026897.135818,3.3290146380173127,-1.5244154600693958,9.938226157697596,0.06745119338847388,0.019040249675068458,0.3520831639051326
1682026897.145776,4.586096912898308,2.0898354242119517,9.581258419240857,0.0665447299680517,0.06806558355032419,0.3404739374399074
1682026897.1557918,1.2881433358258958,3.9501774422637252,10.716805536952783,0.028648170724429635,0.07671531648881703,0.3269240433454402
1682026897.165825,1.6703662043437226,3.541479901309208,10.001081002461744,-0.011637778546697567,0.0864201868604085,0.3272363120794185
1682026897.1758835,0.6090718001203849,2.520760869333275,9.31186933189428,-0.030061827794383558,0.0868570027638416,0.3364027911901363
1682026897.1857777,-0.773982267268026,0.8266886504767561,9.335031534671057,-0.0443413063020309,0.06906245265962413,0.3437555009603389
1682026897.195776,-1.1959863914621487,-1.2562665004458335,9.427240082593066,-0.02806712038919662,0.04938509898086948,0.3589390987634547
1682026897.2058282,-1.5007475282863312,-3.824141311077705,9.312002528668067,0.022452232272637183,0.021351877787454777,0.3599151844262965
1682026897.215883,-0.7384415185167598,0.07114864719461603,10.20090209070812,0.017634673663219483,0.009478130819979114,0.3561020666837581
1682026897.2257917,0.4992353522998452,-2.6717059520620348,10.073126926985427,0.050265633091457554,0.013024574564018685,0.3553482169389613
1682026897.2358165,1.3044349760144944,-1.1321166153624518,10.39758933774541,0.0650748830378538,0.030204601255073276,0.3541893238305934
1682026897.2460022,0.33043064163915625,1.328504095625523,10.531178239608826,0.04860040380726834,0.03489999166185747,0.3591513807058223
1682026897.2558577,0.8867425718422252,2.1403917727967654,9.794937620833071,0.02739701586448709,0.04277730015146827,0.372555958676327
1682026897.265764,0.4748814006237689,2.454529225810455,9.390646401705435,-0.0015398028080745522,0.05028786309216364,0.3891601139783748
1682026897.2758036,-0.5164373276824922,2.094514918636714,9.723804999933316,-0.03081753377808772,0.03741323800890034,0.3883452886819728
1682026897.285818,1.57300155887607,0.03891688756702644,9.001753920327387,-0.02628015725925888,0.04971832348935458,0.4035163993120082
1682026897.2960205,1.9516256434787067,-0.23264778711865525,9.205812253983042,-0.01775392791192803,0.07040740516343369,0.4127102667570003
1682026897.3057735,1.3900589458608525,-1.5922145983910054,9.588981480560307,0.0014412652228664924,0.08911797994343335,0.4017136568307765
1682026897.3158045,0.4964707481707406,0.6074238821871627,10.289768415763776,0.007403648501105952,0.08936487075323273,0.3988892013311275
1682026897.3259156,-1.1079619286819709,2.1973896386543976,10.810306292359385,-0.01926947000278397,0.0784547210905082,0.3868110353231319
1682026897.3357947,-0.7954203498970115,-2.2102457304414704,11.371402619741863,-0.009477520608430004,0.0554301694267965,0.3622248942136653
1682026897.3459518,0.8601966457122775,-3.28997482291846,9.259681243085836,0.045442294751752745,0.06640898781493336,0.351496058154095
1682026897.3558266,0.8031852143377802,-1.490028593704993,10.378838390983752,0.05993948924935629,0.07200246026073379,0.3523499542951472
1682026897.365909,1.035949908005147,-1.9774402528726787,9.097990973412095,0.09259023208945609,0.0873846579750062,0.3517298275709041
1682026897.3758163,-0.7697223288785504,2.097616298815899,10.285489154708216,0.06616970990963311,0.08025170747606271,0.3575421745061763
1682026897.3858552,-0.06884865315149907,0.16395853389703838,9.697013734650316,0.06180504717584863,0.072153108500249,0.3709657663583644
1682026897.3959572,0.36771256045305184,0.4197811920866061,9.481468048189512,0.05790490029060292,0.08297356890122903,0.377383726286877
1682026897.4058344,-0.9771075624589429,-1.1979252872759945,9.647945347193422,0.06820078024235561,0.0672084657023485,0.3767056638479121
1682026897.4159596,0.34006352009001867,1.155414385835694,8.661272806544662,0.0637798650857764,0.07896725084180303,0.389556246447552
1682026897.425891,-2.669571232015221,1.00359565302604,10.449521741118529,0.047494358099633344,0.04175632219127411,0.3898216361284145
1682026897.4358218,-1.1404966146395838,-0.0788640328650433,9.612885955176045,0.05102564227571074,0.023677212758646607,0.3939516419649013
1682026897.445777,-0.6330621604221133,-0.23379632945896717,9.550183062483379,0.05157483442942401,0.017154541965087432,0.402218657183636
1682026897.455797,-0.6316147221946444,-1.537846245214563,8.943992173815902,0.07892091196100173,0.006215636707659747,0.4059279436349757
1682026897.4658487,-0.4816464940035358,-0.2793232527167464,9.195258029971207,0.08686473083053442,-0.00029917773337381916,0.4156423682451137
1682026897.4759526,-0.8893224012560246,0.7640432432366135,9.995444729478212,0.07745412251547495,-0.01583398793224149,0.4312402183294185
1682026897.4858468,0.27656247129081435,-0.6985101548523885,9.927989608210012,0.08898233721838762,-0.020846683752329665,0.4434795552968867
1682026897.4958584,0.5627893425636081,-1.3371499312075696,9.845525175977329,0.11081926936010154,-0.01921409928914927,0.4542047256708034
1682026897.5058696,0.764539376765872,0.4978427582625307,10.414006344135604,0.11230827289873471,-0.01829298937196953,0.4683452719926723
1682026897.5158863,-0.2972829212474471,1.3110342399979178,11.291044369015344,0.09676959994580044,-0.028457358524752473,0.4758748287439235
1682026897.5258324,0.6125858118353849,-1.5147232510150166,10.446158312759875,0.11622163435226257,-0.03368818259286192,0.477847057032574
1682026897.5360577,0.7540111115917177,-0.005527659590575631,9.218608855224721,0.13551979170852135,-0.02199377644694686,0.4852056676626094
1682026897.5468593,-1.113308265897465,1.9438578072725328,10.44551216869901,0.11174024448662703,-0.05062993559358639,0.4881147319555171
1682026897.5571687,0.6315198859794982,2.1222265618888367,9.169007867415239,0.09438528241988654,-0.04900673855304027,0.4960739785909541
1682026897.5659704,0.603003999721693,1.3579233755340736,9.543856296295973,0.0855893037915105,-0.05106471656296532,0.5065808767557033
1682026897.5758927,1.7885867414688172,1.6376144387017149,9.121194974020144,0.06902727909336238,-0.03611055118403458,0.5098956698655971
1682026897.5858822,2.927961391399073,0.26366620354984516,8.97114280181438,0.07633585032281909,-0.0075427892336504725,0.5184814209222682
1682026897.5959656,2.5115117577901858,1.778946020739064,9.058932936221463,0.06998106472269655,0.01740443298947495,0.5221947306871303
1682026897.6058242,3.1757431124077584,2.137582784090414,9.633786937842853,0.047228513671135335,0.050278347726687746,0.5273207301378139
1682026897.6158588,2.5675955631696676,2.8958712288946975,9.513048086188046,0.025569175649690374,0.07734271425991573,0.530246662545193
1682026897.625855,2.373564159696813,2.214191304075083,9.867134048702031,0.0029866708544656058,0.10152056323269654,0.5257935399293788
1682026897.6358626,1.7154414868369217,1.2672823898807706,9.887413546421936,-0.010735157029866698,0.11327834021470522,0.5188022131204494
1682026897.6467316,2.7588189864110464,0.2083393102968499,9.070913435002566,-0.001249713657839387,0.14711851502633708,0.5105326050996669
1682026897.6558018,0.08386553102525024,2.5837267232435757,10.17175543577958,-0.01972557484747568,0.14613796959242176,0.4953318411588557
1682026897.6657915,0.7376671005307134,2.3537672749563257,11.125923246598184,-0.05750961194937424,0.14224775728664574,0.4835604602575191
1682026897.6758385,1.7610210397690138,-0.691760594359963,10.100498172121343,-0.048272884092945584,0.15733361308170862,0.4643794173478969
1682026897.6858957,1.8814544818323928,-1.803285948074327,9.621273264535484,-0.0256434242448403,0.1799733202572899,0.445761936354626
1682026897.695783,1.249551744920253,0.9361979141804886,9.863975998442523,-0.035125948633978825,0.19156705415450678,0.4369852418184169
1682026897.7058384,1.3906481260587917,-0.5181572996282601,9.625811378904803,-0.03624688799363649,0.20682451403920096,0.4229742163896449
1682026897.7159038,0.6150013789455961,-0.7900173921044623,9.075315267257523,-0.024834028037103068,0.21346946383892917,0.4144108468770869
1682026897.7258554,0.143308106676005,1.9828208481864307,9.527800560780573,-0.04263907406766304,0.21719013223362924,0.4181650752305873
1682026897.7358086,-1.3150221731616047,2.4044332257339067,10.143279222670706,-0.07567756563128812,0.19549812618984097,0.4207767421483882
1682026897.7461004,0.2071387904391595,-0.002282013841969191,10.00909388331423,-0.08566747713516881,0.1961297748048844,0.4125102335691341
1682026897.7559085,-0.1864922366370315,-0.8417846243124114,9.474090837916552,-0.06356679942457902,0.19683292984079018,0.4043733054876216
1682026897.7658591,0.25281331650801125,-0.4718689537794766,10.31741981933375,-0.0719074968921245,0.20094352713378857,0.3968812698602565
1682026897.775846,0.25625569186650504,-1.8301650129405715,9.14520770534554,-0.034711843301124506,0.21044366743987075,0.3849375123262294
1682026897.7858672,-0.6160531034238637,0.6976886839455735,10.488504422239055,-0.04763375446494795,0.20779827470714973,0.3797290200471767
1682026897.795915,-0.48639275375147867,0.3003731555692111,10.034159683711428,-0.04816672179794382,0.20264476629860742,0.374727236676205
1682026897.8058488,0.21649709568391626,-0.2327550131089925,9.797775366264489,-0.049862508218525524,0.21275414168630238,0.3715893799543269
1682026897.8158977,-1.0452029533995784,1.3545207812111408,10.030902043801401,-0.06400825574461702,0.20319044948807888,0.3716832870721706
1682026897.8259628,0.41457948823724133,-0.8050451969440966,9.207472681081413,-0.05175765225226755,0.21535534296001949,0.3749668175458797
1682026897.8358452,-1.0539776617380396,1.1999668106739265,9.768785566915566,-0.0696455578478607,0.20846996064347392,0.3818461770295985
1682026897.846528,-0.12432347481580656,-0.14444678927866797,9.372074468237532,-0.061943487966805856,0.20897443009150504,0.3858707124471553
1682026897.8567848,-0.7143104609686645,-0.5983927153030076,9.072594945603573,-0.05008231402727963,0.20948664427875194,0.3868212575197108
1682026897.868278,-1.0757993692462358,0.05736760124857391,9.610264286820659,-0.05548819611403621,0.19884958502710473,0.3849516088247188
1682026897.8758197,-0.7171356409970829,-1.5740971491099929,9.23821349227952,-0.032574892437268604,0.19587209579984832,0.3758096272230037
1682026897.885821,-1.129936633848953,-0.17808921356985066,9.884969209256608,-0.032463391005454575,0.18753635672153723,0.3704752499341853
1682026897.8958893,-0.5575918371303444,-1.2804365798545942,9.857634139440998,-0.01633477115831615,0.18518726126038237,0.3524924988031276
1682026897.905857,-0.06109418855041567,-0.7442336535183147,9.252967276299614,-0.002366567316758277,0.19846406903725736,0.3463483328103908
1682026897.9159422,-1.123663684049784,0.46553205269514963,10.45069235943968,-0.01354225395956346,0.18957065385201993,0.3371978575467952
1682026897.9259083,0.17511699614095494,-0.6059520340922483,9.441316526002035,0.0005275759372601518,0.20191882153296495,0.3388475651025661
1682026897.9410443,-0.6518636162452883,-0.09978594395833189,9.643498021179408,-0.0024296895747023552,0.2046528042356462,0.3384933943033107
1682026897.945817,-1.3184195320090235,0.821707451363419,10.081311223043844,-0.004779334140128756,0.19649858457212735,0.3437664086103328
1682026897.9558332,-0.3140396644223677,-1.042373521066977,9.406464267448222,0.0034968656616109887,0.200492281646505,0.346902894425381
1682026897.9658427,-0.4863807981485654,-0.7440415034722092,9.040224287879676,0.016485313732862005,0.2038535263395427,0.3516793424367793
1682026897.9758787,-1.4143741941659633,-0.6083358906376719,8.940822216591458,0.027177934366664856,0.19684027849397895,0.3468058878660091
1682026897.9858522,-1.3759464504349646,0.4002872544463387,9.084961611127701,0.023170279644099852,0.18578192242221858,0.3507382447004207
1682026897.9958477,-1.1701478339002085,-0.6211388101226335,8.753472768260206,0.02822235327693859,0.1827083329135286,0.34235669915675
1682026898.005834,-1.5487030126949828,-0.42485721191269954,8.783105679805173,0.03318339063772078,0.17382722420419983,0.3390123421430476
1682026898.0158556,-1.44319967112741,-0.2768046300226848,8.897265479333997,0.03782431811579804,0.16612864099545632,0.3404425257921107
1682026898.0261214,-1.8680295313283577,-0.4922047869345185,9.462774945213301,0.040166467105886096,0.15092169928779883,0.3372890228509791
1682026898.0360231,-0.8695745426442328,-1.4733561929823595,9.3716998607346,0.056431081350040206,0.14651175869323954,0.3353925520658382
1682026898.0538695,-0.9684852065308031,-0.853776346098773,9.74172153283099,0.0647369593396101,0.14349961530641409,0.3327078694581874
1682026898.055916,-3.3873218749710556,-6.479626575464289,9.629077924151257,0.08569734399830306,0.1344955250659732,0.325408297228802
1682026898.0658643,-1.33372855483034,-1.0195789930346941,10.953270406686652,0.08860062186360103,0.1222570749710808,0.3125124747037776
1682026898.0759006,0.28536024921447867,-3.828677262023758,10.480854033362148,0.11913316973117763,0.1301051952614131,0.2973675007104762
1682026898.0861864,-0.8232005524814965,-3.263882015804124,10.168590677677505,0.15843721103410088,0.1297545709271951,0.276265459704388
1682026898.0958714,-2.3261346284251765,-0.8334972617967101,10.901574281584326,0.16042157604516646,0.11020344059320383,0.2491795444965251
1682026898.1058662,-2.468713682503776,0.28994370243046397,11.392344036654627,0.13471936356911612,0.08370710358114015,0.2216921473026164
1682026898.1159828,-1.327013415457754,-1.1530921422380709,10.736781655253365,0.13755785560287048,0.07261172884009738,0.1937725121259577
1682026898.1265745,-0.7490549686037206,-0.5032748517365213,10.479577212965108,0.13275974761187181,0.07023427309230322,0.1731486344814189
1682026898.1358614,-0.07496236145696775,0.829062196795707,10.477453131367628,0.11639729435189236,0.07950275938625079,0.1603885019302256
1682026898.1459436,-0.6221547934379881,0.8804370736011201,10.506098072881123,0.10412823295394867,0.08384216848627626,0.1503990167856105
1682026898.1560235,-0.5618371166195295,1.8172813652342574,10.675013158891678,0.08172478227520258,0.09015803326396814,0.1545043015956767
1682026898.165927,-2.363158779979982,1.6248403382860461,10.456953089915952,0.06239587347417142,0.07394050435326793,0.1632477814435847
1682026898.1758506,-2.95508669030664,-0.7227634385539026,10.014952429913901,0.06958789624635804,0.03475516336376499,0.1911763722181208
1682026898.1858976,-1.9279559415874559,-2.7583237629597495,8.485826749062447,0.11837739433985728,0.0022293715905156333,0.2376642549514659
1682026898.1958425,-0.8347363207925159,-1.2929863394407204,8.2575080306958,0.15654915820937074,-0.015797139816376538,0.2883263999700435
1682026898.2058492,-1.254293853254944,2.0249229308115275,8.953911413543159,0.15069071105306453,-0.03975576573313167,0.3344190592050441
1682026898.21587,-0.7739596402040103,3.769642610917545,9.592518621639883,0.12048151996288135,-0.05381458484289701,0.3631141955137141
1682026898.225907,-2.196955926341331,5.576599829660803,10.540305807135278,0.054970958088709006,-0.08252446460018374,0.3712468618631251
1682026898.2359283,0.09081061871012319,2.0684307265637236,11.11986567241517,0.02181133438488555,-0.09275909478328738,0.3693510467290767
1682026898.245899,1.712414517219629,-0.42299988125659294,9.746207650267358,0.037993735214821196,-0.06769435248995796,0.3601144427537807
1682026898.2559364,1.4652686636990602,0.5085143164024095,9.902039520112325,0.04120727525057545,-0.04815934259514154,0.3446145231008418
1682026898.2658732,0.6930996947065271,2.874123773196768,9.746277274677718,0.012685829143660786,-0.03357109951414506,0.3311983818292506
1682026898.2759044,-0.0038339573272062628,1.844619472070923,10.104081790571605,-0.000939665923593099,-0.03661443707415291,0.3228412145852931
1682026898.2859118,-0.7001633355011385,2.4488402243500196,9.706426762036005,-0.02152587086265205,-0.04579640841524315,0.3134626025438197
1682026898.2959254,-0.15496976569029644,1.6180690858543612,9.988084449079931,-0.037010028506973075,-0.05293084608671276,0.3093754524469264
1682026898.3058317,0.8379508118727061,0.27491513258662875,9.486529289260625,-0.029575121819014664,-0.04389989193428026,0.3078227514505275
1682026898.3158777,0.5224105987341748,-0.2773544330442342,9.877788886524625,-0.019566197983915238,-0.0390337123728997,0.3015854233980067
1682026898.325861,1.421656121797685,0.1706905171921062,9.60575048808059,-0.011291120362364451,-0.017954306623670962,0.2970519835233577
1682026898.335904,0.30889387928550227,0.986238720176604,9.891160519378563,-0.014615884458311768,-0.008736248515427678,0.2904623026132472
1682026898.3459198,-0.3684714285901202,0.814710113068162,10.135738792433694,-0.02458627126657071,-0.010028702974510398,0.2855699831724055
1682026898.3559089,0.9870151283245971,-0.20142070801772063,9.583193879094747,-0.015597753611174747,0.004240800427799749,0.290240901160229
1682026898.3658707,0.3627875016986153,0.10576463465658902,9.50258115378822,-0.01125593287091285,0.015288852302011548,0.2924322957277186
1682026898.375886,0.9116452758533298,-0.4857152189597691,9.429483135626391,0.0030098201577113937,0.030318091441572093,0.2968741530656703
1682026898.3858569,0.5081989387559537,0.6071990385073656,9.287299905731608,0.004820755333762717,0.049326792326372215,0.3034511977910884
1682026898.3958592,-0.23106920209781068,-0.6328535863725244,10.203116768913889,0.015487086041553326,0.04831266250074285,0.3008004004239925
1682026898.4059422,-0.589798641831924,0.24555278055564814,9.710180995525057,0.02161641953679181,0.048408455979053494,0.2978648716688045
1682026898.4158945,0.034207141232958274,-0.07132470471258463,10.222466143805935,0.024005203464168116,0.04938719293686328,0.291247593808163
1682026898.4259794,-0.11139268576858058,0.03282553235541126,9.615480351467202,0.030220172019420122,0.05441563980133471,0.2864677781343349
1682026898.4358788,0.4587782791066345,0.9000822501921022,10.046141078042996,0.024753564995275427,0.057432965150645235,0.2893943363904842
1682026898.4458818,0.1418132031521454,1.2983617142180102,9.50540179123554,0.01904979168319799,0.06443818705809914,0.2951139086961635
1682026898.4558806,0.10248939675928898,1.027671839496337,10.110790346783748,0.00906436339517418,0.0630284809096032,0.2988200361013301
1682026898.4659266,-0.1687596466235413,1.9157767209333105,9.614327486266994,-0.008590692690257562,0.06605519517493454,0.303464847254742
1682026898.475939,-0.46969305671171,2.534348044984812,10.134426075333355,-0.041177629687293216,0.06067474643028957,0.3133701259374507
1682026898.4863875,-0.6224790745466695,0.9935957337891776,9.972913550336449,-0.05197413494588341,0.051988011357003434,0.3245260292768367
1682026898.4960153,-0.4495633171545343,0.52447574435576,9.520377888489426,-0.05512016986832788,0.04682036598834958,0.3401968056440242
1682026898.5059123,-0.4671335245141379,0.5549063470654292,9.604829614764721,-0.05532005733834464,0.04665774536053085,0.3485113555669673
1682026898.515976,0.41394481063785393,-2.583853156665305,10.30051246000048,-0.023174345514847768,0.04902781937176019,0.3448624486207851
1682026898.525981,0.4862730027311731,-1.2245774593659702,10.01791420324234,-0.0014039306546030463,0.06470334364923935,0.3398018950700648
1682026898.535961,0.7407541781908039,-2.030150411258361,10.591511888817102,0.029089333111502615,0.07372992961892792,0.3223500723123439
1682026898.5460896,-0.012375059174433347,-0.2535225983061445,10.249026748769152,0.031141573819383303,0.08401994682834185,0.3029950434446223
1682026898.5559046,-0.4147929854553352,-0.2491166663563177,10.61102509830767,0.028792911097761126,0.08029782424481373,0.2890904123067744
1682026898.565935,-1.147024618211827,-0.7334210486483578,10.012881991786088,0.028641725299927673,0.06924739092313383,0.2855395848035701
1682026898.5760934,0.0677530074214848,-2.5565512658414153,9.854221405718707,0.05741395367364926,0.058376384728460295,0.2891542190790065
1682026898.585959,0.2762786970162474,-1.918176157580464,9.064901769011682,0.08229386222810323,0.06315230271449912,0.3049600297689326
1682026898.5959747,-0.14993433866814526,-1.4727340515476934,9.230434605870768,0.11183751871503653,0.05346427940232131,0.3165105158567317
1682026898.6058748,-0.46193406436786355,0.7002131798206942,9.187115011682932,0.11418663249106312,0.0514600310265522,0.3237479204416164
1682026898.615903,-0.9071828318464258,2.3479451551633344,9.877160814000836,0.09157800784922634,0.03526675250325519,0.3322208101034053
1682026898.625919,-0.4351561908370473,2.7274981782722936,9.470148439716047,0.0653856119975408,0.03768723879958892,0.3316446716070064
1682026898.636002,-1.0193752866130816,2.070027477169213,9.715447469127945,0.04385547147643946,0.026580543429554678,0.3252914423227199
1682026898.6459024,-0.27600435044006055,2.1675310294453394,9.240361074498264,0.024269308501108307,0.0330236734624135,0.3210031861543544
1682026898.655938,-1.435982480528962,0.8527750875437095,9.605105625671033,0.021837072739974404,0.020130038679173512,0.3107408160447963
1682026898.6658678,-0.917446654385956,1.422384723530796,9.283253921962473,0.012593370727366814,0.024853877826387233,0.3058927530527003
1682026898.6759546,-1.9645315878290162,1.3346383766433434,9.996822213453447,0.005307598662548024,0.00807277425339486,0.3063433343648799
1682026898.6859844,-1.794150395643359,2.1962292659210103,9.381194660994613,-0.010834780804793184,0.00174585693287979,0.3036687249421962
1682026898.6959202,-2.928183411714557,2.31518656011835,10.197492318482285,-0.031850705431982825,-0.031511020402072994,0.2998140329599269
1682026898.7059162,-2.88778419098445,1.3043544134253027,9.542304549607152,-0.04641564139641676,-0.05716360921241352,0.295663880753506
1682026898.7160711,-1.0159743350581918,-1.4134462197770896,10.156327780243117,-0.02261131566252365,-0.07475846837951547,0.293255376267422
1682026898.726005,0.33142804630848716,-1.5266969288635677,9.2691522630273,0.009354775969488338,-0.056344977689125345,0.296318816590298
1682026898.7359517,-1.6331954972338405,0.5680151808409183,10.13926755400954,0.02036441265076067,-0.07226894399876668,0.2966923588991054
1682026898.7460678,0.5709595801500661,-0.23154132967082602,10.830758377969829,0.03411655620773871,-0.07427181728577466,0.3003451997518428
1682026898.7559652,1.337568504538121,0.7762296063588793,9.947480555996156,0.04189677735615874,-0.05351106300595264,0.3101009005784877
1682026898.7658942,2.603463247282585,0.8569807708966907,10.528537930163935,0.04510901490717639,-0.027471813600099478,0.3297536248445399
1682026898.7760425,1.6559562782878672,1.7000160435996898,9.4022836419276,0.04392267674946865,0.00092048465865686,0.3510740870714076
1682026898.7859406,0.8848942130895953,2.375055689982942,10.06119294544345,0.024893589108949964,0.0034727572066195066,0.3685149425744899
1682026898.7959323,0.12660567926041671,1.9994114586825786,9.26934792014401,0.0063769663214781275,0.012536856716978184,0.3853669637918361
1682026898.806002,-1.0855540926192568,0.07318710728603606,9.841639039078123,0.0096936622284228,-0.011543962314177996,0.3938126439332851
1682026898.8159275,-0.1262508840126114,0.017546895658815,9.355809068246328,0.014767645063422982,-0.012099956808859589,0.3982977742433436
1682026898.8259134,-0.6682641263399919,-0.38519501145128116,9.769451240117352,0.02670441492980139,-0.024400982710745315,0.3930980438470729
1682026898.8359475,0.7745940202946963,-0.11487722713649554,9.714599019652903,0.032704695586202315,-0.01187022830057799,0.3873664910077937
1682026898.845931,-0.46316404977035036,0.30747912338123945,10.058099214739915,0.03863653188110049,-0.014931689654817223,0.371145384955395
1682026898.855926,0.7598169761577032,0.9241377890429061,9.97667343750946,0.03242648363567796,0.0006969236960515637,0.357987152981747
1682026898.8659556,-0.3847108000077278,0.8256599890864215,9.924969385124884,0.025149035193410323,0.002369084754190943,0.3446991914987453
1682026898.8759604,0.4952561848520727,0.30791300058699217,9.934362513299522,0.028254125645177538,0.011674851861272836,0.3358450109243281
1682026898.885975,-1.1009586197830235,0.39197410281781697,9.739896484756985,0.02511191485179477,0.007866391706681339,0.3277758533239253
1682026898.8959374,-0.03585539922443937,0.11212378829434842,9.966285781517321,0.02725946905651077,0.004788795857114121,0.3231334263563045
1682026898.9059396,-1.1205394305019265,-0.4480033526989361,9.198707784088464,0.03585459891588267,0.003942022461655307,0.3273281628370174
1682026898.9163218,-0.6939875034094297,-0.9119813435579663,10.186456421232169,0.0538805846714669,-0.02231892221697214,0.3484122330427058
1682026898.92599,1.7991709679028172,-0.20660750649650508,8.832488771563284,0.07503137357933412,-0.0021947849184033165,0.3780279332876094
1682026898.9362214,0.4343954340438731,2.291650481899019,10.106681316955928,0.05910531986735064,-0.011333346706108369,0.4064523154973872
1682026898.951802,2.165871728749363,1.638858060121388,9.755666343865077,0.05413796454374785,0.012941500621393511,0.4353009039640315
1682026898.9614463,0.7774457810829256,2.421138326334527,9.92513261088568,0.03772000463932815,0.01793017024483985,0.4454457933187373
1682026898.965917,3.305913768932856,3.565938879552557,9.617654235552651,0.020536273765679788,0.034963068312308256,0.4539072686910518
1682026898.9759345,1.0299414438720869,1.5790741914105446,9.593777160612529,0.012265176661049395,0.04791079571074958,0.4585687691450008
1682026898.9859557,0.5419840367029193,0.7145001836306439,10.271808403221868,0.008054736487684294,0.04359796380535984,0.4554524893045314
1682026898.995951,0.7886191155637279,-0.5318962581331672,9.485109327651513,0.027873528677452578,0.054802501246512154,0.4450012618780025
1682026899.005936,-0.048055254817958505,0.5351576380241088,9.934891787388898,0.028238028387231804,0.05389587458851477,0.4376470917940028
1682026899.015976,0.22700845625504487,0.4280427015474835,10.129536168099634,0.030264131335793597,0.05127218781006724,0.4289300615072139
1682026899.0259511,0.26561521444241715,0.5658497566387984,9.72041448578384,0.029791590724621456,0.05921027354270804,0.4237233871698268
1682026899.0362608,0.08307798170094777,0.41755980822830724,9.869127978075873,0.029087927197770782,0.05814291267502553,0.4183774167775996
1682026899.0459788,0.7624730999644717,0.030726852638663763,9.559883969783808,0.032613164882905624,0.07248270432722195,0.4155982012033351
1682026899.0563917,-0.3064478723660272,0.8964427307706724,9.744351375158715,0.024539717705415007,0.07314894362290657,0.418408888030041
1682026899.0662374,0.3410165200984941,0.29972139005926823,9.552851380555293,0.025099793417625138,0.0799167097966798,0.4157009596109279
1682026899.0759785,-1.1936531690350052,1.5810086036709148,9.86356089195993,0.0009579860568265902,0.0754050807641938,0.4140564674615749
1682026899.08594,-1.0721733247759746,-0.12029586090107729,9.829672920036224,0.0006536808203144302,0.05702658751187413,0.4112942690133937
1682026899.0961795,-0.5647858136649724,-0.7617136495168253,9.469911112332476,0.006776149192665823,0.057690796941579754,0.4095752710580714
1682026899.106815,-1.1646633390111913,-0.9128276327306548,9.688136914619161,0.028687893554946286,0.03949017447277907,0.4141493613004573
1682026899.1163063,0.3425506343760659,-0.107307072318133,9.552282486965767,0.03641553602483729,0.046888275059545896,0.4095604891061671
1682026899.1259792,-1.9812215636078494,0.9706200730248495,9.877042699088358,0.035655959822274715,0.028896722777136195,0.4005873376607783
1682026899.1359506,-1.0178700667937837,1.2361817060904026,10.12830215106668,0.02598150669635194,0.010978308745794437,0.3902114207029231
1682026899.1461244,-1.2199256404406187,0.5728895825381496,9.763721666949422,0.03086662942096547,0.0009459957258234174,0.3741300875425227
1682026899.155925,-1.804945458288157,0.12758151348533903,10.188362675446854,0.0348388593346905,-0.02481249208189412,0.3515990549802669
1682026899.1659808,0.5093760762539163,-1.1496862286671694,9.654223086239433,0.06086168344234647,-0.021521434523095483,0.3275466138601192
1682026899.1759648,0.42440064454824644,0.6922550109466238,9.61264891438945,0.07236192121273273,-0.01109068150874149,0.3072452718496211
1682026899.185965,1.0576241509372524,1.7875056867687438,9.979286873702911,0.06796467990120546,0.0022132125483096867,0.2871139222860225
1682026899.1959736,0.4031170526194663,3.278058957528215,9.877471574732505,0.03582333712368299,0.01766265025288364,0.2728013867616542
1682026899.206395,-0.7227640073926602,1.8365751419695635,10.231557302594425,0.023157448144438555,0.0010742304945371183,0.2632515603780635
1682026899.216091,1.3208642277865121,1.0001196435476305,9.192653213122192,0.023717470995630558,0.017233554093463634,0.2559228712797053
1682026899.226026,-0.9188913700026282,1.3877665543631856,9.544171036079687,0.018993023953895377,0.0047334999265560744,0.2518156642198451
1682026899.235955,0.36111430135765604,1.5590840689568983,9.505335710541868,0.011875115432070414,0.0009006809575334765,0.2403489226579554
1682026899.2459772,0.6507410003707104,1.405567111694857,9.340963307755658,0.0082373142964431,0.006244752275874228,0.2274000072955973
1682026899.256009,0.04358808879884994,2.5424095493107934,9.600893304806851,-0.015940492978025966,0.003746961066505525,0.2114451700925715
1682026899.2660763,-0.5975962950182444,2.207036113577,9.865051623213995,-0.038281060002466304,-0.010928398784588877,0.1931031668662913
1682026899.275976,-0.27785975044569866,1.9579428812450839,9.56418105921279,-0.05979308541008301,-0.017456727230888418,0.1863912666320689
1682026899.2860243,0.8472088930230682,-0.2549226228295594,9.475461235689778,-0.052142871806285594,-0.009843866657846579,0.1807649606943019
1682026899.296051,0.44618880592900106,-0.9226876194241499,9.60680289183377,-0.02809774894191718,0.0006561548641753018,0.1747044647216685
1682026899.3059473,1.1246188434382531,-1.1671905446718864,10.802887027950028,-0.007796494376900167,0.007287307655879955,0.172755914378155
1682026899.3160431,2.6896669194046017,-0.2880787109261433,9.794273897352591,0.01837838220548995,0.049149094702612285,0.168028148460377
1682026899.332993,0.09228836897777466,1.8270418301872506,10.489694814915302,-0.008892369257054333,0.05912257441526826,0.161834614920605
1682026899.3361197,-0.6565233831816496,1.9283416747899846,10.375441012683781,-0.01699235612627139,0.057253779669447294,0.1581827277421839
1682026899.3505557,0.16186903773483177,0.7912873638591167,9.228120562472961,-0.033591677155731164,0.0668138661582484,0.1663457775592692
1682026899.356151,-2.1832170077708115,2.7047372746123552,9.757266728443952,-0.04734095507855034,0.0467229255864058,0.1853508526563533
1682026899.3666942,-0.633003995566959,-0.4566617764279299,9.244289922493541,-0.046760866830451164,0.03794397878885144,0.2068814957618601
1682026899.3760087,-0.3268213633312022,0.6943749494028081,9.1867415494831,-0.044656621809797035,0.036579905999932855,0.230701568174351
1682026899.3860023,0.1702987832846126,0.6345591731479832,9.488005757339993,-0.042061041155214585,0.04377249105428781,0.2519093925237544
1682026899.3960028,-1.6105063393464765,2.633708306475042,9.876241114559052,-0.06795563954027412,0.037209977027884325,0.2666508430719264
1682026899.4059892,-2.8991468137606518,1.1090119006892711,10.668714620176944,-0.08001986618481732,0.0037706845724480025,0.2680979842424281
1682026899.4159646,-0.883238576162357,-0.4506801527374434,9.411081251436837,-0.0656196898760585,0.003919623103500202,0.2797014588594325
1682026899.4260378,-2.3339283776700164,-0.5052008410509496,9.643340385300977,-0.04758186572078797,-0.00949061833775444,0.2787769312143214
1682026899.4361248,0.7333947133290217,-3.176314834104628,10.123937574221141,0.004347500235050411,0.008541931971909625,0.2781998390436061
1682026899.4461305,-1.293487552611198,0.38146099221044544,9.903899501362968,0.024277466905530624,0.02178569268613619,0.2661787742853053
1682026899.4575374,-2.2154068166850127,2.3807675031026125,10.86466000327979,0.011576840842191035,-0.0001865487179577587,0.2454325581073649
1682026899.4660065,-0.8419806257507858,2.491121373600958,9.885211484710291,-0.011509217801122979,0.007435246776716391,0.2239281559467204
1682026899.4759445,-2.2284381624352756,1.1526686670463755,9.45158421370451,-0.018128270605108587,-0.014033099099649456,0.2070918107509501
1682026899.4860182,-0.5470640893370345,-0.11229392508758759,8.909422938365783,-0.006707972058632783,-0.014275924194709652,0.1973768198966868
1682026899.4959922,-1.4012705963805692,1.0704605109603298,8.98355972020177,0.0021610061397755133,-0.025095445675810422,0.1973707402229197
1682026899.5060313,-0.5254880762689691,1.9337096704425687,10.007123446520067,-0.009381915607537279,-0.03199152509027004,0.2005384737729914
1682026899.5160177,0.1853556281659174,2.3866018519526846,9.927970050752338,-0.018099152888146938,-0.028391343858763934,0.2022394860267527
1682026899.526192,0.2801326006447779,2.2256165912294503,10.054267321964087,-0.030858710919356817,-0.022384958058714842,0.2054084861755259
1682026899.5360122,1.4974715241339283,2.2376440540975078,9.8052542403481,-0.04542179965558931,-0.0001116552764742549,0.2105750912904627
1682026899.5459814,-0.6289560643807981,1.9045459913707636,9.575197017088177,-0.054176463224652915,0.00284668790678227,0.2194749141216166
1682026899.555965,-1.963994346065995,1.1897218459822994,9.997332102073663,-0.05939564322597999,-0.018262439412574633,0.2244723612546809
1682026899.5660338,-1.7815918364262195,-0.20147666353516788,9.659901448062353,-0.04545457489666029,-0.03515672244479759,0.2225026959657557
1682026899.5761948,-1.557750614267659,0.08740656534009571,9.661665512230549,-0.033823427032690014,-0.04846631562663639,0.2142725462198146
1682026899.585956,0.7131462520441736,-0.11089766365759657,9.899726429262694,-0.014393362185443721,-0.0390847723763075,0.2107637101888545
1682026899.5960636,0.2839903355472048,1.4660047775159804,9.490620384594239,-0.014106490527190273,-0.018060998958076273,0.2054172480583079
1682026899.6059482,-0.1531702703534868,1.9893356661829977,10.144299569795523,-0.022749106085553448,-0.010412116152817575,0.2011076832294352
1682026899.6160543,-0.2791151035191397,1.8437663677288818,9.977408685519242,-0.03332692831276339,-0.0019425259544344538,0.2023386383533366
1682026899.6260755,-1.2692032188835012,1.4243741511973946,9.898582112346668,-0.03781566154148942,-0.010153594909529044,0.1980653727531321
1682026899.6360211,-0.13488418837024785,0.4671462274953758,9.734638340658782,-0.03059254590737244,-0.005014002730777726,0.1964045191287882
1682026899.6460223,-1.2276800104466485,0.8137533045053433,9.545342451482927,-0.027642867927347353,-0.010845135462729576,0.1937648231267817
1682026899.656001,-0.019409157044481578,1.1612140017548864,9.907154929493306,-0.03113243285255681,-0.010912609729908781,0.1933676624774821
1682026899.6660366,-0.5942182974537064,1.315410838043019,9.27362165326379,-0.03017784061492509,-0.008670073241081667,0.1941910559415705
1682026899.676053,-1.7583026228079888,1.784999023125431,9.969791252450927,-0.043645286801444604,-0.025434756771243135,0.1957769716262705
1682026899.685971,-0.3064296286529973,1.1165414644969158,9.833515837389202,-0.04210006532081388,-0.029973143456330866,0.2022736692905314
1682026899.696022,-0.31832342245079065,1.341765423710325,9.524366038283711,-0.047086258433853515,-0.02432678819895284,0.2051683688640483
1682026899.7059798,0.6405033700708399,0.441184329291265,10.127057357197273,-0.042714899110632046,-0.015669504625339073,0.2081864947557337
1682026899.7161164,0.7745948779425366,0.21783035282333893,9.42588390703344,-0.030666064249263086,0.009627822649567705,0.2140647346258052
1682026899.7260425,-1.4719740478474113,0.5236658767837118,10.299393997894226,-0.024918118045818293,-0.003793409578225172,0.224146130132664
1682026899.735979,-0.16883518919534796,0.5789941795897809,9.922693925541212,-0.01946017705648522,0.003396799584360645,0.2440671498060115
1682026899.7460537,-1.831427353774713,1.1184364049037236,9.863314622561555,-0.020651363278089686,-0.009074356511779862,0.2679821128129848
1682026899.7560391,-1.0914567292718904,0.1369193332349507,9.917819197693694,-0.011761957646370709,-0.018416132111381902,0.291347759413708
1682026899.7660656,-2.0278584164506546,0.8140206884211251,9.714923543903607,-0.005965303771265333,-0.03708930943919048,0.322626965689648
1682026899.776204,-0.22228408738045174,0.12648287950993292,10.129436734901292,0.007995116036484924,-0.050120058461256244,0.3531391197919734
1682026899.7860382,1.4743125389766014,2.046342857841761,9.350762531865971,0.012028257101777967,-0.0326573005873716,0.3859002465486415
1682026899.7960825,-0.07771405167335124,2.839286692348864,9.715388948851698,-0.01242427856145277,-0.028710897240294565,0.409749197411526
1682026899.806004,-2.8442491164642827,2.183651883415404,10.838809976702969,-0.025314495198087768,-0.08004925949440952,0.4330816442251094
1682026899.816111,1.605982870184051,0.4233802395271474,10.001139494578355,-0.0054094399588142045,-0.0880581039791212,0.4475325817346461
1682026899.8260448,1.9875841861700212,2.747042866068761,9.743250035582733,-0.01935751956980236,-0.07930402171457167,0.4687033468961604
1682026899.8360047,2.979710457634639,1.0902065042454534,10.024688118125152,-0.015965478839085844,-0.06772255456210573,0.4836747521638759
1682026899.8460884,2.9027153481214807,1.8302568864661684,9.672918621149028,-0.01828976579716194,-0.0476760695538493,0.495405423092831
1682026899.856022,2.232587907849717,1.4430941777305206,9.7321908230877,-0.01774280429434437,-0.041162714665229604,0.503861176419247
1682026899.8660252,2.774205068627548,2.561360104646815,9.6026425513248,-0.03721249088761503,-0.024739108793226806,0.5170197958230861
1682026899.8759637,2.7042764910544554,1.375436730228224,9.381932416410043,-0.040575203099408035,-0.0062277502203173345,0.5269280547380336
1682026899.8859792,1.9137865249500996,0.7419840738766758,9.42505977242809,-0.04105876880142621,0.0038516397972112415,0.5283753747224696
1682026899.896139,2.4075451373660846,0.6579300352536875,9.457584098504658,-0.043747114763742365,0.02403123079007538,0.5331688994645961
1682026899.9061077,1.3891778072894043,0.034458160639032245,9.575459603247097,-0.0390880820827807,0.03447288168257442,0.5261884803056606
1682026899.916144,1.2821402185405326,-0.5763055312598493,9.569154972548839,-0.035092728849409616,0.04645198047186285,0.5157533759355434
1682026899.9261158,0.5611095071684904,-0.47055551111820554,9.49467519971846,-0.03268360552748876,0.05471026627770188,0.5069536442041286
1682026899.9360185,-1.3204129520812997,-1.8738879494331144,9.450816730961582,-0.014851843341223218,0.04177539414913168,0.465314405608166
1682026899.9460018,-1.4344996959699166,-2.6220804913368423,10.01066296881465,0.0023926428002178785,0.023699401920793752,0.3986702436685451
1682026899.9560678,-1.1431581841410223,-1.749451249555176,9.507920612817841,0.01642879960876847,0.01769312381644255,0.3355111355066188
1682026899.9660385,-1.0802576892118636,-1.1882213944564053,9.907214194783382,0.01450028984347292,0.010881900362720144,0.2759587938070186
1682026899.9760172,-0.8721320138626273,-0.6400338794078918,9.763865121036497,0.009201815406059816,0.008638106703067954,0.233941810774792
1682026899.9861386,-0.6340756168164963,-0.8328289382934579,9.715402068258866,0.01778132805605432,1.7722968549715034e-05,0.2052412355422862
1682026899.9960756,-0.6380153739296067,-0.8069198624512773,9.799366147928032,0.024684608240490045,-0.00582826248196254,0.1828671569108851
1682026900.0060818,0.4306379754032288,-0.049757832581408104,9.677756603597471,0.02777508436972974,-0.0035385628068098657,0.1758572483539469
1682026900.0161376,-0.0012275718834503242,0.5344104849972291,9.673944921285461,0.031140172872518617,-0.005738035817150105,0.1785799438238032
1682026900.0273418,0.7360652308466514,0.9279753259681207,9.883192066448,0.032544030411197154,-0.0059325457965164535,0.1859912151574977
1682026900.036036,0.7055361048107652,1.94941910395393,9.735745779278556,0.02092898125617586,0.001109789927579754,0.1968642497539408
1682026900.0460536,0.5547953264559388,1.036978940363898,10.019924638444438,0.022536912456758783,-0.001340021258203549,0.2062020177125819
1682026900.0614877,0.757998993593644,1.0948856273758447,9.74699441234752,0.02111187965172608,0.011759237742296865,0.2201829278945811
1682026900.0660856,0.21638037478914607,2.0069038735417295,9.919057127484352,0.01862474857352027,0.009885224789145922,0.2317277515411265
1682026900.0760212,0.2632573706043452,1.1303099706383584,9.79967601475113,0.015008838200141013,0.014868858263883908,0.2331620926141627
1682026900.0863788,-0.16141491092417928,0.9510937907246956,9.84811873782976,0.015046952005694777,0.013329132554727594,0.2294475162505992
1682026900.0971465,-0.2923058360451248,1.468902870133668,9.529523896458395,0.009654792246458585,0.015594681480842268,0.2248378271341212
1682026900.107498,-0.3567687946169913,0.3963921910123878,10.030781730980094,0.010744939721511157,0.01140473582227493,0.2124529654264338
1682026900.127817,-0.21582129520467974,0.96501687640593,9.609503563201661,0.012575369170941722,0.01714103674465573,0.2082678252935298
1682026900.1297705,-0.6980477698461052,1.5204877737313656,10.279296825710377,0.007439562944277548,0.016770945327501643,0.2056225115537532
1682026900.1378095,0.3107930539658154,0.607146613489459,9.747757906012277,0.007668108919193317,0.026467472386902047,0.2050121599912532
1682026900.1460488,-1.1144531131434825,0.5902709549935049,9.787385031195972,0.009263143641339403,0.024890965430122758,0.1980639869451411
1682026900.1564531,-0.851398516617106,0.8661365301965861,9.683103536496093,0.003474544242453401,0.028146866828937737,0.171985211420048
1682026900.1660323,-1.270185216108794,0.021432618805203488,9.730484877639178,0.004196420960174198,0.034385802397163795,0.1377295428991206
1682026900.1760454,-2.233810660135569,0.3474043149864159,9.879602453762512,0.0012996164198652448,0.025152165379207624,0.1053300002694018
1682026900.1860902,-1.9874352251470937,-0.26899408665830504,9.806795934965457,0.00798552719123783,0.019351827895050282,0.0823233449935801
1682026900.1960216,-2.195157634236805,-0.11182642280095147,9.923168555603965,0.014896669565508884,0.006499819153388799,0.068304004716862
1682026900.2060857,-1.6487388679170407,0.540174970454462,9.692372181871493,0.021633522125802628,-0.002750297606914176,0.0723757768154032
1682026900.2160895,-1.1966003129943434,1.036136336331943,9.831633557047995,0.023441615990569094,-0.013280821945315628,0.0818225840210803
1682026900.226166,-0.34179985156133624,1.0397965437718046,9.765258950619955,0.02823066050834907,-0.013770673735534499,0.0904409164667018
1682026900.2360394,0.3578137213268058,1.6090248748254086,9.800963649510066,0.028786375918000186,-0.007059335011144131,0.1010841602563746
1682026900.2461212,0.332423164482729,2.5530665928677156,9.946168042937417,0.014820069455551648,-0.0016630483277657114,0.1155433008551486
1682026900.2560306,0.10730240730750923,2.0074812374393254,10.004570229600674,0.0030762821712404563,-0.0011087731165607328,0.1222592393040545
1682026900.266134,0.13525150556814236,1.2196383075457424,9.624242388806916,-0.00016396347785156123,0.0022117092847809758,0.1263592491030581
1682026900.276169,-1.7995645022676303,1.2479220998175984,9.55111886949295,0.002051511318012691,-0.028984287684813752,0.1306549185991175
1682026900.2860787,-0.322438857962329,0.21055486512424768,9.960446972302336,0.006887922470722164,-0.0536161047833813,0.124907272505749
1682026900.296072,1.7746425071636445,0.03975431888131678,9.308118914544714,0.026452376215419807,-0.04738620147243281,0.1268636459588893
1682026900.3060763,2.2739810091605066,0.5933721585169062,9.619788673799919,0.03795214136445866,-0.03503449786031149,0.1323426241159327
1682026900.316179,-0.8638008098686489,2.7864106189312787,9.466323552805981,0.028308060561451097,-0.06349364771894737,0.1358720535516627
1682026900.3260362,-1.0362588946910685,3.005080407448252,10.849331648150127,0.004613850264805341,-0.12453310994952689,0.123274351108063
1682026900.3360512,2.0667594826585383,1.2683611138042876,9.999972507036237,-0.0005950956336142577,-0.14037880996926924,0.1036969000577815
1682026900.3460824,3.946775589863696,0.18848414486096943,10.293131585632587,0.010131115258057016,-0.1391604774682534,0.091369988965977
1682026900.3561957,5.810632264980319,0.6977688915660253,9.469784055414946,0.015919866253490483,-0.10197639503666774,0.0844073468923457
1682026900.3660574,4.9133374579540945,1.8029466955750433,9.886679422383356,0.003316690449939691,-0.08040053799877844,0.0806404451012499
1682026900.3761356,4.879482203454771,1.5877239613963032,9.582357492489777,-0.013603897572674944,-0.04897267048489357,0.0833998644828684
1682026900.3861363,3.513126150509017,0.5853482910059218,9.706554020464242,-0.024440154672644772,-0.03161250185962849,0.0822132850170024
1682026900.3960342,3.3238025740345276,-1.0973914341710378,9.309434727073587,-0.011314698851837803,-0.011914060460323835,0.0819739276647456
1682026900.406133,2.1620270342714183,-1.6336960592447305,9.655192683020779,0.005360233520815021,-0.002719013717481212,0.0732620457291491
1682026900.4161608,2.2239228016826695,-1.704840190925105,9.696178992010397,0.026315174175224543,0.013530761197081742,0.0608543070137389
1682026900.4261122,1.6937181411914444,-1.2985709665713108,9.940000572628021,0.04239973314204827,0.027680625242342563,0.0429224992275126
1682026900.4360297,1.9539741268114064,-0.437385339828281,9.88637040641623,0.0497260993886981,0.05089465893065479,0.0292396681487448
1682026900.4460745,-0.2537103671293189,-0.3432278983273261,9.559238394713526,0.05517812612851568,0.054707534095618626,0.0190539477497227
1682026900.4560218,-1.716083456146211,-0.07468767570350576,10.802887281179245,0.06346804908341493,0.006627020487954485,0.0321819136023409
1682026900.4661162,0.26291655207454473,0.6739211428690476,9.962238783952852,0.07297173840066827,-0.014677451788521154,0.0607825504720099
1682026900.4760847,1.6643370204328163,1.9418910343047049,10.187215575526753,0.06901621340920575,-0.027094948222381718,0.0897658640622981
1682026900.4860685,3.3626516850557024,2.138365761872889,9.501487221335697,0.06500429002321324,-0.012377422821227849,0.1072434583783038
1682026900.496054,3.3346916255402275,2.381093100216745,9.782119905289395,0.05437996173790607,-0.0005737691680186895,0.122346604812134
1682026900.5060265,4.775807901439765,2.3252185828933905,9.121182115102485,0.046253437880445815,0.03331190908089395,0.1393300319194682
1682026900.5160823,3.3339907756145593,2.482497435199541,9.256059668245122,0.035760970120155104,0.05207852285507597,0.1558526480674632
1682026900.5261805,2.7940148966833553,2.0584277223308827,9.488092760307731,0.0286576327624194,0.06204983208546806,0.1593804979801066
1682026900.5360289,2.38284948605611,2.9417870608541774,9.612043858116968,0.010655330398838299,0.07397428954854884,0.1596874469995387
1682026900.5460577,1.1034064836869348,3.48562811439752,10.304280383939373,-0.01719096603262095,0.07261318829593365,0.1491843188285716
1682026900.5560246,-0.07411043913021893,3.117020140776655,10.848215748672123,-0.04496754097610607,0.05725633921502333,0.1329958612203486
1682026900.566033,-0.5664497717319448,1.3835927047478929,10.892806955745005,-0.05357075988481201,0.04320476724892137,0.1057919735193141
1682026900.576053,-1.0363637915643105,0.35110550437823185,10.684164638842155,-0.047979536101778554,0.02396364279295098,0.0804348463296778
1682026900.5860622,-1.0259142638686176,-0.9851675348244765,10.157622196534412,-0.028719305166266508,0.007996296882379891,0.0555117266356833
1682026900.596239,-0.7066259286004637,-0.5419707120045555,9.94475572908127,-0.016398846124808016,-0.0029411160466173546,0.0422070050716288
1682026900.6061263,0.15476761031772834,-0.1455390216128611,9.440008245120373,-0.005439733127379045,-0.002056412381538246,0.0345837609946616
1682026900.616192,1.2908764997533537,1.3299927188701017,9.249037028946098,-0.013216155954098493,0.018977087524195167,0.0299834745108969
1682026900.626105,0.7394511176229275,1.5069440909962228,9.519190957201626,-0.024422206657180773,0.035234485420799336,0.0187357744306214
1682026900.6360693,1.3584396394430127,1.5122471213403872,9.598699985306897,-0.038453294537418366,0.06187048988898152,0.0138441534817107
1682026900.6461732,0.4424345435469997,1.1273186276714753,9.665528951678235,-0.04058645739703912,0.07667419927871486,0.0171249784633405
1682026900.6561255,-0.26443403357894124,0.9540285412477097,9.852805680071967,-0.03976421102305567,0.08077301171616137,0.0239409474760182
1682026900.6661172,-0.9892565905208983,0.8746536223555413,9.759703230352576,-0.037676302224357056,0.07410398766312368,0.0351268002867587
1682026900.6760745,-1.575193355237844,0.894130090511689,9.528038393687428,-0.031082024878346087,0.05606939053897434,0.0487042503535636
1682026900.6860857,-1.8654694876876983,0.557894985462838,9.155994214914266,-0.028112857236404484,0.036597875997213924,0.0516953716158755
1682026900.6961515,-1.9279965963343992,0.4077692048541753,8.900809378051205,-0.024501522388516533,0.01649917514749586,0.0591472821414359
1682026900.7061532,-2.715865587402634,-0.47436987223331434,9.078349569017071,-0.012729394842417122,-0.016738690473869465,0.0611677827417738
1682026900.7162328,-2.3972769475827924,-1.0038375706359965,9.074803710388078,0.008230131487314185,-0.04833673901999987,0.0685794079780467
1682026900.726069,-1.931073356684457,-1.4340241462985304,9.40006036048037,0.033547428321777574,-0.07553025911173443,0.0712196553230174
1682026900.7361057,-1.079548494981129,-1.5243916682361094,9.521570604741544,0.05925946817613145,-0.09398125570765087,0.0628990443527587
1682026900.7460823,0.0936204949451163,-1.0212332939422932,9.41060573593634,0.07965999109987706,-0.09633084647240804,0.0532617518782504
1682026900.756151,1.1804647121772653,-0.27780507966966156,9.352006747473999,0.09054971164529518,-0.08383685701614456,0.0453436361729987
1682026900.766101,1.1171565403637564,0.8134334410782923,9.218146925368519,0.08847917481353985,-0.06769434518218082,0.0380725028097518
1682026900.7761316,0.34410657335260947,1.7509747922765015,9.455768037829758,0.07722071331214453,-0.06453988863973784,0.0281388634920008
1682026900.7860675,-0.102171758465352,2.3335726966851733,9.484908315873966,0.05926986748382611,-0.06385831990800712,0.0202449752122052
1682026900.796055,-0.97742937625025,2.932597325369389,9.779545645323338,0.03412866672495436,-0.07692823235851366,0.0125967465445287
1682026900.8060482,-0.8110656308077099,2.1640039142081533,9.832473276182515,0.019865086541465047,-0.08864950125158452,0.0066874563798196
1682026900.8160586,-0.23810112647954523,1.8704019464522141,9.902108465620328,0.018386387925716244,-0.09056268761287073,0.0060582371532805
1682026900.8260584,-0.3551223822347609,2.677959803313649,10.399333962607507,0.00593574347129251,-0.09330499624744841,0.0065116268686838
1682026900.836079,0.8169912152384801,3.2652506304349265,11.043783930584231,-0.016063831652008444,-0.08227759929536249,0.0024202925140857
1682026900.8465157,3.785380853566583,2.981112541232188,10.50356088340682,-0.03727244640871154,-0.014648602316682338,0.0118073100328333
1682026900.8560886,2.8360996305917077,6.054558427664172,8.666534185743625,-0.08154595149603776,0.06189982768384656,0.0625086898088343
1682026900.866104,-1.1039133800617196,4.872649633968119,9.675527495977471,-0.1306616935823085,0.07962178246917086,0.1144114235520251
1682026900.8760853,-3.3374860515452833,1.410758506624155,9.303303786473029,-0.12844196285459208,0.07621025691104935,0.1697216356277354
1682026900.8860986,-6.4639176391441975,-0.00156551111970727,9.634233874866162,-0.11084103213763134,0.03709425629381164,0.2113457048416026
1682026900.8961315,-7.293573636593322,0.2973426726779171,10.821795460143928,-0.11346513715886847,-0.020705853648634868,0.243397879052151
1682026900.9062667,-4.419624987415625,-3.24209639357753,10.5552907720889,-0.06773277723878712,-0.041608131267488344,0.2658251697301753
1682026900.9161105,-4.210703266619159,-3.5594475982391467,10.465388755317843,-0.03135140373963512,-0.04664116268980759,0.2617211515188106
1682026900.926128,-2.6183622143456713,-2.0015397004222604,10.07832820790971,0.0015746503430890241,-0.037557357256087456,0.2478795671939738
1682026900.9361715,-2.466450084544294,-0.7896731105536414,9.921847585793394,0.0038102040090755365,-0.01692785035352793,0.2187551731347926
1682026900.9461951,-3.41404794403013,-0.8370135650917203,9.76602908342243,0.012523532171922317,-0.012496769510537251,0.1800154173850901
1682026900.9561694,-3.7163620018373864,-0.05245528951092674,9.259746840083713,0.01758664669494755,-0.012083700543426175,0.1489145631074794
1682026900.9661455,-4.838824469891098,0.025245407846137505,9.413970069934107,0.02184725960416057,-0.03323875881974603,0.1258574003457911
1682026900.9761207,-5.940715438531346,0.693912452619942,9.928764754480898,0.023945791679938103,-0.08786985421882158,0.1483245963334925
1682026900.9861715,-3.4041514885653723,-0.21857130469648184,9.80309213048911,0.04523222622617611,-0.14018361726116632,0.1979986602544673
1682026900.9962044,0.15117698892054482,-0.6756501854832843,8.731187533630159,0.09036467186443907,-0.14667687220350675,0.2615181380987056
1682026901.006095,1.966552063413865,1.9038382819530189,9.264281837387557,0.10951877466040685,-0.13870049801018183,0.3255149299383052
1682026901.016129,3.55273909426004,5.237177472163141,9.715955718130733,0.08004364907679568,-0.10672506103817495,0.3817431504011043
1682026901.026724,3.30444955704044,4.781008917824059,10.282405670184557,0.0544044062082488,-0.08306863415863955,0.4110996896505244
1682026901.0361671,3.6535395532918162,4.2416277962051945,10.123245769643676,0.028002523247455155,-0.0543008278912675,0.4211549336194881
1682026901.0508697,2.082483287047885,2.38433135248532,10.156971697754757,0.01748096430318911,-0.041703883524423384,0.4171644026517757
1682026901.056356,3.5597411247071524,-0.3218141979051748,8.673672333112478,0.035609620453984504,-0.025672395070916905,0.4181477302789577
1682026901.0660963,2.3744100996982103,1.3216440184411757,8.73894321162644,0.04794466217913129,-0.008194597125016446,0.4208548540353664
1682026901.0776377,0.5324454946740373,2.8117766490448894,9.842584795110138,0.023304153307204967,-0.019797449346143147,0.4130866998910792
1682026901.0860934,1.6340992129790863,2.697233576182623,10.041447950216536,0.0013690862574755587,-0.017111338554323927,0.4171456867933162
1682026901.0961037,0.9245788374892762,1.6497387330563262,9.884169950540851,-0.005544650847176522,-0.01607971318951201,0.4114077860593684
1682026901.1061018,1.5111254250818347,1.125075462981588,10.181063294515825,-0.014952054460598194,-0.0105642856785271,0.4046655768632777
1682026901.1161573,1.3158020210283685,1.9272052519957266,10.140824046266536,-0.030853593458713156,0.0011889630169998958,0.3906368190526851
1682026901.126099,1.455024991836408,1.4872300744902414,9.949227209248459,-0.042166633163212945,0.016591942016679535,0.3854307705640681
1682026901.1362317,0.5584449610995522,1.3174320412054306,10.24875827520058,-0.061909591623578314,0.022287545568949726,0.38321243469714
1682026901.1461473,0.6260917031007577,-0.39602857783599216,9.74924987854031,-0.05548370192437287,0.03122793151141882,0.3874330395936854
1682026901.1563134,0.798390535104175,0.09699055368950103,9.652322587812908,-0.05326494072034109,0.04080854958175184,0.4051129693269618
1682026901.1663406,-0.21663559792198842,-0.3901008486246483,9.536767028203329,-0.0461648920170461,0.041073481266073845,0.4140737528085597
1682026901.176093,-0.6507697351736172,-1.351488982223962,9.688610460889644,-0.030175556053822612,0.032382961595963565,0.4095700258493312
1682026901.1860971,0.3141424066235184,-0.6546203224338433,9.327006940258908,-0.014181611499083572,0.0417891944029176,0.4109708542108424
1682026901.196148,-0.515626437963692,-0.30397667942564083,9.673105767194507,-0.00796964565901082,0.03528517067546476,0.4071698958158382
1682026901.2061164,-0.6993769149669554,0.8365703145577852,9.8443862728748,-0.015668475452408907,0.029860974834446698,0.4002145404100307
1682026901.216547,-0.9754689234064663,-0.09586634366071126,10.142399929828896,-0.015560669605749138,0.013840582121409787,0.4045297080755122
1682026901.22678,-0.4961466093239648,-0.5051716159024563,9.888121829054858,-0.007842213952906879,0.0071191712135501625,0.4019127065420039
1682026901.2372296,-0.23800443381991412,-0.9736539840624073,9.692205964204227,0.011908606570816133,0.0006071304991917871,0.4010955566644557
1682026901.2471004,0.8293875317987703,-0.16404213623261726,9.183020236341898,0.023614894446048192,0.01047092724034974,0.4086741084337123
1682026901.2564027,-0.07947548440753213,0.2537924261844217,9.53210752084529,0.027644501426203037,0.007119592274959594,0.4149559313535579
1682026901.2663405,0.9705053785311516,0.25275438572550474,9.274411833045923,0.03555361970113694,0.017268601367907557,0.4254061156988032
1682026901.2761512,0.39164820849254356,0.7927789095831438,9.44411367963414,0.034694322904938124,0.023905144149774814,0.43813146893977
1682026901.2862203,-0.18863920487674687,0.3598758701639492,9.75056905230772,0.038914740180554463,0.01880083895051165,0.4411211485147365
1682026901.301247,-0.010763979443105394,0.12409689743328604,9.607912502775948,0.05444543321755432,0.016460073514456833,0.4487691992998012
1682026901.306097,0.35236457214733,0.5754423208355773,9.44482771106977,0.05811793108274075,0.01837060211462291,0.4554255778074153
1682026901.31713,-0.5394352244018288,0.2841653727650296,9.609587797067395,0.06829012165097437,0.013297453341852117,0.4427870983362086
1682026901.3263423,0.026791900038079474,-0.03748903726303094,9.782910720364207,0.08083616533186055,0.011954705745820249,0.4345056289911159
1682026901.3361466,-0.15782380418077824,0.9902314261756014,9.680990888313602,0.08139122550615063,0.012191970026509498,0.4248968834161647
1682026901.346169,-0.3646538810148296,1.423731854573732,9.815361868635286,0.08003050419093578,0.0063613366869582745,0.414138960289944
1682026901.3562553,-0.2718058553382412,1.9088019876464253,9.807722359926325,0.07053674747403577,0.002028220525977094,0.4101330811262019
1682026901.3661242,-0.22371115575523373,1.8995150205049989,9.73735805871889,0.06390059594841044,-0.0030806522827335485,0.4079897577047237
1682026901.3761158,-0.8355522472353732,2.1126140660080712,9.91477604412718,0.05647814427646651,-0.019647435145272077,0.4076595777749904
1682026901.3862278,-0.05716987934950817,2.0470975776827687,10.117896124126114,0.04944121372036422,-0.027140355575785053,0.4028937095880397
1682026901.3961763,0.5844939344287009,2.383169551746879,10.36531038561082,0.034862757219543995,-0.023464242404235388,0.3956518942594417
1682026901.4061272,1.1560225506740227,2.065406856693884,9.973439951449526,0.033559102624943854,-0.009263320036523614,0.3897251064062007
1682026901.416194,0.7387127593829171,2.4482252930939326,10.10519879062243,0.023604034937569983,0.002155970766256883,0.3886536533117183
1682026901.4261324,0.05480594518039583,2.2556695366818156,10.113285671681112,0.02009462868671696,0.00014455568398959325,0.3899852210760005
1682026901.4375055,-0.2550323656793734,2.019010423146285,9.657093240020918,0.01172016164702313,0.0020798571619049452,0.3840313727140315
1682026901.44611,-0.5896538427248701,2.3767864836992354,10.055976001753784,0.004556345584536095,-0.0053165248027007795,0.3803555244684108
1682026901.4561272,-0.39926519020895795,2.2920807707646973,9.963135863995571,-0.007930622673797082,-0.005466076887903827,0.3694189066171535
1682026901.4661028,-1.0481865855472623,2.159827407710838,10.130123243248592,-0.01980179659583611,-0.015138719409669337,0.3605355793714412
1682026901.476096,-0.9705231153166167,1.7094943968495673,9.92559557469391,-0.019556600174600952,-0.023439993610012345,0.3586664969205745
1682026901.4860983,-1.0086062646367373,1.6340311890766361,10.323946542980568,-0.023173349695860303,-0.04055739547919933,0.3505137438058742
1682026901.4961011,0.052997231946017756,1.6118885421779385,9.688590297981621,-0.022083724518668076,-0.03849554499041322,0.3496643180131801
1682026901.5061064,1.0848202389131125,1.0079979331984996,9.37916825103704,-0.014335198065833218,-0.028291792251351484,0.3607253903627284
1682026901.5162084,0.5756430320477539,2.2892391716562726,9.337263775255664,-0.015850905336779325,-0.019415923333560476,0.3770204657792934
1682026901.526122,-0.46283325026764005,2.221114336670084,10.429159461182667,-0.03087592671779282,-0.03174777118974908,0.3876638585805781
1682026901.5361204,1.1958522532157259,-0.19320340184823623,9.718834651024624,-0.014221764832974264,-0.0202217793957914,0.3987339014291652
1682026901.546195,1.4282291983600066,-0.11638316003942532,9.14727794403946,0.013442495363694044,-0.004499535513992448,0.4053170854329951
1682026901.5561466,0.2697846848899446,2.406642691890345,9.630129089236318,0.003714378572232652,-0.00349306309407383,0.4183917814969905
1682026901.5661864,0.33486063514014547,2.322592415280672,9.844144036267748,-0.011655663248036532,-0.004286601656475422,0.4327206784963496
1682026901.5761323,-0.12201790694183232,1.8828060912344469,9.78356301013836,-0.02326518289240351,-0.012078539524297091,0.4389162832975276
1682026901.5861654,-0.1807925996793567,0.28913462774655774,9.95167340750928,-0.01568668727103733,-0.023559244784466377,0.4349200898885615
1682026901.5962431,1.235317705839616,0.7899937046434901,9.938022729660041,-0.007079365388344279,-0.015310833176893345,0.4320894653081782
1682026901.6061578,1.3765424257276089,1.5154858610280653,10.05963761123416,-0.00860986776128365,0.0008019061730509099,0.4108176404714473
1682026901.616231,2.030750993935848,2.4288384661306472,9.98756979284645,-0.021113417946640612,0.022310027918792483,0.3984396929025539
1682026901.6261644,2.0554836527324243,3.871964679740966,9.884390342750057,-0.0523541076250539,0.05358757922236134,0.3857689971208461
1682026901.6362634,0.232108600723162,3.0897580586666713,10.144651687089416,-0.08205456141194475,0.05759655352063073,0.3703532690286525
1682026901.6462276,0.3303109719572966,1.44505880173568,9.67519615012734,-0.09359272371996807,0.06301625031794647,0.3612470204114802
1682026901.656217,0.07291281014216285,-0.27263003149215337,9.366903240684628,-0.07838120163199419,0.06600912185365576,0.3499933654546626
1682026901.6661632,0.030579566929605274,-0.2514306051248589,9.178050117623707,-0.07124549967470856,0.07245459335981955,0.3394095772981532
1682026901.6761243,-0.3300751918947297,-0.9853739434797263,9.206749591920344,-0.049559047608939026,0.07154309472247228,0.3242719346761592
1682026901.686129,-0.13945368302633523,0.06727437165032543,9.211614918404676,-0.04851737972659817,0.07632607965723028,0.3132429594278224
1682026901.6961515,-1.5657264936882571,0.17025592613977647,9.80936454910783,-0.04370901369140484,0.06238669686969904,0.2937415415525325
1682026901.7061253,-1.7032496278997913,-0.20223990352261959,10.157315810775053,-0.04848063896001448,0.047512482939752854,0.2642242187738307
1682026901.7161477,-1.648112091333843,0.3217322538856834,10.210812711901928,-0.05555757371949991,0.03236367546985068,0.2458145195722468
1682026901.726159,-1.5702387788110312,-0.8207101642037333,10.297414255806938,-0.04969253223746424,0.016802240760411605,0.2324330533027537
1682026901.736519,-0.7888246196065206,-1.1227437037186503,9.666021076952767,-0.040347869677793545,0.014337943184033121,0.223150196123112
1682026901.746237,-0.3821121838258042,-1.3596436556955929,9.517714161631146,-0.020888851918789725,0.012505288897852782,0.2260722989320643
1682026901.7561846,0.027222189097415698,-0.5302607025445285,9.525873871206866,-0.008639878999523499,0.015304457034425156,0.2285688096761592
1682026901.7661662,-0.2555893208144054,-0.10760546865900837,9.365602221767615,0.0037170702551828166,0.01750439668052892,0.2344707423925288
1682026901.7761662,-0.4058620273225005,1.1231488946953758,9.664310515117107,0.004771605437991353,0.011176230222361637,0.2459742600202449
1682026901.786168,-0.4502660046447621,1.8439819286309125,9.826830754216344,-0.002787345808425368,0.0013399666984283299,0.2636694485425838
1682026901.7962265,0.041583272350328694,2.0084545500517024,9.980094979047616,-0.0152306597503746,-0.005597393184454867,0.2813068205594905
1682026901.806184,-0.1479090409827296,1.244529699618746,9.530674487063726,-0.014461442559738835,-0.01144777608647588,0.2937217826127895
1682026901.816194,-0.8609161297754145,0.9620237916991885,10.09724562436392,-0.010049931948866565,-0.04459657744166916,0.2926733965158351
1682026901.8263202,1.630549297663828,1.39397898010872,9.527768157042363,-0.010919316537636744,-0.043686133700873125,0.2789478475332149
1682026901.8361683,1.3371829840379281,1.125355630124175,9.73565986538267,-0.009454424737004087,-0.0445965311579538,0.2579363757848628
1682026901.8461816,3.4614683274676437,1.0599079833415637,9.529372182816296,-0.00972709290225548,-0.02697338674818421,0.2403968298911936
1682026901.856347,3.8134317952747847,1.2717199767176186,9.07569282402808,-0.007396361587246216,0.008055432843568846,0.2227459425210841
1682026901.8661647,1.5095004174179738,1.4814211375146984,9.846374456497609,-0.013344535196456791,0.0025384414071101427,0.1994065517663844
1682026901.876237,1.8267957375362602,1.3171407447248171,9.981092036219865,-0.021105952044380656,-0.0003103283539395166,0.1805273765802272
1682026901.886237,2.4613032054690205,1.6730271290756404,10.08796324881278,-0.026606116450697284,0.001992688440489961,0.1767894202947505
1682026901.89623,2.442652075057926,1.6904851685207658,10.132374883154398,-0.0362750213988006,0.007480066149916499,0.1768598282813914
1682026901.9062278,2.7982444593634357,1.680465850455727,10.043957829935419,-0.04637960347232184,0.016038868651537475,0.1864914471387751
1682026901.9162548,2.1604272466121914,1.0345735373550664,9.621337821026708,-0.047997762024994305,0.020431523649248922,0.2043473446845896
1682026901.9262028,1.4746645517329602,0.561570647206478,9.595691213683548,-0.04662710756870035,0.017267215415459954,0.2291986221551783
1682026901.9362578,1.3104747993579435,0.09035686987283567,9.492683385867718,-0.036655426538175204,0.013414290535819997,0.2587415153264888
1682026901.9461727,1.000447282941637,0.23960689383991182,9.347323185118,-0.03255630187353065,0.012854777711545598,0.2828375572442897
1682026901.9563222,0.49929573244990366,0.15371351531159297,9.646984846970541,-0.034069502631790496,0.00546420007530929,0.311423557448376
1682026901.9843976,0.8441329796615891,-0.989855301518,9.670842172312668,-0.014963523501168101,0.00866468678570857,0.3326227540254481
1682026901.988767,1.8942655181205996,-2.0772539139546673,8.854322521801118,0.0072214073139321225,0.0160073962105146,0.3507167572259791
1682026901.9920354,2.811008663595105,-4.100191655672769,7.87742275189002,0.03026641480123123,0.033775657849472215,0.3466691548108943
1682026901.997048,0.9179486426554182,-0.8344114116948507,9.255361447793485,0.03892473622398775,0.0478714715093784,0.3418974453687556
1682026902.0072153,0.30465310831505354,-0.23594820699995994,10.127999796214365,0.04553016018881189,0.05489914487740886,0.338245051550854
1682026902.0173986,-0.648226674967407,0.3819568837077005,9.822815698493109,0.043682667642603444,0.05981843424283161,0.33139957730769
1682026902.0276673,-1.6691832766217733,0.5411239263135426,10.307620563521056,0.04167243254807002,0.04209356844886378,0.3254245692968257
1682026902.0379364,-1.4900487208379323,0.4647119178266023,9.778787639492368,0.0418074036075305,0.032241371785740915,0.3147399300813563
1682026902.04614,-1.9724284129396497,0.18618106552660074,10.172643876833806,0.0393811863656971,0.013614377413377524,0.3053499037504085
1682026902.0562294,-0.6985573298434629,-0.025190299163477304,9.280206452274776,0.04698002330586366,0.01325064067505649,0.3042622977971919
1682026902.0662067,-0.34994688812697733,0.044057743743565,9.649238146266633,0.05556207482062052,0.013374502342370432,0.3071571165799983
1682026902.0762358,-0.005157101067610022,1.2132076025218272,9.529505190585878,0.04944378478763136,0.02316639861796402,0.303267138648022
1682026902.086172,-0.7814047755112621,1.209984981701353,10.180616799796757,0.04517094598729012,0.022368692730635284,0.2966946238756068
1682026902.0961535,-1.2815697411600921,1.2883118056072103,10.386623147054273,0.03831166955698676,0.01253655030309944,0.2872024351835139
1682026902.106156,-1.04693488543385,1.3938882491238302,10.433818662255627,0.03853330826722288,0.00033939352313081694,0.2794509703397639
1682026902.1161954,-0.6832803737586769,2.487042383772843,10.497113404717062,0.024827519273691537,-0.0112870140289531,0.2754609758138545
1682026902.1261723,0.35693767261694276,2.57146781066803,10.290677025755606,0.012642703426714226,-0.010798260335618945,0.2731576139211543
1682026902.1362076,1.4373347441419952,1.729503407795603,9.920144395592189,0.008618801817894393,-0.0015141165595899961,0.2775927955388911
1682026902.146217,2.8414069584742303,1.4899597948949113,8.702756634916994,0.019907433047510435,0.029551061755546188,0.2945956165075191
1682026902.156272,1.3274171343578456,2.060084428212144,9.02574848926723,0.01336492076711991,0.0436141233045642,0.3093044037103541
1682026902.1662245,0.07010521847529876,1.9246608757836428,9.01470776951058,0.00835573168488991,0.040392911095784634,0.3241292113542445
1682026902.1762087,-0.5688138229370983,1.426975985977214,9.549333203810228,0.00218639019693565,0.023978930393675137,0.3378991359949
1682026902.1862173,-0.6858772958452072,0.18445203248887584,9.38672170175927,0.011938109713740446,0.007711231004165038,0.3432831639528163
1682026902.196217,0.38461688750882134,0.16547912240547077,9.565840447387098,0.021300273381116005,0.004660359042716548,0.3560359949350246
1682026902.206175,0.2374003783862634,0.43068027958268806,9.781572634571232,0.028220875550461263,0.0004499951728358045,0.3621539646863826
1682026902.2162137,0.8957062448836615,0.3100156305414316,9.875536733316704,0.03773737319635531,0.007630655311768509,0.3590041870355495
1682026902.226185,0.5063674247571786,1.4233270099155175,10.357989816898703,0.03215132948470943,0.006494878639113731,0.3495989317178615
1682026902.236174,1.1747169710783771,1.4080157151928485,10.193089663887132,0.02667959485900079,0.015731429910477594,0.3333957964658626
1682026902.246197,1.0295718960359146,1.7131976060565857,10.317571736014992,0.015607371284717583,0.02258804319284107,0.320349293398846
1682026902.2562664,1.1188867617998752,1.4463942901762592,9.567378341234933,0.009109565074816717,0.03392139839428313,0.3130898648977168
1682026902.2662685,0.4218237446039088,1.1862748129828515,9.71293580268968,0.0008207417234825194,0.031790692887643086,0.3131619269132503
1682026902.2762954,0.014468775709304934,0.7944076443696761,9.344278713877179,0.0005235356802871908,0.028740411364072727,0.3158685440301784
1682026902.2862456,-0.5529522467860376,0.3611445111300144,9.677933265949802,-0.0017518592582848023,0.015039238368442903,0.3211818212747462
1682026902.2961888,0.3125438558487169,0.011108315927235138,9.27436794082659,0.009115261104957932,0.016349954717486494,0.3283988410711177
1682026902.3062508,0.0468519715871486,0.020267285468820596,9.79246288228958,0.013145310948223923,0.019484264481239664,0.3303898448228725
1682026902.3163185,-0.3010875262685209,0.23769482134414227,9.79925456687294,0.019139606819507406,0.02082411457110132,0.3321514600992091
1682026902.3262556,-0.45267340661672234,0.5828189958537013,10.043392677434303,0.02047730777984342,0.019606570316689453,0.326101052212704
1682026902.336205,-0.7971483419025683,1.3376730828711558,10.426702770062814,0.009735113652847857,0.016137486292792543,0.314786183285702
1682026902.3461747,-0.9853947445874527,1.42972734906284,10.576538589668735,0.0002646011858877334,0.002127040627128195,0.303401815342892
1682026902.3562388,-0.08707658839329051,1.0105705063396866,10.052246022885228,-0.0003566608424862358,0.002091426600284092,0.2920661741971858
1682026902.3661594,0.05516765122597417,0.997069346983032,10.119900704546883,0.00219084077236639,0.0008084436143442589,0.2885799283265956
1682026902.3762612,0.7757146218598227,1.8401149865497772,9.575885421395457,-0.0011530881160859371,0.007874156295635168,0.2975025052308925
1682026902.3862505,0.6148887648834022,2.053909520392529,9.527306936917162,-0.005816381969532818,0.009214817226265215,0.3065025085687526
1682026902.396239,-0.33095708475243446,2.2486879168112566,9.39751477587646,-0.02150153502042396,0.0010887100036110614,0.3221510822057613
1682026902.4062345,-0.2757236973390851,1.4706857949817536,9.349408898120497,-0.03310921469578237,-0.011845484476892088,0.3468367630720027
1682026902.416293,-0.27491953866959506,-0.050561140607044364,9.092809031096468,-0.020640147417321238,-0.024846394155814598,0.362888800549496
1682026902.4262164,-0.423383977759564,-1.3501266560650793,9.462044976661074,0.002749095621776473,-0.03607126505901402,0.3665917987108119
1682026902.436266,0.49034329606291055,-0.4402917431959371,9.677517583992811,0.022576445356675426,-0.037183606480227546,0.3654054874658473
1682026902.4462688,0.8627939060779856,0.48112715993512745,9.808857602992795,0.02769642501515778,-0.026057011314415908,0.3488230878591426
1682026902.456263,0.6142008061973677,1.6399495339238332,10.433159726123765,0.02109325875113185,-0.022621575436482518,0.3335132772207149
1682026902.4662733,0.3564686859465944,2.054834745988576,10.178783821866043,0.006910276785501923,-0.019138058723936934,0.3160937005758174
1682026902.4762464,0.6166169786779091,1.3272216450699785,10.144181892605593,0.0017965219276073253,-0.017745216053467128,0.3045824343442805
1682026902.486286,0.8559065082252786,1.4614665273050562,9.610561951768316,0.0016524851156631175,-0.012445901579133882,0.3012374216794856
1682026902.496231,1.6207287361310685,1.449780801520133,9.740163146220905,-0.002429145368384246,-0.0019218669814594228,0.2997749323129542
1682026902.5062726,1.0754638227811477,1.8781766311675947,9.181370694432282,-0.011735721155066057,0.015902117631011015,0.3103577071905025
1682026902.516288,0.5196180565555275,0.2673311170332245,9.698232608456198,-0.0037959931554615413,0.013349067804409306,0.3243720406770595
1682026902.5262172,0.26747468200987995,0.4624470257538232,8.920741614717954,0.00426319167786815,0.019640902407305573,0.3402676159620174
1682026902.5361938,-0.6312701661040413,0.05439389876664279,9.835755570019709,0.013183593720902807,0.004457903832575233,0.3513809317827113
1682026902.5462315,-0.2991575783172861,-0.4799943537230995,9.21916293678451,0.025617163617516446,0.004100066813646346,0.36131741349696
1682026902.5562184,-0.9620941746323299,-0.41924823706357034,9.76174629225681,0.03930686399006696,-0.014798801183148712,0.3666063720464595
1682026902.5663729,-0.057341243206839115,-0.3780839240376187,9.340867240150105,0.05261617983126802,-0.012365712647847272,0.368307399201382
1682026902.57629,-0.49498130077939473,-0.0928624941619029,9.925083861544213,0.06360385631276196,-0.0207140674318468,0.3643292063951381
1682026902.5862389,0.1188101038920126,0.9617206211312676,10.100559499086826,0.06522987711092368,-0.017393102789060016,0.350774245905865
1682026902.5962725,-0.15842811500492088,2.0394677576773854,10.743380342072061,0.05581818013369744,-0.019962453032120697,0.3325428838014491
1682026902.6062326,0.0428059516851183,2.9111655530193294,10.847159785578755,0.031947381693887465,-0.013414458133798941,0.3128951961278804
1682026902.6162963,-0.38729503896248013,3.1729482921529626,10.565688872265603,0.005389431470587649,-0.01660321598439381,0.3036692315816768
1682026902.6262534,0.27177607066021553,2.1414630795845513,9.999183442737476,-0.01695154749000552,-0.010110673560587,0.3102918142557033
1682026902.6362832,-6.591356350822481e-05,0.34095227122130484,9.398785909334316,-0.010530201727054671,-0.009588442067300184,0.3147378439187892
1682026902.6462102,-0.014122005202668434,-0.22301833252711958,9.159483161207358,0.0003783436029258795,-0.008091482979488465,0.3205926591634639
1682026902.656234,-0.9460958435866732,-0.11382398686945719,9.074005901354864,0.014444181735548445,-0.018380979649652088,0.3220282966375239
1682026902.6662436,-1.8467378527892941,-0.07374689451889282,10.014789413901607,0.02548705141004614,-0.05032826322310041,0.3053004020929225
1682026902.6762538,-0.23717881591101672,1.0537859298640004,10.07163715541925,0.024707689868049203,-0.06328468338827106,0.2841052884340175
1682026902.6863832,1.0729312210685065,1.3820751045418656,10.330857291394377,0.0206568214129644,-0.06508032503967245,0.2658601576566585
1682026902.69632,2.349088393312324,2.198886756290518,10.349281926612084,0.007748849600755435,-0.04816450895075517,0.2388735586881526
1682026902.706222,2.292393363606114,2.176154645635752,10.358331150050795,0.0007238917700036549,-0.034113652732967494,0.2180102044820674
1682026902.716282,3.0852154490250117,2.8871339047318783,9.8899435091044,-0.01817526597684234,-0.008103102033501917,0.205307635116566
1682026902.7262778,1.6922181751599807,2.351341281283342,9.797481658396197,-0.029813563989583538,-0.0027205266809533844,0.1989130253076441
1682026902.7362144,2.2032448344899858,2.3848268211476915,9.330911187899789,-0.04740222654479729,0.010831605798610495,0.1998547935962565
1682026902.74625,1.9916307152455994,1.1044730771344209,9.07377286469279,-0.05088622993091658,0.020711546056176356,0.2041224265575297
1682026902.7562792,2.1425089099655685,0.12511382492505452,8.741436062857392,-0.04735275065135027,0.0401948870235404,0.2055014098167308
1682026902.7663207,0.45097172783216216,0.04199456778141987,9.387869401032278,-0.037209842869523585,0.03306945432721598,0.2076119208812602
1682026902.7763438,0.10903358373133903,0.12099717253784162,9.624340459053979,-0.029329796552126884,0.026995612923380874,0.2049518102884181
1682026902.786224,-1.5501943194886498,0.903864801348528,10.43908826616029,-0.030032884607050687,-0.00141498571545474,0.1977475607871897
1682026902.796311,-1.1391314243929291,1.665381381831887,10.599679196156078,-0.03966450561765597,-0.03078672735602546,0.2027757043123133
1682026902.8062649,-0.4033649132993589,1.8353301333443341,10.448560164729692,-0.05228822463334645,-0.05076323706164323,0.2182019377231486
1682026902.816249,0.7701831776418797,0.9942142281893548,10.049417716380264,-0.055352339151054364,-0.05781375196318186,0.2378049666166194
1682026902.826244,2.4791193520620167,0.3094783297703515,9.465630394206793,-0.047201512811492145,-0.03926195601118036,0.2647321397542842
1682026902.8366191,2.7567937651592795,-0.19164662074516658,9.011718074234054,-0.027454792925471927,-0.012949380089910478,0.287201213288296
1682026902.846366,2.0979088514313684,0.08368848383261424,8.939143833063735,-0.014387085749669343,0.008902391638703043,0.3015440577745326
1682026902.8562832,0.3833509412556126,1.7864837750525153,9.376913364103528,-0.023156186583839746,0.0083143424713631,0.3066099459409602
1682026902.8662882,0.5202628326576657,1.6856364393715106,9.886164685175963,-0.03689153589166545,0.009373915488685202,0.308104830431927
1682026902.8762355,0.3756062815529805,0.9974356876242659,9.765115021532221,-0.036123803309055666,0.015486500507540467,0.3066798621892818
1682026902.8863204,0.09272381036232427,0.31847663254240177,9.957382616599993,-0.03357519791516705,0.015414804745473873,0.3016690487146266
1682026902.896251,0.30051274995888694,0.5432253724565962,9.47320360343129,-0.02089820573520465,0.020782460164471633,0.3018964702367671
1682026902.9062693,0.23680392677476386,1.1957879888344571,9.683866051219283,-0.02227782139187264,0.022548387528691323,0.3116660887479671
1682026902.9163456,0.06869846682194741,2.1879004174417997,9.41591896736383,-0.033016636058227904,0.024109281744375426,0.3287365609884151
1682026902.9262912,0.02862794680789619,1.5654173921658443,9.681162708758999,-0.0427898185259237,0.022273412262173022,0.3461091393709071
1682026902.93634,0.003270006380387424,0.7167192984164471,9.594652788159504,-0.04130877696723862,0.022180533529237954,0.3546098644018062
1682026902.946274,0.17504173689309113,-0.11635642968468643,9.872067146274862,-0.03081593456007196,0.020866100141701142,0.3554597372293361
1682026902.956382,-0.30495030820668895,-0.5428091206809483,9.793206585586175,-0.01182241032887137,0.020040581509097474,0.3483226770639308
1682026902.967873,-0.5904462097415292,0.28754872532455317,10.314490393904263,-0.005593164170628876,0.010518118080095777,0.3414220089197047
1682026902.976232,-0.731674255405443,0.7933149768729623,10.107021458074634,-0.005331723864171163,0.004589750466180133,0.3314927691697963
1682026902.9862812,-0.8639021917697757,0.7934393310854386,10.198503506542554,-0.007080226425660307,-0.008104855608887315,0.3255483383417018
1682026902.9964757,-0.526509675413252,0.9316491013716521,9.986268263612127,-0.01085769520644055,-0.016802252929476937,0.3220405453920253
1682026903.006594,0.22517768461598872,0.2975366733428697,9.583335914771618,-0.00361520918893139,-0.019398253478123902,0.3254459673643001
1682026903.0162816,0.3967839712978634,0.20014353999310602,9.407530290252968,0.005192465985723198,-0.017803880364225644,0.3246700042962916
1682026903.0264375,0.6512405964102244,0.6082652794473835,9.285225392981596,0.009775991875265656,-0.012521465231512726,0.3327504867792018
1682026903.0363193,0.9259129921638515,0.44931198372971,9.331418982749677,0.015227445057986152,-0.004548843143641031,0.3414679641008266
1682026903.046227,1.3842115671817752,0.9870295561429903,9.21230351109013,0.012181941695571914,0.013819138462155902,0.36183952038287
1682026903.056374,0.3588962545330293,0.5615541332168724,9.571302892178675,0.015915577765154378,0.015502554901511196,0.3837812120199092
1682026903.066328,0.30045145942397244,0.5140275216033104,9.664005364877127,0.020995434137892403,0.018223496200985397,0.3992434317350276
1682026903.076472,-0.7994582062282298,0.6109293368588222,10.10300826680681,0.025937526974128024,0.005667180411344696,0.4030932063341029
1682026903.0863707,-0.20220126604581917,0.8840110814410514,10.00835627353495,0.025452111967939634,0.00019003776713740647,0.4079012746095546
1682026903.096439,-0.7292146531285962,0.7673961677106312,10.290861090596914,0.024928703133559754,-0.012460035032281672,0.4079595679521449
1682026903.1062863,-0.6500857452514429,0.2924723787300979,10.082929934967707,0.03254855865920871,-0.027751914255037365,0.4122034186601527
1682026903.1163816,-0.2577145993502617,0.311620787575038,9.795957108489574,0.03904492329557946,-0.037022358292556706,0.4170487696409114
1682026903.1263034,0.004800486493827081,0.03843343491186,9.582782897514663,0.049420713744349594,-0.04550237670394723,0.4216189855813869
1682026903.1362672,0.45538470322475444,-0.011629420442735227,9.51974375098803,0.06003126054529739,-0.04686260104749372,0.4277947122335322
1682026903.146271,0.6440146526580329,0.16649038764506066,9.58693192349658,0.06792325862418744,-0.04700727038056089,0.4296271676301845
1682026903.1563728,1.4208649216804292,-0.08102672850544393,9.371631952355944,0.0822185746637271,-0.03813443659658641,0.4287529165029414
1682026903.1665466,1.6143438692204335,1.4141579048288726,9.701723359883886,0.08050227794409713,-0.025650449468360516,0.4321934158086665
1682026903.176263,2.2377058157736247,1.8857170186721735,9.638820831740354,0.0730168058701383,-0.0030347768698122846,0.4330067211866267
1682026903.186258,1.9527571130580081,3.0667832833170148,9.758891522641978,0.05064063520944341,0.017426344116863272,0.4301057035207637
1682026903.1962645,1.9275390648492425,3.2407463559146206,10.01364709145814,0.023698556092222798,0.03328078030840064,0.4315764481305965
1682026903.2062912,2.146398036767641,2.945140341943983,9.767410859958867,0.0060060855649308525,0.05506705058918903,0.4319403344869502
1682026903.2163014,1.6066266446347597,2.1259098742293925,9.717976037816106,-9.09539846242469e-05,0.06903708909626581,0.4289057130098231
1682026903.226295,1.17744690541542,2.836772615739158,9.711718635624333,-0.01499232224122397,0.07759871288377854,0.425857173848141
1682026903.236448,0.4920413244502805,2.5236743265048154,9.900895064279714,-0.025163709072418678,0.07529942181971026,0.4261104339837916
1682026903.246297,0.3330456633401965,2.570937334247537,9.965132552447592,-0.03984890223353763,0.07111959968576195,0.4284023219823726
1682026903.2562535,0.0968222021365993,1.7574643413977888,10.026963569263634,-0.04521736921905908,0.06112865488276658,0.4321347946405299
1682026903.266309,0.6920537310353518,0.43567129597922594,9.68515165537526,-0.03632532240587762,0.05882482112229324,0.4397917861223109
1682026903.2763343,0.7898013059723916,0.18583353943360045,9.546425059908474,-0.024371170422660213,0.06059552430076746,0.4454977983713039
1682026903.2863035,0.9407735370346512,-0.09915739473035332,9.278380920033364,-0.008463675234986147,0.06782613891523699,0.4522077614545711
1682026903.296254,0.07599098305446572,1.052028035640021,9.482759691241371,-0.012857599087324666,0.06582973673403217,0.4538945729017146
1682026903.3062582,-0.39839980210671794,-0.057143762826143765,9.675003591648434,-0.008718446782479993,0.05725013593935497,0.4480593377828487
1682026903.3162656,-0.7160422270438573,-0.2553715025587762,9.6993089870061,-0.003886934028222029,0.04827681477556291,0.4400331849336513
1682026903.3264277,-0.9942794896415384,-0.8097586504244525,9.970782350685685,0.008550006938098716,0.03426336365768427,0.4287620658159145
1682026903.3364017,-1.132264953405895,-0.946188111843315,10.011711052223717,0.017593383968407723,0.01947094160797748,0.4083942050218471
1682026903.3463736,-1.1883547266353156,-0.8449988649608261,10.100875699793733,0.029423092543964018,0.006533151551276565,0.3879651600599177
1682026903.356355,-0.8606730419483136,-1.011753177497126,10.152267547181806,0.041480869726953244,-0.0038785676760935287,0.3710095459699519
1682026903.3662913,-0.5503064307542254,0.17886112747535513,9.920618008406192,0.04245312881124908,-0.010632075193182324,0.3640963310480006
1682026903.3763454,-0.09100726069964092,0.13836816797646473,9.967651120469641,0.04516937797814563,-0.01425928163483573,0.3603604311227687
1682026903.3863635,0.20466351197184834,0.45336987411875385,9.927042682907798,0.04465107825817613,-0.01563272210610981,0.3637495512246974
1682026903.3963666,0.8982423525241545,1.1259584418608917,9.754866809966764,0.039850854193637326,-0.00673828760665088,0.3707766110181697
1682026903.4063249,0.726835059751338,0.9994443758239332,9.650036381831526,0.03908646216102334,-0.0012297379698982809,0.3801759952783473
1682026903.4163315,0.5562524526018074,1.5280274111621777,9.77536476686238,0.027822390760759045,0.0017783807146233106,0.3896432096242793
1682026903.4262977,0.013537521241616822,1.2556164194727,9.760912639130707,0.026331067125049953,-0.006448014869288631,0.4001607770204433
1682026903.431522,0.4016704098880399,1.3453833960854182,9.84779669349236,0.023516548106483355,-0.011086161030710003,0.4075843865156062
1682026903.446323,0.9377382432936452,0.6204029061666176,9.695465842421468,0.02569147139741505,-0.01112176903460918,0.4100706154584773
1682026903.451389,2.1521029554944917,-0.45963835040716133,8.907576153427904,0.03798085003011905,-0.0005326930466348928,0.4061838859796413
1682026903.4653225,1.558437415572691,1.3669059479804035,9.694131976440795,0.03242120092369814,0.013426076253488229,0.4016306275606044
1682026903.47537,1.734994751826185,1.6027600597247895,9.758764979288253,0.022962181778273427,0.025524058988621964,0.3945979947328456
1682026903.485314,1.509165878139561,1.4662364145684903,9.749800256039839,0.01474282047343611,0.035350974868220496,0.3876476461171992
1682026903.4953055,1.2446777585068893,1.2583871997585636,9.964804815209257,0.0046608638530356026,0.039383951117262714,0.3783567125081905
1682026903.5052967,1.1250725356765823,0.44027107141055377,9.875162824684509,0.006226593153527266,0.04393424090946072,0.3687507385492213
1682026903.5153291,0.9731000498957628,0.00779079248959432,9.778576416233193,0.011922473679126681,0.04634018260919702,0.3590249294519313
1682026903.5253208,1.033485456729741,-0.17796958666358195,9.447161733872928,0.021334402548655224,0.05101798010658457,0.3518872732400783
1682026903.5352905,0.404140693070578,0.060235665161024236,9.573466894654464,0.026413220727057287,0.049089548631905164,0.3471930498361476
1682026903.545287,0.10707732473285453,-0.27275547925095384,9.579971926310842,0.03456905107505145,0.041314203967801055,0.3449009234189876
1682026903.5552735,0.23472163269026083,0.3195986601382967,9.653273754664061,0.03616635594737245,0.03673510744853954,0.3502914780855067
1682026903.565375,0.06440834951403122,0.46404730386138276,9.843331825683135,0.03603990231247164,0.027805308733411527,0.3573555821657069
1682026903.5753045,0.302965314323848,0.08871367686266138,9.801081050811566,0.039013443823448346,0.025037679251944285,0.3632692271947749
1682026903.5853014,0.2729927978618801,0.2512827125826411,9.839331894439425,0.04454560465272178,0.01926094959611966,0.3687786335229762
1682026903.595282,0.5774191440693612,0.3323859751623738,9.59683252638196,0.04808146388924696,0.02068376282782645,0.3715879792451747
1682026903.6052842,-0.296483287824191,1.0604335916228353,9.982797118108397,0.04221222633794611,0.010096421002270012,0.365535067963589
1682026903.6153817,-0.05269514374802786,1.5572325789058663,10.130230553145855,0.03125107382850721,0.003037977285250839,0.3591696495294459
1682026903.6252997,-0.03834521012199654,1.04212275666117,10.268060951151236,0.024833521964221245,-0.006141794392689106,0.3481755728006251
1682026903.6352887,1.1692136376028546,1.132464289069695,9.948654374625818,0.020512848221814626,0.003722157027042079,0.3395607048749812
1682026903.6452978,1.3140998504856454,1.1960197033580164,9.775281941103518,0.017644652523827235,0.01694671297745371,0.3309654468774684
1682026903.6552892,1.130281720986567,1.371026850416539,9.615220984400578,0.011183175602372001,0.02818304681476536,0.323806541609753
1682026903.6653504,0.8282213639403397,1.197180165781607,9.543971321817986,0.008457841598265592,0.033835219524401765,0.319006519961346
1682026903.6752844,0.503490837288276,0.6619201865922684,9.369841567273479,0.011127898345443508,0.036782680019080874,0.3162070388078578
1682026903.6854837,0.3097592680362264,1.0785558935639195,9.449479770092365,0.006858844761305916,0.03481100664623172,0.3175744885682948
1682026903.6954236,0.2903519969202186,1.0549984789768478,9.44939943951803,0.004640734348678107,0.034256576981025404,0.3218652481317409
1682026903.7053745,0.2792663180470449,1.2284703430999155,9.720010671799589,-0.004140440037919474,0.0290632102933184,0.3271911615610011
1682026903.7153933,0.41240368645318537,0.9608305595642931,9.868455282937648,-0.006065681753901064,0.02890588990050238,0.3287973279237636
1682026903.725426,0.9247753875664805,0.8535981124610507,9.780151241311492,-0.008096461021998973,0.03702567439517013,0.3319632882356532
1682026903.7353675,0.13719499594578213,1.1804444045251121,10.128216024391927,-0.014121122063738058,0.035458927968522666,0.3303799802541621
1682026903.7453406,0.3029130020216259,0.5850268398515986,10.224561994613506,-0.016008560200283736,0.03625471574830599,0.3204731518506892
1682026903.7553234,0.2095393529513242,0.2833190456125916,10.021432581118535,-0.014025382733143134,0.0374512060236194,0.3109617704629787
1682026903.765343,0.22728460198708295,0.6958615296165033,10.043502387411275,-0.01334568765486492,0.03533378262392056,0.3078858727693446
1682026903.7753334,0.44343283061707495,0.2043898772106263,9.741755506846186,-0.01399160973999161,0.03939020481243419,0.298783975291241
1682026903.7853675,0.6933467068610777,0.415294301579918,9.516180373410453,-0.017394328020404096,0.04603504824246978,0.3016704196214564
1682026903.7954006,0.3153599372208485,-0.03263374800401491,9.600998610226897,-0.012371558544586478,0.04510201046152232,0.3078827137231715
1682026903.8053994,-0.16008688886256772,0.46875487714105,9.581975901809178,-0.014159996923774752,0.04267590668356835,0.3194405013799556
1682026903.8154323,-0.437858243389549,0.1748259155643208,10.089584068844225,-0.00953371644222177,0.028692473717722478,0.3286429220914729
1682026903.825326,-0.3008789984440413,0.1304110005710661,9.758201051638663,-0.004947475130394629,0.021634018171722058,0.337238120484341
1682026903.8354173,-0.0611756794637906,0.4050292136649419,10.090915885667826,-0.0024629071024851144,0.015191621343917838,0.3428423578023799
1682026903.8453808,-0.06893181325539863,0.7175907176181292,9.859806061633293,-0.001593857812911775,0.010999555408466803,0.3392165178537257
1682026903.8553617,0.19930605842501248,1.0089669172402904,10.042861126917892,-0.005222496348216605,0.007168582033821934,0.3347590142965205
1682026903.865351,0.25433932813307103,0.9729474900589534,9.985606579473512,-0.005122526479529003,0.004771775690206918,0.3273736709833034
1682026903.875382,1.0674876887010565,1.031187147545696,9.760401255763083,-0.006994898094566466,0.01572655541679838,0.3201967949151881
1682026903.8853445,1.4107255453193297,1.0731000138914413,9.569701193983072,-0.009350208312091416,0.031024872872617487,0.3155853921651729
1682026903.8953362,1.062619571274776,1.329273368802357,9.603535552527134,-0.017321183296509633,0.04233260906878165,0.3162179762601741
1682026903.905326,0.8612845709086797,1.027341073478093,9.9462953283013,-0.019987072215823645,0.04809927687083942,0.3174087280511745
1682026903.9154246,0.34589812433733114,0.5155648247282758,9.79272817058736,-0.013157243967578284,0.046961844656987946,0.3157166713952907
1682026903.9253683,0.3649798193751877,1.2310156175283855,9.96806349834839,-0.01841030852087865,0.04840608478803494,0.3111622506856807
1682026903.93531,-0.4575349060347573,1.7783891706549917,10.107757207814583,-0.03403628752723838,0.03619243693567674,0.3086322123288997
1682026903.9453154,-0.3440515256143819,1.1320458136631282,9.778497332902688,-0.04280811245757867,0.027523719013654715,0.3160051280736812
1682026903.955312,-1.140889254749442,0.9153019612392794,10.01288275563331,-0.04918012180878931,0.0011812870868558915,0.332003163743008
1682026903.9653175,-0.4244430366108281,-0.5742230182366351,9.656142593079117,-0.035359334827859926,-0.014619939513125372,0.3408126408338435
1682026903.9753509,-0.29612721809034237,-0.3127408534979772,9.566787606356186,-0.02177406307839765,-0.028822786930515123,0.3502431387185939
1682026903.985348,1.4008719188688037,0.13050477458534177,9.348726681181233,-0.009215988691325056,-0.022048510639146056,0.3624824458837398
1682026903.995395,1.3988870752278686,0.19468089332917166,9.211380895484718,0.0011794516003453411,-0.011438784572016645,0.3634636277437099
1682026904.0054116,1.9212462328219297,0.52774743366844,9.534210846939873,0.0075138535556093745,0.0017016426546246951,0.3643577570199855
1682026904.0154252,1.7390290215949427,0.7776246821903833,9.6530347663593,0.01273022571153873,0.0168095980777262,0.3603009754896052
1682026904.025344,1.9561457826750654,1.294252391660699,9.850541007040642,0.013567368902753148,0.03307443567178519,0.350365447449673
1682026904.0354586,1.425530715487797,1.9335557598827482,9.998889305314274,-0.0007545169702816968,0.047316372468250364,0.3358525807142146
1682026904.0453904,0.6544984779446583,1.8024339068717032,10.118681014289823,-0.009733685019564226,0.050320810168102956,0.3271801048993953
1682026904.0553775,-1.0421553187202723,1.702184423057685,10.312541589391122,-0.022539415196336197,0.030342927210027217,0.3208204085111507
1682026904.0653267,-0.6404965806429495,1.606485313996669,10.164695089460164,-0.03208388950106671,0.007617476222217408,0.3161071712255366
1682026904.0753293,-0.3749603307655181,1.8334462491000416,9.962336286690963,-0.047154244004056156,-0.007848831011403537,0.3202501112699397
1682026904.0854206,-0.2643264897061678,1.2552287100074089,10.02607981377686,-0.05697474434995902,-0.024009471859572216,0.3288624161958583
1682026904.095414,1.1509801227691758,0.9418668324556099,9.746825660445984,-0.057118449127171636,-0.023367342089512386,0.3400689834833034
1682026904.1054788,1.0486881992246249,-0.03881887279742811,9.672313093783789,-0.04710623849146898,-0.02101944758530827,0.3484385186910518
1682026904.115499,1.8306483483214389,-0.4000566585205019,9.427943572081798,-0.026574391703525557,-0.007900333487325904,0.3608783656835445
1682026904.1253653,1.903026684103086,-0.08268748013363822,9.343128920589269,-0.010164944281997454,0.007540405044444452,0.3714966649293788
1682026904.1353395,1.9411243423969429,0.7680652556313712,9.578570464633644,-0.0041446039991419005,0.021348715219413696,0.3793102080106624
1682026904.145334,1.603015245804792,0.8636180070938543,9.733203028836392,-0.0015137650683409037,0.0323893669208167,0.3850128525972255
1682026904.1554768,1.0885149009880495,1.6482886087119697,9.80753290211652,-0.007506752041744634,0.032920733876642704,0.3917060965776332
1682026904.1653955,0.8115765822656119,1.343877809860422,9.923142853858906,-0.012099718392601426,0.02961010462931312,0.3956659609556087
1682026904.1754107,0.8265235120355446,1.470114154451264,9.788689594233778,-0.020472461351351525,0.027959288933589253,0.3991418058156856
1682026904.1854224,1.1226700450622624,2.034147028872457,9.76543302615667,-0.03144039187427561,0.022247352308290353,0.4037513310193904
1682026904.19535,1.0783939760374115,1.5368677388320011,9.662663159429005,-0.049172430773476855,0.025683600570368312,0.4002442831277736
1682026904.2053542,0.809888503551936,0.5125258666295641,9.823048890998612,-0.05137245705067131,0.020148048042155947,0.3971153373002895
1682026904.215503,0.33363039411542367,-0.812964840530771,9.527402774124177,-0.04283932908236304,0.018607624031609708,0.3885788196802028
1682026904.225361,-0.35212932603406305,-1.2216542172607199,10.042211487981733,-0.03268962480995295,0.0038745608992897976,0.3767382079839595
1682026904.2354286,0.5441254083842719,-1.7964801956923746,9.59392455450336,-0.014785741815184364,0.006337150093367943,0.3689639443635829
1682026904.2453809,0.8875245278265388,-1.377038567310263,9.681969119475927,-0.00414565637750816,0.013007164389565446,0.3649159247159846
1682026904.255407,1.279387242812408,-1.1173301004862197,9.42993243800361,0.01288293975347919,0.026126389331969823,0.3589046770810969
1682026904.2653706,0.6869016685720822,-0.8062376984309763,9.734091991681385,0.01669544523213042,0.03293983805806184,0.3494452411413081
1682026904.2754047,0.22311812992979035,-0.3624711820610539,9.177969540794043,0.02807025177528446,0.03942386639178861,0.3369737142801173
1682026904.285409,-0.39370996625836346,0.10836311349904926,10.035208953198051,0.027405644264150462,0.02920414350458082,0.3269699091195949
1682026904.295475,-0.6918740261648001,1.0724187810533543,9.50690484906287,0.015085148011903063,0.022226366410511848,0.3207508498906978
1682026904.305349,-1.1641948406694098,0.6133865243491139,10.161797882221814,0.010911994670330421,0.0005649596638896715,0.3223157698392757
1682026904.315471,-1.3816166422516698,0.8227841291394639,9.861307706969397,0.0008041455067209193,-0.02074835214771704,0.3345561498880275
1682026904.3253677,-0.41867475941266946,-0.1980737456493297,9.916965241367746,0.008653082226972551,-0.0356663587655851,0.3436041647672542
1682026904.335421,0.2646660747786028,-0.0677334692047966,9.507103260797106,0.018602721711943757,-0.03463054892344497,0.3559069806814082
1682026904.3453765,0.7680053227354693,-0.03053927436263766,9.654502443230113,0.03178078290541535,-0.03163420708785843,0.3646428758382686
1682026904.355402,1.561003146903421,0.48186598491419635,9.485680755448465,0.03978312810644068,-0.016448703984179122,0.3723921055078395
1682026904.3654442,1.3115825624222937,0.7222304425829715,9.460789670819722,0.044545108446791715,-0.00011346312256288128,0.3684100682020076
1682026904.375381,1.1780720574066685,1.2382279060316708,9.863721450891088,0.042274161619092844,0.009218389801044351,0.3643538827180751
1682026904.3853755,0.9959697566911934,1.7545890246100553,9.67985906880754,0.035426545993969966,0.02160448876084293,0.3548281366109737
1682026904.3953726,0.27879391214255,1.8299526480165729,10.497214857862213,0.02487048310352425,0.018172805282813603,0.3412631923437007
1682026904.4053905,0.26482473013691576,2.1063642505099676,10.3271654987841,0.006388316495511726,0.019501246913225308,0.3249193007230647
1682026904.4169874,0.2205377414979756,1.827578771479654,10.176554068121249,-0.003445222397910926,0.0180053416755651,0.3191459054231532
1682026904.4253469,-0.3511944491885994,0.7919864504742202,10.14997918371895,-0.007998369938731847,0.009124262667524292,0.3151177639245875
1682026904.4354389,0.031842261362739585,-0.16460781840184668,9.306473708917371,0.005669389832433296,0.005857941119384819,0.3129739338636287
1682026904.445395,-0.16888191384019044,0.36682075352827503,9.614399422443025,0.01125898644618876,-0.0035000536044599057,0.3117681318998225
1682026904.4553776,0.4833019900489442,1.2376345454307385,9.365862044915835,0.008281710700084351,-0.003678989991931868,0.3164597625017055
1682026904.46538,1.0210190269131816,0.8030484933460111,9.94104031886679,0.007971093563977762,0.00039583834872431687,0.3185282820939906
1682026904.4753935,0.38862537497385324,1.272258578443584,9.672709884695262,0.006630063196197608,0.00509638722951347,0.3066881472349055
1682026904.485407,0.9614556896813911,0.369538367986326,10.465052837214756,0.009686634881590035,0.009007336412223068,0.2931093150853999
1682026904.4955163,0.5844931031568992,1.4414542041535119,9.700526509560179,0.005252575949616171,0.016737499455771056,0.2787267441034206
1682026904.5053642,0.8237323526582536,0.8793066673391273,10.188079814833017,0.0033720617666304965,0.021029436808788726,0.2684601420640834
1682026904.5156455,0.030748191241569592,1.3704294136292645,9.898362934806645,-0.004725453898336654,0.01558591682904374,0.268979298520077
1682026904.5253935,0.1271659595504385,1.1307614126641816,10.113013626329215,-0.01222267525083222,0.009226370046935191,0.2642178708791621
1682026904.5353796,-0.39531014415994503,1.2333833445335638,9.912112209633817,-0.019567515742384998,-0.0015039696818045507,0.2684333199739345
1682026904.5454352,0.14918924781665732,0.6461047776855563,9.83211848610316,-0.01855009004693265,-0.010812323191664983,0.2731357092141994
1682026904.5554705,0.16125382290060575,0.8353636272275164,9.801220755128167,-0.02380698254758423,-0.014552859220484136,0.2804322416067012
1682026904.565394,-0.04061520715786793,0.3076294999084919,9.659823821934397,-0.017928916365323365,-0.024907830036857467,0.2864178890466579
1682026904.5754642,0.8445773689871598,0.16257339560104409,9.641845990409921,-0.018848225509317206,-0.023968260246342122,0.3026493663072475
1682026904.58597,0.7014144389301258,-0.6260372698480362,8.998028541457485,0.004475368320083557,-0.023680652510178077,0.3149466985940822
1682026904.5953622,1.4118272995728889,-0.9235881260770563,9.38243476133301,0.01941920678914934,-0.017143989392303133,0.3308876330137141
1682026904.6054838,1.079099674276,-0.5556941450226666,8.9221707693966,0.04270571971866492,-0.013938765126415911,0.3418831104516872
1682026904.6159136,1.1336328970849574,-0.24388310720918502,9.284240502660836,0.05372092792486969,-0.010341713862331379,0.3487986797571071
1682026904.6253705,0.7641579364813664,1.5729453792800963,9.429307459862889,0.049963081409907954,-0.015616301831757906,0.3562773937463649
1682026904.636768,1.0478698249249776,0.7418892317306027,9.983994345414521,0.04435120175396126,-0.02056570109235801,0.3579988950967677
1682026904.6454644,0.9550777694367022,1.6054652739402873,9.82093917785318,0.040778557663253924,-0.022888244671919283,0.3615420037984737
1682026904.6554077,0.8520018120211957,1.0213599387891306,10.519021354472383,0.034452395934717446,-0.033967118344429684,0.3600030416726955
1682026904.6653934,1.5167652352636538,1.4257431318424676,10.263162850557077,0.033234519689900155,-0.03373530048618994,0.3642626876115687
1682026904.675443,0.8004332590904357,1.726358029499743,10.257563244628004,0.023959468281088324,-0.042643771976597855,0.3592859083890803
1682026904.6854994,1.8385515190381134,1.9093240089152166,9.81206971357088,0.010629808535747477,-0.03732022967578496,0.3719860786676295
1682026904.69544,0.546082705903413,1.0286245270092922,9.959628391205152,0.009202878338862894,-0.05218988987611831,0.3849568838357814
1682026904.7054112,0.9598562345958446,0.6397676183841708,9.330600920515696,0.008866497593351518,-0.05602411973140813,0.3969341391801723
1682026904.7154908,0.9484423722439516,-0.190501486830259,9.504475345519541,0.024823824782045263,-0.06430753603734893,0.4092998379945644
1682026904.7253995,1.3229538248910435,0.020962114308308445,9.138918531788402,0.028450078127707314,-0.059352458184113624,0.4177039736986049
1682026904.735392,1.5647243954208132,0.11059886770871075,9.56281647065849,0.03776033984898766,-0.057036949491158596,0.4222319895505794
1682026904.7454314,1.4224940290541743,0.7337780710677624,9.55256638139765,0.03435859378905396,-0.04965991515153915,0.4217529768228419
1682026904.755393,2.0003407407019678,0.44749894361232995,9.837342350464416,0.03409641771039206,-0.036526408625263476,0.4221520597219356
1682026904.765379,1.8988092876704556,0.617703240036618,9.746673953326399,0.03635773561217263,-0.020946452560177818,0.4155153209447749
1682026904.7754517,1.6106804202312457,1.08253860285813,10.041219408986915,0.031593994051045356,-0.009521460394783979,0.4051820213079341
1682026904.7853808,0.8737347013425353,1.4739254001714421,10.18112350934885,0.016543497200217396,-0.0025229467515340658,0.3940554732561
1682026904.795415,0.5082627091909208,0.14887364713646734,9.791194469550948,0.017724324396975674,-0.00025853248764069633,0.3822960728883632
1682026904.805473,-0.13389079754762992,0.05230078909943713,9.49173776968013,0.01899056751068955,-0.0038350768498956857,0.378089862513531
1682026904.8169422,-0.2060543224710296,-1.2667539644570103,9.43076595288191,0.03339748991322402,-0.01265792140066971,0.3786435300588496
1682026904.8253975,-0.06096561915166055,-0.7480825701233442,8.958011973409409,0.047659754842850406,-0.013486152492238479,0.3861782128095515
1682026904.8354075,-0.4096440411217239,0.09050467665656192,9.742062090538562,0.046030670816550226,-0.02343471964588085,0.3921457106351741
1682026904.845404,-0.13214847896886017,0.012527965821760589,9.856526532750536,0.051941705014304465,-0.02646749632002201,0.3939563805341609
1682026904.855408,-0.7380338141404803,0.8152072194387072,10.450626423952313,0.046038067758307114,-0.0383177349311087,0.3850530857324489
1682026904.8654149,-0.5843942016843615,0.6934096500452236,10.490295780254586,0.04159679246934095,-0.04988924344155462,0.3700768524885066
1682026904.875389,0.11454491663929732,0.8032396403991291,10.531798392552224,0.040284951518448124,-0.05603277961605001,0.3648621017217525
1682026904.885419,0.7633544750225544,0.6202014698616625,10.012179177817414,0.0449373825453977,-0.05665641066869371,0.3650995070218928
1682026904.8954089,1.9099367791027906,0.9328259440098574,9.587439699761605,0.05356644685874971,-0.042356328243487576,0.3701373512029536
1682026904.9053771,1.7829436689475002,2.1432811576694686,9.529488459211715,0.04715194039743433,-0.03257564587772931,0.3835082525491603
1682026904.9154873,2.387381058473998,2.86903446314998,9.102526493045044,0.03132483793753421,-0.013671203067855305,0.3976422721624263
1682026904.9254048,1.2695391171583392,1.9493847978639018,9.165708690261084,0.017594359880233248,-0.00856337383406055,0.4058433944463618
1682026904.935432,1.1176673956710355,1.7307872186923021,9.018496053160534,0.011828607136838086,-0.007557009410450739,0.4105965966462978
1682026904.9455435,0.4441095898157548,0.9970023638605398,9.316839586444841,0.0077749246684731136,-0.0137314029209531,0.4059631401777156
1682026904.9554358,0.8362205998307849,0.4068193502195208,9.921145804983825,0.012237771965829362,-0.01962669464069132,0.4006817514181026
1682026904.966274,0.9875281484793416,-0.17076654232071808,9.945604532577324,0.02807066234905299,-0.01913506518155337,0.3841398829698451
1682026904.9754422,1.2825928659024957,1.1588644313456393,10.417499339638585,0.024494918864593315,-0.015158206204552981,0.3659596318483241
1682026904.985473,1.1678643036017833,1.3815153698871359,10.409773092586619,0.02008044971778852,-0.012998472486299248,0.3501883024454005
1682026904.9954426,1.0059287193371544,2.522878535956427,10.284396152570585,0.0008107076660949935,-0.012742785235267479,0.3414871269941218
1682026905.0055327,1.2152278742335159,2.2040041387430604,10.039490264268474,-0.020719544189681586,-0.009531886136953046,0.3426457220792659
1682026905.0155623,1.2574939253471389,0.7868314763284013,9.345570649449712,-0.019312647051297264,-0.008935082050245057,0.3515957767248042
1682026905.0254772,0.906519617622128,0.14142407302882654,9.132368785340569,-0.015947546693954047,-0.009986447366087796,0.3562211865663417
1682026905.0354712,0.9840138054948714,0.1778166801780496,8.793686534623932,-0.014399337999392914,-0.00732879321916765,0.3702647263288386
1682026905.049228,1.0374872284185306,-0.40772274008405157,9.008291750572456,-0.006639412880128535,-0.0036968574288577687,0.3856294924497493
1682026905.0594504,0.84356057056953,-0.30636431150289195,9.423209573019118,0.0023933579860344147,-0.005755480566929341,0.4010704333066829
1682026905.0674438,1.301635563834513,0.23518202097274718,9.84164020543575,0.004370376754200103,0.002057675906605193,0.4013375217199214
1682026905.081922,0.17607426856612757,0.9420608909127353,10.514558752820827,-0.004297424176171841,-0.0002653701377638659,0.3839981729268916
1682026905.08539,-2.40562271057425,1.3858619030563506,12.11640543394536,-0.0211374511123351,-0.010886130852240357,0.3559346968412288
1682026905.0954354,-0.4727538940040172,0.9304802851876225,11.030081994444563,-0.031002779677157005,-0.021454621205679456,0.332955437350262
1682026905.1055818,-0.24408061381850102,0.33161982272066226,10.579707608424371,-0.031741101190503475,-0.029636211889166195,0.3131748015165218
1682026905.116127,0.5986372596234937,0.4856141507432938,10.118076231761613,-0.03291982721563674,-0.030537418619577216,0.3075652891874202
1682026905.1254551,1.3278285693784664,0.6477036400706887,9.209989372277066,-0.032978017503769066,-0.02164176640529425,0.3157735938310512
1682026905.1354885,1.0429856351272448,-0.10392253745576079,9.049616734009813,-0.026050068190235587,-0.01705549284348701,0.3240511888742335
1682026905.1454823,1.3549139595108697,-0.010231086460728237,8.792078470481224,-0.014763972670651293,-0.011014996876776768,0.3446466798066981
1682026905.1557326,1.5189588909999332,-0.21727829079238067,9.040210402208784,-0.0037823942731131685,-0.003388107450036467,0.3584567779779323
1682026905.165507,1.9637374897290254,0.1948511735582912,9.170020988733611,0.008429693601181927,0.012314527525835658,0.3642374748468288
1682026905.175541,2.0829563894848255,1.2443139101095806,9.792225137293046,0.0016843324712465261,0.029727115321901917,0.3629438156366237
1682026905.1854477,2.060784409486218,1.160031237222133,9.864628124528801,-0.005012632385677809,0.04920954624806312,0.3560334617376216
1682026905.1954274,0.8343764067471969,0.46461719706291754,9.897054974187709,-0.006975900187138936,0.05473732422361879,0.343376922059048
1682026905.206596,0.44246551989222244,-0.38354350692496836,9.64454394654622,0.0003519472904176324,0.05629333037116773,0.3302653307199367
1682026905.21551,-0.7529510725844775,-0.531898193635724,9.81733298871777,0.006107679325430998,0.04261835257649157,0.3206842417001613
1682026905.2254212,-0.8313876046737712,-0.7806768728945057,10.0152517959646,0.014308056261577044,0.02324887644161911,0.312827902483929
1682026905.2354217,-0.6155435656818924,-0.11244510658728772,10.11693678601762,0.018471149965212576,0.008920011909771723,0.3094112748384364
1682026905.245542,-0.03270912557018444,-0.5666347191682651,10.10675744222398,0.027507412156535353,-0.0011342881668210535,0.305330115008343
1682026905.2554617,0.2770640385226912,0.29514312317389996,9.759240211273498,0.031235814942560593,-0.0025409849099459277,0.3039848083734401
1682026905.2654898,-0.0873990371962182,-0.13291079956460983,10.388676080933283,0.04124080060590206,-0.023442901917856078,0.3077385598897822
1682026905.2754743,1.329823259733586,0.5788656591041137,9.703514781925042,0.04777842480905055,-0.020823456009536303,0.3033054346322902
1682026905.2854943,1.5658054379829014,1.5395692899496936,10.108305404084303,0.0422764405109254,-0.021295202257396437,0.3029033715009578
1682026905.2954504,2.6607647872019475,2.0950515545504946,9.907202922303,0.02857719308471404,-0.004828251057400307,0.3032159978628047
1682026905.3054545,2.247830906883557,2.36409024622436,9.686104417517946,0.014817795111227253,0.009588472031715227,0.3055174822091945
1682026905.315545,1.4536657439879312,2.515061873185071,10.110356517901245,-0.009260878941189703,0.012184383200541864,0.3076785380124934
1682026905.3254614,1.0057547109020029,1.0780824953313048,10.130381325911424,-0.015643289310277985,0.006200815231380584,0.3123291010141261
1682026905.33544,0.6525221747847157,0.7814221093558197,10.110682842710764,-0.0148877237960696,-0.004431161042675512,0.3136136109113582
1682026905.3454366,1.7501037311072984,0.30836876843445626,9.995143422213665,-0.012467003786089054,0.0003704540030133038,0.3154661530732997
1682026905.3554854,2.4270567991021204,0.374049045939632,9.793632842082783,-0.012701300927541159,0.018143432251545574,0.322679775404919
1682026905.3654752,2.4807486780561785,-0.2606467061479403,9.568955888733795,-0.0031953262185588625,0.03582413971848189,0.3376044506311305
1682026905.375485,2.508424999142178,0.2865850018511433,9.342211310125684,-0.0011447546620505517,0.05431915723463176,0.3558100337266811
1682026905.3854935,1.5536131165294333,-0.766043944421833,9.370525737800627,0.010649443929131681,0.06153205835460106,0.3692513281583675
1682026905.3954945,1.3226561132706263,-0.5236192857702,9.267859113185217,0.018082828759796735,0.06743302731950686,0.3807326728582271
1682026905.4054482,0.30992159220023763,-0.9780232015440362,9.23959845565426,0.03600593122126356,0.061561823654576436,0.3916915232419856
1682026905.4156148,0.11699464810491295,-0.48428915228794756,9.736145036211422,0.04340213484789215,0.048515429620971454,0.3981487030267604
1682026905.4254444,-0.9245260253665053,0.033996171163621434,9.512088077385863,0.05274580645602565,0.02921387787530111,0.3980963701486476
1682026905.4354515,-1.6734292049024029,0.596815601049799,10.536238256854627,0.04412607070871033,-0.011925185140384233,0.3794999295949824
1682026905.445451,-1.0398661828962357,0.511773266680778,10.19338574848933,0.04195919168697487,-0.03978032452827627,0.3536815220594295
1682026905.4554322,0.17548566387011857,0.7945061743504209,10.626016347444686,0.03967846948856426,-0.05985095418689147,0.3323512250661738
1682026905.4654555,1.0209466909338751,1.030014055500057,10.397519735138987,0.031470700781117474,-0.06106429184128521,0.3050739938497432
1682026905.475458,2.6297912294742067,0.793361911511126,10.211118501737383,0.03202894307419221,-0.04706000398126775,0.2880923623323329
1682026905.4854364,2.913849721947657,1.6866351723786526,9.506452474673921,0.026326493317258007,-0.022210393808801437,0.2810532325982936
1682026905.4955142,1.8041336455213246,2.2750098176250235,9.85298898444886,0.00981541854537849,-0.015000935461846346,0.2733930820703395
1682026905.5055556,0.8020198144321985,2.6297859318773233,10.194681011210465,-0.01764778087642568,-0.0217254851522057,0.2717811340570338
1682026905.5154488,0.5527767518540329,0.9362078793131378,9.792540754847696,-0.025696854157117137,-0.03133289608046083,0.2765533203363307
1682026905.5254903,0.5379714632374987,-0.31050425672681653,9.464475586885326,-0.019101365033967935,-0.042746778760429496,0.2848186666250117
1682026905.5354538,1.4765479804336823,-1.5577761599889313,8.948599600623446,0.00664056532814303,-0.043715516897507835,0.2957216376542934
1682026905.5454795,2.158016940374914,-0.8241348015902921,9.005004709070226,0.026678981790565784,-0.03260472766656902,0.301996933865536
1682026905.5554626,2.1974754454958645,0.1337719681396705,9.276537170849592,0.03352991326848555,-0.0142355246799996,0.2980193073034175
1682026905.5655107,2.4777054351166736,1.489170641233604,9.627878031866304,0.02137784267429867,0.006978725213600295,0.2920049006223567
1682026905.5754378,2.3321471218563268,1.899725975600786,9.904926409353289,0.0011143955448349758,0.029241000678475196,0.2890000814676173
1682026905.5855072,1.9483063379955348,1.6734703422506105,10.115715755707226,-0.017254317273976538,0.04273797671004526,0.285388069796551
1682026905.595471,1.2513953404238185,0.9131751102319461,9.801995588251962,-0.023182114732914268,0.04977691562552242,0.2764716619729884
