time,ax,ay,az,wx,wy,wz
1682026505.808056,-3.090909850470267,-0.4813224356631939,11.981200641641468,-0.03071286349106547,0.01113812319893143,0.0727280626177676
1682026505.8181288,-3.0540908734140366,-2.911375123524049,11.216682359532168,-0.008255549060551159,0.022980215685965685,-0.0176350878447405
1682026505.828249,-3.1498406430362538,-2.3292975494573733,9.699554408363165,0.02017988456782649,0.03215089414905262,-0.0847308983922116
1682026505.841401,-4.3779035111366404,0.8295289128274931,9.10103753200377,0.00954263152230752,0.014071670750488154,-0.1296505307674519
1682026505.848223,-5.713352435727478,1.2902582070033166,9.661636924320252,-0.008066033492160037,-0.02046672511251721,-0.1433631902456395
1682026505.8581946,-4.527250437315035,-0.3779934908154622,8.926049248385953,-0.004602347754444576,-0.05836827576606263,-0.1401029502868764
1682026505.8680851,-4.228552595715836,-0.9727580372962732,9.49268046454644,0.009932965249237546,-0.1114509640913005,-0.108305839252483
1682026505.879509,-1.6553879430835696,0.8186872554487115,10.12031100156455,0.009380002998702832,-0.16034225658110832,-0.0404580769956223
1682026505.8898258,2.1536506269949935,1.6018431823731218,10.81605894430422,-0.0051143526113810065,-0.1756688396856849,0.0291754925727732
1682026505.8983865,6.106560471168225,0.9200557045849523,10.669876061059442,-0.008861339736693645,-0.1457347115689302,0.0801543170690425
1682026505.9093182,9.067091492409572,-0.960279298488956,9.919194161355614,0.010817606164123849,-0.06299979886895721,0.11952595655917
1682026505.9181623,8.423817014719658,-0.012311552774129769,8.410385243175597,0.022717071456941636,0.019629043485893564,0.1280265325784571
1682026505.9281793,3.818253223576582,1.34995734624438,9.099628353027162,0.011657900959544266,0.04732096143575091,0.1095123613357432
1682026505.938131,1.2289517884393393,2.1944830030291325,9.473544970319884,-0.017399513365512098,0.043831647050580645,0.0810464272379763
1682026505.9481556,-0.07450189778353937,0.9636661159589529,10.065064106863343,-0.039556639302823986,0.015339595751152494,0.0469576070189364
1682026505.9581351,0.9009275850481943,-1.0920535923340782,9.696489676400027,-0.030605810832990004,0.0016913728551414113,0.0081749266117699
1682026505.9699128,2.6819714746449566,-1.3804023915661716,9.556224752950374,-0.012995513046087802,0.019497045503100566,-0.0372398508608452
1682026505.9780989,3.281430047716279,-2.0383315739871746,9.41136078660329,0.0014143983456932436,0.05124502094365974,-0.0753005867719761
1682026505.9880877,2.640918067499485,-0.3401787841131637,9.77497955614789,0.0012576553624364518,0.08458574657559984,-0.0877465804934613
1682026505.9981554,-0.5359853856175013,0.2709288741059189,10.273671278144391,-0.007181251968419042,0.08098832309967312,-0.0815333774209134
1682026506.0082462,-2.1666003723185128,-0.2081927291223166,10.239319259239542,-0.01055552225351307,0.053132269674381956,-0.0657592167973629
1682026506.01832,-2.717643217619889,-1.29688653205191,9.598359256748742,0.006653818668568454,0.019926768902102467,-0.0427245436132065
1682026506.028181,-2.8120741992132006,-1.2249085371383295,9.319662571786187,0.024637553683959795,-0.015499034498111281,-0.0256818843901268
1682026506.0382264,-1.2461497154302812,0.5871075340867312,9.462697332608894,0.026400497688539092,-0.03610468893238791,0.0055652455065287
1682026506.052816,0.4417208703881701,1.8311324444923534,9.734456106930288,0.003762502093437807,-0.029021506245208526,0.0302451351761706
1682026506.0773458,1.0455430130848657,1.0738563223301167,10.486183882401816,-0.022236052882259043,-0.0015264421261523473,0.0437467010795958
1682026506.0800374,6.714546544640072,0.3940417884966744,7.751338089306345,-0.02228913752628252,0.03329036638244397,0.0463846648216136
1682026506.081648,6.117880616660638,-8.74186068212097,4.7787876615804254,0.002185039647320928,0.05649308157595681,0.0374100567877181
1682026506.0883064,-0.13588984164146573,-0.25514066479885256,9.463571189633383,0.007193330627795744,0.06553312272276528,0.0184987211704142
1682026506.1042528,-1.8234406608183547,0.9247967581691547,9.56743349852218,-0.007096250144716396,0.04378117435592869,-0.0057249952934793
1682026506.1118622,-3.2183303821694658,0.8886760774020093,9.776380057284687,-0.02426283617676932,0.017422792592507508,-0.0271692959487549
1682026506.1213942,-1.9174202305747807,-0.6401264331676713,9.41392937945987,-0.02253448623075993,-0.0020992341465524513,-0.0353977953910939
1682026506.12903,-1.0989608290612616,-1.9492741596361576,9.309407662653149,-0.0010765009911409141,-0.008583735524218766,-0.0316335497319809
1682026506.1380982,-0.8982322431582817,-1.3193932964742057,10.207354434826643,0.012235045694665443,-0.016709676860220554,-0.0253835799068324
1682026506.148979,-0.36230505420674003,-0.2800555162127827,10.327575789062953,0.016386586566049924,-0.0181372827677865,-0.0154133191228024
1682026506.1581056,0.2638415333776071,0.6400782546532431,10.408529867827795,0.006114492125222033,-0.010619162907295393,-0.0074736880034319
1682026506.1691322,-0.2889430925109194,0.14073606517909806,10.205725855472446,-0.0005332898116469713,-0.006998964856142943,-0.006817985688161
1682026506.1781733,-0.4943592631772687,-0.18290092827884818,10.030814923093395,0.0007288267403343356,-0.009066553967672723,-0.0072493417084328
1682026506.1881614,0.21092083853866733,0.33821858995292536,9.689842232326665,0.0011591550387553063,-0.003974746417722114,-0.0075004542142264
1682026506.198882,0.6578019005455689,0.6437131465948739,9.42067404850918,-0.0025474386733352616,0.008991111042405393,-0.0061421854317299
1682026506.2083302,0.49138402151270416,0.5993531759938217,9.483227449408519,-0.006108127007691868,0.018813560553949654,-0.0040169706463925
1682026506.2183938,0.034672052424966966,0.613523954313673,9.454949167011703,-0.008092354534847225,0.026388914484121312,0.0018758941895216
1682026506.228248,-1.2171024935582597,1.109840821749525,10.035114261947946,-0.018284415398542208,0.016569581005337158,0.0083625196583457
1682026506.238186,-1.4295024418719475,0.31825030361866097,10.154504306761021,-0.021736077783757884,0.0033259520277540556,0.0092345463216193
1682026506.2481894,-1.2232472852042597,-0.06656106490782246,9.924980084838587,-0.019852139083038907,-0.009230528339165746,0.01229963787942
1682026506.2582028,-0.8411868159550269,-0.6503011151747552,9.695758510465287,-0.011444143836141419,-0.018760180453550126,0.0012351015337631
1682026506.268323,0.031735720806736735,-0.4564140732715792,9.562333576916647,-0.009361358647065355,-0.01825756434755784,-0.0073761235818378
1682026506.2781825,0.7914576227755952,-0.6173729815518672,9.382878358369043,-0.0064142855522137865,-0.0037416782437648464,-0.0130694297969452
1682026506.2881432,-0.10217891962321002,-0.9754710647986947,9.710009471054429,0.0019480876445840747,-0.003337808857315862,-0.0205147521466128
1682026506.2981195,0.2391776519456765,-0.3371525610488953,9.798276644017808,0.004023183404085219,0.0011876397225149993,-0.0148467210948578
1682026506.3081045,-0.40965254681331376,-0.29526695332657804,10.400256202328048,0.0036748222744310334,-0.0025274291873731186,-0.0169082967460267
1682026506.3181727,-0.1437400402794761,-0.1272186850096397,10.282777437886963,0.008122464684994252,-0.004694440521442744,-0.0136572293833009
1682026506.329322,0.45459731452587365,0.4029936304441284,10.323462415662618,0.003809440647356129,0.0001478915409122409,-0.0098548171937577
1682026506.338281,1.3235037924171171,0.46088195976160695,9.679631663949642,0.0026702391329538164,0.015699934062602883,0.0001513570185639
1682026506.3481572,0.987970768178092,0.6527634265499093,9.4960575869189,-0.00305502851512962,0.028186400909229054,0.0078405520051606
1682026506.3581264,0.47069821174301185,0.5500104928509545,9.133304992845419,-0.005490883881853572,0.035919769279555945,0.0148717561840899
1682026506.3681004,-0.38319781216559473,0.5903656974517413,9.241606348047604,-0.0103725927912364,0.03417496446014806,0.0173990788042433
1682026506.378133,-1.4054218936393517,0.3699187042570234,9.609300326790827,-0.013950321512495678,0.019772304669584833,0.0126905102386959
1682026506.3881612,-1.7336728003229591,-0.09545755790658508,10.071281824287045,-0.014666593094273109,-0.0024247135131912753,0.0068070726573355
1682026506.3981862,-0.849467806081724,-0.4676447256289092,10.030729007164066,-0.009139319411929036,-0.012576578009568889,0.0012175577447638
1682026506.408136,-0.19238367950029953,-0.540776242943663,10.103563718299815,-0.005472123906780738,-0.014047357591657804,-0.0078293163225166
1682026506.4181015,0.12092372269749574,-0.806816002225318,10.058006011959979,-0.00021531132614468812,-0.011118094795155981,-0.0169570682466141
1682026506.4293544,0.3652006806160512,-0.908603605840416,9.840083002011333,0.006740835600437002,-0.004366869400057026,-0.021935525712382
1682026506.4381063,0.11760084008914069,-0.8102875289387462,9.690639648992061,0.013155716389469385,-0.0011376685924317702,-0.0210981009423844
1682026506.448249,-0.2650071326242838,-0.5493031567200063,9.667382113800882,0.018354208178297096,-0.003262902237609701,-0.0176143472910038
1682026506.4581816,0.09001688117693404,-0.327431877175102,9.725017996664544,0.022163400801492466,-0.0037666041140697083,-0.0114980976924411
1682026506.468196,0.08175812260016044,0.4565104632702392,9.824272494556539,0.016389647577175766,-0.0022509943614295977,-0.0109280193120352
1682026506.478174,0.10170970887902595,0.3344336306805398,9.900407216921378,0.013220887766490804,-0.0012195264933208575,-0.0095400124684087
1682026506.4882076,0.24695432461217184,0.5265516477616362,9.893651394882108,0.009951570484221383,0.0011326147555237526,-0.0045443795517198
1682026506.4982011,0.4748545320813104,0.5803171182104563,10.004106739149156,0.009327953516104725,0.00521113984905879,-0.0062050226971618
1682026506.508133,0.7362029820631887,1.3645822885475045,9.960455010850646,-0.004390745470756102,0.014203970989584242,-0.0051816528558842
1682026506.5182226,0.4716655487015581,0.9606459011292429,9.812960094240026,-0.010567451212435913,0.01895583990897306,-0.0026135457575432
1682026506.5284698,-0.2511940777773301,0.47779030907745396,9.728974203687725,-0.01572070516701257,0.014849772151823608,-0.0091689027741662
1682026506.538352,-0.3642696562641256,0.03295186866516566,9.452246926277649,-0.012529317177683654,0.00826537006477432,-0.0156069410860649
1682026506.5482793,-0.4536256924797246,0.2570010639705207,9.752413857554506,-0.016704924247824313,-0.0043863657564812255,-0.0199413312494866
1682026506.5581489,-0.07509896441618616,-0.5825173051308442,9.734203068507544,-0.01154668197465841,-0.015079280055043326,-0.0291164083302132
1682026506.5681958,0.978078124803156,-0.6287069440943621,9.723233441086782,-0.008335266507539608,-0.012131603919628042,-0.034633209359657
1682026506.5781496,1.0664214947799688,-0.8226470634501086,9.90891597402987,-0.0017562143300906177,-0.010722534521672373,-0.0358699237823597
1682026506.588169,1.5731276765697344,-0.7249052020495221,9.707433705589546,0.007029029286928083,-0.0017748363547822757,-0.033759945434343
1682026506.5981476,1.513609376241961,0.033461553593495535,9.717572257567479,0.005191568829460994,0.008277955484558702,-0.0327925620496384
1682026506.608171,1.2157665171021357,0.21819398470178902,9.764841302947119,0.0033586594834638123,0.01369140837206233,-0.0300920208811871
1682026506.6181824,0.9465189724027931,-0.19105242235941872,9.73256721860618,0.005638025415725906,0.02034796801684604,-0.0287461852550618
1682026506.6281636,0.4563510249629644,0.10129715339057145,9.982499146581311,0.0041222838388408145,0.02004103732699838,-0.0305160445988289
1682026506.6383169,1.1195936998141638,0.8048029741627885,9.836603436996842,-0.0013122941927769427,0.03321662777085887,-0.0320735921979062
1682026506.6481512,0.9579255318404086,0.7164553787358583,10.069386908946909,-0.013823923253027013,0.04746442180206187,-0.0390730177879445
1682026506.6581511,0.559795797263018,-0.2450421148991913,9.690949961639182,-0.010481595804227218,0.06404015083248582,-0.0451694665372483
1682026506.6681583,-0.9363073402174699,-0.35908806103182406,9.662351889288923,-0.0030529146928005234,0.06312536590772287,-0.0486229000508896
1682026506.678142,-2.165182016447682,0.5451099768315334,9.626980908023445,-0.008041374498964478,0.05064188997904581,-0.0528208700835816
1682026506.6881297,-3.0140120071845637,0.5150972693657213,9.935493695441107,-0.016247166842027302,0.024999456420811115,-0.0562613507628552
1682026506.698182,-2.8602204016077684,-0.1312537962657622,9.861266400304322,-0.015314946749834359,0.002642098434598021,-0.05872678140999
1682026506.708222,-2.5129259912071547,-0.890046899324632,9.936487082390586,-0.006610280599171177,-0.014067404536309757,-0.0660331969976536
1682026506.7181847,-2.1946044203376798,-1.2413888126168937,9.962261464665529,0.009614342641885319,-0.027773546406512282,-0.067983542931091
1682026506.72815,-1.4480499391150297,-0.34868824699990647,9.993477833405231,0.011039525135999624,-0.03340683348175899,-0.0687343602895848
1682026506.7381744,-0.8800084354617717,-0.008463394070459105,9.67528072338652,0.009478576163590602,-0.036496466737562336,-0.0651648765325657
1682026506.7482798,-0.16037823052990502,-0.3874140770426374,9.800582874763801,0.00848876634000044,-0.03677534832114566,-0.0573633586883656
1682026506.7586176,0.5583035080660551,-1.0754903953262513,9.544477433228849,0.018380250526417476,-0.028096759134006628,-0.0504898590862862
1682026506.7682035,0.8054783705254634,-0.5339235443575852,9.597326505917572,0.024176385115234487,-0.020419538846475512,-0.0429266406118981
1682026506.778366,0.9098999482577119,0.44083178371612547,9.768616989367525,0.02090002165177092,-0.011827397366488605,-0.0445706894517056
1682026506.7881806,0.7004261759958325,1.1346108611754122,10.153078746269463,0.005162276048444533,-0.008082682790741326,-0.0496390847385041
1682026506.7981503,0.701699153551422,0.9483186271212977,10.148253692475759,-0.005080197444307712,-0.0045132283085085765,-0.0621586715698353
1682026506.8081837,1.1628472681098196,0.49051854493156494,10.117727298977721,-0.010242843987671736,0.003740154713531008,-0.0720270996809117
1682026506.8181655,1.2960862751062232,-0.2742141233285988,9.41521128128024,0.001780340718373341,0.019261141588456272,-0.0892561500787846
1682026506.8281872,0.32104125662029165,0.6082101051252915,9.407783583662573,0.0026252203262226515,0.02406195337774218,-0.1056132292270772
1682026506.8396776,-0.2815576260659268,1.6262208362541444,9.526516798048826,-0.01269694207402122,0.021202696535574356,-0.1170920034766308
1682026506.8497837,-0.9211092946253897,1.6807239627247959,9.956406527238885,-0.034058649329295865,0.0076946599283218555,-0.110304159474384
1682026506.8582113,-0.8525610275366237,0.9352037689253874,10.196192658231128,-0.04441153028020089,-0.0073001122211266605,-0.0986750101566426
1682026506.8683558,-0.7469053438880356,-0.24400897129300023,9.893522838472787,-0.03952417408481313,-0.02370984143240402,-0.0902927568078152
1682026506.878223,-0.3582426179626725,-0.8289354342181791,10.10948604685355,-0.036369528625747445,-0.037316580673674035,-0.0929625382542721
1682026506.8882914,1.4548418131751157,-1.8096332959488801,10.06820211627056,-0.02522795440565206,-0.03178017181587961,-0.0846819406271092
1682026506.8983672,2.50218458842404,-2.0622360887839135,9.65922153784871,-0.008971211931537264,-0.009429324262474914,-0.0773764526367299
1682026506.9081557,2.856025162219753,-2.2335738087701973,9.524467635030748,0.009277563603312333,0.019164492062410058,-0.0696748917818181
1682026506.9182422,1.6807097325721676,-1.6719680174537523,9.391211064604647,0.026196804172604667,0.03768519765761325,-0.0700217982649914
1682026506.9282303,0.5653189515323505,-0.44058237453682997,9.803787218060775,0.024439402443889376,0.04671827690993217,-0.0752648910403363
1682026506.938165,-0.36203433347499153,-0.11907479872615019,9.722572612724196,0.02143223789659464,0.048243603944022787,-0.0812359502434842
1682026506.9484808,-1.366771815050254,-0.061963227612637194,9.759772457824381,0.02565812186488958,0.03829013866916011,-0.0839024459838978
1682026506.9585998,-1.3795699424980863,0.045642483097461384,9.782694840504833,0.03205009087752929,0.030405116778104476,-0.0897147556662671
1682026506.970369,-1.1090403941848879,1.0029509752399273,9.859210411323113,0.028335077116248848,0.028879185172888008,-0.0947296446085087
1682026506.9781885,-1.3679932667138446,2.2013881736054373,9.829516342324396,0.0166321492146928,0.02647545153122031,-0.0947020625591389
1682026506.9882731,-1.4639512253946712,2.32143609066947,9.762140594206494,-0.005953006241888864,0.0261298150449442,-0.0919526120543591
1682026506.998192,-2.428142651370039,1.782340883615177,9.881427420939227,-0.0198312233233906,0.009677500207243972,-0.0889228260040394
1682026507.008175,-2.3565764570835297,0.18993366348788024,9.974753547620463,-0.02133831412889705,-0.009123652772878903,-0.0894188037037961
1682026507.0182793,-1.9960879677586632,-0.12499423964449705,10.360708843204689,-0.021724587500400357,-0.030927663362187646,-0.0858652269363514
1682026507.0287948,-0.3323470392684037,-0.6970753585901918,9.879110132777909,-0.019588188587727387,-0.032635215281883005,-0.0851565500617138
1682026507.038175,0.2638770034972127,-1.4524048441108914,9.872580667362621,-0.013512602027652969,-0.02750929284132428,-0.0919337993383519
1682026507.0483336,0.8554853529163651,-2.7314788085098236,9.469432104361479,0.008893309036445321,-0.014458324231064317,-0.110682440352451
1682026507.0581973,0.4396475497405108,-2.0425541413337807,9.207764056969207,0.03270383228943408,-0.0052166488852293,-0.1299693262100331
1682026507.0681596,0.9172564769043048,0.1641393984147634,9.447360944340199,0.02585037658875329,0.007426842938648419,-0.1390040939569584
1682026507.078152,-0.5267360093726112,0.8566865524944772,9.59366112154694,0.0137282494358911,0.00529290302123912,-0.1406647240638844
1682026507.088158,-1.0903245401927493,0.7808718988498036,9.90768875214648,0.008451038857436286,-0.010952616754901107,-0.1321785574674717
1682026507.1001222,-1.0490062497583168,0.6329828558666583,10.040570581097029,0.005512519553325833,-0.031457008854200934,-0.1215402385115735
1682026507.108188,-1.857858071413946,0.45886019330823163,10.099195745517209,0.00664180240515874,-0.056280604421306085,-0.1088057359576336
1682026507.118194,-3.4546332101822728,1.3923975552665027,10.792168973212437,-0.0038112036148067203,-0.1294571912203658,-0.086869930279266
1682026507.1281784,-0.5927619128294916,1.079454582810177,10.711580513051251,-0.016710885548709187,-0.185872097858942,-0.0868350168585888
1682026507.1382055,5.3970052994360955,0.4115158304654576,10.33102039825526,-0.027701538033013944,-0.1749059899720042,-0.112471369457256
1682026507.1486666,10.082157279039615,3.429781789405237,10.346981175466818,-0.11698260505545996,-0.08374124307801711,-0.1932216560363881
1682026507.1581688,10.245051087232282,-10.725338562531038,8.30819886174121,-0.055417937323712876,0.016416326470806347,-0.3053272789239994
1682026507.1690505,5.970539493474456,-9.924435279976601,8.918748462418716,0.050874739584730495,0.059662095443232754,-0.3921762233495823
1682026507.1787984,4.4914522471302725,-8.03698123202968,8.153787965107615,0.1498147580525902,0.09058373150588589,-0.401804072213184
1682026507.1888266,1.8231654770753278,5.018954470677838,10.30382808478463,0.0950099282755698,0.06738080171681217,-0.3734989588976017
1682026507.198174,3.1089058880161446,6.137076590486025,10.22926635470827,0.019454884673018244,0.07662173515305117,-0.3395304208517186
1682026507.208176,2.5749253723376957,5.521384100865165,9.38842939326409,-0.05898626236556526,0.0837455113989067,-0.3349782055139653
1682026507.2181902,1.307909090638596,-5.561254493187788,9.452684879322193,0.007528657396531605,0.0910216492417183,-0.3412367826223484
1682026507.2282002,-0.2471031008152586,-5.188603560595392,8.553807942270417,0.1187094759489236,0.0857901912783088,-0.3368795340776555
1682026507.2382064,-1.6768252195203739,3.5937906260888646,10.08427989149212,0.12822673766651024,0.0766804586925519,-0.3162200873613469
1682026507.2482283,-2.391459529423335,11.983865173268777,11.172942857654064,0.01215233172069931,0.05890732338118132,-0.2929670339346043
1682026507.2582605,-0.5082001073465641,11.068772028324851,10.98167570194698,-0.11484872489477758,0.06914845387820329,-0.268400055718433
1682026507.2681882,-2.273530112222231,2.650652261917684,9.909189686624945,-0.15616241870730854,0.06667423740035847,-0.2438414668560139
1682026507.2782135,-4.678841592933549,-4.291760461621082,9.929254876406013,-0.09293809810244491,0.022688524260265144,-0.2320660924434773
1682026507.288327,-3.881543674131184,-6.509505078252862,9.629983838598461,-0.009651337651454229,-0.021912853485519534,-0.2316651468992344
1682026507.2994747,-3.3369087445675354,-4.53882674616979,8.507192725533557,0.08954689717319177,-0.05160390085364692,-0.2491036778211705
1682026507.3096828,-1.6457884150504731,3.154788817580087,9.662122738568746,0.032328432232402726,-0.05338969608674946,-0.302539688897144
1682026507.3218336,-1.228292245538742,4.5452121386660425,9.734932091150876,-0.04588791793654561,-0.059532765782011984,-0.3155295377493016
1682026507.3282032,0.5329404526870769,0.895100661001565,10.842731116820355,-0.07865035136780299,-0.05004576395036323,-0.3076698606729618
1682026507.3381944,-1.908960384148682,-4.016723614587546,10.59901158739393,-0.04966201893006443,-0.07845525003229067,-0.292171013903629
1682026507.3481803,-0.4212337619447791,-5.049407553496328,9.590131268982853,0.0207548823253993,-0.10372284300192708,-0.2586309736490361
1682026507.3581738,2.3336749698861046,-0.6156856671672217,9.507520198804004,0.027399033528188243,-0.0928538811433416,-0.2259463643550984
1682026507.3681936,1.9970098539560024,1.2295714079181133,9.567939378130356,0.012244065398294597,-0.08017611027218792,-0.2113749807596318
1682026507.3783484,3.0050065538390163,0.38067749412580965,9.557692877433766,-0.008559514007662564,-0.06129513509556151,-0.2222354983806721
1682026507.3887148,4.937597261001616,1.7534722836388796,9.723168847135062,-0.03790461144623245,-0.023759547408491906,-0.2207754230022542
1682026507.398587,3.4494626526824423,-2.0987629574945807,9.897336699638789,-0.03417797730160772,0.007496238543184068,-0.2360424077034108
1682026507.4032483,3.842705654719408,-7.959939502749157,8.770285702251424,0.01741964089264179,0.02340425724361198,-0.2335239475488774
1682026507.4182796,1.3963655446781629,-4.022181327589325,10.719364141560115,0.09619147959680767,0.010850254729704667,-0.2196919297695271
1682026507.42341,4.246521373995083,2.261412276819101,8.483306032412635,0.09587784214110696,0.0324886920030989,-0.1953377252340428
1682026507.4375374,1.3231982663090411,6.228431732794042,9.558775193962846,0.013489579621448635,0.043815710269279065,-0.189482209634792
1682026507.447436,0.8086198216598407,5.046214127218423,9.900899868186013,-0.0609147787061241,0.05168576600615804,-0.2016623442888371
1682026507.45736,-0.7707127836882726,-0.0024700849100124577,9.650001326565175,-0.06471300293692003,0.04474136405074534,-0.2153929447651021
1682026507.4672966,-0.9380839461556894,-3.277268645639555,8.585405409793479,-0.0020788495200227044,0.03644649712899695,-0.2026430046081654
1682026507.4771912,-1.546594256236952,-0.7971785688169951,9.090245054643596,0.03474111461679753,0.024530553459829425,-0.1873309289932362
1682026507.4871967,-1.5953707708494744,4.86293918182672,9.92014407946274,0.001310592720984934,0.00954691224082888,-0.1650214617967717
1682026507.4973085,-1.0418965664959938,5.58046085623526,10.426537349938195,-0.06846124456603694,0.006768002327716108,-0.1414948677539937
1682026507.5072477,-3.768418398972833,-0.22998924194723158,11.02436844705122,-0.07858118824612734,-0.03577418780924573,-0.1016331067204587
1682026507.5172377,-3.4109721013520193,-4.562332664035583,10.568911613285728,-0.01099674308964568,-0.09137301622356553,-0.0723932286620251
1682026507.52722,-0.7395842108741918,-1.9865355081029867,10.306099007369232,0.009878843642137751,-0.10947392287119398,-0.0554950995266549
1682026507.537205,2.4866211883919003,0.007644921600523845,9.84674564672935,-0.008326598935602137,-0.09188342606305357,-0.0575567310571782
1682026507.5472252,4.987807601594488,-0.677938094302232,9.001551676992232,-0.023534396476571108,-0.03528275790365861,-0.0774533947825543
1682026507.55727,4.2460287413222035,-3.578844051368042,9.265451941593884,-0.0060763350939050135,0.01238823208556683,-0.0976432314038388
1682026507.5672412,2.5505686013364253,-4.394991077667125,8.919983279874394,0.049145882687953966,0.03929118649924272,-0.1025131991028897
1682026507.5772834,-0.8658314687342008,-1.3860287695747122,9.57668837163112,0.07121277890539353,0.02055149444686552,-0.1243331259012333
1682026507.587252,-2.2781602698123744,2.4153355784545947,10.253981703860976,0.041659284632733246,-0.014950300634583136,-0.1317091708898655
1682026507.597365,-1.6793526437550905,0.028231715431786084,10.217780967931686,0.05706814295329149,-0.05132410970410343,-0.1259305154800526
1682026507.6072395,0.16718352878498652,5.564271931353507,9.228473074846878,0.007505971086282122,-0.05489635875904952,-0.1177869414806477
1682026507.6172037,3.52222665137034,5.942077716126787,10.40412547677413,-0.0580826628850036,-0.023143054232494784,-0.1042565381050221
1682026507.6272836,4.16135300353831,0.4994780901208478,10.24579840788613,-0.08587075744819789,0.03558835532506769,-0.0945262512087933
1682026507.638003,2.2581882359780376,-4.942824849006785,9.938655890973623,-0.012585187109714345,0.060518300505722704,-0.0654130330205075
1682026507.657653,-0.8191412776263843,-3.618021316952055,9.569119830124434,0.06157264107159576,0.06097631311611948,-0.0615594511747471
1682026507.6654012,-3.389315652169932,1.693388421110347,10.090784096093216,0.05252492653740752,0.022196888818001307,-0.0514041943371407
1682026507.6691694,-6.361298985337759,1.4907460721291237,11.664270926935473,0.03723739949091844,-0.012487328305712544,-0.0618699690222851
1682026507.678702,-2.7768214216926195,2.306875020893121,10.9443709799683,-0.013000371916170976,-0.04993405455071144,-0.0863123139262311
1682026507.687244,2.6944437352009074,-1.8723667084169682,9.128222208371291,0.004460958990289924,-0.018977674712265875,-0.0920689677715413
1682026507.7026043,2.0590870522993696,-0.928832365953887,9.147341465123977,0.0020322092555100963,0.03074391560554148,-0.1048921769380681
1682026507.707226,1.9160504755603387,-3.2644513573609735,7.588661174782987,0.025185685741245654,0.057391563420939186,-0.1182574456453434
1682026507.71724,-4.987463826320538,-0.1084471261414827,9.761769266137517,0.04073406595737731,0.0025938654235958983,-0.1101556246996037
1682026507.7272651,-4.838395894314644,3.535989550768011,10.94845090728047,0.011710160895237501,-0.06487571858434428,-0.0709923481464497
1682026507.7373316,-1.957414357086175,3.617232172246452,12.017172291646164,-0.02057684390329985,-0.10894884206413895,-0.0170624809235445
1682026507.7472267,2.8385502507955116,0.9233576864215104,10.752649204057828,-0.02543143703249298,-0.08870460673478264,0.0334858359873183
1682026507.7573056,4.746682369973348,1.1890528308479518,9.75165605316939,-0.034058397215827235,-0.038178409275560654,0.0552456328749545
1682026507.7672472,3.9833467755781866,0.48051632858047955,9.083766710859324,-0.04445830554650829,0.012550500738511161,0.0457998352229483
1682026507.7772608,1.8450252467880013,-2.3196772070345992,8.617236136664534,-0.029383142864411436,0.03617924685439618,0.0153555484592803
1682026507.7872772,-0.3072655186483025,-5.181076694664372,8.602564104330355,0.026781988532659465,0.03244801847079285,-0.0217964270979277
1682026507.7973015,-1.9990974046079113,-3.2562887413467103,9.37667638324533,0.06574384545790571,0.006012761547023753,-0.0528690231859795
1682026507.8100076,-1.2891090058480308,0.27556105236114264,9.899072246140683,0.05469099133067189,-0.023555882220997252,-0.0632535790920369
1682026507.817253,1.0078487714268365,3.9182457974984892,10.48510047870767,0.006998423543455727,-0.018036255455483718,-0.0654613276839367
1682026507.8272767,0.8732273063960097,0.8479708310015758,10.333805493256227,-0.013868116463044007,-0.010059803058658218,-0.0590462585806958
1682026507.8373165,1.5331849856285795,-0.42889256711195534,9.766491167301465,0.0001700364026802973,0.0004293452606049743,-0.032415573847305
1682026507.84722,1.4176596605352771,0.31018324808072567,9.251552097196504,0.012771636095015994,0.018192167038730535,-0.0081213585928193
1682026507.8572495,0.8654649976280362,-0.28047860162698013,10.106271048927825,0.030475194413478027,0.024860509728014575,0.0174276908963807
1682026507.8672874,-0.43971050476120466,2.482547398226244,10.17676257643015,0.014964605294593753,0.02354500337230187,0.0343924971401579
1682026507.8774085,0.5940987928573747,4.389554706660174,10.947401070363519,-0.039477740926105814,0.02639964571791676,0.0327406400918849
1682026507.8882363,0.15816852679982174,0.7323629217223001,9.417687488379709,-0.057032682547837714,0.04010036934855109,0.0151148220628388
1682026507.8975165,-1.728491052555622,-3.575489094886738,9.096572806116185,-0.018865232635096364,0.023504334014567887,-0.017854483228933
1682026507.90724,-0.8041243259197088,-3.5345790126651435,8.743745574764846,0.02330023789858572,0.01253994984318572,-0.0390858104348294
1682026507.9172823,-0.15030251798707486,-2.492299674162614,8.926469466229943,0.04778422061784733,0.010341607387148125,-0.0450413463533036
1682026507.927263,-1.054611403567074,-0.022351271766666035,9.648229330613844,0.04702985246611802,0.002141333398910726,-0.0513054070890061
1682026507.937245,-0.1576459258112336,4.177044095112104,11.806509079091333,-0.019890323495680658,-0.0035445539459173945,-0.0434098517418019
1682026507.947252,1.2294505396193993,0.8117444667353282,10.690547781693445,-0.04094524844588329,0.01383538131111915,-0.0262324767083041
1682026507.9572392,0.24130700994736806,-1.518177272078946,9.7317965359386,-0.02136994650430354,0.024921718370267916,-0.015823086154472
1682026507.9672456,-2.1757711695517474,-2.401180843644173,9.146839569100107,0.023341821685381688,-0.002990722087290547,-0.0094493128255121
1682026507.9772909,-0.13590532513624212,-0.17281614637117096,9.14489367324542,0.035996969520897884,-0.004928007215405238,0.010590384352196
1682026507.9872272,-1.6598642949126237,1.0757463215154042,9.915669765308996,0.031167579233329856,-0.026569982028077112,0.0178642930567153
1682026507.997228,1.0116095455482703,2.296500879464468,9.914843396923608,0.005369208149975184,-0.02129734351578024,0.0307181837141402
1682026508.0072875,2.149727666495576,2.2046283939465643,9.94686819545849,-0.02338091707506506,0.009201431283957886,0.0297702109545357
1682026508.0172722,1.8297801235320803,-0.15104279048916974,9.673951727212263,-0.01784718200667019,0.02998364658787225,0.0120844371721037
1682026508.027269,0.9358602691963414,-0.7796974239164955,9.159604823205377,-0.008333381310116995,0.04798367478408995,-0.0170893328160159
1682026508.0372589,0.3099083394860392,-1.646970361273043,10.05118349811229,0.010880864210122083,0.05218418429744194,-0.0343769317388646
1682026508.0472355,-2.893941017350099,-0.7888500482054588,10.19817035194909,0.020020718681973443,0.01848725348084824,-0.0510951256275288
1682026508.057436,-0.7810603592669939,1.769134642592049,10.735819670076593,-0.007564611188483845,-0.0019001968582049308,-0.0542912496149651
1682026508.0672982,0.397723500303652,2.4070974844810173,9.825167181947435,-0.04215220853230008,0.008053086815177624,-0.0490734329342953
1682026508.0815036,0.11645804056596219,1.1342320221016495,10.100592474113636,-0.06663787993179379,0.00716523300805909,-0.0358015162766091
1682026508.087417,0.14837273156371916,-3.074495296025398,8.75379896683242,-0.033814412460461296,0.003714332247504804,-0.0199081668526045
1682026508.0973122,0.43221616470237856,-2.3528577630569925,8.506769765469157,0.003461868297025896,0.006279080261093386,0.0036367013689019
1682026508.1077187,-0.22227874974394204,-1.6824529989635821,9.636994201883223,0.03882783930300282,-0.0018687443804037069,0.0208622446387894
1682026508.1174011,0.14162091661133117,3.1820410239737646,10.242420485658181,0.0002033899730774928,-0.0007985182495074549,0.0322920350462086
1682026508.1273966,1.6252027527353443,2.7607171934652173,10.750851162890125,-0.04360205405181334,0.014992630104332683,0.0350641371786482
1682026508.137287,1.0032399266505134,-0.22731248812060328,9.862949156125222,-0.04710232531673721,0.03171708064305377,0.0239555431634076
1682026508.147267,0.1007546000843325,-2.4213089001458026,9.62658080031115,-0.015680904219418725,0.03206749032228461,0.0013562822003737
1682026508.1573114,0.07683242185485543,-3.097903875716686,9.221648916272352,0.027609950511427506,0.032656744957997544,-0.0141752878099791
1682026508.167267,-0.19489159585607838,-0.7391588776441138,9.119658319528515,0.037098276756227906,0.0331029071769783,-0.0354900633812062
1682026508.1781943,-1.1534215298143125,0.3535489473669865,9.599292692552822,0.023960320089545482,0.021013800518843623,-0.0376686951041333
1682026508.1872766,-0.22612423150204378,2.412664438627247,10.63915375455707,-0.007241496366172754,0.0149817854127308,-0.0343431061029545
1682026508.197443,0.2560325572529975,1.2384444179634577,10.069572642958347,-0.03052294625743551,0.02725563688272971,-0.0291635891318432
1682026508.208049,-0.31743022962064854,0.7403219626313614,10.521631490217679,-0.0406994865955242,0.02058185475413134,-0.0149989792972914
1682026508.217863,-0.950267354567763,-3.3420120004928213,9.470214166481343,0.00380712038371459,0.015367266793120397,0.0022664695733115
1682026508.227302,-0.8493833965725862,-3.5630752852967267,9.918021133358131,0.05532226543336924,-0.004395352809838777,0.0177367800950892
1682026508.237322,0.22287111481382407,1.6414842798059024,8.82025879233213,0.05157315777732165,0.0018142940706036765,0.0327178636670001
1682026508.2472997,0.865829711112666,4.918805302412395,10.246737240492575,-0.016140253490513647,0.00592893757004585,0.0368726613104231
1682026508.2573032,1.362021832200722,0.8592458039693314,9.427866170480252,-0.039077372026959635,0.03172309965536843,0.0200901744991429
1682026508.2672572,-0.5438828268152314,-2.941073869710364,9.564939030927453,0.0032701074057540983,0.024771241048611854,0.0046623785618581
1682026508.2772949,-0.9744284449967213,-2.715337631972589,9.735145970358387,0.03750005161360075,0.013986366872307155,-0.0162799073279015
1682026508.2872646,-1.3052522434438742,-0.0940868203120836,9.826698432975036,0.05181814285005945,-0.0033515384442623225,-0.0257355807244889
1682026508.2972543,-0.9371242027428028,2.7121497433983937,10.52370000810975,0.002822309262448717,-0.014942373828746256,-0.0329148931324593
1682026508.307237,1.1934165955766876,2.2134630081390907,9.903251142299814,-0.02772556089662437,-0.0021061742330062256,-0.0341533249139897
1682026508.3173175,2.04781934915471,0.3756395245904752,9.861915701090302,-0.03672080874881265,0.027317536623550884,-0.0304498610913865
1682026508.3275747,0.9603786604842636,1.1538374327407068,9.391115729863259,-0.04264353858056243,0.042315263977233855,-0.0213537489891163
1682026508.3373537,-0.6884984648654857,-1.1156840550410774,9.401838162761388,-0.02826224035600369,0.04253038177468249,-0.0106313679263107
1682026508.3473315,-2.8687169997919835,-3.2804365098286246,10.14800159377717,0.01590725555314847,0.0028351359561538583,0.0041064642008282
1682026508.3573115,-1.95029422000399,-0.683969878416049,9.787125662033205,0.038730486549460125,-0.024427797103020406,0.0170741859927661
1682026508.3672962,-0.05199083566744528,2.779480988163196,10.284348720907387,0.003634647588959676,-0.03297731039604597,0.0342955166578181
1682026508.3773053,2.6124692762628223,3.1161536200749653,10.21052999012892,-0.039549893147780395,2.731712574967285e-05,0.0363281207263358
1682026508.387395,0.9356733637128238,-0.6572298697355041,9.580192564954745,-0.03463524234666961,0.01753513658760466,0.0191336689621098
1682026508.3973029,0.2350023332147659,-1.7411038108664976,9.575519586168596,-0.017671809105233104,0.022536452745171274,0.0041686686325706
1682026508.407306,-1.5464888564609909,-3.2811236907553734,9.243246157338046,0.029771890876983925,0.006758365833161154,-0.0173771990358941
1682026508.417286,-1.427529800921072,-1.553360863369887,9.920902414850103,0.0415069406116043,-0.009985127026938096,-0.0360750606179348
1682026508.4274042,-0.36573427874587056,2.0250842127418376,9.70127124670079,0.015330449180294674,-0.013615784319760967,-0.0441034374654404
1682026508.4373648,1.5552024354215115,2.96794798426572,10.417166692762734,-0.032776528262313226,0.008041048273078054,-0.0481481900334469
1682026508.447432,0.6339153192791099,0.7732127104354605,10.215171471526151,-0.04804217573126169,0.02073124176235702,-0.0422370893776528
1682026508.4573977,1.2927327040054726,-2.394501638461909,9.745288881586893,-0.01749595993933845,0.03495923464948196,-0.0161624507874361
1682026508.4673157,-0.2345753475197666,-4.231255615727539,9.632892596165927,0.0490796491926535,0.031455515017802214,0.0079528583317883
1682026508.4772928,-0.7703029878122502,0.48456806880151154,9.38205264245751,0.056242737591358574,0.021767886802193763,0.0305169602960236
1682026508.487296,-1.087358084929426,4.228918230670073,10.005664349407848,0.0031653554332799604,0.006020472615717466,0.0386692570626624
1682026508.4972954,0.06827801280523478,2.1020335824251166,9.867099707579252,-0.03502874618092121,0.0026277195870957125,0.040347194868315
1682026508.5072722,-0.2710633806645628,-1.0160817576738461,9.576243530091835,-0.02260811606727981,0.0019140618966323958,0.0219458980589993
1682026508.5200045,0.08925156697253608,-2.102921660075663,10.040380556906674,0.007872824588236205,-0.003988001578899969,0.0044634734384604
1682026508.5272927,0.8572999412635349,-3.6427024193438955,9.243511956936134,0.047445267152854416,0.0035018743138502894,-0.0129066960781924
1682026508.5372868,1.7697160000237238,-0.7704568827097937,9.341394781945928,0.06102664477827028,0.024144388837988414,-0.0268044503301493
1682026508.5472937,0.6072706119692416,2.5256200797167296,9.484681475425496,0.020515112319135824,0.04055404726604084,-0.0335657758534066
1682026508.5573156,-0.36918363608496135,2.165499400374623,10.304924799190935,-0.011538450503914742,0.033889604129576735,-0.0354299818992726
1682026508.567293,0.13879841839413026,0.6327517309100602,9.787461690761361,-0.026361183959282428,0.0412097155291424,-0.0373021265387646
1682026508.5772877,-0.6723634552763347,-0.016612151196818883,10.388645644065564,-0.021348833736461154,0.031357803754775,-0.0267591824650875
1682026508.5875094,-1.1280122412811875,-2.250862935232808,10.054279021415134,0.009854868563771343,0.020750426042852595,-0.0088692460104934
1682026508.597844,-2.5490534289400637,-0.13350727774101206,10.315663509469278,0.025276705940950675,-0.014274241170956561,0.0121656373247392
1682026508.6080987,-0.6325366850082904,2.306386486984231,9.861704421011117,0.005245121360997663,-0.028957153508974445,0.0310954270988591
1682026508.6173415,1.7500923599764253,2.10759768529091,9.583278054159894,-0.02583488514847194,-0.009696330299454083,0.0459916727721579
1682026508.6285756,1.4766890006389983,0.5270080883657476,9.519397727878575,-0.025913341265236534,0.014033927018479117,0.0422587158262618
1682026508.6388135,0.4665908902210805,-0.4953265344707022,9.469851256673119,-0.020694805855343484,0.02325396916247688,0.0245422167807705
1682026508.6473267,-0.3080476966529776,-2.506453606656888,9.430452586861744,0.0018241531178493251,0.024892152684150133,0.0023681426990665
1682026508.6573813,-0.6399295376161657,-3.5375690343025745,9.695997574572806,0.047399934224615886,0.014684054333762164,-0.0218719629466645
1682026508.667342,-0.4730652141986937,0.834062162731927,9.375125622855508,0.029975810300990894,0.016299657186507648,-0.0429264804244153
1682026508.677334,-0.5701198923401438,2.432468190167739,10.089122100430552,-0.004861068521236875,0.01202098781085901,-0.052245159995567
1682026508.6873174,0.47742394469285504,1.778879767444486,10.604646368670425,-0.04437108868041645,0.022238286029196655,-0.0613870745420567
1682026508.6974306,0.33051467242772065,-1.4992991899979071,9.855482132059844,-0.023174394885758558,0.033238377607218886,-0.0476743778109662
1682026508.7073274,-1.2585435172756698,-2.8523758737198355,10.13052376589054,0.019261456977836752,0.018854747628733425,-0.0245430389315001
1682026508.71738,-2.443398782163182,0.5815469300245248,10.463808322628912,0.029411476352188916,-0.011439539464217923,0.0019359886372117
1682026508.7273524,-0.9823153103861004,2.9142194877337935,10.279589781847662,0.0021342216275861297,-0.030482448349124096,0.0331947716057189
1682026508.737383,0.6838024319473538,3.040104006411625,9.598881510449777,-0.03351832496479987,-0.022091451356267895,0.0482083955883868
1682026508.7473998,0.5816762946624516,0.7116912446047112,9.448853745111043,-0.04180231621093724,-0.010905922276316834,0.0430207872867472
1682026508.757393,-0.05960725318845472,-0.2630508446277962,9.43435295551923,-0.03710460631021222,-0.010764626313306892,0.0235733060270436
1682026508.7673817,-0.05218124578143695,-1.7595148684357305,8.9513466892925,-0.01485466916827662,-0.005882879343092501,-0.002881889127951
1682026508.7774062,-0.8654773806279885,-2.5948625062492288,10.01604398852428,0.013965624226969751,-0.01234008276783034,-0.0260618341982476
1682026508.7873306,-0.8729320083691114,-0.15603585651560847,10.175122349678091,0.010325600883566476,-0.02241138587788659,-0.0446199564159028
1682026508.797307,0.7077208528516813,-0.40748071929027824,9.704774165012912,0.00557261070799165,-0.011236399312877565,-0.0483388913691155
1682026508.8075778,0.3437653442360949,-0.2693644126768547,9.579746291197218,0.0051617230240585356,-0.005167756522175561,-0.0459424456477276
1682026508.817324,0.7917263659261616,1.5637812733654002,10.002256968433304,-0.017290101707027775,0.005971516449577109,-0.0389150394022576
1682026508.8273177,0.7109077745083896,-0.6412631605637865,9.935935178478987,-0.0161696524922933,0.01678708396583659,-0.0199656443566195
1682026508.837342,-0.06310495811516062,-3.7310852114749173,9.839898625433069,0.031410153875525496,0.013251172122393287,0.0014321660436112
1682026508.8473358,-0.3518073788221379,-0.41263126238935965,9.271354935270246,0.05445306236697979,0.008129231985931235,0.0222677463769801
1682026508.857346,-1.0628146038276904,3.275871804821679,9.858834966860359,0.013834466154987641,-0.005002259605674327,0.0339018019020445
1682026508.8673203,-1.2941924134709817,0.9868614526539341,10.253447086780962,-0.006194436148687647,-0.02602792663588658,0.030253865393985
1682026508.877344,-0.694969476454339,-1.3612243383466849,9.248158475618961,0.0118988909605876,-0.03692632156258071,0.0135908244281895
1682026508.8873277,0.1957782771328341,0.2709082072379671,9.470972849605635,0.017459749370899984,-0.03912073376014391,-0.0028781214624754
1682026508.897308,1.2679947043650868,0.6061021456165966,10.11813651846884,0.010880896707643598,-0.021832641930039726,-0.0148767953634373
1682026508.9073305,-0.026761850996765025,0.286377885273736,10.2922516221308,0.0050712778236774985,-0.016119883695480283,-0.0245499884605519
1682026508.917867,-0.12084219522528641,-0.9478430802074168,10.043627908971544,0.017597011680988397,-0.01675823669196411,-0.0275694684952608
1682026508.9273214,-0.5709268546917703,-0.04946045944654941,9.209134794909449,0.022465217160889155,-0.017401059867648602,-0.0225148456066958
1682026508.9373856,-0.4684306500009651,3.9558131496274322,10.714245810872296,-0.02113641461683799,-0.025250708679378297,-0.0253222914308421
1682026508.9473422,0.2966958607330992,3.328691762403033,10.146919340102023,-0.0716215382152579,-0.017284724712766448,-0.0190287953138462
1682026508.957435,1.2231237626768716,-2.6286407521153374,9.939082358090682,-0.04704805554126988,-0.00609179150675043,-0.0004955249734334
1682026508.9675615,0.08860059787623122,-5.20999836955831,8.832148725890999,0.03538113497192936,-0.0009579067917712339,0.0140130525559075
1682026508.9773512,0.558980707469695,0.8885915705371545,9.705604052908077,0.03574879337557739,-0.00032790008770102835,0.0258090408623107
1682026508.9873512,0.7011146144750156,3.42620450192698,9.50327445041169,-0.01518707293593553,0.017220505472975798,0.0285144789248593
1682026508.997377,-1.3047161177832063,0.10669322883088399,9.820526144869103,-0.031250526571427364,-0.003133389109227779,0.02133499329089
1682026509.0074823,-1.985637976137458,-2.422976799716883,8.976876920936148,-0.0035864165970247155,-0.023806452741840796,-0.0004656330112479
1682026509.0179868,-0.793269093587908,-0.7626849890107231,10.002262401811251,0.008741359151303344,-0.04185241541349913,-0.0056659527018777
1682026509.0273912,0.31778009569554777,-1.1585316706855093,9.908947835778562,0.027854545095516266,-0.036636384582373026,-0.0118726961210481
1682026509.0373693,-0.19110489150782647,0.5011184788002094,10.135146194987152,0.01577805965258515,-0.0354055583620536,-0.0237434444844834
1682026509.047351,0.5820037851958095,-0.8580108206612566,9.695525056367378,0.026220762107836304,-0.026414397229713796,-0.0194998564094416
1682026509.0573752,0.4076359105602821,1.0747806271606715,10.121638925699928,0.020482017743665114,-0.021556650672582164,-0.0214663049101941
1682026509.0674086,0.6792365643338881,2.957808051951128,10.19707133282225,-0.020247401080254575,-0.0066551859132741795,-0.0315927391767613
1682026509.077535,0.45492536899986963,1.0877247221037807,10.2747431432409,-0.03967658112840227,0.0021974837216257193,-0.0180654184788577
1682026509.087455,-0.6412889654871948,-2.9598416136526526,10.309309179071361,0.0025024399054842735,-0.007183619906318201,0.006193506169308
1682026509.097386,-0.6621466991388971,-1.3813474059032202,9.704778810094744,0.029705228138109697,-0.016205116299045356,0.0166691221400983
1682026509.1073744,0.6211358201628752,1.5330271401218387,9.493236581988285,0.013193343411986512,-0.010160255413381154,0.0355351479828246
1682026509.117823,-0.47940161899386624,0.20786641971963532,8.804128557943883,0.006619417491685587,-0.012894822201479507,0.0364916870474703
1682026509.127367,-0.9911572421423452,0.6151029908677352,9.206523493729035,-0.003296059512285986,-0.02645477202040902,0.0232164269417412
1682026509.1385972,-1.132530067463112,0.7738473752738786,9.630105380076861,-0.01392215847592548,-0.04369315639081586,0.0019742498278506
1682026509.1533482,-0.7985172934025538,-0.41282321563237184,9.680646641385358,-0.005638004926895558,-0.05286813698302357,-0.0149391883880011
1682026509.1573615,-1.1660220254746858,-1.3411824455089443,11.47742124124194,0.0013230041510864444,-0.06421639211650919,-0.0199055330723635
1682026509.168258,1.2903505000306315,-2.2466794519776405,9.686896017617219,0.03554722940986078,-0.0453709405732699,-0.0331710105657689
1682026509.1775308,2.8642048696051106,1.0111108898000827,9.646536917126731,0.02520064552820171,-0.00962521971000163,-0.0299865541875473
1682026509.187323,1.2594751819969905,4.2698693230786064,9.930732610512276,-0.021401090845822108,0.012631578604989438,-0.0287074627250544
1682026509.1973977,0.3833720893309003,2.4132723497346262,10.005534613529154,-0.06340419166966844,0.02319291194264869,-0.02980897332431
1682026509.2074995,-2.0263145276537795,-1.5715506834296262,10.346904093701637,-0.050090339480742194,0.0035620075723724496,-0.0089095499262325
1682026509.2205806,-1.8886421417287769,-3.880072978201363,10.070767206335239,0.022663572401335368,-0.033657037836235,0.0101079890608676
1682026509.2273386,-0.8216737638104008,-1.2320944329767107,9.407428082995272,0.04358728198239059,-0.04421775190108519,0.0256036320805438
1682026509.2373538,0.5183724070391079,2.1397372545152096,9.58777002108864,0.016727783831508615,-0.04192377823350346,0.03198032324313
1682026509.2473624,1.1522237055751356,1.8718938363492557,9.084608371875914,-0.01609027141615107,-0.027709040433979957,0.0314794449239857
1682026509.2580743,0.18779816016925455,0.024416122306767738,9.474379321138107,-0.025890610043076655,-0.025086244140449677,0.0171224797248728
1682026509.267423,0.1216503136674606,-2.1271113132200914,9.466564326369392,-0.0018130246083007796,-0.024099907779248246,0.0031180627282597
1682026509.2775424,-0.03035181494145485,-2.026604368342721,10.599374599686207,0.023688227959481372,-0.02436622816804805,-0.0102455917641632
1682026509.2874272,-0.06740301950336842,-1.2085773986761184,10.156030857177326,0.041518979499754805,-0.022148845226057052,-0.0306319048524014
1682026509.297393,0.015040421848197169,-0.2275067264125951,9.903649412309505,0.03592686606171788,-0.01720619332598939,-0.0385013682663552
1682026509.3075094,-0.6021518332291009,1.7133983850800465,9.885391574340364,0.023275277872384984,-0.026549335060431473,-0.0449003925442807
1682026509.3178215,0.4905113987580853,3.195922831547793,9.441843836707399,-0.02463662205669713,-0.014328319549266479,-0.0430309636414162
1682026509.3274014,-0.5504582738899721,0.655916630009979,9.962060745064669,-0.03408183411200105,-0.022323246001896533,-0.0206188404828421
1682026509.3567758,-0.30290380137429246,-1.8257478512937746,10.34320502688366,0.011948914012964766,-0.03020302180728067,0.0100242268398292
1682026509.357825,0.08562464563947088,-3.096421295120804,8.872354697134213,0.02838557308987022,-0.035571989503871915,0.0274971934139617
1682026509.3586376,9.316573004289078,19.34986073970408,11.349302764821317,0.00611267945416357,-0.026117612006753645,0.0454824851930029
1682026509.3676937,0.5069673877545269,1.8556189560990162,9.909009512854226,-0.017883384299818478,-0.02339272827461221,0.0455129990458376
1682026509.3773868,1.137328114168318,0.5049165716068694,9.540349477000401,-0.028377162234762717,-0.008560693008334012,0.0198921883582957
1682026509.3873951,0.8100940953227863,-1.7695320576647138,9.92485988472579,-0.014604382752857423,-0.004476278445762671,-0.0034299114614836
1682026509.3973584,1.0359799557811968,-4.095559001122945,9.133839933598633,0.037907634451936054,0.010216888261869343,-0.0200893910497538
1682026509.407369,-0.970250734064099,-0.7715561999596549,9.681719815018209,0.047712137037469536,0.00021798924873062917,-0.0477849481523148
1682026509.417336,-0.5165254832739989,2.0794642643834473,9.817336760330482,0.015035685669886886,-0.006628271593270107,-0.0502742579102627
1682026509.4273992,-0.9186311402954408,0.6503621402202402,9.6603240180559,-0.004711901881884101,-0.020078254115573735,-0.0456394938647858
1682026509.43746,0.5193908589056808,1.1497520019613312,9.645419670830835,-0.01595301025224656,-0.014741683589041482,-0.0415118088841549
1682026509.4479198,0.10580205769793843,-0.8504517967045171,9.9659850990658,-0.006441970024489157,-0.01603403326702136,-0.0253178732365481
1682026509.4579017,1.8386306317251562,-2.498478115828571,10.039843934073156,0.03263771839481461,0.0008388664316877643,0.0100256340682395
1682026509.4673882,0.9353320521187803,1.7020253254353785,10.110910479311809,0.029497956260718983,0.011340073567313385,0.0376464339077361
1682026509.477599,-0.39960398960227533,2.6446569528723742,10.135435610212072,-0.0037324233205692343,0.007175393024562334,0.0482804315268881
1682026509.48739,-0.716588485477142,0.7124757548422107,9.559267561735366,-0.01767071496943085,-0.0030207472107271196,0.0519217835843451
1682026509.4973583,-0.6731788485814604,-0.024460261303941015,9.385424360919869,-0.005570813435647646,-0.014196611609347756,0.0382468091428168
1682026509.5073345,-0.6565601130589123,-1.213709844831447,10.183404769934297,-0.0014584583434416856,-0.020075792378607654,0.0055043181508668
1682026509.5174613,-0.18800681928237747,-1.016376969804327,9.911251371845205,0.015691116506559074,-0.025405735767536443,-0.0175397613912932
1682026509.5280786,1.613848058336879,-1.3971936939506677,9.945540197706817,0.030336172219623887,-0.00674617694253388,-0.0356337590038887
1682026509.5374386,-0.31947378873213006,0.949603713831487,9.305535787331438,0.012756398241818026,-0.0009284171274022943,-0.0525198032975308
1682026509.5473714,-0.10998280964616047,-0.41867381202844606,9.216444342639745,0.011167492449145331,-0.0017693403195916493,-0.047659260582935
1682026509.5573723,-1.1537435583711437,1.1915338697361406,9.544307694799523,0.004020201601353844,-0.01436500746444484,-0.0479660084366909
1682026509.567465,-0.070995289738197,1.665784715344347,10.179766682918638,-0.021568320039226624,-0.012996332929709274,-0.0409265434265248
1682026509.5773704,-0.210010718530964,0.5761684697496763,10.623744372578434,-0.025202219533976007,-0.020060699041230656,-0.0150743586838356
1682026509.5874834,0.6115165343789465,-2.0094020102996044,10.320279148711885,0.008960052971401221,-0.017179884241600673,0.0121532647043355
1682026509.5973866,0.8534402642169637,-0.11053794161346893,9.997575315339384,0.020258449224469503,-0.006510837515312732,0.0333297053456194
1682026509.6073682,0.8738098344407457,1.8197568789437946,9.534643476452926,-0.0012440206454627906,0.0005413416626093185,0.057231715518225
1682026509.6173663,0.5908718031025815,1.517704707521365,9.071102690455653,-0.016008574480572614,0.012154982067696649,0.0544801937520392
1682026509.6274672,-0.17088661681027234,0.3014955359768733,10.043297238281909,-0.032496563950938986,0.011764686216893501,0.0276501501083262
1682026509.638899,-0.6236583483820958,-2.9699219082498356,10.024146979599534,0.007622430931106253,0.0006244508057229179,-0.0020575808722637
1682026509.6474094,-0.25194680405170383,-3.0975052088940105,9.326180267105979,0.04647793029500645,-0.001396866019862071,-0.0265606449812762
1682026509.657679,-0.9512147420350192,1.8118140882767384,10.092908939432528,0.01760517799703836,-0.010621609733777154,-0.0550747787475697
1682026509.6674366,-0.010712852368049154,1.1651833761505248,9.716453347346452,-0.006117356611666306,-0.010768817925152382,-0.0584922967374436
1682026509.6780355,0.09817788095475265,0.5877507601163683,9.43704516211791,-0.006795895047605169,-0.012664792253285225,-0.052307867807161
1682026509.6874433,0.5272415850773566,1.9660093623365813,9.951162896284455,-0.034048148386731876,-0.006098774060268015,-0.0516233308136574
1682026509.6986864,1.0627845971820358,-0.8393354031989292,10.01097829715492,-0.021895476863113,0.0038377357112690876,-0.0286348661303631
1682026509.7078311,1.406391949194477,-2.69837231712888,9.974764572416145,0.018685540987859003,0.015024134394695045,0.0104248445585258
1682026509.7173746,-0.10705073866757385,0.7956406339938736,10.022348383180866,0.021022801988818535,0.010500054926101454,0.0338518010556586
1682026509.7480214,-0.29574959017137326,1.2007687428454512,9.241486557356835,-0.013171287105038353,0.0064967588523712465,0.0577863553643115
1682026509.7523737,-2.9808936611385386,0.6606799863014247,10.153414114885388,-0.021172436125751162,-0.016195518986591224,0.0592458458721526
1682026509.7588675,-0.6880899626655559,-1.9743460808631235,9.260138409430505,-0.0019558039605465124,-0.026258492231319576,0.0376357423245795
1682026509.763389,1.8379950960142135,-2.4508544315065177,9.256282605330522,0.007973521614625917,-0.011922940660789506,0.0073120888426788
1682026509.7688315,5.238712593573805,-2.7052956295575914,8.462957898802332,0.026393002151302386,0.03418412192696148,-0.0120847536146752
1682026509.779024,1.5852855861170243,0.46523894039330904,10.216154736457854,0.02249398244349873,0.058938829526702236,-0.030282725942146
1682026509.78865,-1.49317075897895,0.8542737423408223,9.916495598396533,0.005072584745253623,0.049582426140195875,-0.0558897418797127
1682026509.7988904,-1.6605252232660064,1.5179411705643777,9.939177598888074,-0.01674248781236141,0.026347924512803593,-0.0538235803961865
1682026509.8090098,-0.8172731401431192,1.994710281175194,10.030664292748625,-0.03939441290972202,0.01630011199367758,-0.0507398670435063
1682026509.8174982,-1.3105518220440953,0.7558205157034418,10.229962957488336,-0.0486012896041913,0.0010594478813532927,-0.0414163594961277
1682026509.8275242,0.9058784192046742,-2.252614295291344,10.365106859610847,-0.02426559129610235,-2.488206183845022e-05,-0.0057813947916142
1682026509.8374395,1.2376782603469156,-2.870723523942902,8.560276273348014,0.035144819554915024,0.01650161702737296,0.0317855985939391
1682026509.8482332,0.10292202673700203,1.4640485770652147,9.739123875884708,0.017410239459145348,0.015932993809977224,0.0467588031768687
1682026509.861802,-0.4542363397970713,2.713084838157181,9.315637074109144,-0.026246994653154696,0.015296469856091538,0.0557574020802863
1682026509.8679533,-1.86606691594373,0.4006976715050071,10.596528822873585,-0.03568854307840038,-0.0017508869246091168,0.0400717804312594
1682026509.8775215,-1.0295853565842081,-1.6069283327289028,10.470907826972391,-0.025201788498464897,-0.010521715113876279,0.012605137760926
1682026509.8874657,-1.0391052310777067,-3.4931204139558374,10.407429071439374,0.02322402996977913,-0.02900034151953012,-0.0169261949032656
1682026509.8974636,1.9681538451807092,-1.2095605777700007,9.121441040720875,0.04384967773342139,-0.0025552681942067213,-0.0281845921546332
1682026509.907611,0.26733212512545934,2.364601710970106,9.398792592214122,0.010928686931007316,0.008574580184726482,-0.0435523664474598
1682026509.9175344,0.6867027458615671,1.9056361027803148,9.104954386513871,-0.01947676187232375,0.02158054591555897,-0.0480766979873291
1682026509.9274664,-0.20878756904749185,1.298870990073184,9.630027973748172,-0.03818444361881071,0.026606819993876124,-0.0499627267837635
1682026509.9375243,-0.06305272886134157,-0.40871743584388015,10.49473009766837,-0.034332556109149065,0.023546228563526134,-0.0356948276877514
1682026509.9474523,0.053245694398455445,-2.478544919646006,10.318628181198216,0.0020421691945703,0.023144379302436513,-0.0083632556617371
1682026509.958336,-0.10000001308490444,-1.186674778993957,10.01531518645244,0.027260486308639507,0.01733019752551535,0.0223411383211501
1682026509.9690526,-0.1258003654853672,1.3569824001572397,9.649623965198591,0.011418585636516867,0.015688813071197936,0.0434590937673934
1682026509.9775193,-0.6800349438366291,2.396162896840438,9.684532479885448,-0.020826487270002386,0.007054159313906486,0.0535290265560038
1682026509.9875052,-0.49850613242213504,-1.188783216639,9.049284567713329,-0.009305855349281748,-0.0014856212992563037,0.0455894829809554
1682026509.9976,-1.2851811678138296,-1.6693120361527896,9.285970427024372,0.012064754977714422,-0.015914726439439763,0.0220024926692135
1682026510.007506,0.06923384779069355,-0.8797630484658001,10.117548445453625,0.027971456326417638,-0.021361706846461798,0.0044125545408465
1682026510.0175054,1.1071224746177712,-0.3363582305970824,10.162398078499667,0.026373296958694774,-0.004320664914880786,-0.0170610094338766
1682026510.0275257,1.4877046989068936,0.05122251698996142,10.054719889076791,0.027751490934493892,0.01234556855663026,-0.028821939033281
1682026510.037467,0.8187673391992455,1.3072377890819633,9.22089901719265,0.005906961239353978,0.031529146301946656,-0.0323563678085915
1682026510.0474918,-0.538636711189101,1.8543466858891686,9.571120804030855,-0.011536120987881683,0.024308626874658176,-0.0393549663841835
1682026510.0575218,0.07896792794729836,1.9543526654682526,9.945964962689843,-0.042788549395761134,0.026934908994215884,-0.0424911728024594
1682026510.06751,0.12142073067028934,-0.12843136477630493,10.059277107045748,-0.04056572687232374,0.029212426996002266,-0.0380289567530266
1682026510.0774798,-0.5221011008375828,-2.990702071540013,10.247611110137841,-0.0007757372292793041,0.020495330932139268,-0.0164062542736641
1682026510.0891926,-1.3358576526125054,-0.5326993953337641,10.187688089687127,0.02646411122698212,0.0009164387659888687,0.008321483723063
1682026510.0974953,-1.12032890315635,3.435955851588745,10.191300574193535,-0.0035170621496367752,-0.0162679755989051,0.0444227593123801
1682026510.107454,-0.3799870704057769,1.5993334615701849,9.769126476023015,-0.032516220440028,-0.025439769419685246,0.0646465966582186
1682026510.1174772,1.24331887635895,-0.4603030467190757,9.524059122018615,-0.021006148278392128,-0.014165712169820743,0.0580122457921393
1682026510.1274755,1.6299805969797314,-0.35677731920395583,9.319399007066103,-0.017906953462012074,0.007911849028472619,0.0386298434913046
1682026510.1374888,1.1648359794064016,-1.448628863811052,9.73384813090847,-0.007157540200278172,0.0284074319853511,0.0151717966526635
1682026510.1485655,-0.30805584201885094,-2.452380333876771,9.9095083890399,0.02591690412383994,0.030100412734920735,-0.0170732283860556
1682026510.1582444,-1.272173307219361,0.638190835464038,10.161833812695654,0.014089299042548636,0.019660368909186356,-0.0364737337350956
1682026510.1675477,-0.9039794440281306,1.773541884479938,9.87756547662535,-0.011499237178389696,0.012133973151796313,-0.0467927506089322
1682026510.1775696,-0.30676971812449516,1.1820626215846002,9.714208199946585,-0.031012987630752074,0.008274643555666995,-0.0479723861336819
1682026510.1896305,0.9285567991354402,0.15102843269064603,9.74847655308253,-0.03549895440097341,0.02166131425903199,-0.0359943820059411
1682026510.1974795,1.332792067855733,-3.084926481760659,9.668590444033867,0.0015154048678477782,0.03380991383147653,-0.008277673636388
1682026510.2074556,0.8796511411567853,-2.4617042825394644,9.903338662278331,0.04087824506998578,0.04079896090747053,0.016916753362108
1682026510.217475,0.040503650461729934,1.592979706200382,9.53936552640243,0.03145858702909327,0.04388966398588518,0.0437926152825244
1682026510.2280233,-1.4843445515297287,2.3783650073150904,9.737976295273372,-0.006825997973660515,0.024808215703579193,0.060962299454201
1682026510.240414,-1.3990395424503606,-0.5217931087004248,9.393728667867503,-0.0045868653043651675,0.0033478095750881314,0.060023768442858
1682026510.2474518,-1.5808369085560856,-1.3822495880775119,9.865863204536291,0.012948972202391327,-0.012410542812345425,0.0373528139769919
1682026510.2606542,1.275611371432803,0.9407794788088589,10.322118342690562,0.002879658637989478,0.001931034432444469,0.0272789416938908
1682026510.2677827,1.8336510234376564,-0.8201087860906067,9.550248718541717,0.00955280037870842,0.024696699760268132,0.0092531005956121
1682026510.2774456,0.09645295531299808,-2.316636576961932,9.632700461545625,0.03264684591462615,0.032917334929649496,-0.0168219054013602
1682026510.287905,-0.6650612486999922,0.8880273410400903,9.534925271353773,0.025088742673574242,0.029955172644453253,-0.0240462602943293
1682026510.2974532,-1.5257563239646075,1.0128201509001922,9.724692040955574,0.004630895842626748,0.019170410394215135,-0.0273013928800932
1682026510.3074696,-1.3428464136346434,0.7908208776578035,10.496101053891229,-0.009399557588069698,-0.004288869260931778,-0.0297397015512101
1682026510.3186796,1.1159410024326872,-0.3813906846916075,9.748481132456465,-0.003301993472861016,0.01120106207256826,-0.0233416551619879
1682026510.3274343,2.142831971403097,-0.8820309329633877,9.659464909505123,0.007145860404093801,0.03421443196887519,-0.0073615865677706
1682026510.3374715,0.3517867257363628,-1.2497492747913872,9.427180499270936,0.031136161223985624,0.046020763874315855,0.0109379269286878
1682026510.3474512,-1.5988554778770647,1.2294845383289081,10.067969952828681,0.020699785463329408,0.02185498290521458,0.032684149789799
1682026510.357452,-0.7981024489695133,1.772182802569762,9.36534096382471,-0.002302457695928146,0.01559051095368425,0.0479634614765532
1682026510.3674753,-1.573428405835174,-0.3485341503944526,9.693493368097972,0.0023949950514597896,-0.0055047552541512565,0.0469107614934332
1682026510.3774571,-0.25709628165128945,0.2649098598888861,9.818236314697714,0.0018362861667351028,-0.008102975822229299,0.0309687206625826
1682026510.3886018,1.1883861999593481,0.593826923495895,10.252473903948324,-0.005560839166209355,0.009040825427012978,0.012075011256326
1682026510.3974357,1.0129044241484308,-1.3496523182431333,10.35420980099126,0.011582921866859828,0.028785598680145092,-0.0086879780411831
1682026510.4074404,-0.5647732596926407,0.27449348019395603,10.412398784137086,0.009738443647168093,0.030683604978342598,-0.0303081286966912
1682026510.4174812,-1.8456814644567388,0.8901732985337637,9.790569091680366,-0.0018549298642617767,0.018648219242357,-0.0351837886393181
1682026510.4275205,-3.0563602871360587,0.7869379850890897,9.893390452618489,-0.011769714695074313,-0.031027212093071823,-0.0129425166070572
1682026510.4374647,-1.2513463543322334,1.9868877267971605,9.904172249015446,-0.02595257429196842,-0.06312909696006441,0.0149722486838586
1682026510.4474745,1.5623265878153292,2.076301826748235,10.138793014254116,-0.05107183910869511,-0.07182544403614627,0.053005787181843
1682026510.4575567,5.668593867359895,-0.7339889610437517,9.648867286061416,-0.04201813757395438,-0.026199668173087647,0.0943992162227519
1682026510.4674797,6.129971116651661,-4.032743737960234,8.411692479590934,0.017417878725431525,0.04099214063693463,0.1187176952242739
1682026510.477447,3.0994918300230196,-0.32817377557200555,9.116259486886458,0.03033568110802462,0.07303813161663632,0.131806554841984
1682026510.4874723,0.3501311812417021,1.4481283027883627,9.374069064206957,0.00987983378344544,0.07648381439910547,0.1351531321287043
1682026510.4974732,-1.8108494899184135,1.1377175784694187,10.118028859851215,-0.0076920761537766285,0.04353751643758881,0.1269060397624858
1682026510.5074732,-2.647663752487249,0.01063109124551314,10.174857723010557,-0.00808148384390899,0.0041672547370660284,0.0868968913435824
1682026510.5174613,-1.301796928035272,0.4296092310330314,10.336102562918146,-0.018481581594302122,-0.019372720672124092,0.0435074890136607
1682026510.527478,-0.5170171203956688,-2.9554493758215346,10.623185297194711,0.00951259754608843,-0.029189788426628116,0.0003926824882515
1682026510.5374727,-0.013069163813095603,-1.6835457316298141,9.759532973141102,0.036586402518319724,-0.035413628003388285,-0.0332575378835312
1682026510.5479398,1.6163561641659676,0.8885493826557278,9.662412960878768,0.028836496218523223,-0.01908448488296205,-0.0366636602103821
1682026510.5576742,0.7498114651136956,6.049247734293404,10.629407176611684,-0.03732760312716772,-0.021641451984409164,-0.0320026663959137
1682026510.567821,3.3687220624270626,1.5254958644795837,9.885255702459984,-0.0725208645804379,0.00950519237411541,-0.0148428318917862
1682026510.5777671,4.113855285695157,-3.6138342615299104,9.2405047719123,-0.03113534823713505,0.052391441088113964,0.0207767864793427
1682026510.587654,1.3267452302212572,-4.282841397136565,8.268841199766019,0.04018248536312382,0.07249013029020686,0.0478800000727065
1682026510.5975385,-0.8579852129774634,1.7270906398047539,9.869731077064797,0.023444760827569536,0.05594987890630933,0.0729824999451525
1682026510.6089585,-1.2483157917177221,2.1555391225349836,9.569010505309564,-0.014536103529240004,0.043866586696024584,0.0998040014982112
1682026510.6175115,-0.8025136578097538,-0.6210708640947348,9.141685044346392,-0.012370794850209612,0.04053572097903187,0.1166279042243846
1682026510.627504,-3.5034666801741845,-0.013284839271908067,9.457526525280954,-0.0017990128985046257,0.02551057106162305,0.113708744394768
1682026510.638244,-3.787945852842241,-1.4785233270725309,11.09682318493505,0.008770203548130694,-0.00059106623060516,0.1068266430973895
1682026510.648085,-2.7441434242517615,0.3604125109882946,10.632017887632554,0.00897147129861591,-0.007119585954689697,0.1021104553818591
1682026510.657627,-2.5384426099190263,1.2663233384302546,10.113449373575682,-0.011042459967678256,-0.00569353460726211,0.0936832377791293
1682026510.6675494,-3.4543258135492296,1.972594646533368,10.646238425917433,-0.029823707150129428,-0.026187690670729496,0.111296507167805
1682026510.677471,-1.542196827310731,0.5431761281956259,10.252130249579151,-0.04065856422669136,-0.02997809054198499,0.1232030043482668
1682026510.6875186,-2.1930372300677936,-1.5210849255642906,8.957610554151204,-0.014626439366775905,-0.04023671098618348,0.1298431480407603
1682026510.6974776,-1.210644771844765,-1.078593261610097,8.817479741353651,-0.002325807478682884,-0.044815015418694475,0.1538016224384196
1682026510.7074797,-1.2661237137791956,-0.8277978484369689,9.24066134849083,0.007181764691008768,-0.05490821721838034,0.1748676771402247
1682026510.7175584,0.4428907608264578,-2.274937899879774,9.322434197497255,0.03526101127832878,-0.04804579662462823,0.1863076860189326
1682026510.7274957,3.377159538401233,-1.6874491881127252,9.58136714695029,0.06791522360222804,-0.009264577890220956,0.1942661875963099
1682026510.7375093,3.650047522581751,1.2626163891537416,9.486084568116693,0.06610769933330032,0.046330510254622335,0.1804201627254374
1682026510.7475996,-0.8975532185863104,5.32872944970172,10.790049950425118,0.008098797060031767,0.04371051239277601,0.1589597487926371
1682026510.7706783,-3.218021837020579,3.0199598832691152,9.825058415002067,-0.05345950185993799,-0.013790372844654047,0.132311823415745
1682026510.7729266,-18.62818459451201,1.7799889481947966,19.577289263144465,-0.0659304181186081,-0.0964885667200977,0.1252990314841159
1682026510.7774532,1.3148453342637392,-5.880572428943758,7.702529538794992,-0.011318732736448792,-0.09532116169270437,0.1416315609693415
1682026510.787613,3.6844571302518236,-1.6037263089072884,8.868114703581515,0.0381288491686248,-0.06260645494989203,0.1773211235284693
1682026510.798792,5.253437025410403,4.236268179297314,8.368075341229419,0.01616384712831958,0.017889535319064145,0.2160306150197871
1682026510.8078363,1.2616840657277322,6.413322438753165,10.835813617846751,-0.06097780335622377,0.03491050795340131,0.2365989858388789
1682026510.8257866,-0.49317826709147644,-0.0797974951687567,9.937684702740858,-0.07934940330760858,0.03183657316582746,0.2517210120439418
1682026510.834344,-2.85446386135072,-3.0400124638901502,10.413529178917404,-0.0631666879760526,-0.00686713098569797,0.2547821277856715
1682026510.8379743,-6.5061435614265655,-11.550447390029847,9.537180079295702,-0.002112743015175076,-0.04642970095498957,0.2364595407724269
1682026510.8476658,-0.3012748872920594,-5.899060867976449,9.417206791359375,0.05600602723817061,-0.05902248452896625,0.2162908041953929
1682026510.8575444,-0.28718922667039515,-0.8866405572592458,9.32599397053677,0.07552914505377813,-0.05766544357733642,0.1896889234065898
1682026510.8683674,1.0472515371257007,2.1380459066795443,10.215953658122768,0.052316999333945347,-0.053564716788158946,0.2007345283508189
1682026510.8778136,2.5335598152126835,5.039280194212693,9.63736808844653,-0.0008464724357467277,-0.024207038975463942,0.2189600044965632
1682026510.889379,1.7892399878067184,2.339995889606141,9.742605363430869,-0.020230234886744046,-0.0031665492920705616,0.2343905294418223
1682026510.8975506,1.2249632542426714,0.3930964459316032,10.075768922529484,-0.028489764344629992,0.006037723323096078,0.2415647978067286
1682026510.9076784,0.1317474220781524,0.22801355073615315,10.280987943365421,-0.015793139102630426,0.008653852371383641,0.2464685613393672
1682026510.917622,-1.2703910953276003,-0.3930868406734007,10.629722823760885,-0.018041573383336236,-0.010675411835865872,0.2297179276227839
1682026510.9278991,-0.7260503322745161,-0.8696948722879388,9.335993441733667,-0.007764764243708018,-0.019902491844465218,0.2161636525869258
1682026510.9401698,0.4349137361515416,-1.1684654300388937,8.708225484358172,0.005300419448673972,-0.01592558032736712,0.2325290614843257
1682026510.9476984,0.9721970641932941,0.5554047956497364,8.09511429148048,0.005982977970364729,-0.004214534511908563,0.2489463413238413
1682026510.9575222,0.05382901851167857,-0.11254411895955403,9.333812463543074,-0.0005688870168111663,-6.017008996257351e-05,0.2548649782419093
1682026510.967556,-1.4472397234871834,0.09343524870501531,10.53082403078263,0.006072102371104913,-0.011443267082996212,0.2490137541770823
1682026510.9775536,-3.430960827766109,0.5947164209818201,12.477828077194165,-0.016531704777661613,-0.04860464937492589,0.2176059806823619
1682026510.9875128,-2.1020405712447827,-1.1095142977879306,11.447392505635483,-0.005589209636113082,-0.0741172709471387,0.1872843230247386
1682026510.9974732,0.5344719942534397,-2.4266832348352776,10.319488824201532,0.025527792418378013,-0.06974537394560434,0.1665519500255473
1682026511.0074885,1.9417065512707745,-0.017132830871764725,8.577678898902994,0.03647980120847056,-0.04443878850954181,0.161660122323025
1682026511.0276582,1.4462938597995956,1.9252720929320073,8.696924031141277,-0.0034770678805774906,0.0009225977786477096,0.2118691975355036
1682026511.0374992,2.0938356228522133,3.522179199624524,8.593464676991282,-0.028116659028858595,0.01769604172266138,0.2754546279191859
1682026511.0485995,-0.8392136005411134,-0.0016900937174657293,8.894858718975087,-0.030134608169749975,0.010814024477416508,0.3098189408063777
1682026511.0630476,-0.13964060380400026,-2.6334040187748147,10.257628716913219,0.0006702797237819787,-0.014109830243027444,0.3108805293321498
1682026511.0679672,1.494689389132436,-6.329098633879468,8.375751804484517,0.039576499722470605,0.00514906876993635,0.275052982020367
1682026511.0774891,0.4556419786796322,0.4565564827277912,10.79855914632419,0.04023022986093001,0.014487855933254653,0.2363353693961985
1682026511.0875957,-1.0969825537772693,2.802125757232689,11.617095432381985,0.003611873309975426,0.00745263930409969,0.2002972686767466
1682026511.0974703,-2.357289404159081,3.958040772903791,11.477957589304635,-0.05674164538868586,-0.01843044668770455,0.1646322483301051
1682026511.1074817,-1.6583085149530927,0.28219213597423387,10.337781900613518,-0.06608665734732774,-0.042932951888208074,0.1515877122163661
1682026511.117629,-0.05597091056191217,-1.9923427845820723,8.581778128480769,-0.0401774423425309,-0.049874223999508714,0.164047184038151
1682026511.1275,0.13028153308769658,-0.9526919003392177,8.428400724856045,-0.01676957134109708,-0.053420727655736536,0.187553169774998
1682026511.1376102,2.191690914136285,1.5359402019865782,9.144148691028745,-0.030682695734279657,-0.03321786336102909,0.2268517935752757
1682026511.1475656,2.380004269032881,-0.3641690058901465,9.046048017408971,-0.025536106858504878,0.0026766480593984022,0.2630970651388057
1682026511.1659102,0.5354447859130319,-2.9596445319760165,10.160663216277563,0.010559159272486855,0.02061347878979865,0.2818946713685878
1682026511.167592,-3.199303027116493,-18.552845430782025,5.932719263822962,0.06441691996873315,0.014223653608970327,0.2731522793054469
1682026511.177588,-2.1515295816064075,-1.7309318930400655,9.61038083069686,0.09065228384981275,-0.008051128106564177,0.2434605235338099
1682026511.1877458,-4.140570039390479,2.8534792737748016,11.58621217405827,0.04733271101687827,-0.05537960576615574,0.1988393539667018
1682026511.1978369,-1.85370129768239,3.850310512620575,11.846905605788486,-0.013876716556300354,-0.08822724717677015,0.1709128791570552
1682026511.2075105,1.6144647495147844,0.4820728994982574,10.23561554401683,-0.00897993595547144,-0.07599044531377586,0.1813855642557032
1682026511.217781,3.920265044092407,-0.3102292487145721,8.826042577686136,0.01790390986985135,-0.03410341102469988,0.195924671936024
1682026511.2277436,3.493224125267502,1.0892296383864166,8.13599816451899,0.024764622749459984,0.016309051578802285,0.2140818858623393
1682026511.2376466,0.4290347260711922,3.1026845965267857,9.47667731736468,0.0028750277446033027,0.025843792055356668,0.2371525341749079
1682026511.2475178,0.4158773621820508,1.162552372275064,9.972244360537788,0.0026524292243956826,0.022453838760349173,0.2527948791265376
1682026511.2574975,0.40707973329018826,4.1931162964957425,9.665259384768516,-0.04554141974593526,0.03817674188790279,0.2506236011266597
1682026511.267556,-1.658011768832863,0.08155202980981129,9.867823116008235,-0.060205884062441,0.018755324823779288,0.2600899512052425
1682026511.277545,-0.19965346297092149,-3.2208594141574016,8.615304233435712,-0.021300836992770463,0.017280123696651804,0.2577573532342799
1682026511.287568,-3.24696730742353,-3.524679671977517,9.124098148050725,0.015820811156334234,-0.01226897322899829,0.2424241775751002
1682026511.2976131,-3.7775055898559486,0.4858727084723418,10.862557277938791,0.01669704815289409,-0.05870575289898673,0.2287651026725657
1682026511.307665,-3.3956836281432374,1.9983544766203951,12.377022408055725,-0.025110665753938,-0.09907137352850595,0.2112089419841654
1682026511.3177202,0.8913464875620456,-0.8114612536560356,11.191511784332093,-0.022878473583057883,-0.09208469740910259,0.1941021407127268
1682026511.3275068,3.5863857444407543,-3.906162888401354,9.48128798181389,0.016910585774607315,-0.04195600150950391,0.1896999651670344
1682026511.339674,2.099343895874657,-1.7512690622658422,8.914331721569999,0.05129404568441284,-0.00859969167100519,0.1876971149921305
1682026511.3475385,1.6693778640470958,0.24235123347538604,8.884030281897534,0.05105589205199111,0.006672873814432733,0.1982722157716639
1682026511.3575523,-0.025495896573050892,1.8586514936341754,8.912541295665989,0.048168446928450716,0.0019676829443324587,0.2261986458778269
1682026511.367586,0.15197521562663038,4.223148225925029,9.311282702977637,0.010462941984622833,-0.011139853819762563,0.2603886002778895
1682026511.3775563,1.6890790771944808,2.6423248783365,9.022949340219787,-0.014884569365737463,-0.003393624728925896,0.2951386446237453
1682026511.3875024,2.8796297696244855,-0.9566920288378893,8.603377629304797,0.008561528122229444,0.02135575620732763,0.3350204998731502
1682026511.3975976,1.3979049229604128,-1.3300317707906248,9.73860536037592,0.02698155904540708,0.03483235752829733,0.3217610294103511
1682026511.408285,-0.23512535033161455,-0.08289786664284425,10.370994215874118,0.03332528547099749,0.02838047890143591,0.2799661034822353
1682026511.4182973,-1.349361427918705,5.298365058281771,12.308203314763054,-0.048951264190617544,0.01732704486087568,0.2210277194261439
1682026511.4275427,-2.6290911881554138,0.4060544044281246,12.397271692855496,-0.07455343608445181,-0.015401492076168078,0.1688208157300837
1682026511.4375334,0.4722215475043856,-2.68463507403842,10.55202457447906,-0.048891141290133174,-0.015127871255734575,0.1464124197244532
1682026511.4475603,-0.020312458595731456,-2.5683879428058325,8.442105255189297,-0.016212791924237035,-0.01388310451611245,0.1479281211376078
1682026511.4575298,0.18711678355733694,-1.1305541644940242,8.292511369716994,0.0024528834420383954,-0.018555846793926866,0.1712993854761012
1682026511.467552,0.16368038244248523,0.9137164114172297,9.32996175397756,-0.0005360920712906932,-0.02097284728547929,0.2107979530572779
1682026511.4775422,3.5559769768165754,0.13661519323535212,9.613784958568324,-0.002028523664779644,0.01583574567829626,0.2526610368966945
1682026511.4875348,2.452844692814057,-0.5706335552823676,8.931719029685702,0.006214222661883179,0.056644253372196966,0.2879690403222926
1682026511.4975142,-0.2554356285862119,-1.8461636447399938,9.330217662338391,0.03453209888217982,0.05434033704945556,0.2876365358114131
1682026511.5075357,-2.741998732854014,0.3632894642118683,9.830611261554692,0.021964161965061794,0.028196540484864585,0.2659483427286037
1682026511.5175445,-3.6516591827294955,1.20842279582576,10.903358296612204,0.0028013652539301136,-0.02039713579180057,0.2316254103660472
1682026511.527553,-3.1131396936861297,0.36118789530138556,11.768174169867033,-0.017277256321381444,-0.058826762250652455,0.185712742257107
1682026511.5375488,0.029658660251130193,-1.0060064279663534,10.69691703020623,0.004039786064203748,-0.06197609590461954,0.1576132947683222
1682026511.5475054,2.6662793223328487,0.7111614237139269,9.262952327984626,-0.0008661135322220141,-0.02390338502741929,0.1450239593267329
1682026511.5575564,2.673153104888172,1.747341348513284,8.08644242020828,-0.00747598633623089,0.016627174734811404,0.161977442550648
1682026511.5675342,2.6609083906264623,0.21492308636315688,8.78721114629311,-0.008202952508353272,0.04504976315098576,0.1968883747339137
1682026511.577614,0.9771343697098974,0.9654493125209435,8.660422676645885,0.022944560755865564,0.057963501293437615,0.2559808665990718
1682026511.5875697,-1.599469877172411,6.407074231102675,10.962497507000597,-0.05086452888218037,0.03147793309957874,0.3005268151044734
1682026511.598739,-1.602267887327021,1.2332245673678248,10.184904254921925,-0.07693314264133225,0.00651954489338137,0.3226712221383937
1682026511.607731,-1.0260189945566076,-5.58315683287399,9.887423955896004,-0.020129613704778882,-0.017616373604174194,0.3191165501356013
1682026511.6200695,-1.48335818060912,-4.566334974174828,9.197026379289605,0.04551668024106715,-0.02442513600177928,0.2706028098344691
1682026511.6275434,-0.21341561274069776,-2.8208851172201164,10.041009126444228,0.07123118396940006,-0.02798268461082047,0.2386411899804957
1682026511.6389973,-0.14743306417793,3.96859142919593,9.22306728579854,0.04105071159648196,-0.009923757805205737,0.2173139030218012
1682026511.6475356,-1.530348756777477,4.998041529259794,12.367324843282308,-0.046260368479866164,-0.027340055983171692,0.1821514988422282
1682026511.6576,-0.2326982160723782,-1.248333597219214,10.35206584073158,-0.03178971675660528,-0.02452380801441466,0.1680632406949885
1682026511.6675377,1.0372475948126387,-3.677319942074204,10.237810448349345,0.00024128533614116177,-0.01613972902652562,0.162932785797108
1682026511.6775825,0.1072212278304845,-1.8493404471047146,9.250789859076379,0.04351835621565489,-0.02158792482293513,0.1621834958076365
1682026511.6875267,2.2200217002956935,0.566586212028608,9.520114159204477,0.030704280632693186,0.0011860723267934751,0.1691898876905329
1682026511.6976106,-0.2918389511660405,3.3891303054125874,9.18622574418534,0.0010370329201790473,-0.005422011545362717,0.1873032922029383
1682026511.707537,1.0164416296632894,-0.1023067941391523,8.938668142410558,-0.00434800776960633,-0.006417865082535235,0.2408739203691371
1682026511.7175305,0.6542084172096982,1.1842416687765895,8.503079904589642,0.006588098892656893,-0.011985941790048022,0.2966773683309444
1682026511.7275355,1.1943751559530755,0.2521038984468724,9.135149359596873,0.009945699807153638,-0.01129460095734207,0.3148634011030086
1682026511.7375789,2.4077873188614736,1.6352075405211464,10.343476117634665,0.0005660951957785731,0.009987613038869997,0.2977898294210322
1682026511.7475884,2.132346433464874,1.526017794016424,10.879203707166765,-0.0028868894961763176,0.045025134462311926,0.2570137256860622
1682026511.7576208,0.7125045731295447,1.9298643300591711,11.678683279829638,-0.031130895670432777,0.05839048840911067,0.1925324672937281
1682026511.767601,-0.9461659222454314,1.3035114542872845,10.35062852637959,-0.050459363027865585,0.05972255622653806,0.1466091448545344
1682026511.7776887,-2.5836640846759256,2.736016847935327,10.471705277846375,-0.0950027733294873,0.028354621995509484,0.121588970172394
1682026511.7875907,-3.7302325444055087,-1.7121196958163372,9.825595294785845,-0.0929451317523288,-0.016506052200778873,0.1307994598626979
1682026511.797624,-0.87068139573471,-6.560729698153266,8.426717298593964,-0.009582871476360257,-0.03489713470969061,0.1579707289218791
1682026511.8078766,1.2998204806557114,-1.7925232714565849,7.71989170262102,0.03303496070036374,-0.01729831345916257,0.2142837816953547
1682026511.8175645,1.7709157390527999,-1.0728130352232466,8.721343405275181,0.03851876050322478,0.0005298459242381895,0.2426223630189784
1682026511.8275838,0.001965245261627036,-0.4559703501343105,9.175826173197791,0.04111681854392849,0.007696777937679822,0.2373850667953379
1682026511.8379471,-1.6330168085623353,-1.0777304213656498,10.730613404864187,0.03213803109386953,-0.021919962206275588,0.1947717541932948
1682026511.8480191,0.024472332933300846,-0.6231321406057609,10.426591006126307,0.03119523499234105,-0.029077685333495397,0.145832257914532
1682026511.8575532,-0.43515544599608397,-1.6494457134603637,11.1092983450127,0.0352612799556287,-0.03839071216290748,0.0773006925463564
1682026511.8675592,0.46580650269116447,-0.5068489139786209,11.260832484797413,0.03463601268540447,-0.038524354886277895,0.0290583806216605
1682026511.8781002,2.2600817710041823,-0.573662975202216,9.88413303694846,0.05605898565912461,-0.025214359205331105,0.0182804750382788
1682026511.8878286,5.104843308412475,2.3867751828141377,8.330076449961318,0.05099156569832774,0.025588703823852477,0.0500774035334475
1682026511.8975909,4.626800001827535,5.5918564189377085,8.896234946294243,0.007435005078588505,0.07431936954463544,0.1118481779575236
1682026511.9075894,2.3637188080169693,5.297894381816078,9.61317184272971,-0.041375231475133514,0.09342141108578027,0.1627693498611338
1682026511.9176328,-0.8093842345357684,4.066794367240537,10.409330977508516,-0.08800429907639974,0.07801305454319506,0.183804350543011
1682026511.9276557,-3.2130230254978454,-0.2806248689884988,10.271926241756269,-0.09666320964237714,0.03674808033675768,0.1668176079273112
1682026511.9376166,-4.207374047123005,-3.316744351843367,9.736049172230851,-0.05587114495992588,-0.0158747629851941,0.1475562179565318
1682026511.9475408,-1.2736649684473078,-3.7753383645385536,10.091661410093295,-0.01986183920740338,-0.03750821423076536,0.1278589690208323
1682026511.9575536,2.817287053920503,-3.013630888457936,10.690230166455054,0.008762916737710671,0.0015684731273829374,0.0925232717871554
1682026511.967821,3.0751817492280797,-1.3900037176029496,9.159402224264113,0.02386122402797941,0.06298450959481539,0.0722804913401492
1682026511.977584,-0.7433855381114791,1.5224860081468792,10.123182020354204,-0.001383324478088269,0.07494901706239618,0.0611497672378905
1682026511.9875643,-4.071555561947459,1.991438382701355,10.868919389389378,-0.037501462598604096,0.02755920717219384,0.0637446852505095
1682026511.9975543,-3.8852756752552824,-1.2899393436901012,9.926693585322573,-0.0278490228429188,-0.020968754888239894,0.0865407684922106
1682026512.007584,-2.463957977591259,-2.5835096898886216,9.626305700732,0.011591852291987961,-0.06982595170212581,0.1053036997198947
1682026512.0187037,2.649655128297699,-0.5218149340833694,8.412045142445141,0.0344249076505473,-0.04403271869340115,0.1191320518135913
1682026512.037537,3.289294602164762,1.4451823447269516,9.153019531314248,0.02267560861901265,0.021869345417049088,0.1402721578359492
1682026512.0385668,21.005801055041683,15.975335838798275,3.6502784693713135,-0.0020980011345356226,0.061984438683119036,0.1547116661548503
1682026512.0517154,-1.7537404925828872,1.9909449858842163,9.415382569803176,-0.024732771278963738,0.044438056422940124,0.1588322991609461
1682026512.057709,-5.856681323870965,1.8809855019030282,12.499483086694774,-0.05205206208171977,-0.012019613833796083,0.1499932134628184
1682026512.067597,-3.5506557304051216,-1.415387722366158,10.860699081020186,-0.036869421804578785,-0.061107358729852936,0.1314197654008753
1682026512.0776825,-1.7812273989218723,-1.8909232881293514,11.350863834104517,-0.01166686667815969,-0.09076786694455322,0.0837691227078326
1682026512.0876417,3.08928910743554,-1.5082008091094934,10.417460383570084,-0.001153020280157007,-0.05020896816317902,0.0537898415803797
1682026512.0981076,3.6650403911145712,-2.036229998020178,8.980346391578513,0.03841602909163952,0.008606740912843,0.0562828319251425
1682026512.1106598,1.4951209018085834,1.5320096106619705,8.839852983126319,0.02344833707679793,0.039114561900092056,0.0621202761411555
1682026512.1176271,-1.035640824807712,8.076370633890171,10.034009921736814,-0.05385522717782294,0.02791315576133342,0.0816247189521678
1682026512.1276476,-2.004981497907693,1.1212188967938006,9.882188590592115,-0.09046133357813956,-0.010182325281265227,0.0979961628198512
1682026512.137635,-0.35697920046243,-4.284016149684524,9.4318199886495,-0.04444441355168991,-0.024096023668976608,0.1067160615801699
1682026512.1476011,-0.5626853446038904,-6.788020548346885,9.36897277117177,0.05498739366176234,-0.043062497952437225,0.0994935283541567
1682026512.157606,4.591744991383585,0.6178493874152509,9.33500765039219,0.059686957381957596,0.003924651344361623,0.1138021895766146
1682026512.1678233,3.911967046767733,3.465146477157913,9.04875746732726,0.021728556025440444,0.0674877764094173,0.1293818527936824
1682026512.1776297,0.8848066207387334,3.697427794529215,10.199306767265094,-0.03531752395217963,0.08011100962748346,0.145517783808697
1682026512.1876347,-3.5617469771825316,1.4309384056030257,10.717743177131188,-0.049568267595417714,0.0392137998673318,0.1389220083236582
1682026512.197717,-4.560026217151145,-1.158606839675544,11.328069939359763,-0.04900930281707099,-0.02391136196635382,0.1077676067232974
1682026512.2075777,-4.150930694605484,-1.7032264117380571,10.282327752504514,-0.019224195843235748,-0.07483317381371514,0.0723359758138545
1682026512.217593,0.13301771153307884,0.21169649422139603,10.177119732595287,-0.03193010322085685,-0.0789875097098093,0.0554028289496787
1682026512.2276309,2.7972241716894546,-0.6612288277447389,8.683980081103732,-0.011031307195298842,-0.03770108260452042,0.064282449531544
1682026512.2375958,4.847274012093325,-0.7807384189084309,9.246980372586727,0.001954543536854221,0.022910475542653342,0.0823849687456973
1682026512.2531977,1.77031434818942,2.039821356990222,9.40833995430857,-0.01704741735801464,0.0648162082362089,0.0961904550075419
1682026512.2590115,-1.3642482030306025,4.359951943758905,10.495908052414016,-0.05947320216132035,0.058344085490103594,0.103261696743954
1682026512.2690265,-3.7112432122825143,-0.7331591272465591,10.697314110722747,-0.07330487269724578,0.0061026963995672945,0.1096225330710299
1682026512.2796016,-2.6123287520981244,-5.903688399700469,9.386848779065481,-0.0009439581311032082,-0.03767554132357971,0.1099481010913737
1682026512.2876997,0.11451280655197206,-4.986542290443782,8.857592310064513,0.05928736898318617,-0.04704413641772142,0.1179959649324305
1682026512.2981443,3.7662062807870016,-0.016298645627969965,9.035502466345795,0.060917695110042705,-0.006805469468493982,0.1222227910637744
1682026512.307624,4.1450121939557425,2.0023217880997453,9.570499033942767,0.04499105295285505,0.04998099656834108,0.1176391044735797
1682026512.317617,0.48578437364311683,2.949286900140909,11.01019569346133,-0.00734114471061109,0.06415055441865979,0.0873138183832057
1682026512.3276734,-2.923898395067416,-1.124041595700888,10.545589007764017,0.0012568905146527992,0.031062939958744408,0.035701895701874
1682026512.337711,-3.4423498373407027,0.1948307860175501,10.111973163391763,-5.169110664438806e-05,-0.012367688043566537,-0.0088603369787446
1682026512.347627,-2.664595034368454,1.1027467964559288,9.582464362465501,-0.010741711603064513,-0.049598664396872105,-0.0214503848821036
1682026512.3576,1.0212412527496706,-1.1027611560725734,10.338781547620624,0.004051348208956031,-0.05241519047696639,-0.0151537557959668
1682026512.367673,2.9926818185495523,-1.1388579125052887,9.074735475759967,0.03215612379583775,-0.010299728391489465,-0.0011477860517911
1682026512.3776314,2.3632665844519662,3.0315379425782347,10.140389604239687,0.001195432655303797,0.01996325481212948,0.0249765744537003
1682026512.387855,-0.16256366495035882,2.414350268319388,9.491696560724296,-0.03573129997826481,0.024175627548922194,0.0438865708291419
1682026512.3976417,-0.7027209938162816,0.24133457583015192,9.3128545646217,-0.051940785692370754,0.00829672183418404,0.0556161949515231
1682026512.4076965,-0.31619992720964735,-3.5725441682618317,9.030376323688909,-0.015840246422925214,-0.0011381223140118394,0.0601452948629744
1682026512.4186523,0.7782688881897984,-4.839033767118262,9.337499061850796,0.050037055723811875,0.0007686859908218645,0.0579539673507102
1682026512.427838,1.5863532254519168,-0.6803889270819231,10.059153825197,0.06415616548380997,0.01948684549620362,0.0339248875260241
1682026512.4380224,0.5882420515819307,3.5623209902662856,11.064258581144127,0.014927859953016051,0.03864012729602045,0.023577729809273
1682026512.447613,-1.9338661306082137,1.4273456634141586,11.163534992776324,-0.016753965500716523,0.019354565527534593,0.0014095217501167
1682026512.4576013,-1.1859474656824336,0.33186253817196676,9.953032128330475,-0.019356739895553303,0.0017101052926741015,-0.0147559525340907
1682026512.4676142,-0.657176083957102,-1.3180753477570508,8.755934243659292,-0.00018020104254942457,-0.005043714572390605,-0.0178112065315358
1682026512.4776587,-0.31668289563766666,1.434218333571909,8.82395352312533,-0.0017596739689853147,-0.009381321989983114,-0.0104384723946563
1682026512.4882622,-0.2881983945153243,0.8367831500375802,10.167594801366542,-0.01472298900768202,-0.01132140189507252,-0.0030430111929885
1682026512.497633,-0.6962346553266714,0.18738072440629755,10.437050465673085,-0.019272043763300772,-0.018568605820244603,0.0141470857068784
1682026512.5076065,0.07615360135179675,-1.4885947114426503,9.78671983629697,0.006398052207630671,-0.021786968728094772,0.0290869424223788
1682026512.519802,0.7008508109988519,0.7465095338216653,9.566007901323031,-0.008200813251259265,-0.017074848653405958,0.0352186994731314
1682026512.5276177,2.5718428753458507,1.0181521936074238,8.4574781668191,-0.01994227144857415,0.008630385070924115,0.0385422246634848
1682026512.5375953,2.2635158422702064,-0.79112975356548,8.85455917308578,-0.014896375192904205,0.03605872000111518,0.0400221297621615
1682026512.5475843,-0.3395937025603331,-1.2710133030337964,10.283380986652816,-0.0003673628785115623,0.03636728337238336,0.0233156109332926
1682026512.5576086,-1.3115884437000835,-1.7823582963126632,11.268702505608776,0.019865234375354212,0.01848830360012087,0.0170841483503468
1682026512.5677648,-1.956828588383746,-0.680584360134199,11.205075003841808,0.02264958765036431,-0.005575456876732518,-0.0014450732980034
1682026512.5776105,-0.48902586602745574,0.9037629226016015,10.293989552269464,0.009416157011665602,-0.016823345741368994,-0.0239202318608872
1682026512.587586,1.5685467770958803,1.923453874871756,8.936554349798376,-0.0231647164359873,0.000894549280619449,-0.0231820935279242
1682026512.5976212,2.234601482429927,1.1243045548538764,8.45749045562034,-0.03773348901389213,0.029126754697379936,-0.014111168113362
1682026512.6076276,-0.18456633027911087,-2.4417533553522386,8.99747869500976,-0.0029800742897571624,0.036789772787939906,-0.0002320966579131
1682026512.6179335,-2.248017396600088,-0.8003893069873957,10.573277748103298,0.0190071704226502,0.001344855535159369,0.0198440948605425
1682026512.6276329,-2.202012138143379,0.3550212501760791,10.375240935937942,0.020401728903395873,-0.026650657543254148,0.0334990458667166
1682026512.6378062,-0.6331149987996476,2.1865268075373305,10.400021382942107,-0.007950246284869695,-0.04558443690073379,0.037081277567137
1682026512.6480465,2.4971292081416108,0.5946830367397987,9.154847698048279,-0.02170565599481785,-0.018836615250060924,0.0356134796619303
1682026512.6576066,4.073819622117931,-1.9440016262821225,8.16896624923097,-0.0038622566012544352,0.024521454446246736,0.0273535927861817
1682026512.6679473,3.965138464653959,-2.3384349844911996,8.550329424788869,0.032195848861580216,0.08289446492098007,0.021248670864094
1682026512.6778092,-1.497867831105011,0.2755685930846237,10.744562886468145,0.02830393943006229,0.07304346084093474,0.013345785076905
1682026512.6876588,-3.4974578251754886,1.3176593253296558,11.406580001552083,0.008727613053915992,0.03106438656916179,0.0108301915332563
1682026512.6980438,-3.9478353321971174,0.5504766073715709,11.265866004190542,-0.008567831249169076,-0.029858993537178084,0.0004215172828994
1682026512.7077296,-0.13704877715113084,-0.5752532780466448,9.533891190041967,-0.00823949842191234,-0.039927822768635095,-0.0162855511427037
1682026512.7176385,2.2408871700143167,-0.3721044423941543,8.223811150721842,0.005021983218841249,-0.014126773422862426,-0.027621693339955
1682026512.72804,3.5456570048723375,1.643686325992989,9.098355657388584,-0.014093385185914832,0.03502169817037352,-0.0221820076823346
1682026512.7376392,0.7302123298693859,0.23479836049478564,9.95734282030295,-0.014749712298523694,0.05147188548282082,-0.0111579703062884
1682026512.7477195,-1.0074620063127397,-0.8789451955468488,10.634995269343193,-0.001943317492362437,0.04110765894119157,0.0073981616750248
1682026512.757842,-3.018122486838855,-0.8830723878328063,10.640471818319629,0.014578708377896146,0.002718341320248423,0.0171397175744064
1682026512.7677095,-1.1587772361552915,1.25436847855514,9.85026537685455,0.0021451292189841936,-0.01931716283713791,0.0286524431884177
1682026512.7777646,0.3480316870630884,0.7486554651494552,8.91925943776089,-0.014659911861268167,-0.018189912234763028,0.0264156298816092
1682026512.7878628,2.559229188561245,0.027715081900487715,9.077282677959845,-0.017728744570105676,0.007090358729294523,0.0208415096729882
1682026512.7977564,2.786521456448234,-1.5314541784876132,9.221585171423204,-0.005494863942860553,0.051031696212111496,0.0164553426310308
1682026512.8077116,-0.4003208260337364,-1.4724705771718338,10.18707291948999,0.010122787348014976,0.047211910664572115,0.0074004704236872
1682026512.820375,-1.8869937121559106,-1.1347243558584366,10.157685039811899,0.027356074613419303,0.029557634306820447,-0.000228731789451
1682026512.8463056,-0.8254023536397227,0.7672129964724981,10.125283639251203,0.006399428246283447,-0.0028383466182678153,-0.0077244233235828
1682026512.8478365,0.11133200481024849,5.382275111802005,10.635051528635591,-0.01014149473756133,-0.0014993179748760037,-0.0131960682466737
1682026512.84976,4.585144607632623,9.43141624304212,10.779833041993173,-0.045934642609570885,0.014253015954611191,-0.0132522959157936
1682026512.85791,2.2571219033923793,-1.1682113566143701,9.29920320569601,-0.029847806892014817,0.04502380749626609,-0.002685780067753
1682026512.8677702,-0.898273375009164,-1.7292100828132209,9.899143117925759,0.0015556189983845948,0.03465438509478841,0.0099905269324668
1682026512.8781312,-1.2288846080393996,0.2732044486186597,9.75855802768365,0.005883415643600121,0.019031536758206905,0.0223389739274867
1682026512.8876235,-1.5217299140218203,1.4427106631777147,9.64035732157213,-0.010151382194527792,-0.0016481006823218824,0.0350388201057799
1682026512.8976247,-0.8886185396680777,-0.22127195982606335,9.553334517643119,-0.018636929963813168,-0.020060042732359055,0.0240843786030896
1682026512.9076295,1.5787782467600604,0.3643617544013293,9.309392393899277,-0.022595811597870864,-0.0036394393796316425,0.0115723978832252
1682026512.917689,2.418766118186091,-1.0453218765917267,10.175783623027709,-0.019046843176777913,0.032922282777061156,0.0047018733911104
1682026512.927704,-0.12191079905493649,-2.878246686764691,10.668898801543998,0.008367362445563688,0.037432791730189374,-0.003970623844128
1682026512.937791,-0.5276484124368985,-2.204756443534384,10.219633203393455,0.041103992480188874,0.030116929994213445,-0.0084445480153076
1682026512.9477594,-0.48424405818350236,1.5020419641459626,9.972971300464122,0.01709328645195412,0.026356737066302663,-0.0079591566592566
1682026512.957681,-1.2086553892839778,2.7552089408503773,9.687416213113588,-0.016784757491497694,0.009755036239038681,-0.0097934979841224
1682026512.9687874,-0.4483274392025189,2.4866913861125424,9.522131348067665,-0.055955213845495094,0.0024732791793014627,-0.0092290690064541
1682026512.9787006,0.3320828785879287,-2.695859178603605,9.894916738929648,-0.02075336580114221,0.00299019002991546,2.525419573115909e-05
1682026512.9878328,0.9617054896125631,-2.002520559870852,9.025162117197489,0.020417721481595166,0.014096586410354857,0.0113585177913196
1682026512.9976504,1.1610925306725708,1.4253060672915505,9.448962087185613,0.011907118708282084,0.030292004491650624,0.028663131046284
1682026513.017866,-0.29568287888382533,0.7735675284041262,10.261661585740518,-0.02996576844521088,0.0029966582993067544,0.0297236876666434
1682026513.0276742,0.16716666072631306,-0.043939805614561095,9.505177602238728,-0.025987110980713747,0.004076589070704896,0.016853377792228
1682026513.0380683,1.8759141113961773,-0.41297248751370175,9.903898206781669,-0.02903451426734506,0.0259641013123878,0.0092964997619278
1682026513.047717,-0.16234933668171403,-1.7470699617544472,10.362601558672472,-0.012791254687610068,0.031169367752169858,-0.0059640937380604
1682026513.057662,-0.32497444455411034,-2.305572762068452,10.21278986146582,0.010736924265675836,0.024225621317753437,-0.0158985083818547
1682026513.0676887,0.09165218886897926,0.1877350289342993,9.501510501732232,0.009966760816253126,0.02973824611573938,-0.0137051654875389
1682026513.077892,-1.24185274063273,1.4835422599059254,9.84575652136897,-0.01155520087865111,0.01057764357413653,-0.0155567204475514
1682026513.087709,0.11282071749273799,3.143329553833655,9.672020468416413,-0.054344189787109205,0.010927740845381628,-0.0100626772165409
1682026513.0976515,0.5376340096034408,-2.2407275767100376,10.068058285545836,-0.03331013367475873,0.01591985609312592,0.0008424885325953
1682026513.1077752,0.7113222497447346,-2.0170334331913162,9.376644115014384,0.004985184288013078,0.02326915453466787,0.0108269402861483
1682026513.117678,0.9875649697181647,0.5267907875526319,9.47104864420077,0.00856058108922086,0.03429554274334195,0.0202855641126521
1682026513.127661,0.10292306761327655,2.7084706500048066,9.27833305143756,-0.02675346223357424,0.04457540251416003,0.0246622065186389
1682026513.1376643,-1.9003279323733955,0.18468549340686444,10.442043723333072,-0.04011779076124225,0.016669936405865397,0.017867260250438
1682026513.1477847,-1.6889515844415728,-1.4426914031636109,9.846569391041475,-0.023458365867220266,7.88694150192384e-05,0.0016310392401069
1682026513.163226,-0.5048257421008224,-2.6393420397498932,10.839241232191116,0.010060486972472475,-0.017885853635383725,-0.0016591838922463
1682026513.1676774,2.156539129233046,-2.446682070982734,8.6268414898069,0.03156641534458865,-0.0009541532071175883,-0.01138865145744
1682026513.1783326,1.2032685982558575,0.7861127634837122,9.590115403364925,0.006144233853869072,0.019234807915447665,-0.0167168168246857
1682026513.187893,0.9184722593145302,0.5559704795973928,8.832322606632035,-0.002223444218699931,0.037850540032345684,-0.0064479162812344
1682026513.1977563,-0.8233092268472954,0.5868505031332399,9.902932717183145,-0.007124143652398031,0.026733236322418044,-0.0100756551966182
1682026513.2077374,-0.7727429696748106,1.8475097114608918,10.12097455731179,-0.029594632941954382,0.020646013231700677,-0.0171451954066864
1682026513.224811,0.3625914256573592,-0.3874806638081303,10.726970789598372,-0.03450643369646543,0.023419093257465093,-0.0072796571895591
1682026513.227743,-1.4423118266720123,-4.775761541001769,9.614258269552291,-0.001773252936555868,0.01435033527793703,0.0058404012687392
1682026513.2378411,-0.889794568765005,-0.755241702111688,9.883564215909923,0.008999718907454397,0.00037740787621596465,0.0108224140584357
1682026513.2477942,0.3430760046863327,1.2668694635418378,9.114848844769226,-0.009915439477793466,0.00517363704463312,0.0284605572104342
1682026513.2578382,-0.8475263388597392,-0.4896982854588412,8.873689027474999,-0.003689437062771369,-0.0059482667441103755,0.0330192098498232
1682026513.267687,-1.07119123767247,-0.5253044320719619,9.257289121363673,-0.003171209847086302,-0.02112261281064475,0.0213680496543534
1682026513.2787938,0.3352416587775796,-0.6785229248303547,9.937842232071407,-0.0022097450066408744,-0.01963503478790503,0.0150917289882786
1682026513.2877958,0.5775888909284072,-3.2465240981229226,9.916397318124849,0.03505517283936338,-0.008266874486208256,0.0063254387222118
1682026513.2977257,1.1965338588489054,-1.443812349861418,10.274051067744873,0.04394544751664795,0.00726418424514517,-0.0086781339615694
1682026513.3077395,1.3159065037082163,0.6853943717742916,9.497518252226149,0.03831813360666244,0.0291301006522014,-0.0082228829980008
1682026513.3208044,-0.5120975999824708,-0.011069777029099292,9.318361813877468,0.028982621210587825,0.03548544720581147,-0.0058827599406353
1682026513.327701,-2.3716762128959257,3.3532589561268726,11.393087808231886,0.0004162842020535157,0.011156212924900289,-0.0091935651272646
1682026513.337746,-1.5063773413116415,0.2665336610820842,10.851766418461615,-0.009105351139947683,-0.008419132991574992,-0.0112773938000313
1682026513.3477943,0.2796978707652863,-1.1886511335021939,9.980392876818037,0.010366988147995033,-0.007753878117455962,-0.002872892086219
1682026513.357834,0.86564789748691,0.09722476477676477,9.080431440618796,0.021715573853946905,0.0034364653772861347,0.0081823278322704
1682026513.3678658,-0.21074155113196244,1.9600792994262621,9.061363841159048,-0.0010104156848114005,0.0046094947958703805,0.0117721721634157
1682026513.377801,-1.0602571490625714,1.0447093510823986,9.203330192865451,-0.013624030125475665,-0.007150045214039759,0.0175254946678765
1682026513.3878088,-0.8767493109650356,0.9335923346660355,9.554457074201029,-0.02552202349332837,-0.02325918943664624,0.0210096953540928
1682026513.3981009,0.292465397514053,0.32391695333609155,10.011679919529753,-0.028783638776429664,-0.023700266875039313,0.0066829650767036
1682026513.4077935,2.3565755145946423,-2.0295208753126412,10.43523271890297,-0.012346789437075524,0.0020640874741908364,0.008874719134707
1682026513.417798,1.2890092987820212,-1.5378187165289072,10.079640810929973,0.015319946946450844,0.02102035459085966,0.0026775316090211
1682026513.4289334,0.49061217518780675,-0.21961838479129225,9.8452640480298,0.0034682817874672647,0.03087031479082594,-0.0139804011106602
1682026513.439868,0.21348358100966563,0.892454661867497,8.613741778960458,-0.012063830629259732,0.04042253257316019,-0.0087254507362954
1682026513.4494264,-1.7064853093841486,0.6301158011188815,9.687947351181965,-0.025720475698821556,0.022518531367427586,-0.0074385985627881
1682026513.458876,-2.6774615366163643,-1.5279702712966685,10.723863087552829,-0.016491502894508556,-0.010855807699286079,-0.0054992315255216
1682026513.4677694,-0.41111512104468906,-3.232193633251203,11.078044497277592,0.027153683086001624,-0.027212053912833722,0.0046438394218571
1682026513.477692,1.4724241265503368,0.0866008461415937,9.980740037145598,0.03482967428438328,-0.007133344683891528,0.0131128110095747
1682026513.48796,0.785847025103113,0.9555342781301587,9.609909601214948,0.018747252513083155,0.004408905883108945,0.0097594350680597
1682026513.497699,0.26044156121360656,0.28604866004704427,8.532977499800529,0.012457258946157164,0.014294059689081219,0.0145345214858539
1682026513.507845,-1.224415755355479,0.472908330800345,8.583341072400813,0.01166714592105732,-0.0013588130505622505,0.0106869755416997
1682026513.5206606,-1.0181605777996245,0.7955096239521394,9.180291831282096,-0.0006778229392806817,-0.017819158455917267,0.0139191314682252
1682026513.528008,-0.42589826789648616,0.08441309842484107,10.25996476964872,-0.001579625670020216,-0.022679090753290606,0.0099376594751961
1682026513.53835,0.7766805601721454,-1.5505869208824323,11.186813345448977,0.010767641555370928,-0.014885678041137778,-0.000220554078754
1682026513.5543056,0.8205028457299232,-1.297639624114406,10.55158947333716,0.035144224358502424,0.00354646925272054,-0.008403557714831
1682026513.5576763,1.1304661321692735,-0.6858678613847579,9.021572831144852,0.03576831274050071,0.014146508781623721,-0.012286517199885
1682026513.5676763,-1.3124311943252243,0.6202520740184843,9.172185955749644,0.021345223655018716,0.005015155344361585,-0.0178970241814963
1682026513.577909,-1.5941731451586731,2.105513473861962,10.564543452210586,-0.006474250104938713,-0.021834654936757774,-0.0150192430138699
1682026513.5878544,0.4345662666909688,-0.4914268004325216,9.833959394119598,-0.005298273364528325,-0.01653864129214475,-0.0098350657045952
1682026513.597739,0.6194080169913816,-1.0913542165599357,10.016619317207292,0.009150625071648984,-0.011997688281046349,-0.0048761413328461
1682026513.6077278,1.331102970603644,-0.25229937205359926,9.07977847060187,0.025551197848575763,0.002768169186121965,0.0030892121011279
1682026513.6177115,0.656897993318387,1.3061235359129257,9.196918012934024,0.009589827054451964,0.01589081394750284,0.0135327341139205
1682026513.6282125,-1.1785565470151729,1.6420357398024528,9.398594967826238,-0.006732011076883196,0.0010610912437093536,0.0147016538411267
1682026513.6377048,-0.9528880528572418,2.0318752977408403,9.981331643585483,-0.02784755598919851,-0.012202366363718206,0.0191121852129586
1682026513.6477084,-0.9710177155625342,0.2883573215272243,10.395595236087836,-0.03499308086003448,-0.023816490057922062,0.0191570265322812
1682026513.6578157,-0.10930070860782924,-1.889780527555445,10.70055440248001,-0.009884024972241908,-0.02854323753491098,0.0045845500297732
1682026513.6677158,1.2411206763886207,-2.0258297776348444,10.058892174769763,0.016661743823253077,-0.008961331841959401,-0.0077668879076949
1682026513.677735,1.3589969417001533,0.33575708656318204,9.448989496683,0.003974864816535627,0.012133715259169028,-0.0182159686356894
1682026513.6877525,0.3845400176562664,-0.05440638555891615,8.988767013358089,-0.0009548095785613814,0.02646596870231983,-0.0222865020752064
1682026513.697711,-1.630693944789228,1.309568001219868,10.010325142665751,-0.02386458738600909,0.003249692015459332,-0.0125634543493501
1682026513.7078142,-0.6060286768517622,-0.2351815017086703,10.130150279324011,-0.027568507444744417,-0.005917636511276109,-0.0003882426664344
1682026513.7178175,-1.8986198472289577,-2.6576344485732486,10.176226761710133,0.007646832029260343,-0.033236723377804596,0.0097982172027118
1682026513.7278469,0.15497041980119727,-0.6186187822105564,10.094927081036499,0.022578087941615126,-0.03778451442746431,0.0170941721752174
1682026513.7376974,1.2712208793550492,0.32499964948401966,9.540661852506748,0.022017009800229845,-0.02196750514107146,0.0210044184803851
1682026513.74776,1.3132963632586057,1.597999223265563,8.91496383444851,-0.000337638028752415,-0.0017133075296990592,0.0183951636880524
1682026513.757715,0.06375628999644233,1.7577129510733276,9.216049525096484,-0.01484782218254158,0.005384934529035663,0.0100577740102894
1682026513.7677827,0.13241085573862738,1.6019739804280668,10.309228260506323,-0.04312089296906999,0.006998084826126076,0.0037592329189069
1682026513.7777634,-0.5022320083437826,-1.9418204684742908,10.124937273446681,-0.01365166221825748,0.007146142731902336,-0.0040165599331371
1682026513.7879512,-2.071199130032172,-0.9011995159715018,10.691967215983958,-0.001852855399039134,-0.02072679908070505,-0.0122716421157233
1682026513.798034,0.8908042069387863,-0.6652500197362898,10.152137567175403,0.0053601211260746245,-0.016868975478096983,-0.0155064867705218
1682026513.8079507,1.1816957925142073,0.323762232780816,8.990740014657439,-0.005993408896393673,0.00560524189094586,-0.0047079253837577
1682026513.8177354,-0.6116204329530964,1.3166451823946494,10.04446848171743,-0.020338778223306816,-0.007546553594935373,0.0054056161187477
1682026513.828051,0.04465586680049112,1.0502356097835204,10.019159934232503,-0.045132846942410175,-0.008750111672048397,0.0137983258917816
1682026513.837855,0.2917847572863848,-1.7304790324741388,9.709685991313378,-0.02637163012126961,-0.010564583270975422,0.0169880908086784
1682026513.847727,1.5063159508097301,-4.624973882136596,9.098336207812293,0.027828633575744877,0.007684612199753375,0.0169911548599489
1682026513.8576925,0.41251780087484136,-1.2106258153353324,8.765833083266516,0.04986241322781541,0.015141558181791524,0.0145967040315158
1682026513.8677225,-0.30074471947066345,1.7277627501908392,9.316609731197099,0.02546729965979457,0.018559668950790788,0.011942462633539
1682026513.877728,-2.2520976648604667,0.855376989140387,9.976858051976265,0.0025000799287408022,-0.005953223116558379,0.0077493061415739
1682026513.887885,-1.4281836527742,1.3950386672960282,10.348170618955539,-0.008167238219997347,-0.028276070060217734,0.0020428235164732
1682026513.8978407,-0.061365548834761356,0.04471630478719601,10.846179180245828,-0.013330283615368678,-0.027826761596762117,0.0011362375097237
1682026513.9077852,0.5997225324935775,-1.2909217030596614,10.769847038535087,0.010688058622811683,-0.02312527347184015,-0.0030319214694313
1682026513.9180632,0.7019121724964588,-0.19699434455911757,9.560602034394627,0.02549472484134733,-0.008662901939733677,-0.010728566338133
1682026513.9277556,0.8385405990607113,2.7021647133446387,9.141336265058422,-0.010244669401045547,0.0044500506845773094,-0.0061552891403548
1682026513.9387152,-0.599258859717519,1.8672431733844324,9.148274341922367,-0.028205139992276883,0.004959815987121558,-0.0015278203774355
1682026513.9477954,-1.545833933404027,3.093617815523536,10.512015769291404,-0.06963290564637739,-0.016569372428831844,-0.0009330435551814
1682026513.9578226,-0.7227687144302493,-0.24372542205423348,9.877087664528522,-0.07143289315563087,-0.024335797226940868,0.0101707304000743
1682026513.9681206,-0.06219709631609397,-4.6049821533564,10.08678607511354,-0.018334141751141203,-0.032823927710097185,0.0182123208522685
1682026513.97784,1.2646746713943178,-2.6197834548085126,9.166416041188189,0.022929531854099655,-0.01673618651820493,0.0128251189470179
1682026513.9878025,1.8468896804294015,0.8416618370278243,9.483825985142852,0.0018418424931082155,0.007055285830702882,0.0143716974288113
1682026513.997818,0.15659102337704714,1.3768220359908687,9.343608682140522,-0.023965107775365656,0.01762046473637425,0.0073106718353815
1682026514.0100844,-0.4553484132301739,0.8926584162696272,10.095335819346987,-0.042892564654227604,0.01203051397232288,-0.006833687786769
1682026514.0178146,-0.4551600878614084,-1.1416302306770778,9.972504007002218,-0.03952903472486267,0.012465213984164501,-0.0096357766434661
1682026514.0278103,-0.8012638212865312,-5.467166473152973,10.230978142060744,0.0321456103680472,-0.0002244709103368166,-0.0119419511303417
1682026514.037807,-0.8133112785523113,-1.868806753281955,10.210580433434199,0.06724389836600252,-0.00997225397753124,-0.0246060894698016
1682026514.0531049,0.8198469956340025,2.6027378605861995,9.74157934283166,0.0174926296155865,0.0019796472694768768,-0.0160409727960936
1682026514.0590527,0.02508390336024454,1.9130217656356194,9.269035468794625,-0.006442084490683878,0.009729454176093404,-0.0152940818935744
1682026514.0678124,-2.0456642541761356,-0.2710769535905633,9.934892702323666,-0.008809951532759076,-0.016109884598504785,-0.0152276171267144
1682026514.07783,-1.4938504637728773,0.056760675530968856,9.985905875736975,-0.0029979548831785096,-0.032915443473813866,-0.0189647948265187
1682026514.0881178,-0.3910305804719703,0.23434337762813787,10.558861908471671,-0.005783236272873695,-0.04234953806679435,-0.0108795933321229
1682026514.0978343,1.084701613991785,-0.006494403056667378,9.996741436751764,-0.0007143218897889246,-0.034376136778536806,0.0008529550849348
1682026514.1078427,2.1453916472147507,-1.7239141042553914,9.347555914252125,0.015963372955601095,-0.008256148348841325,-0.0002838937927148
1682026514.1177368,2.603774232671617,0.019250876194938562,8.466214328697674,0.021659437212317525,0.02528766537313735,0.0160548441216238
1682026514.1277874,0.31184266368979147,1.1286068026872331,9.188169609756793,0.004688941875162117,0.03884111306534735,0.0192266149550564
1682026514.1382446,-1.2084055214552378,1.5021796807179204,10.265600392765819,-0.01966932191156326,0.026412576609897126,0.0140947183698304
1682026514.147875,-0.9325785268808051,-0.5056844705823812,10.798012198403837,-0.01926205324120513,0.009774995358666636,0.0093827076360471
1682026514.1578662,-0.10127132516713795,-2.270608609422607,9.86288021273004,0.008644607832195306,0.009717929046254526,0.0010625212906748
1682026514.169327,-0.8354920224290017,-1.6094943276197657,10.169933154536151,0.03789168536201407,-0.0005911756843144518,-0.0156936602562777
1682026514.1778111,-0.8053600783661955,1.3939319449348835,9.87460454234083,0.0193177112151793,-0.008003852078581269,-0.0267796287208907
1682026514.1877804,-0.036820139895303305,1.0490668131277832,9.206286368142187,-0.0022477881396203276,-0.004410787649272194,-0.0274650281190983
1682026514.197805,0.25057692609580384,1.456417004273656,10.056864911914165,-0.019192023586731964,-0.007692258297024486,-0.0313661483943573
1682026514.2077277,0.9072224232266756,1.3632064875954564,9.5826267703339,-0.041454888037377326,0.011499538191246607,-0.0391964888095967
1682026514.219834,1.170858956859402,-1.8517972790872164,10.526715223347553,-0.020936637013718985,0.025440175621512986,-0.0216388491809479
1682026514.2278574,-0.8270050640942259,-1.8659682824487906,9.59916065646698,0.017623211117181913,0.019240310827393088,-0.0010889658134542
1682026514.2378547,-1.8525929672592936,0.031807341073798644,10.0272102494721,0.016873410303826997,-0.003048565536120372,-0.0001861882757507
1682026514.2483072,-1.0044757634470602,2.056718378727647,9.4548550709152,-0.010441378412485738,-0.0163648431390572,0.0078979028493054
1682026514.2578692,0.12705687031338395,0.2548635960623815,9.312330763841564,-0.02107721090679218,-0.017353813933181635,0.0104906518116481
1682026514.2678573,0.214704506062709,-1.7796388693873098,9.196966004706992,-0.00519600989676818,-0.013226355031244795,-0.0028089884564392
1682026514.277953,1.9608314657191623,-0.1790474588931403,10.312313272597692,-0.0003778837537082392,-0.0012682384442829371,-0.011691355508577
1682026514.2878857,2.8401956217731366,-0.7238272850696204,9.72339326330795,0.0029838504893251114,0.044784637848597486,-0.0132457580313198
1682026514.2979434,-0.3017528877830832,-0.49622428679691305,10.704182371386608,0.004265071558168693,0.04227613506956789,-0.0141566203802935
1682026514.307839,-2.2738379336084518,-0.8519961867782637,9.536386525207785,0.014716473707357992,0.017670892328066137,-0.0189566438913456
1682026514.317852,-1.8342888144381826,0.20906711519701227,9.419503956406642,0.010835451236843688,-0.008249266443899634,-0.0108599806100241
1682026514.3278258,-1.091414309467648,0.9947131337646563,9.126002766957258,0.0020200605917233146,-0.025927290334955513,-0.0104912634834758
1682026514.337837,0.3007579013840847,2.444378847166088,9.963151881651632,-0.027528665528302014,-0.025547936752383017,-0.0218092309206835
1682026514.34788,2.1977904672797504,-0.3142655231471458,10.412391223891138,-0.03630773605094432,0.0029491742870043787,-0.0119905168086401
1682026514.3577857,0.6035107328811918,-1.4080329806662164,10.446246085971582,-0.0033055894285394607,0.008964703241626196,-0.0043759531237296
1682026514.367834,0.8425349615226639,-0.7479991916158523,9.988164257689917,0.0033343045022291274,0.035613503054935484,-0.0250238472491614
1682026514.3777878,-0.40059384442411117,0.752811466292,10.197766921091752,-0.012909255547161798,0.046070785677974645,-0.0413558011770359
1682026514.3877757,-1.028007381267884,0.14807375914956997,9.28170280722106,-0.012726675957387128,0.04665277708992584,-0.0649123614549748
1682026514.398475,-1.8314272689622129,-1.0399430565939256,9.047181931444442,-0.015846026389153008,0.03999222543025811,-0.0873070856452099
1682026514.4078398,-1.0514611500273514,-2.25870554838956,9.180324935335204,0.007656358325698799,0.038085777353444296,-0.0944006269693486
1682026514.4178195,-2.8407428751308474,-1.3516138457167752,9.7577755910985,0.027984675319306714,0.018021872234288652,-0.0829824259400479
1682026514.427979,-4.199232589158784,0.9091801286516894,10.954605253922056,0.01041381844053655,-0.032898467126836806,-0.0800266241550557
1682026514.4378278,-2.824007567119684,-0.20904365168094277,9.948848268563918,0.00646027384297102,-0.06091004550866512,-0.0690952515125386
1682026514.4478414,-2.6360077457104873,-2.0913398967515207,10.044028917620574,0.02851205615297699,-0.09950235163146033,-0.0818182205677144
1682026514.457833,0.4820091555343478,-1.7632020398080759,8.935166826026695,0.048704108611375786,-0.09712872933636267,-0.1060437759280316
1682026514.4677842,3.7133281993306007,0.4494513980335754,9.260430760963379,0.033757714631465305,-0.05770314260068947,-0.1199182694673649
1682026514.4778185,5.757990748223467,2.3140273224854817,9.559225732388684,0.00957712598263565,0.010160230581300228,-0.1283890431642644
1682026514.487887,3.4741289033029243,0.784225573278175,10.481207782243976,-0.025970628797700204,0.05756071976538896,-0.1410118615150563
1682026514.4978223,-0.4687680219856464,-0.8134586230978449,10.406579248716003,-0.009292727795315838,0.04708690545656785,-0.1331441229105107
1682026514.5078874,-2.550992662346022,-2.1179787172757853,10.064953303158918,0.022426098454059584,0.004847311067210529,-0.1313079273223988
1682026514.517845,-2.7675053744304066,-0.0984447008214912,9.596146040270087,0.04535700361254441,-0.040052168571408475,-0.1344841247320286
1682026514.5330253,-0.14595834522544993,3.630669416362709,9.30899901453797,0.005395480673857177,-0.06057326346475572,-0.1396257256984822
1682026514.5378854,3.99910638634155,9.165318261988656,10.149867707815401,-0.06958052783958175,-0.03630839290572823,-0.144556028199207
1682026514.547905,6.434069107691796,1.1680984226324596,9.908050727419923,-0.11604932430840023,0.029069516410099337,-0.1545401936292759
