time,wx,wy,wz,ax,ay,az
0.0,-0.00475408835336566,-0.03342137113213539,0.15381401777267456,1.6899324655532837,-0.01299505215138197,10.055782318115234
0.02,0.006297650747001171,-0.048304032534360886,0.18060246109962463,1.4367543458938599,0.03941928222775459,10.12857437133789
0.04,-0.045787837356328964,-0.037331484258174896,0.14667022228240967,1.2255252599716187,0.4731915295124054,9.98920726776123
0.06,-0.029644008725881577,0.012800357304513454,0.09290969371795654,1.0785003900527954,0.8431896567344666,9.990132331848145
0.08,0.029667304828763008,-0.03064666874706745,0.055401116609573364,1.1375396251678467,0.8283618688583374,10.168208122253418
0.1,-0.009810389019548893,-0.06460799276828766,0.022785494104027748,1.142765998840332,0.6177453994750977,10.027603149414062
0.12,0.021640313789248466,-0.04297559708356857,-0.00291468296200037,1.132697582244873,0.47217947244644165,9.388450622558594
0.14,0.03503357619047165,-0.021662982180714607,-0.021679040044546127,0.9083293676376343,0.05462689325213432,9.112311363220215
0.16,0.05626825615763664,-0.013441820628941059,-0.04630307853221893,0.6291589140892029,-0.23162315785884857,9.079285621643066
0.18,-0.006508884020149708,0.021699005737900734,-0.04167010635137558,0.42909207940101624,0.014153117313981056,9.301726341247559
0.2,0.029106363654136658,0.03933382406830788,-0.01217345055192709,0.44470828771591187,0.2980864942073822,9.489398002624512
0.22,0.009748813696205616,0.05730710178613663,0.00022001222532708198,0.45773422718048096,0.42636334896087646,9.435577392578125
0.24,0.011234656907618046,0.07600874453783035,0.016199510544538498,0.5367423295974731,0.45228487253189087,9.362568855285645
0.26,0.04630936682224274,0.09421705454587936,0.02603689581155777,0.5635406970977783,0.32882678508758545,9.251160621643066
0.28,0.08364057540893555,0.10491850227117538,0.030595319345593452,0.5715031027793884,0.2045108675956726,9.256783485412598
0.3,0.07247786223888397,0.08725503832101822,0.04320496320724487,0.6209976673126221,-0.035389866679906845,9.658493041992188
0.32,0.030073989182710648,0.07273313403129578,0.032729823142290115,0.6508967876434326,-0.05666781961917877,9.910635948181152
0.34,-0.030479446053504944,0.05837679281830788,-0.0010532739106565714,0.4288003444671631,0.18232788145542145,10.116287231445312
0.36,-0.00940918643027544,0.10794477164745331,-0.018511593341827393,0.1879846751689911,0.28037455677986145,9.751883506774902
0.38,0.0054473583586514,0.15011835098266602,-0.042904000729322433,-0.08440662920475006,0.32152098417282104,9.342845916748047
0.4,-0.08168189972639084,0.19063736498355865,-0.05451073497533798,-0.45811301469802856,0.4397142231464386,9.173595428466797
0.42,-0.08692395687103271,0.2040330022573471,-0.07396581768989563,-0.6294763684272766,0.6036163568496704,9.15131950378418
0.44,-0.15337462723255157,0.20207813382148743,-0.07989710569381714,-0.46928659081459045,0.6731513142585754,9.591741561889648
0.46,-0.13730168342590332,0.17376981675624847,-0.0651068389415741,-0.10649911314249039,0.444525808095932,10.042574882507324
0.48,-0.09764239192008972,0.15280961990356445,-0.028123652562499046,0.15864166617393494,0.2655104100704193,10.393038749694824
0.5,-0.11610106378793716,0.13159877061843872,0.003718203166499734,0.5578142404556274,-0.07397990673780441,9.78432846069336
0.52,-0.11816724389791489,0.11530208587646484,0.03502509742975235,0.5866156816482544,0.025855019688606262,9.264988899230957
0.54,-0.10276979953050613,0.10027705132961273,0.05812360718846321,0.34404894709587097,0.1937093883752823,9.490489959716797
0.56,-0.08860466629266739,0.05926043167710304,0.06389476358890533,-0.011871281079947948,0.1990375518798828,10.059313774108887
0.58,-0.07571204751729965,0.01724657416343689,0.04219704493880272,-0.2845408022403717,0.22719410061836243,10.549591064453125
0.6,-0.07518171519041061,-0.04086671024560928,0.0336693599820137,-0.5277755260467529,0.16052976250648499,10.594805717468262
0.62,-0.024532349780201912,-0.07454347610473633,0.038967546075582504,-0.7702487111091614,-0.10950040072202682,10.118912696838379
0.64,0.022474467754364014,-0.08274662494659424,0.035589803010225296,-1.268174409866333,-0.4761936068534851,9.582667350769043
0.66,0.07311952114105225,-0.0873374417424202,0.028493084013462067,-1.509751796722412,-0.9078496098518372,9.89865493774414
0.68,0.06472837924957275,-0.06993178278207779,0.01542255561798811,-1.505957007408142,-0.6989675760269165,10.043195724487305
0.7000000000000001,0.09659825265407562,-0.040023524314165115,0.027055051177740097,-1.3395808935165405,-0.3025616407394409,9.772383689880371
0.72,0.08187493681907654,-0.026927057653665543,0.03265787288546562,-1.2936508655548096,-0.12215445935726166,9.481550216674805
0.74,0.0897965207695961,-0.032442182302474976,0.02962726168334484,-0.15882954001426697,-0.0378163605928421,8.995122909545898
0.76,0.09520772844552994,-0.08554501831531525,0.03124995529651642,0.7526072859764099,0.0523054264485836,9.052776336669922
0.78,0.090963214635849,-0.10912605375051498,0.02835441380739212,1.302545189857483,-0.02217191457748413,9.726017951965332
0.8,0.048262692987918854,-0.12811735272407532,0.00990960095077753,1.3152692317962646,0.07215525954961777,10.097457885742188
0.8200000000000001,0.057337719947099686,-0.13223084807395935,0.0015935309929773211,0.8904247283935547,0.20678283274173737,9.942770004272461
0.84,0.08179432153701782,-0.13247884809970856,-0.007635369431227446,0.34982970356941223,0.5711426734924316,9.630865097045898
0.86,0.046816255897283554,-0.11507585644721985,-0.0009991765255108476,-0.029313797131180763,0.5723333954811096,9.489391326904297
0.88,-0.033418960869312286,-0.12819799780845642,-0.0199043620377779,-0.27783113718032837,0.6431968212127686,9.508306503295898
0.9,-0.07146737724542618,-0.15359416604042053,-0.006831194739788771,-0.3580183684825897,0.7210939526557922,9.384831428527832
0.92,-0.08607897162437439,-0.15559236705303192,-0.004103547427803278,-0.44351959228515625,0.7399646639823914,10.066113471984863
0.9400000000000001,-0.07131338864564896,-0.12941354513168335,0.006444709841161966,-0.5726526379585266,0.5036559104919434,10.669819831848145
0.96,-0.0665876716375351,-0.09806372225284576,0.010323169641196728,-0.619355320930481,0.18924756348133087,10.267398834228516
0.98,-0.0859719067811966,-0.06702802330255508,0.03391481190919876,-0.25593301653862,0.13248781859874725,9.842570304870605
1.0,-0.04245467856526375,-0.03292304277420044,0.024823494255542755,0.13468465209007263,0.08282287418842316,9.825138092041016
1.02,-0.03766202926635742,-0.004127903375774622,0.0379948765039444,0.45209378004074097,0.14161695539951324,10.199092864990234
1.04,-0.031238852068781853,0.014287748374044895,0.022743020206689835,0.6244011521339417,0.04586215689778328,10.184779167175293
1.06,-0.0045231482945382595,0.04440987855195999,-0.0009321917896158993,0.679947555065155,-0.24989138543605804,9.747270584106445
1.08,0.050996460020542145,0.06542430073022842,-0.006135013420134783,0.545133650302887,-0.41066864132881165,9.803523063659668
1.1,0.056508589535951614,0.12346339225769043,-0.0032495444174855947,0.37369295954704285,-0.7211922407150269,10.25954532623291
1.12,0.05472226440906525,0.13940495252609253,0.005087902303785086,0.48221540451049805,-0.368186354637146,10.112321853637695
1.1400000000000001,0.044063810259103775,0.13792908191680908,0.007370824459940195,0.6423201560974121,-0.08450569212436676,9.836756706237793
1.16,0.02388179674744606,0.08035687357187271,-0.002286773407831788,0.6256167888641357,0.2725556492805481,10.396313667297363
1.18,0.06579972803592682,0.09452257305383682,-0.01509595662355423,0.526587188243866,0.01960456371307373,10.2354097366333
1.2,0.045990873128175735,0.12460466474294662,-0.0095578134059906,0.6281766891479492,-0.18178099393844604,9.690582275390625
1.22,0.04286593571305275,0.10525637865066528,-0.009646358899772167,0.40870869159698486,-0.10344162583351135,8.931427001953125
1.24,0.022507773712277412,0.058572642505168915,-0.03481147438287735,-0.1867181360721588,0.10751037299633026,9.110716819763184
1.26,0.007515452802181244,0.05295264348387718,-0.05324249714612961,-0.4270643889904022,0.3128184378147125,9.214611053466797
1.28,-0.016767140477895737,0.06440272927284241,-0.06883268803358078,-0.431901216506958,0.7093905806541443,9.29642105102539
1.3,-0.04586723819375038,0.06156814843416214,-0.05240834131836891,-0.40962180495262146,0.9463550448417664,9.32132339477539
1.32,-0.019262297078967094,0.03158193081617355,-0.017108812928199768,-0.4086016118526459,0.892969012260437,9.663861274719238
1.34,-0.04844684153795242,0.03461441770195961,0.010857367888092995,-0.36500078439712524,0.5588287711143494,9.99402904510498
1.36,-0.059658825397491455,0.06055668741464615,0.02507254295051098,-0.1727999895811081,0.28479763865470886,9.820313453674316
1.3800000000000001,-0.04370077699422836,0.05136896297335625,0.005382180213928223,0.0418604239821434,0.10128838568925858,9.572663307189941
1.4000000000000001,-0.007434403989464045,0.0038519958034157753,-0.009800221771001816,-0.007794297765940428,-0.0349845290184021,9.318499565124512
1.42,-0.003693830221891403,-0.013437299989163876,-0.0020532463677227497,0.08871180564165115,-0.16660025715827942,9.337803840637207
1.44,-0.0013060198398306966,0.0012621855130419135,0.00995216891169548,0.19598375260829926,-0.17485444247722626,9.25416088104248
1.46,0.03402986004948616,-0.007934562861919403,0.012132375501096249,0.27947545051574707,-0.22517400979995728,8.975255966186523
1.48,0.016194766387343407,-0.045153141021728516,-0.006349586881697178,0.25930091738700867,-0.20398633182048798,9.232685089111328
1.5,0.009474343620240688,-0.03855527192354202,-0.016754863783717155,0.2612200975418091,0.07933925092220306,9.445993423461914
1.52,0.012891069985926151,-0.01093969214707613,-0.007073793560266495,0.10273847728967667,0.18878792226314545,10.144868850708008
1.54,0.016237210482358932,0.016956252977252007,-0.002424599602818489,-0.689076840877533,0.18841245770454407,11.197263717651367
1.56,0.004984433762729168,0.022678537294268608,0.002460658783093095,-1.0868861675262451,-0.12534824013710022,10.954421043395996
1.58,0.012265275232493877,0.007131366990506649,0.01814928837120533,-1.145571231842041,-0.11556690186262131,10.275270462036133
1.6,0.05672537907958031,0.028032900765538216,0.03211984783411026,-1.0911061763763428,-0.2923196256160736,9.796454429626465
1.62,0.021895768120884895,0.04398472607135773,0.019976476207375526,-1.1615426540374756,-0.07043447345495224,10.309926986694336
1.6400000000000001,-0.03751985728740692,0.013123913668096066,-0.022105546668171883,-0.49717915058135986,0.49226415157318115,11.208724975585938
1.6600000000000001,-0.019676489755511284,-0.03753595054149628,-0.04568890854716301,0.22589710354804993,0.40230312943458557,10.587925910949707
1.68,-0.02010134980082512,-0.04166138172149658,-0.04913908615708351,0.6580555438995361,0.18732737004756927,9.389766693115234
1.7,-0.018606502562761307,-0.05891181156039238,-0.017798863351345062,0.581836998462677,0.11507955938577652,8.835783958435059
1.72,-0.024437716230750084,-0.10366803407669067,0.01156407780945301,0.2548205554485321,0.2081252932548523,9.360501289367676
1.74,-0.0104508176445961,-0.13788048923015594,0.022649642080068588,-0.042571015655994415,0.44372254610061646,10.663448333740234
1.76,-0.02029542438685894,-0.12489070743322372,0.05745760351419449,-0.23132798075675964,0.4801386594772339,10.946173667907715
1.78,-0.02900022640824318,-0.14908413589000702,0.05451387166976929,-0.11524181813001633,0.5141825675964355,10.114031791687012
1.8,-0.041857171803712845,-0.16965016722679138,0.031199976801872253,-0.061256151646375656,0.23296195268630981,9.240400314331055
1.82,-0.012509535998106003,-0.1528766006231308,-0.0019432457629591227,-0.08373584598302841,-0.1042405292391777,9.057463645935059
1.84,6.539826426887885e-05,-0.10490406304597855,-0.004199719987809658,-0.18543598055839539,-0.2422012835741043,9.589670181274414
1.86,0.014212933368980885,-0.07718092203140259,-0.0034486984368413687,0.1511276811361313,-0.39365580677986145,9.838323593139648
1.8800000000000001,0.006347942166030407,-0.10065790265798569,0.0029032959137111902,0.4271926283836365,-0.29896095395088196,9.80276107788086
1.9000000000000001,-0.00974776316434145,-0.10126310586929321,0.006706811022013426,0.38208022713661194,0.03284219652414322,9.503230094909668
1.92,0.05517611652612686,-0.05825080722570419,0.007856319658458233,0.26535919308662415,0.13243159651756287,9.070859909057617
1.94,0.03690553456544876,-0.0008185975602827966,-0.005753806792199612,0.38518795371055603,-0.04693610221147537,9.18221664428711
1.96,0.019400928169488907,0.028840458020567894,-0.028454503044486046,0.5653679966926575,0.03908507153391838,9.542076110839844
1.98,0.0022989267017692327,0.025836288928985596,-0.037065695971250534,0.673484206199646,-0.13817881047725677,9.734637260437012
2.0,-0.028047453612089157,0.01114947535097599,-0.04292589798569679,0.5640102624893188,-0.21436749398708344,10.083117485046387
2.02,-0.013116717338562012,0.045355174690485,-0.04430117458105087,0.4643031060695648,-0.14538612961769104,10.36349868774414
2.04,-0.02893637679517269,0.04741012305021286,-0.043796226382255554,0.5565440058708191,-0.14166206121444702,9.94888973236084
2.06,-0.04202982410788536,0.040570586919784546,-0.05223159119486809,0.5067866444587708,-0.03704638034105301,9.538405418395996
2.08,-0.019256992265582085,0.0456489734351635,-0.04870191961526871,0.3836210370063782,0.11177068948745728,9.495265007019043
2.1,-0.013409593142569065,0.04323829710483551,-0.038735855370759964,0.16481730341911316,0.2045471966266632,9.496843338012695
2.12,-0.0014155009994283319,0.016320616006851196,-0.029468901455402374,0.006473279092460871,0.3781978189945221,9.660331726074219
2.14,-0.008941949345171452,0.008775895461440086,-0.012667420320212841,-0.12105540186166763,0.48050549626350403,9.698127746582031
2.16,-0.046357396990060806,0.0005127736949361861,-0.009124405682086945,-0.09512831270694733,0.4761647582054138,9.990857124328613
2.18,-0.06906654685735703,-0.01286345161497593,-0.004092424642294645,-0.25000354647636414,0.413877934217453,10.155012130737305
2.2,-0.08264376223087311,-0.02296225167810917,-0.008914529345929623,-0.44701340794563293,0.12744268774986267,10.257933616638184
2.22,-0.04162659868597984,-0.021505355834960938,-0.02661837451159954,-0.47631365060806274,0.15650397539138794,10.54531192779541
2.24,-0.04313545301556587,0.005295355338603258,-0.033881351351737976,-0.19519129395484924,0.08846613019704819,10.010376930236816
2.2600000000000002,-0.07121291756629944,-0.011453581042587757,-0.0254085473716259,0.27136167883872986,0.020902786403894424,9.134593963623047
2.2800000000000002,-0.048601821064949036,-0.03566446527838707,-0.01964128576219082,0.4729524850845337,-0.0985482856631279,8.961941719055176
2.3000000000000003,-0.05689498409628868,-0.02315983921289444,-0.022378908470273018,0.598972737789154,-0.2665846645832062,9.148613929748535
2.32,-0.05526817962527275,-0.0027838086243718863,-0.0210537351667881,0.611325740814209,-0.17463406920433044,9.614980697631836
2.34,-0.04945198819041252,0.005929494276642799,-0.01858474127948284,0.4831671118736267,-0.07069038599729538,9.863152503967285
2.36,-0.03037186898291111,0.004490220919251442,-0.0006056827260181308,0.2797321379184723,0.15726011991500854,9.292744636535645
2.38,-0.03934941068291664,0.028028398752212524,-0.010802100412547588,0.1720871776342392,0.33156445622444153,9.961512565612793
2.4,-0.017302924767136574,0.020001189783215523,0.0011279997415840626,0.1433064043521881,0.025251716375350952,9.720091819763184
2.42,-0.04107918590307236,0.02081059105694294,0.00263799587264657,0.10824273526668549,-0.06308749318122864,9.915020942687988
2.44,0.05194321647286415,0.02530289813876152,0.015944935381412506,0.1733662188053131,-0.4571238160133362,9.959992408752441
2.46,0.04862096533179283,0.01666107401251793,0.028793038800358772,0.24730537831783295,-0.4504014253616333,9.721396446228027
2.48,0.03992275893688202,-0.008897677063941956,0.018374206498265266,0.32963621616363525,-0.3201887309551239,9.681902885437012
2.5,0.07833078503608704,-0.02218507044017315,0.014848461374640465,0.19407455623149872,-0.3957441449165344,9.754590034484863
2.52,0.06276731938123703,-0.06297585368156433,-0.007454296573996544,0.06704773008823395,-0.34834524989128113,9.667106628417969
2.54,0.09860015660524368,-0.0714203268289566,-0.027003353461623192,-0.1092328205704689,-0.11736395210027695,9.686972618103027
2.56,0.09254170954227448,-0.09456834197044373,-0.019446274265646935,-0.2077692449092865,-0.0951840728521347,9.644454002380371
2.58,0.08079340308904648,-0.12240302562713623,-0.03170238807797432,-0.27367594838142395,-0.004710114561021328,9.871052742004395
2.6,0.0681234672665596,-0.08916641771793365,-0.02289700135588646,-0.3706130385398865,0.2417452186346054,9.79594612121582
2.62,0.10659166425466537,-0.06858199834823608,-0.026015901938080788,-0.30908751487731934,0.1595461666584015,9.959538459777832
2.64,0.06526420265436172,-0.030244125053286552,-0.01371149905025959,-0.06624096632003784,0.2618882954120636,9.951849937438965
2.66,0.03234277665615082,-0.03299881890416145,-0.013291483744978905,0.1719546914100647,0.5242453813552856,9.30346965789795
2.68,0.0231048334389925,-0.027698632329702377,-0.0012550007086247206,0.4009009301662445,0.2989442050457001,9.605514526367188
2.7,0.00021946956985630095,-0.004202252719551325,-0.008876148611307144,0.6246092915534973,0.3748990297317505,9.79594612121582
2.72,0.04294801503419876,0.0399361252784729,-0.017741532996296883,0.7064273953437805,0.2621018886566162,10.117002487182617
2.74,-0.03095334768295288,0.10207294672727585,-0.050252869725227356,0.1558586210012436,0.1841524988412857,10.238274574279785
2.7600000000000002,-0.015631146728992462,0.13424141705036163,-0.047723475843667984,0.0498591847717762,0.1841578483581543,9.730286598205566
2.7800000000000002,0.0009132008999586105,0.1638536900281906,-0.06306056678295135,0.06719982624053955,0.22616365551948547,9.680726051330566
2.8000000000000003,0.003544153878465295,0.20694874227046967,-0.05068414658308029,0.37762880325317383,0.3558930456638336,9.58372688293457
2.82,-0.010311754420399666,0.23728792369365692,-0.04191494733095169,0.6468252539634705,0.4681323766708374,9.648383140563965
2.84,-0.01518203504383564,0.2220722883939743,-0.033584777265787125,0.8729262351989746,0.3319927155971527,9.879840850830078
2.86,0.008597121573984623,0.24213239550590515,-0.015222608111798763,0.8573096394538879,0.0964498370885849,10.587390899658203
2.88,0.011484501883387566,0.2549707889556885,0.00554038817062974,0.8061493039131165,0.022613225504755974,10.813998222351074
2.9,-0.002803185023367405,0.26195642352104187,0.054218120872974396,0.7899231910705566,0.03370014578104019,10.249860763549805
2.92,0.010380346328020096,0.2432362288236618,0.06783746927976608,0.8516440391540527,0.026398980990052223,9.375571250915527
2.94,0.019467316567897797,0.2069343477487564,0.07963421940803528,0.5297510623931885,-0.01147945411503315,9.084770202636719
2.96,0.0672757625579834,0.2187720239162445,0.07904035598039627,0.08023041486740112,-0.0014921126421540976,9.020364761352539
2.98,0.1052587553858757,0.20987382531166077,0.07200390845537186,-0.5355385541915894,-0.11202692985534668,9.064111709594727
3.0,0.09894591569900513,0.1731896549463272,0.07846500724554062,-1.4052784442901611,-0.4075644910335541,10.063148498535156
3.02,0.11470862478017807,0.10914014279842377,0.06763430684804916,-2.1627771854400635,-0.5339540243148804,11.083908081054688
3.04,0.09318523854017258,0.10252811759710312,0.08929736912250519,-2.208073854446411,-0.23545385897159576,10.928563117980957
3.06,0.16048520803451538,0.11851916462182999,0.11490824818611145,-1.932147741317749,0.09957193583250046,10.330083847045898
3.08,0.15792107582092285,0.09407327324151993,0.10232190042734146,-1.536377191543579,0.10126897692680359,9.697075843811035
3.1,0.0947752296924591,0.023189803585410118,0.10986664891242981,-0.7427713871002197,0.2513490915298462,9.30590534210205
3.12,0.13908836245536804,-0.035134054720401764,0.10445056110620499,-0.22367310523986816,0.3555680215358734,9.443892478942871
3.14,0.07193101197481155,-0.05708606541156769,0.06895460933446884,-0.11129480600357056,0.33268728852272034,10.099477767944336
3.16,0.100263312458992,-0.09893579035997391,0.013403390534222126,-0.1114702895283699,0.6206116676330566,10.334329605102539
3.18,0.06932119280099869,-0.1549975574016571,-0.03416427597403526,-0.06555228680372238,0.7942287921905518,10.288620948791504
3.2,0.048053987324237823,-0.18179890513420105,-0.059981223195791245,-0.2375374585390091,0.9234775900840759,9.705286026000977
3.22,0.06119588762521744,-0.16568417847156525,-0.06854940950870514,-0.24798281490802765,0.9364100098609924,8.746734619140625
3.24,-0.04093126207590103,-0.1466742604970932,-0.05847907438874245,-0.31084004044532776,0.6462674736976624,7.839199066162109
3.2600000000000002,-0.0980953499674797,-0.11971171200275421,-0.04831789806485176,-0.23937523365020752,0.5325375199317932,7.9572319984436035
3.2800000000000002,-0.1503189653158188,-0.11657325178384781,-0.05700754374265671,-0.13114288449287415,0.5618856549263,8.216387748718262
3.3000000000000003,-0.24713513255119324,-0.09386596828699112,-0.06617550551891327,-0.03918534517288208,0.6619518995285034,8.862348556518555
3.3200000000000003,-0.2442655861377716,-0.034196969121694565,-0.06348472088575363,-0.05385901778936386,0.8731299042701721,9.390128135681152
3.34,-0.24122150242328644,0.04343237727880478,-0.0463707335293293,0.07999277114868164,0.8919079899787903,9.630038261413574
3.36,-0.23113146424293518,0.05372343957424164,-0.015768269076943398,0.03886127844452858,0.9107388257980347,11.36463737487793
3.38,-0.10369577258825302,0.013594277203083038,0.07499612122774124,-0.5857661962509155,0.23590467870235443,12.706628799438477
3.4,-0.18065132200717926,0.006123406812548637,0.13488274812698364,-0.5339290499687195,-0.20618845522403717,11.205183982849121
3.42,-0.1778770089149475,0.001150511554442346,0.1710149049758911,-0.03261580318212509,0.534717857837677,9.426530838012695
3.44,-0.11464027315378189,-0.02049783430993557,0.16604694724082947,0.4175993502140045,0.5529055595397949,8.856452941894531
3.46,-0.0762852281332016,-0.03330973908305168,0.1545029580593109,0.4396733343601227,0.3496783971786499,9.136164665222168
3.48,-0.04146595299243927,-0.014958919025957584,0.11653738468885422,0.31894055008888245,-0.13369175791740417,9.758907318115234
3.5,0.013820040039718151,-0.008883573114871979,0.08438008278608322,0.018555589020252228,-0.6567620635032654,10.046696662902832
3.52,0.05856482312083244,-0.024319158867001534,0.07415036857128143,-0.12127893418073654,-1.0490036010742188,10.679797172546387
3.54,0.08328116685152054,-0.014418153092265129,0.06327130645513535,-0.35715043544769287,-1.3694714307785034,10.431120872497559
3.56,0.10459031909704208,-0.026825617998838425,0.021546047180891037,-0.6886398792266846,-1.4722737073898315,9.564276695251465
3.58,0.11237496137619019,-0.0032072963658720255,-0.0030974242836236954,-0.8959532976150513,-0.878915011882782,9.299149513244629
3.6,0.12544581294059753,0.039196453988552094,-0.02730673737823963,-0.6869423389434814,-0.05032551661133766,9.150577545166016
3.62,0.1244615912437439,0.039946723729372025,-0.02975461259484291,-0.237575501203537,0.33105766773223877,9.137810707092285
3.64,0.16171619296073914,0.05955016240477562,-0.01123527716845274,0.2751835286617279,0.5902599096298218,9.571950912475586
3.66,0.09107007086277008,0.07055724412202835,0.017662204802036285,0.6112403869628906,0.5068187117576599,9.875235557556152
3.68,0.14264675974845886,0.08534403145313263,0.024768026545643806,0.7558630704879761,0.41173622012138367,10.419872283935547
3.7,0.10477138310670853,0.1200842559337616,0.042251843959093094,0.7077924609184265,0.31231561303138733,10.021270751953125
3.72,0.07403241097927094,0.12371774762868881,0.04671657457947731,0.4647621810436249,0.43694213032722473,9.28327751159668
3.74,0.07660739868879318,0.10470205545425415,0.03316738083958626,0.16504618525505066,0.5167836546897888,9.001656532287598
3.7600000000000002,0.03592260554432869,0.0765829011797905,0.03838314116001129,-0.16678276658058167,0.41839057207107544,8.906253814697266
3.7800000000000002,0.019480375573039055,0.05529908835887909,0.021392574533820152,-0.403083860874176,0.4470093548297882,9.150485038757324
3.8000000000000003,-0.019297923892736435,0.029739754274487495,0.012627015821635723,-0.3175734877586365,0.3130362927913666,9.561046600341797
3.8200000000000003,0.016455000266432762,0.00893644243478775,0.03357238695025444,-0.12968632578849792,0.3573349416255951,10.12756633758545
3.84,0.04149843379855156,-0.013355071656405926,0.03486178070306778,-0.14317062497138977,0.47192010283470154,10.257336616516113
3.86,0.039672259241342545,-0.06009625643491745,0.030460605397820473,-0.6359184384346008,0.47584226727485657,9.973790168762207
3.88,-0.020498523488640785,-0.10802532732486725,0.00452034454792738,-0.7471166849136353,0.4098801016807556,9.722646713256836
3.9,-0.03826471418142319,-0.11071132868528366,-0.011065458878874779,-0.8590884208679199,0.5803471803665161,9.669434547424316
3.92,0.006367079447954893,-0.10565584152936935,-0.02559996396303177,-1.0956289768218994,0.41566187143325806,9.86752986907959
3.94,-0.05175095051527023,-0.10332363098859787,-0.05154924839735031,-1.2480496168136597,0.22070415318012238,10.288455963134766
3.96,-0.03242430090904236,-0.08538305014371872,-0.04288982227444649,-1.3927451372146606,0.23297658562660217,10.508050918579102
3.98,-0.008435425348579884,-0.02687472477555275,-0.023617995902895927,-1.585349678993225,0.1463453620672226,10.60627555847168
4.0,-0.016827672719955444,-0.02066115289926529,-0.03920746222138405,-1.2232531309127808,0.05642687901854515,9.927535057067871
4.0200000000000005,-0.03593812510371208,-0.03219094127416611,-0.02432921715080738,-1.1233118772506714,0.24984630942344666,9.642685890197754
4.04,-0.010824128985404968,-0.029545994475483894,-0.008187157101929188,-0.412626713514328,0.3100503981113434,9.567699432373047
4.0600000000000005,-0.018680838868021965,-0.02137087658047676,0.013136644847691059,0.14489342272281647,0.27934232354164124,9.772122383117676
4.08,0.009729376062750816,-6.84457627357915e-05,0.043482791632413864,0.3734637200832367,0.14405833184719086,9.723630905151367
4.1,0.03501000255346298,-0.010690880008041859,0.07389204204082489,0.900752067565918,0.2262752801179886,9.994715690612793
4.12,0.0480005145072937,0.013810415752232075,0.06258248537778854,0.5835393071174622,0.46360278129577637,11.167587280273438
4.14,0.05117735266685486,0.07565081864595413,0.07579194009304047,0.291398823261261,0.3715001344680786,10.98914909362793
4.16,0.04433026164770126,0.10520869493484497,0.07137543708086014,0.1820039302110672,0.2853353023529053,9.935505867004395
4.18,0.09377992153167725,0.09398997575044632,0.05292636156082153,0.1371982991695404,0.1031263992190361,9.688236236572266
4.2,0.1318950355052948,0.08186616748571396,0.028156807646155357,0.21179145574569702,0.0888449102640152,9.606881141662598
4.22,0.09126941114664078,0.07346890866756439,-0.012567334808409214,0.37392500042915344,0.15227656066417694,9.907155990600586
4.24,0.12857982516288757,0.08846695721149445,-0.05337686464190483,0.35052192211151123,0.12326465547084808,9.687568664550781
4.26,0.08056212216615677,0.11130298674106598,-0.08077629655599594,0.3202087879180908,0.0295846089720726,9.153616905212402
4.28,0.09465565532445908,0.11124075949192047,-0.0823967456817627,0.10714669525623322,0.08069054782390594,9.453991889953613
4.3,0.11912094801664352,0.10571140050888062,-0.06175808981060982,-0.3279644846916199,0.16123446822166443,9.850234985351562
4.32,0.0855192095041275,0.09006357192993164,-0.009153171442449093,-0.6470626592636108,0.2070304900407791,9.926325798034668
4.34,0.047631312161684036,0.04902593046426773,-0.0032472696620970964,-0.7722823619842529,0.26072102785110474,9.801159858703613
4.36,0.05011245980858803,0.0004128054715692997,0.0010720891878008842,-0.7604876160621643,0.7868472337722778,9.449589729309082
4.38,0.012442867271602154,-0.02750808373093605,-0.005691611673682928,-0.9505013227462769,1.0023247003555298,9.5880126953125
4.4,0.00874924287199974,-0.06394946575164795,0.025639234110713005,-1.0233203172683716,0.8436800241470337,9.3996000289917
4.42,-0.025238871574401855,-0.09411009401082993,0.05088561028242111,-1.0695552825927734,0.6252047419548035,9.30983829498291
4.44,-0.00584214273840189,-0.11902868002653122,0.06822337955236435,-1.1986372470855713,0.5739826560020447,9.63487720489502
4.46,-0.04873417317867279,-0.14482422173023224,0.07537312805652618,-1.162703275680542,0.7205886840820312,9.72618293762207
4.48,-0.054110217839479446,-0.15240152180194855,0.07104505598545074,-1.1042277812957764,1.0054214000701904,9.655660629272461
4.5,-0.05617290735244751,-0.1762542575597763,0.0564764067530632,-0.6436945796012878,0.9987672567367554,9.51803207397461
4.5200000000000005,-0.0649733915925026,-0.19757777452468872,0.05289845913648605,-0.315527081489563,0.8398345708847046,9.578468322753906
4.54,-0.10099583119153976,-0.19235599040985107,0.020539505407214165,-0.16180065274238586,0.5748756527900696,9.962342262268066
4.5600000000000005,-0.061602670699357986,-0.18062521517276764,-0.0015649606939405203,-0.033422939479351044,0.35447749495506287,10.540984153747559
4.58,-0.06979717314243317,-0.15151478350162506,-0.004448322579264641,0.29847925901412964,0.2964364290237427,10.520898818969727
4.6000000000000005,-0.047023460268974304,-0.13182611763477325,-0.00155826925765723,0.6383986473083496,0.20273388922214508,9.72555923461914
4.62,-0.037134718149900436,-0.12398730218410492,0.0005101997521705925,0.7091281414031982,0.19854512810707092,9.048667907714844
4.64,-0.04043743759393692,-0.11358357965946198,0.0012306427815929055,0.6090303659439087,0.25767311453819275,8.880661010742188
4.66,0.004140342585742474,-0.10208309441804886,-0.00011326884850859642,0.32794657349586487,0.40481147170066833,9.551172256469727
4.68,0.024796128273010254,-0.07699089497327805,0.045415665954351425,-0.25723761320114136,0.34450510144233704,10.251066207885742
4.7,0.05498330667614937,-0.06923854351043701,0.11417488008737564,-0.45448505878448486,0.42080798745155334,10.031877517700195
4.72,0.01055348664522171,-0.05766192823648453,0.1735413521528244,-0.3864324390888214,0.507938802242279,9.587645530700684
4.74,0.03656237944960594,-0.06071346253156662,0.19125045835971832,-0.054722100496292114,0.4321267306804657,9.386940002441406
4.76,0.08888987451791763,-0.009175773710012436,0.17132732272148132,0.13647276163101196,0.5540965795516968,9.498772621154785
4.78,0.08863765001296997,0.004335181321948767,0.1705319881439209,0.3108671009540558,0.621408224105835,9.770416259765625
4.8,0.11769799143075943,0.007662542629987001,0.14013582468032837,0.4206453859806061,0.40865907073020935,10.02600383758545
4.82,0.09748489409685135,-0.005301664583384991,0.10521309822797775,0.5408704280853271,0.2664547562599182,10.474638938903809
4.84,0.10573931038379669,-0.04332936182618141,0.0573846809566021,0.5738738179206848,0.150517076253891,10.472830772399902
4.86,0.12321479618549347,-0.0709269568324089,0.02419726923108101,0.4874255955219269,-0.008688931353390217,10.220189094543457
4.88,0.1470988243818283,-0.09590821713209152,0.013683279976248741,0.2596305310726166,0.05283613130450249,10.514143943786621
4.9,0.1361885964870453,-0.10902637988328934,0.02712707221508026,0.034250929951667786,-0.019106818363070488,10.57119369506836
4.92,0.09985014796257019,-0.07690330594778061,0.01918129064142704,0.23238274455070496,0.007476038299500942,9.595968246459961
4.94,0.02837434783577919,-0.029185665771365166,-0.0328776091337204,0.20796142518520355,0.38844671845436096,8.844860076904297
4.96,0.07258829474449158,-0.045166827738285065,-0.07626786082983017,0.11687727272510529,0.842478334903717,8.505751609802246
4.98,0.0002231156249763444,-0.017422251403331757,-0.10168739408254623,0.20468612015247345,0.6928350329399109,8.361678123474121
5.0,-0.05988451838493347,0.0367409847676754,-0.13448716700077057,0.29248520731925964,0.7108486294746399,7.6876654624938965
5.0200000000000005,-0.009229661896824837,0.05544097349047661,-0.12588506937026978,0.2891450524330139,0.9217575192451477,8.1557035446167
5.04,-0.06809070706367493,0.10460138320922852,-0.10408834367990494,0.05854438245296478,0.6525737047195435,9.877006530761719
5.0600000000000005,-0.1359659880399704,0.13731646537780762,-0.12011141330003738,0.4929923415184021,0.8193112015724182,10.85511302947998
5.08,-0.007098426576703787,0.10588103532791138,-0.09882335364818573,-0.04145970568060875,1.2915034294128418,11.961800575256348
5.1000000000000005,-0.014598854817450047,0.10056029260158539,-0.0034782870206981897,-0.7312232851982117,0.6173998117446899,11.462297439575195
5.12,-0.030120940878987312,0.12580569088459015,0.07964877784252167,-0.5416700839996338,0.3818758726119995,10.137253761291504
5.14,-0.008701465092599392,0.11507155001163483,0.1073114350438118,0.08159905672073364,0.19035570323467255,9.040190696716309
5.16,-0.009682710282504559,0.07517203688621521,0.10767523944377899,0.4276607632637024,0.22743095457553864,9.122817039489746
5.18,-0.08416686207056046,0.048110708594322205,0.08463238924741745,0.7683427333831787,0.6077207326889038,9.56167984008789
5.2,-0.06337421387434006,-0.021792663261294365,0.03827844560146332,0.7848073840141296,0.8594301342964172,9.640647888183594
5.22,-0.03748881071805954,-0.048253823071718216,0.0025202669203281403,0.3720099925994873,0.8290236592292786,10.085707664489746
5.24,0.006818980444222689,-0.016878243535757065,-0.0440240204334259,-0.44773799180984497,0.859801173210144,10.552206039428711
5.26,0.05169510096311569,0.006049490999430418,-0.05362667888402939,-0.77945876121521,0.6380429267883301,10.270028114318848
5.28,0.059682443737983704,-0.025331877171993256,-0.06208908185362816,-0.7283869385719299,0.04030633345246315,10.123186111450195
5.3,0.06385903060436249,-0.07764022797346115,-0.04534998536109924,-0.510259747505188,-0.30334773659706116,9.77397632598877
5.32,0.003662410657852888,-0.09550272673368454,-0.036512214690446854,-0.6566606163978577,-0.07047736644744873,9.496744155883789
5.34,0.07736862450838089,-0.056880801916122437,0.0017545853042975068,-0.9184250831604004,0.011424833908677101,9.626686096191406
5.36,0.05796031653881073,0.012085983529686928,0.03205226734280586,-1.0694724321365356,0.14861497282981873,9.662196159362793
5.38,0.012697615660727024,0.03637593239545822,0.05238189920783043,-0.617436408996582,0.34752699732780457,9.619627952575684
5.4,0.0298551544547081,-0.015136764384806156,0.040775347501039505,0.13225767016410828,0.6554961204528809,9.939889907836914
5.42,0.06547600030899048,-0.03500630334019661,0.014109134674072266,0.41372931003570557,0.8504798412322998,10.479241371154785
5.44,0.05583936348557472,-0.00036393801565282047,0.015406819060444832,0.5262002944946289,1.1684216260910034,10.609522819519043
5.46,0.06908679008483887,0.03280092403292656,-0.002529221586883068,0.656844973564148,0.8418213725090027,10.01850414276123
5.48,0.021877478808164597,0.05258602276444435,-0.02167450822889805,0.48638916015625,0.6404092311859131,9.06730842590332
5.5,-0.01590496301651001,0.058039937168359756,-0.03321845084428787,0.26636120676994324,0.743401825428009,8.806074142456055
5.5200000000000005,0.09359412640333176,0.057007793337106705,-0.006987549364566803,-0.03636917099356651,0.7745043039321899,9.349503517150879
5.54,0.08061888813972473,0.03864051029086113,0.03288143128156662,-0.024176552891731262,0.49205687642097473,9.937962532043457
5.5600000000000005,0.11880525946617126,0.06404048949480057,0.07026086002588272,0.2213020622730255,0.29747438430786133,10.004528045654297
5.58,0.1046622097492218,0.07568351179361343,0.0702567994594574,0.3047432601451874,0.18803906440734863,9.869003295898438
5.6000000000000005,0.08611081540584564,0.06713041663169861,0.04165166988968849,0.453152596950531,0.31656134128570557,9.508109092712402
5.62,0.06801943480968475,0.01613333635032177,0.026740316301584244,0.3315543532371521,0.3218259811401367,9.099900245666504
5.64,0.009250884875655174,0.002456708112731576,0.026267806068062782,0.020224573090672493,0.6171322464942932,9.643485069274902
5.66,0.09407421946525574,-0.001635124790482223,0.05429740995168686,-0.2577454149723053,0.8951607346534729,10.102542877197266
5.68,0.07856811583042145,0.03509547561407089,0.06452866643667221,-0.4668787121772766,0.8141290545463562,10.115989685058594
5.7,0.06924980133771896,0.04604381322860718,0.06786351650953293,-0.385489821434021,0.9231789112091064,9.444829940795898
5.72,0.11006087809801102,0.04298825562000275,0.10515227913856506,-0.17944934964179993,1.1181684732437134,9.175849914550781
5.74,0.08254467695951462,0.02378331497311592,0.1153307780623436,-0.03515255078673363,1.0633569955825806,9.296725273132324
5.76,0.08665637671947479,0.03963357210159302,0.099624402821064,0.03574541211128235,0.8675585389137268,9.38064193725586
5.78,0.07611317187547684,0.06490816175937653,0.08095454424619675,-0.02904502861201763,0.7200857400894165,9.77604866027832
5.8,0.09745984524488449,0.08467084169387817,0.05386117845773697,0.029018525034189224,0.5944092273712158,10.104371070861816
5.82,0.06828105449676514,0.08964300900697708,0.026875942945480347,0.14177371561527252,0.7243348956108093,10.202573776245117
5.84,0.0707293376326561,0.11800631135702133,0.022223029285669327,-0.13703058660030365,1.1928623914718628,10.602113723754883
5.86,0.11528521776199341,0.16305233538150787,0.027723565697669983,-0.49580448865890503,1.1186836957931519,10.692845344543457
5.88,0.11050156503915787,0.19168928265571594,0.014843033626675606,-0.4125566780567169,0.8761329650878906,10.2224760055542
5.9,0.07778298109769821,0.15669265389442444,-0.0035960806999355555,-0.19212213158607483,1.0120898485183716,10.069857597351074
5.92,0.01890425942838192,0.11748410016298294,-0.01949785277247429,-0.08973651379346848,1.0831187963485718,9.913102149963379
5.94,0.016135623678565025,0.1246785819530487,-0.025522073730826378,0.047096136957407,1.1004254817962646,9.601234436035156
5.96,0.02301359549164772,0.10716522485017776,-0.02258330024778843,-0.00040235172491520643,0.8630797266960144,9.241744041442871
5.98,-0.0022225729189813137,0.054915476590394974,-0.0354863777756691,-0.3199232220649719,0.7668713927268982,9.109530448913574
6.0,-0.011993849650025368,-0.010793181136250496,-0.0406494177877903,-0.5657305717468262,0.927534818649292,9.386279106140137
6.0200000000000005,-0.02379932440817356,-0.0704871118068695,-0.04344603046774864,-0.8251062631607056,1.1301928758621216,9.850214958190918
6.04,-0.055332157760858536,-0.12275119125843048,-0.04858861118555069,-1.1636989116668701,1.3539454936981201,9.91942310333252
6.0600000000000005,-0.0896051675081253,-0.14715437591075897,-0.03566998988389969,-1.363031029701233,1.238359808921814,9.553413391113281
6.08,-0.09201103448867798,-0.18613645434379578,-0.0284790750592947,-1.2713651657104492,0.9622941613197327,9.18198013305664
6.1000000000000005,-0.1524209976196289,-0.21807174384593964,-0.006898919120430946,-1.3311195373535156,1.0363006591796875,9.276741027832031
6.12,-0.12736769020557404,-0.21483221650123596,0.04024333506822586,-1.1972010135650635,1.1246670484542847,9.841402053833008
6.140000000000001,-0.12620387971401215,-0.2349454164505005,0.06062707677483559,-0.6507355570793152,1.0220063924789429,10.013092041015625
6.16,-0.12960094213485718,-0.22938942909240723,0.05428308621048927,-0.11932633072137833,0.932136058807373,10.051156997680664
6.18,-0.1154436320066452,-0.24742965400218964,0.0352298766374588,0.2795942723751068,0.8886687755584717,9.802096366882324
6.2,-0.055832941085100174,-0.2394198179244995,0.002788310404866934,0.5074437856674194,0.9074925184249878,9.748099327087402
6.22,-0.025296587496995926,-0.21657316386699677,-0.0035978774540126324,0.5505480766296387,0.47229257225990295,10.143241882324219
6.24,-0.06104278564453125,-0.19232553243637085,-0.001072011305950582,0.6262310147285461,0.26869630813598633,9.84826946258545
6.26,-0.014817980118095875,-0.1689673662185669,-0.0036888045724481344,0.6694468855857849,0.30391988158226013,9.7827730178833
6.28,0.011723347008228302,-0.12104416638612747,-0.009664627723395824,0.637466549873352,0.20693230628967285,9.911266326904297
6.3,-0.010518834926187992,-0.07329776883125305,-0.014149793423712254,0.6390514373779297,0.2762134373188019,9.822096824645996
6.32,0.0053206863813102245,-0.030507495626807213,-0.015548629686236382,0.6198252439498901,0.5760085582733154,9.613629341125488
6.34,0.04758687689900398,0.03308578580617905,-0.015578732825815678,0.6775312423706055,0.7923969030380249,9.310249328613281
6.36,0.01653173565864563,0.05152979865670204,-0.019510501995682716,0.6995875835418701,0.8908920884132385,9.096917152404785
6.38,-0.004185475409030914,0.08761287480592728,-0.039546556770801544,0.5831847190856934,0.9391887187957764,9.123214721679688
6.4,0.041070062667131424,0.10127415508031845,-0.03850749135017395,0.6217423677444458,0.8976469039916992,9.064362525939941
6.42,0.02644677832722664,0.14614136517047882,-0.03936555236577988,0.7797902822494507,0.6646213531494141,9.52197265625
6.44,0.0033615578431636095,0.16587671637535095,-0.01581793650984764,1.032081961631775,0.6255519390106201,9.53789234161377
6.46,0.002076090080663562,0.16365006566047668,-0.0038959539961069822,0.8945350646972656,0.5801651477813721,9.578875541687012
6.48,0.03243352100253105,0.161581888794899,0.011442378163337708,0.41985586285591125,0.4879102110862732,9.566962242126465
6.5,-0.005136978812515736,0.17051278054714203,0.020707856863737106,-0.1548689603805542,0.8723126649856567,10.066330909729004
6.5200000000000005,-0.020729519426822662,0.2096916288137436,0.03425483778119087,-0.37169480323791504,1.034400463104248,10.112436294555664
6.54,-0.0069549535401165485,0.19235166907310486,0.039874229580163956,-0.37622782588005066,1.0512713193893433,10.15420913696289
6.5600000000000005,0.0126954335719347,0.14137014746665955,0.05182364955544472,-0.36312124133110046,1.0539939403533936,10.141844749450684
6.58,0.002678994555026293,0.10725577920675278,0.053390100598335266,-0.34725862741470337,0.9801559448242188,10.065974235534668
6.6000000000000005,-0.015510277822613716,0.1272432655096054,0.044480059295892715,-0.3807431757450104,0.8916990160942078,9.908951759338379
6.62,-0.0034750504419207573,0.1332821398973465,0.033921048045158386,-0.44799166917800903,0.8108048439025879,9.709359169006348
6.640000000000001,0.03950010985136032,0.13048741221427917,0.018641946837306023,-0.49246764183044434,0.6286157965660095,9.791182518005371
6.66,0.014366356655955315,0.10794997960329056,0.01314619928598404,-0.4083009362220764,0.5791446566581726,9.858778953552246
6.68,0.021909471601247787,0.0729328915476799,0.019497955217957497,-0.2954370081424713,0.7469345331192017,9.87203311920166
6.7,0.04843860864639282,0.06365341693162918,0.018700603395700455,-0.4544110894203186,0.727925717830658,9.621408462524414
6.72,0.030957046896219254,0.03537234663963318,0.005293069873005152,-0.5158052444458008,0.58991938829422,9.264322280883789
6.74,0.07442260533571243,0.03096814826130867,-0.00907361414283514,-0.7040338516235352,0.5851123929023743,9.171841621398926
6.76,0.0839507132768631,0.02303016372025013,-0.003211240516975522,-0.6602175235748291,0.5979117751121521,9.397777557373047
6.78,0.08756692707538605,0.015624678693711758,-0.018150269985198975,-0.6168937087059021,0.7406918406486511,10.037927627563477
6.8,0.12347489595413208,-0.042618654668331146,0.006511929910629988,-0.7544739246368408,0.9150470495223999,10.635796546936035
6.82,0.11286541074514389,-0.08687332272529602,0.03327729180455208,-0.8336644768714905,0.6781166791915894,10.365105628967285
6.84,0.09321574866771698,-0.11033055931329727,0.02066659741103649,-0.6260678768157959,0.7793124318122864,9.732868194580078
6.86,0.1030317023396492,-0.11559927463531494,0.02006017230451107,-0.5523392558097839,0.711922824382782,9.375143051147461
6.88,0.09136715531349182,-0.13441705703735352,0.003788803471252322,-0.3736448585987091,0.5873444676399231,9.554707527160645
6.9,0.0908391997218132,-0.14827165007591248,0.00758300581946969,-0.38438403606414795,0.7285770773887634,9.847723007202148
6.92,0.08407937735319138,-0.16407373547554016,0.005225545726716518,-0.5820824503898621,0.9480268955230713,10.191047668457031
6.94,0.047177281230688095,-0.15853694081306458,0.01908974163234234,-0.7415611743927002,1.257399082183838,10.484600067138672
6.96,0.05821172893047333,-0.11667698621749878,0.021503416821360588,-0.8397254347801208,1.3691567182540894,10.31916332244873
6.98,0.0082802539691329,-0.10641898214817047,0.005781038198620081,-0.625221312046051,1.2569860219955444,9.926518440246582
7.0,0.049606285989284515,-0.10656947642564774,-0.004322207998484373,-0.2186356633901596,1.1947331428527832,9.646166801452637
7.0200000000000005,0.031169626861810684,-0.10746762901544571,0.0037305643782019615,0.15458640456199646,1.04356849193573,9.44044017791748
7.04,0.010943129658699036,-0.10699087381362915,0.0015811234479770064,0.4752117097377777,1.025528073310852,9.428393363952637
7.0600000000000005,0.028431210666894913,-0.08905648440122604,0.005161646753549576,0.5591525435447693,1.06734299659729,9.877578735351562
7.08,-0.009122665040194988,-0.061665549874305725,-0.006997118704020977,0.6131314039230347,1.1415348052978516,10.059324264526367
7.1000000000000005,-0.029696080833673477,-0.044765930622816086,-0.039778247475624084,0.5775672197341919,1.199470043182373,9.906343460083008
7.12,-0.10754729062318802,-0.03209986165165901,-0.040478646755218506,0.6592703461647034,1.405785083770752,9.521162986755371
7.140000000000001,-0.06481719762086868,-0.009959371760487556,-0.03541071340441704,0.6510996222496033,1.4264190196990967,9.377323150634766
7.16,-0.057119760662317276,-0.007153498008847237,-0.03176338970661163,0.4081510603427887,1.063083291053772,9.52198314666748
7.18,-0.09356100112199783,0.04210572689771652,-0.01826244406402111,0.22179220616817474,0.9162851572036743,9.698310852050781
7.2,-0.06444540619850159,0.07795292139053345,0.016382893547415733,0.10764710605144501,0.8472260236740112,9.72674560546875
7.22,-0.0803493782877922,0.10720886290073395,0.03976565971970558,0.12686583399772644,0.7607046961784363,9.670702934265137
7.24,-0.02814914658665657,0.12186134606599808,0.04997653141617775,0.33969467878341675,0.8998892307281494,9.44314956665039
7.26,-0.04581158980727196,0.11474525928497314,0.04439267888665199,0.4321194291114807,0.9024088978767395,9.252877235412598
7.28,-0.05754398927092552,0.12293707579374313,0.04843156039714813,0.3742568790912628,0.8234384655952454,9.305094718933105
7.3,-0.07386454194784164,0.16800111532211304,0.036523934453725815,0.3842453360557556,0.8322859406471252,9.167945861816406
7.32,-0.02780986577272415,0.1887451857328415,0.014893592335283756,0.3579052984714508,0.7954587936401367,9.397063255310059
7.34,0.011073666624724865,0.15377280116081238,0.013832428492605686,0.1306370496749878,0.5981669425964355,9.866166114807129
7.36,0.023790268227458,0.13445104658603668,0.023989271372556686,0.0456126406788826,0.7063193917274475,10.093047142028809
7.38,0.006596832070499659,0.09869201481342316,0.03300348296761513,-0.14338624477386475,0.7683585286140442,9.991613388061523
7.4,0.06193917617201805,0.07017023861408234,0.028344061225652695,-0.4719700813293457,0.633628785610199,9.747381210327148
7.42,0.05066664144396782,0.048093654215335846,0.020827868953347206,-0.6701204180717468,0.595003604888916,9.471414566040039
7.44,0.04769231751561165,0.03404576703906059,-0.0097788255661726,-0.6760966777801514,0.7535929083824158,9.353434562683105
7.46,0.030371597036719322,0.0031019970774650574,-0.03433910384774208,-0.6173765063285828,0.8232623338699341,9.213919639587402
7.48,0.01467033289372921,-0.02305196039378643,-0.05712205544114113,-0.6293086409568787,1.006961464881897,9.463313102722168
7.5,-0.06793437898159027,-0.06185854598879814,-0.046194858849048615,-0.7163267731666565,1.0741794109344482,9.811290740966797
7.5200000000000005,-0.026615958660840988,-0.09668079018592834,-0.050916921347379684,-0.6911804676055908,1.0582358837127686,9.880760192871094
7.54,-0.0018822835991159081,-0.1111416220664978,-0.03684365376830101,-0.6959919929504395,0.9119616746902466,9.917261123657227
7.5600000000000005,-0.038635242730379105,-0.12699589133262634,-0.036254093050956726,-0.8460000157356262,0.925386905670166,10.045207977294922
7.58,-0.08993063867092133,-0.10881584137678146,-0.03791314363479614,-0.914755642414093,1.153787612915039,10.01140022277832
7.6000000000000005,-0.05436605587601662,-0.10264226049184799,-0.038101620972156525,-0.8382880091667175,1.2630192041397095,9.733692169189453
7.62,-0.05453943461179733,-0.09753113240003586,-0.026518307626247406,-0.678391695022583,1.1570442914962769,9.740679740905762
7.640000000000001,-0.09240404516458511,-0.11279907822608948,0.0016892922576516867,-0.3966030776500702,1.0520555973052979,9.692874908447266
7.66,-0.07466498762369156,-0.13846078515052795,0.022651778534054756,0.2764388620853424,0.8130391836166382,9.593558311462402
7.68,-0.05280524492263794,-0.13204723596572876,0.017677852883934975,0.5348121523857117,0.6437181830406189,9.95418643951416
7.7,-0.09515996277332306,-0.10077828913927078,-0.00011057940719183534,0.6133363842964172,0.660176157951355,9.891674995422363
7.72,-0.05717447027564049,-0.10588334500789642,-0.0048564113676548,0.5364633798599243,0.673354983329773,10.175239562988281
7.74,-0.04781748354434967,-0.1300092488527298,0.0028725191950798035,0.26741012930870056,0.7677928805351257,9.996254920959473
7.76,-0.04317760095000267,-0.12703751027584076,0.007095168344676495,0.12046071887016296,0.887182354927063,9.510433197021484
7.78,-0.027605602517724037,-0.11758248507976532,0.02311169169843197,-0.016785811632871628,0.7819485068321228,9.666037559509277
7.8,-0.0022737763356417418,-0.09779049456119537,0.03787852078676224,-0.09998662769794464,0.5132980346679688,9.98420524597168
7.82,0.056183163076639175,-0.08999866247177124,0.03742155060172081,-0.05630945786833763,0.4400506019592285,10.193224906921387
7.84,0.06297583878040314,-0.08931846916675568,0.05332739278674126,-0.018454888835549355,0.3477436900138855,10.26041030883789
7.86,0.08902830630540848,-0.08469392359256744,0.05895201489329338,-0.011243746615946293,0.3918238878250122,10.214893341064453
7.88,0.06567223370075226,-0.07157254964113235,0.05753796175122261,-0.030196618288755417,0.3282147943973541,9.745207786560059
7.9,0.05721733719110489,-0.060928236693143845,0.025244884192943573,0.20831017196178436,0.45560207962989807,9.423036575317383
7.92,0.1064068153500557,-0.044684503227472305,-0.005183523520827293,0.22926929593086243,0.7502070665359497,9.623273849487305
7.94,0.10745608061552048,-0.018924172967672348,-0.02232821099460125,0.3193836808204651,0.6462152004241943,10.106247901916504
7.96,0.0994766429066658,-0.015493419021368027,-0.04225639998912811,0.38798755407333374,0.6620475649833679,10.241921424865723
7.98,0.11680734157562256,-0.006815027911216021,-0.04094410687685013,0.5280920267105103,0.6772915124893188,9.861395835876465
8.0,0.14731022715568542,0.0019083842635154724,-0.04670553281903267,0.42489996552467346,0.6792615652084351,9.412511825561523
8.02,0.11095713824033737,0.02559761330485344,-0.07307400554418564,0.3340810239315033,0.7666290998458862,9.177515983581543
8.040000000000001,0.08504363894462585,0.07091250270605087,-0.07993126660585403,0.35013285279273987,0.8936070799827576,9.076140403747559
8.06,0.06535174697637558,0.09144741296768188,-0.09031476825475693,0.3726257383823395,1.0959452390670776,9.323915481567383
8.08,0.07180874049663544,0.09658154845237732,-0.08357027918100357,0.4192870557308197,1.3426874876022339,9.669168472290039
8.1,0.03466420620679855,0.10985725373029709,-0.06525325775146484,0.35785844922065735,1.393406629562378,9.68597412109375
8.120000000000001,0.005687706638127565,0.14406678080558777,-0.03970284014940262,0.28619134426116943,1.3172587156295776,9.835447311401367
8.14,-0.002249250654131174,0.15715964138507843,-0.028552081435918808,0.36570364236831665,1.3688284158706665,9.863539695739746
8.16,-0.021027429029345512,0.15890519320964813,-0.029458213597536087,0.5830360651016235,1.281274437904358,9.865487098693848
8.18,-0.06315074115991592,0.13927939534187317,-0.014536927454173565,0.6238493323326111,1.1411608457565308,9.455437660217285
8.2,-0.060353729873895645,0.1634576916694641,-0.0021609850227832794,0.4017345607280731,1.121504545211792,9.178242683410645
8.22,-0.10440444201231003,0.13572660088539124,-0.0036388009320944548,0.18327051401138306,1.1751248836517334,9.238005638122559
8.24,-0.11438769102096558,0.11274494230747223,-0.011428716592490673,-0.3661596179008484,1.348088264465332,10.019268035888672
8.26,-0.12027617543935776,0.07068237662315369,-0.017914315685629845,-0.9846959114074707,1.7637066841125488,10.70057487487793
8.28,-0.06639055162668228,0.01298457384109497,0.01295558176934719,-1.229225993156433,1.6702886819839478,10.933380126953125
8.3,-0.0438653938472271,-0.039848096668720245,0.04834255948662758,-1.0016412734985352,0.9718166589736938,10.096092224121094
8.32,-0.07704316079616547,-0.09161913394927979,0.07591130584478378,-0.5452508330345154,0.6942141056060791,9.230033874511719
8.34,-0.04306516796350479,-0.1112232580780983,0.06533131003379822,-0.3132554888725281,0.704430341720581,9.175983428955078
8.36,-0.045049961656332016,-0.13298299908638,0.058822378516197205,-0.3516712486743927,0.7358132600784302,9.755156517028809
8.38,-0.02525421418249607,-0.14379993081092834,0.04024301841855049,-0.4215688109397888,0.9422810077667236,10.14892292022705
8.4,0.00828519742935896,-0.18058155477046967,0.03850771486759186,-0.43738776445388794,0.9473227858543396,10.11325454711914
8.42,-0.003399985609576106,-0.2153279185295105,0.03220200911164284,-0.38018688559532166,0.6938887238502502,9.612030982971191
8.44,0.01581459492444992,-0.21747912466526031,0.017527999356389046,-0.34772416949272156,0.45534759759902954,8.822999000549316
8.46,0.07952135801315308,-0.1999959796667099,-0.0016421370673924685,-0.05568331852555275,0.3066444396972656,8.596707344055176
8.48,0.06790977716445923,-0.1561080515384674,0.0012779905227944255,0.2613150477409363,0.2656737267971039,9.24139404296875
8.5,0.084579236805439,-0.13412752747535706,-0.0051148259080946445,0.5574405789375305,0.44934168457984924,9.914041519165039
8.52,0.06783780455589294,-0.10504854470491409,0.005994595121592283,0.6690999865531921,0.6938203573226929,10.315802574157715
8.540000000000001,0.08009545505046844,-0.07367322593927383,0.019731644541025162,0.5520628094673157,0.9315581321716309,10.290291786193848
8.56,0.07602326571941376,-0.0506388396024704,0.03275718167424202,0.5120602250099182,1.1566448211669922,9.607255935668945
8.58,0.06289507448673248,-0.019672973081469536,0.03150644898414612,0.387299120426178,1.271824598312378,9.919001579284668
8.6,0.051711998879909515,-0.01778852380812168,0.013413605280220509,0.5910512804985046,1.1608625650405884,10.213151931762695
8.620000000000001,0.02049311250448227,-0.023221181705594063,0.003018540795892477,0.7351944446563721,1.032942295074463,10.3358736038208
8.64,-0.014806498773396015,-0.022594233974814415,-0.022210996598005295,0.8083027601242065,0.9444935917854309,9.948657035827637
8.66,-0.0004064020758960396,0.005831602960824966,-0.01951332949101925,0.8123496770858765,0.688249409198761,8.916332244873047
8.68,-0.019222356379032135,0.029361886903643608,-0.012402442283928394,0.642128586769104,0.7597056031227112,8.789149284362793
8.700000000000001,-0.03855983167886734,0.030743228271603584,0.0013307349290698767,0.5049847960472107,0.9089757800102234,8.718924522399902
8.72,-0.08709323406219482,0.0693143755197525,0.004396113101392984,0.24218136072158813,1.2815502882003784,9.043144226074219
8.74,-0.09825148433446884,0.07538823783397675,-0.00754086347296834,0.11265302449464798,1.6273257732391357,9.953951835632324
8.76,-0.0758710503578186,0.07768946141004562,-0.0015693750465288758,0.12970873713493347,1.4815675020217896,10.47031307220459
8.78,-0.10737524181604385,0.07202257215976715,-0.0006273572216741741,0.3575451374053955,1.3530577421188354,10.282732963562012
8.8,-0.1120717003941536,0.08853515237569809,0.003233525436371565,0.46367108821868896,1.046627163887024,10.12554931640625
8.82,-0.09834413230419159,0.07528605312108994,0.02097165584564209,0.48305460810661316,0.7259859442710876,10.076308250427246
8.84,-0.08111455291509628,0.04436902701854706,0.028960663825273514,0.40180692076683044,0.6365256905555725,9.970680236816406
8.86,-0.08871643990278244,0.049660757184028625,0.02966281957924366,0.24687622487545013,0.7438036799430847,9.921168327331543
8.88,-0.03633337840437889,0.047759365290403366,0.035930976271629333,-0.013865028508007526,0.8003301620483398,9.952518463134766
8.9,-0.029421208426356316,0.058925025165081024,0.0311173927038908,-0.12192362546920776,0.8736578822135925,9.628820419311523
8.92,-0.054978273808956146,0.059255246073007584,0.03370024636387825,-0.009798530489206314,0.879066526889801,9.34560775756836
8.94,-0.05240357667207718,0.055732373148202896,0.04675687849521637,0.13708485662937164,0.8153045773506165,9.28213119506836
8.96,-0.006807515863329172,0.04721264913678169,0.052526600658893585,0.31405845284461975,0.7024374604225159,9.268465995788574
8.98,-0.001904271193780005,0.06172074377536774,0.06164569780230522,0.2497428059577942,0.5748139023780823,9.517552375793457
9.0,0.0294515211135149,0.060326747596263885,0.08414801955223083,0.20872744917869568,0.5519279837608337,9.780892372131348
9.02,0.07970990985631943,0.06353054940700531,0.09326709061861038,0.16484391689300537,0.5723968148231506,9.89664363861084
9.040000000000001,0.08994726091623306,0.04782166704535484,0.10441663861274719,0.1852637380361557,0.7021876573562622,9.475013732910156
9.06,0.12132255733013153,0.0527363084256649,0.07230542600154877,0.15456539392471313,0.7443270087242126,9.115128517150879
9.08,0.07891048491001129,0.09467031806707382,0.04451775178313255,-0.08852802962064743,0.6422891616821289,9.327568054199219
9.1,0.097240149974823,0.1521771401166916,0.007705806754529476,-0.22913941740989685,0.5753758549690247,9.585675239562988
9.120000000000001,0.06320502609014511,0.17840148508548737,-0.043689750134944916,-0.1885862797498703,0.5658299922943115,9.788727760314941
9.14,0.032175615429878235,0.149452343583107,-0.06792490184307098,0.2619539499282837,0.6667930483818054,9.782754898071289
9.16,0.019551564007997513,0.09912686794996262,-0.05352604761719704,0.47836583852767944,0.8133033514022827,10.017014503479004
9.18,0.010810963809490204,0.08096841722726822,-0.04395090043544769,0.3543698787689209,1.0071756839752197,10.13012981414795
9.200000000000001,0.02225378528237343,0.09921111166477203,-0.041676800698041916,0.22421658039093018,1.041182041168213,9.960981369018555
9.22,0.012817058712244034,0.07750264555215836,-0.03298693150281906,0.07455184310674667,1.022402048110962,9.388545036315918
9.24,-0.028816120699048042,0.05264002084732056,-0.04315667599439621,-0.06393708288669586,1.0758103132247925,9.438817977905273
9.26,-0.09390715509653091,0.02781212329864502,-0.038392696529626846,-0.24688231945037842,1.2383687496185303,9.319511413574219
9.28,-0.11578010022640228,0.01799115166068077,-0.0457739494740963,-0.5896656513214111,1.2936286926269531,9.652745246887207
9.3,-0.13706640899181366,0.013664217665791512,-0.042632732540369034,-1.0623582601547241,1.4318993091583252,10.501448631286621
9.32,-0.08990788459777832,0.03891250863671303,-0.017244769260287285,-1.6224744319915771,1.2741163969039917,11.49738597869873
9.34,-0.16520318388938904,0.04655801132321358,0.014390572905540466,-1.6716219186782837,0.9286460280418396,11.382132530212402
9.36,-0.14421238005161285,0.03416037932038307,0.053173936903476715,-1.5130252838134766,0.7442387938499451,10.344589233398438
9.38,-0.12336757779121399,0.046202320605516434,0.09091098606586456,-0.7804288268089294,0.5608180165290833,9.674962997436523
9.4,-0.11966177076101303,0.061548441648483276,0.06832368671894073,0.10297694057226181,0.6961938738822937,9.76028060913086
9.42,-0.09941798448562622,0.074874646961689,0.040010400116443634,0.5788872241973877,0.8400146961212158,9.801865577697754
9.44,-0.10197464376688004,0.04311105236411095,0.020673628896474838,0.7580766677856445,0.7887750864028931,9.58198356628418
9.46,-0.08163722604513168,0.01761244237422943,0.00034840821172110736,0.618696928024292,0.5832103490829468,9.585694313049316
9.48,-0.010193116962909698,0.014508743770420551,0.015643293038010597,0.2253725230693817,0.30452603101730347,9.600183486938477
9.5,0.03519835323095322,0.026456797495484352,0.03998268395662308,-0.12518247961997986,0.152196004986763,9.496925354003906
9.52,0.08097954839468002,-0.0036822042893618345,0.07565508782863617,-0.16704092919826508,0.12251045554876328,9.352213859558105
9.540000000000001,0.09415452182292938,-0.026755964383482933,0.11392499506473541,-0.1353803277015686,0.2709832191467285,9.062546730041504
9.56,0.17891772091388702,-0.031735725700855255,0.1197279840707779,-0.1398937702178955,0.4329899847507477,9.036563873291016
9.58,0.1666279435157776,-0.03859424218535423,0.13106650114059448,-0.3006483018398285,0.48526260256767273,9.354990005493164
9.6,0.1958233267068863,-0.05651338770985603,0.10199320316314697,-0.3375825583934784,0.3823186159133911,9.495304107666016
9.620000000000001,0.1806492656469345,-0.052749209105968475,0.06668289750814438,-0.40579038858413696,0.3426308333873749,10.236322402954102
9.64,0.1421239823102951,-0.04149509221315384,0.024996940046548843,-0.3086865544319153,0.6093961596488953,10.175304412841797
9.66,0.12388482689857483,-0.06707418709993362,0.02705477923154831,-0.23103877902030945,0.9039325714111328,10.141766548156738
9.68,0.09783884882926941,-0.06393355131149292,0.02353803999722004,-0.278822660446167,0.9396613836288452,10.160638809204102
9.700000000000001,0.13443104922771454,-0.06342218816280365,0.020923295989632607,-0.28913792967796326,1.012024164199829,9.879205703735352
9.72,0.11412493884563446,-0.05645548924803734,0.017220785841345787,-0.13183778524398804,0.9323632121086121,9.45849609375
9.74,0.07447900623083115,-0.04207450896501541,0.005641075316816568,0.05808040127158165,0.979247510433197,9.224855422973633
9.76,0.0851709172129631,-0.044878896325826645,0.014578336849808693,0.14943113923072815,1.1677844524383545,9.404585838317871
9.78,0.0485367551445961,-0.01656237430870533,0.01735161989927292,0.16585929691791534,1.3775243759155273,9.407206535339355
9.8,-0.004907906986773014,0.010195489041507244,0.006803369615226984,0.15159480273723602,1.3682472705841064,9.442970275878906
9.82,0.027597084641456604,0.05038991943001747,-0.013301827013492584,0.21556012332439423,1.3038041591644287,9.350834846496582
9.84,-0.048386797308921814,0.06228291988372803,-0.02247423119843006,0.3050762712955475,1.3901798725128174,9.387434005737305
9.86,-0.052395712584257126,0.07727791368961334,-0.023757142946124077,0.2674531638622284,1.3839540481567383,9.642980575561523
9.88,-0.07543972134590149,0.09554935246706009,-0.02962910570204258,-0.05634931102395058,1.4145164489746094,10.181217193603516
9.9,-0.047346603125333786,0.12620016932487488,-0.03720530495047569,-0.11480739712715149,1.173249363899231,9.693866729736328
9.92,-0.040164727717638016,0.10539525002241135,-0.03943256288766861,0.14783598482608795,0.7883005738258362,9.421526908874512
9.94,-0.07695306837558746,0.08740857988595963,-0.039288535714149475,0.14615827798843384,0.7995264530181885,9.495351791381836
9.96,-0.0556180514395237,0.07985813915729523,-0.03893989324569702,0.16396531462669373,0.9459141492843628,9.913225173950195
9.98,-0.011051451787352562,0.07007039338350296,-0.030754510313272476,0.11017128080129623,0.8981705904006958,10.199974060058594
10.0,-0.036261118948459625,0.047566793859004974,-0.03119569458067417,-0.10720884054899216,0.9310349822044373,9.95901107788086
10.02,-0.04286626726388931,0.049565549939870834,-0.03263573348522186,-0.3330153524875641,0.913828432559967,9.69686222076416
10.040000000000001,-0.05680074915289879,0.015358688309788704,-0.0262204110622406,-0.5621313452720642,0.9725464582443237,9.657033920288086
10.06,-0.04154125228524208,-0.03207526355981827,-0.011046980507671833,-0.8426060676574707,0.9679551124572754,9.785274505615234
10.08,0.013409112580120564,-0.07223581522703171,0.016684088855981827,-1.066248893737793,0.8156826496124268,9.911737442016602
10.1,-0.006392580922693014,-0.06977783143520355,0.030129587277770042,-1.0803475379943848,0.4900374412536621,9.319159507751465
10.120000000000001,0.025746386498212814,-0.09064402431249619,0.04320085421204567,-0.8763400912284851,0.39479392766952515,9.086429595947266
10.14,0.016568012535572052,-0.10669546574354172,0.053572364151477814,-0.8436334133148193,0.4375339448451996,9.35216236114502
10.16,-0.033889394253492355,-0.11799798160791397,0.03947347402572632,-0.9070378541946411,0.6958845257759094,10.12658405303955
10.18,0.0006220197537913918,-0.12495074421167374,0.013977916911244392,-0.7094181180000305,0.8584962487220764,10.684614181518555
10.200000000000001,-0.015122049488127232,-0.1804955005645752,0.0009907025378197432,-0.2791121006011963,0.7068823575973511,10.633039474487305
10.22,-0.03131103515625,-0.21178339421749115,-0.028317056596279144,0.18383397161960602,0.6370132565498352,10.090563774108887
10.24,-0.018261384218931198,-0.21962600946426392,-0.05202876403927803,0.4200288951396942,0.4979594945907593,9.431445121765137
10.26,-0.013717873021960258,-0.22425837814807892,-0.09176255762577057,0.47093304991722107,0.4770411252975464,9.3517484664917
10.28,-0.053386759012937546,-0.2180355191230774,-0.10845957696437836,0.35437697172164917,0.7187941670417786,9.328070640563965
10.3,-0.08094435185194016,-0.18909132480621338,-0.12844474613666534,0.24848324060440063,0.9391520023345947,9.493111610412598
10.32,-0.09315747767686844,-0.17267252504825592,-0.13109257817268372,0.1358996331691742,1.373986005783081,9.256108283996582
10.34,-0.07184794545173645,-0.10859373956918716,-0.1261739730834961,-0.18698754906654358,1.4921658039093018,9.715544700622559
10.36,-0.09105253964662552,-0.030987899750471115,-0.09300261735916138,-0.45639389753341675,1.463320016860962,10.372414588928223
10.38,-0.06285174936056137,0.004373912699520588,-0.0511188842356205,-0.17025920748710632,1.3998489379882812,10.450013160705566
10.4,-0.06777666509151459,0.007734675891697407,-0.005703407805413008,0.5965400338172913,0.9408315420150757,10.013897895812988
10.42,-0.10687140375375748,0.015547525137662888,0.009491817094385624,0.9515871405601501,0.767346978187561,9.479020118713379
10.44,-0.1240713968873024,0.06614494323730469,0.002530560363084078,1.0675389766693115,0.7564361095428467,9.348579406738281
10.46,-0.13252317905426025,0.12282843142747879,0.0013568364083766937,0.9704415798187256,0.7353118062019348,9.31735897064209
10.48,-0.10602487623691559,0.13504460453987122,0.021820949390530586,0.723310649394989,0.746950626373291,9.597142219543457
10.5,-0.11627218127250671,0.1201990619301796,0.005116734653711319,0.3676903247833252,0.66245436668396,9.844212532043457
10.52,-0.1307644098997116,0.11615194380283356,0.0027907933108508587,0.31096601486206055,0.62290358543396,9.974735260009766
10.540000000000001,-0.09716180711984634,0.13433337211608887,-0.001163632026873529,0.15339477360248566,0.6210212111473083,10.147658348083496
10.56,-0.015499108470976353,0.16229347884655,0.01769404113292694,-0.30490341782569885,0.6055071353912354,10.346768379211426
10.58,-0.026928216218948364,0.18229351937770844,0.05087023973464966,-0.369067519903183,0.4007468521595001,9.69530200958252
10.6,-0.03529199957847595,0.13839752972126007,0.06646048277616501,-0.075406014919281,0.5310937166213989,9.460031509399414
10.620000000000001,-0.03459189459681511,0.12289440631866455,0.06067698076367378,0.10396690666675568,0.6171497702598572,9.506649017333984
10.64,0.0005263435887172818,0.0946696549654007,0.0416700504720211,0.14283180236816406,0.4892178475856781,9.762166976928711
10.66,0.0225877333432436,0.10216982662677765,0.029332580044865608,0.04566046595573425,0.1801414042711258,9.987874031066895
10.68,-0.015324548818171024,0.12518960237503052,0.010516734793782234,-0.22985120117664337,0.1428453028202057,9.936460494995117
10.700000000000001,-0.006517586298286915,0.10023339837789536,0.01268690824508667,-0.5755305290222168,0.19579583406448364,9.661321640014648
10.72,-0.019442642107605934,0.09785722941160202,0.010150374844670296,-0.6621132493019104,0.35541072487831116,9.567188262939453
10.74,0.009189735166728497,0.09935061633586884,0.018298378214240074,-0.642297089099884,0.6143569946289062,9.421168327331543
10.76,0.013577298261225224,0.0839356929063797,0.009966226294636726,-0.3900546729564667,0.7668468952178955,9.62173843383789
10.78,0.02949707768857479,0.03934216499328613,0.002920648315921426,-0.14228716492652893,0.8070950508117676,9.85154914855957
10.8,0.02334984391927719,0.010334506630897522,-0.023579822853207588,0.0887487530708313,0.8131471276283264,9.71247673034668
10.82,0.01091709453612566,0.005330548621714115,-0.04141131415963173,0.1587420552968979,0.6654536724090576,9.604581832885742
10.84,-0.020286332815885544,-0.018518870696425438,-0.04776296392083168,0.0644887238740921,0.4572960138320923,9.244787216186523
10.86,-0.0376572459936142,-0.026558777317404747,-0.05278368294239044,-0.17000247538089752,0.4223349392414093,9.250011444091797
10.88,-0.03870885819196701,-0.02989041805267334,-0.04699358716607094,-0.48467332124710083,0.5571648478507996,9.827678680419922
10.9,-0.006443082354962826,-0.04223944619297981,-0.016003526747226715,-0.7455331087112427,0.7321072816848755,10.296725273132324
10.92,0.013378656469285488,-0.06626743078231812,0.007727799005806446,-0.8818144202232361,0.7602724432945251,10.274139404296875
10.94,0.039259087294340134,-0.07384957373142242,0.03254469856619835,-0.9862326979637146,0.5679242610931396,10.086404800415039
10.96,0.04300699383020401,-0.08087846636772156,0.010737146250903606,-0.8130073547363281,0.2583845257759094,9.803215026855469
10.98,0.039181020110845566,-0.09853309392929077,-0.007342244032770395,-0.3768574595451355,0.2871001958847046,9.474302291870117
11.0,0.06315929442644119,-0.1101304441690445,-0.014783855527639389,-0.09278018772602081,0.40530693531036377,9.350848197937012
11.02,0.05674498528242111,-0.1162446066737175,-0.00807303935289383,-0.034310463815927505,0.4629251956939697,9.35629653930664
11.040000000000001,0.10159508138895035,-0.11903069168329239,0.002852511592209339,-0.12595029175281525,0.5606068968772888,9.985281944274902
11.06,0.13446085155010223,-0.13844484090805054,0.014842231757938862,-0.09459295123815536,0.47608157992362976,10.26052474975586
11.08,0.15111079812049866,-0.15464945137500763,0.035251881927251816,-0.07596446573734283,0.40692076086997986,10.076741218566895
11.1,0.16184400022029877,-0.1653432548046112,0.022350529208779335,-0.15887942910194397,0.39026397466659546,9.786308288574219
11.120000000000001,0.1169898733496666,-0.16398786008358002,-0.009591881185770035,-0.12871737778186798,0.3759337067604065,9.39747428894043
11.14,0.12149278074502945,-0.14238765835762024,-0.027448097243905067,-0.05808855593204498,0.49296730756759644,9.481568336486816
11.16,0.07301400601863861,-0.09579301625490189,-0.05384170636534691,-0.037931837141513824,0.6177548170089722,9.831886291503906
11.18,0.08688350766897202,-0.0673253983259201,-0.07023366540670395,0.07679879665374756,0.7747898101806641,9.943385124206543
11.200000000000001,0.05778010934591293,-0.049514323472976685,-0.06756555289030075,0.2129809856414795,0.804094672203064,9.97092056274414
11.22,0.039905037730932236,-0.04978470504283905,-0.052829910069704056,0.262355238199234,1.260395884513855,10.253557205200195
11.24,0.08701861649751663,-0.044701576232910156,-0.05091848969459534,0.4834311604499817,1.4090632200241089,10.108760833740234
11.26,0.06143377348780632,-0.03366578370332718,-0.03614025190472603,0.7014033794403076,1.1998653411865234,9.713339805603027
11.28,0.0036372870672494173,-0.03819930925965309,-0.04571973532438278,0.7285706996917725,1.2141519784927368,9.410852432250977
11.3,-0.002795328851789236,-0.02996896393597126,-0.04897458106279373,0.6504328846931458,1.1327036619186401,9.391796112060547
11.32,-0.016073457896709442,-0.004234412219375372,-0.04357655718922615,0.5553019642829895,0.9785769581794739,9.625741958618164
11.34,-0.05974731221795082,0.00047482718946412206,-0.05385056510567665,0.45028868317604065,0.9267783761024475,9.593344688415527
11.36,-0.07913137972354889,0.006932143121957779,-0.05330154672265053,0.19423507153987885,0.9436976313591003,9.624296188354492
11.38,-0.09148465842008591,0.0066159069538116455,-0.06672141700983047,-0.10746145993471146,1.0102735757827759,10.053643226623535
11.4,-0.0813271775841713,-0.018439028412103653,-0.06588421761989594,-0.37276196479797363,0.7118717432022095,10.169851303100586
11.42,-0.09776166081428528,-0.058699604123830795,-0.04242846369743347,-0.1887090504169464,0.5886406302452087,9.734803199768066
11.44,-0.05202769488096237,-0.06078190356492996,-0.028164448216557503,0.09142322093248367,0.38405677676200867,9.287449836730957
11.46,-0.0734233483672142,-0.046857066452503204,-0.051016490906476974,0.21510951220989227,0.3240882456302643,9.215838432312012
11.48,-0.1108279898762703,-0.03460223972797394,-0.07458248734474182,0.38017380237579346,0.4089979827404022,9.447259902954102
11.5,-0.11117998510599136,-0.0350651741027832,-0.08567094057798386,0.520809531211853,0.5386438965797424,9.392311096191406
11.52,-0.09578879177570343,-0.03461076319217682,-0.09105371683835983,0.2897074222564697,0.7923042178153992,9.67902660369873
11.540000000000001,-0.07009856402873993,-0.06693128496408463,-0.06168144941329956,-0.14279700815677643,0.8262283802032471,10.302794456481934
11.56,-0.028114086017012596,-0.07161714136600494,-0.0385117307305336,-0.26129183173179626,1.0191179513931274,10.160490036010742
11.58,-0.0472942553460598,-0.08614718914031982,-0.009468394331634045,0.04523002728819847,0.7180614471435547,9.334424018859863
11.6,-0.03668387234210968,-0.09026525914669037,-0.02048923633992672,0.24897560477256775,0.3468386232852936,9.077741622924805
11.620000000000001,-0.07630938291549683,-0.05572718754410744,-0.04447426646947861,0.286449670791626,0.29469332098960876,9.344193458557129
11.64,-0.05254432559013367,-0.0033263706136494875,-0.0712825134396553,0.3952171802520752,0.15667292475700378,9.545317649841309
11.66,-0.09614910930395126,0.004347852431237698,-0.10672985762357712,0.3591362535953522,0.1533205807209015,9.700160026550293
11.68,-0.09319018572568893,0.00862939190119505,-0.11274829506874084,0.3184155225753784,0.39205801486968994,10.136817932128906
11.700000000000001,-0.05975087359547615,-0.029423624277114868,-0.1034502312541008,0.35017162561416626,0.5718883872032166,10.375374794006348
11.72,-0.05564572662115097,-0.047962259501218796,-0.1165321096777916,0.30633968114852905,0.7564445734024048,9.993358612060547
11.74,-0.11055701971054077,-0.03895923122763634,-0.0936581939458847,0.1561657041311264,0.8819871544837952,9.565256118774414
11.76,-0.12368524819612503,-0.02638368494808674,-0.06268629431724548,0.1783459633588791,0.8781933188438416,9.623387336730957
11.78,-0.11206716299057007,-0.018477583304047585,-0.055332884192466736,0.27882853150367737,0.772337794303894,10.112481117248535
11.8,-0.13736961781978607,-0.01973728835582733,-0.03108745440840721,0.45482972264289856,0.6663289666175842,10.076208114624023
11.82,-0.10584744811058044,-0.04162566736340523,-0.0007704886374995112,0.5325216054916382,0.6199966073036194,10.030651092529297
11.84,-0.08656806498765945,-0.08910862356424332,0.017882149666547775,0.32048359513282776,0.5467512607574463,9.82422161102295
11.86,-0.056194107979536057,-0.07685373723506927,0.013517127372324467,0.0067247869446873665,0.4451180696487427,10.101207733154297
11.88,-0.013369704596698284,-0.006296850740909576,-0.001890471437945962,-0.30017733573913574,0.4680265784263611,10.136253356933594
11.9,-0.008866366930305958,0.01756720244884491,0.011695855297148228,-0.16971994936466217,0.4722444713115692,9.520062446594238
11.92,0.062364205718040466,0.016188092529773712,0.03504099324345589,0.2327236384153366,0.2424524426460266,9.474177360534668
11.94,0.03786129131913185,0.01295439526438713,0.03551802411675453,0.5844752788543701,0.26939114928245544,9.343969345092773
11.96,0.022220024839043617,0.01467818021774292,0.008666103705763817,0.879379391670227,0.4281718134880066,9.625143051147461
11.98,0.04984470456838608,0.027409138157963753,-0.01613624021410942,1.0398205518722534,0.23357902467250824,9.767257690429688
12.0,0.09519817680120468,0.0483819805085659,-0.02695123851299286,0.9560427665710449,0.009279541671276093,9.772377967834473
12.02,0.08563324064016342,0.07074832916259766,-0.036156121641397476,0.7114485502243042,-0.1568322479724884,10.154231071472168
12.040000000000001,0.09295076131820679,0.08909354358911514,-0.017742468044161797,0.4356818199157715,-0.16273385286331177,10.228265762329102
12.06,0.0993773341178894,0.0859023705124855,-0.0009501243475824594,0.28128769993782043,0.053841494023799896,9.806245803833008
12.08,0.10543563216924667,0.06930438429117203,0.012951502576470375,0.044643551111221313,0.5260140895843506,9.573982238769531
12.1,0.09559176862239838,0.05968567356467247,0.01838197559118271,-0.07129298895597458,0.8448976874351501,9.675106048583984
12.120000000000001,0.0675758346915245,0.06799370050430298,0.031347014009952545,0.049563050270080566,1.0403224229812622,9.787109375
12.14,0.06131274998188019,0.07179271429777145,0.04234318435192108,0.23076120018959045,1.12482488155365,9.5766019821167
12.16,0.0395432785153389,0.08450856804847717,0.009281613864004612,0.3161475360393524,0.9513649940490723,9.516664505004883
12.18,0.009138268418610096,0.09242425858974457,-0.005349468905478716,0.06327307224273682,0.8432025909423828,9.448747634887695
12.200000000000001,-0.004233282059431076,0.1013452485203743,-0.02586834691464901,-0.06618542969226837,0.6359166502952576,9.49601936340332
12.22,0.03170621395111084,0.09601520746946335,-0.03841620683670044,-0.3420894145965576,0.5401478409767151,10.122512817382812
12.24,0.004150765016674995,0.11174611747264862,-0.00812052097171545,-0.38143378496170044,0.5552743673324585,10.132852554321289
12.26,0.009478023275732994,0.10919458419084549,0.018593978136777878,-0.08501160144805908,0.486600399017334,9.617915153503418
12.280000000000001,-0.01793377660214901,0.12148362398147583,0.04028746485710144,0.20206011831760406,0.3102767765522003,9.62621784210205
12.3,0.02230444923043251,0.10268596559762955,0.06017373502254486,0.49506303668022156,0.4000273048877716,9.852677345275879
12.32,-0.03976123407483101,0.13194264471530914,0.04872699826955795,0.6001251935958862,0.44047144055366516,10.223260879516602
12.34,-0.04205044358968735,0.13309837877750397,0.052211910486221313,0.7317078113555908,0.606002688407898,10.283952713012695
12.36,-0.0028091412968933582,0.0976482704281807,0.03209257498383522,0.508344829082489,0.7253158092498779,10.011086463928223
12.38,0.026828492060303688,0.07321785390377045,0.02660689316689968,-0.06366243958473206,1.0595805644989014,10.000789642333984
12.4,0.1014334186911583,0.06877753883600235,0.04850440472364426,-0.7568215131759644,0.9652275443077087,10.196353912353516
12.42,0.08670013397932053,0.05338525027036667,0.06345794349908829,-0.9251564741134644,0.5496290326118469,9.658967018127441
12.44,0.0573362335562706,0.04306315258145332,0.06277640908956528,-0.813330888748169,0.1562417447566986,9.23599624633789
12.46,0.053116247057914734,0.029418891295790672,0.06281453371047974,-0.6716038584709167,-0.007322337478399277,9.13616943359375
12.48,0.08343015611171722,0.029573876410722733,0.06478709727525711,-0.30802637338638306,0.05480502173304558,9.301749229431152
12.5,0.07685773819684982,0.031230658292770386,0.06133754178881645,-0.027408462017774582,0.39319097995758057,9.532296180725098
12.52,0.07993728667497635,-0.02117123454809189,0.08244401216506958,0.06565745174884796,0.6921979784965515,9.433466911315918
12.540000000000001,0.05165983363986015,-0.059741683304309845,0.07911885529756546,0.019615542143583298,0.8461403846740723,9.278295516967773
12.56,0.005418035667389631,-0.07161695510149002,0.05383607745170593,-0.19671060144901276,0.9613505601882935,9.339868545532227
12.58,-0.004086979664862156,-0.05909482017159462,0.03215809166431427,-0.35991618037223816,1.1782268285751343,9.663352012634277
12.6,0.033436574041843414,-0.036236632615327835,-0.010636203922331333,-0.25740328431129456,1.3630614280700684,10.309637069702148
12.620000000000001,0.003756885416805744,-0.02111806534230709,-0.018882568925619125,-0.17190104722976685,1.2873817682266235,10.371248245239258
12.64,-0.04135020822286606,-0.05133049935102463,-0.025509266182780266,-0.0504281185567379,1.1610846519470215,9.820045471191406
12.66,-0.0005312177818268538,-0.04597300663590431,-0.028761107474565506,-0.05591220781207085,1.0411146879196167,9.587374687194824
12.68,-0.05167126655578613,-0.0059365457855165005,-0.01602729596197605,0.1327798068523407,0.8288075923919678,9.611802101135254
12.700000000000001,-0.08400483429431915,0.03778998181223869,-0.013555798679590225,0.42236363887786865,0.8281522393226624,9.33418083190918
12.72,-0.10232696682214737,0.06604111939668655,-0.026962298899888992,0.5051692724227905,1.088660478591919,9.219890594482422
12.74,-0.12248625606298447,0.10054917633533478,-0.04247185215353966,0.714985191822052,0.7936487197875977,9.422467231750488
12.76,-0.14296340942382812,0.11126900464296341,-0.05686530843377113,0.6749969124794006,0.5348479151725769,9.464824676513672
12.780000000000001,-0.16839730739593506,0.116812564432621,-0.057577021420001984,0.6228673458099365,0.4704096019268036,9.869209289550781
12.8,-0.14162105321884155,0.10977783799171448,-0.056156087666749954,0.24149085581302643,0.42020976543426514,10.476764678955078
12.82,-0.09919474273920059,0.13853177428245544,-0.03523460403084755,-0.07455166429281235,0.4235033392906189,10.557126998901367
12.84,-0.058292195200920105,0.13681523501873016,-0.023856474086642265,-0.34436243772506714,0.45490944385528564,10.256481170654297
12.86,-0.07794476300477982,0.12924468517303467,-0.007346777711063623,-0.38051533699035645,0.5396878719329834,9.869325637817383
12.88,-0.09051597118377686,0.1392938494682312,-0.013063655234873295,-0.14531682431697845,0.5045198202133179,9.287801742553711
12.9,-0.10919194668531418,0.1554349958896637,-0.02943267486989498,-0.041810501366853714,0.38097259402275085,9.308279991149902
12.92,-0.03950056806206703,0.14255711436271667,-0.028989523649215698,-0.09684070199728012,0.21743492782115936,9.840948104858398
12.94,-0.025463851168751717,0.10639812052249908,0.005595120135694742,-0.4024806022644043,0.15637877583503723,10.417986869812012
12.96,0.00676933117210865,0.02832716330885887,0.027104875072836876,-0.8316861391067505,0.25331467390060425,10.420658111572266
12.98,0.025713354349136353,0.014155167154967785,0.05291861295700073,-1.1305522918701172,0.2572515308856964,9.807833671569824
13.0,0.02360040880739689,-0.004314674995839596,0.044247113168239594,-1.2337799072265625,0.2056671530008316,9.631567001342773
13.02,0.01750824600458145,-0.02310597337782383,-0.0026718387380242348,-1.114902377128601,0.28241848945617676,9.424452781677246
13.040000000000001,0.033246587961912155,-0.03472096845507622,-0.024766765534877777,-0.7831827998161316,0.45025795698165894,9.487974166870117
13.06,0.037083934992551804,-0.05707463622093201,-0.03265954926609993,-0.5157496333122253,0.5829681754112244,9.482695579528809
13.08,0.007416801061481237,-0.07927264273166656,-0.012937717139720917,-0.2833956182003021,0.5048943758010864,9.196123123168945
13.1,0.0016439339378848672,-0.08669425547122955,0.008338783867657185,-0.3760923147201538,0.5189257860183716,9.896554946899414
13.120000000000001,0.005038356874138117,-0.11891462653875351,0.01296946033835411,-0.3862013518810272,0.6549201011657715,10.529656410217285
13.14,0.030569983646273613,-0.13195660710334778,0.01702541671693325,-0.32365208864212036,0.6395836472511292,10.72496223449707
13.16,0.013910633511841297,-0.1338270902633667,-0.007669312879443169,-0.2693157494068146,0.6293937563896179,10.744993209838867
13.18,-0.013827118091285229,-0.1392708420753479,-0.010743782855570316,-0.1250661462545395,0.6440361142158508,10.168534278869629
13.200000000000001,-0.020731287077069283,-0.14717619121074677,-0.014366136863827705,0.03721994161605835,0.7253814339637756,9.608260154724121
13.22,-0.023814164102077484,-0.1714872270822525,-0.014607107266783714,0.15169532597064972,0.5975930690765381,9.332406997680664
13.24,-0.0007463374640792608,-0.18318478763103485,-0.008964265696704388,0.17827852070331573,0.44266217947006226,9.269798278808594
13.26,-0.01814837008714676,-0.17044837772846222,0.011415703222155571,0.07273412495851517,0.5033150911331177,9.322549819946289
13.280000000000001,-0.02219991758465767,-0.14911234378814697,0.013995879329741001,0.08502284437417984,0.45968690514564514,9.435662269592285
13.3,0.006338249426335096,-0.1504403054714203,0.007485392037779093,0.07598859071731567,0.44932663440704346,9.327012062072754
13.32,0.02686101198196411,-0.14138098061084747,0.0006205379613675177,-0.04595957696437836,0.3545101583003998,9.794105529785156
13.34,0.04626471549272537,-0.12191278487443924,-0.015237564221024513,-0.1347244828939438,0.2484918087720871,9.885746955871582
13.36,0.020569227635860443,-0.10113124549388885,-0.02611486427485943,0.03267719969153404,0.14138472080230713,9.803855895996094
13.38,0.04957503825426102,-0.08484048396348953,-0.03878592699766159,0.06208066642284393,0.19320757687091827,9.83479118347168
13.4,0.030724532902240753,-0.0889793112874031,-0.044920358806848526,0.08639226853847504,-0.005131699610501528,9.809714317321777
13.42,0.04240061342716217,-0.09361802786588669,-0.047529302537441254,0.32859641313552856,0.16209588944911957,9.800175666809082
13.44,0.043717559427022934,-0.07734618335962296,-0.03289540112018585,0.5198721885681152,0.44249626994132996,9.476020812988281
13.46,0.11212357133626938,-0.07757289707660675,-0.028255676850676537,0.47244587540626526,0.5304238200187683,9.618720054626465
13.48,0.1524500548839569,-0.052734050899744034,-0.003936754073947668,0.028346868231892586,0.6637593507766724,10.07866096496582
13.5,0.1516728401184082,-0.01586691103875637,-0.0065071312710642815,-0.16586391627788544,0.6844208240509033,9.958603858947754
13.52,0.1304120272397995,0.011492210440337658,0.004822586663067341,-0.1248730942606926,0.7280972003936768,9.741264343261719
13.540000000000001,0.11176583915948868,0.008657868951559067,0.009689032100141048,-0.005749806761741638,0.7594282627105713,10.028861045837402
13.56,0.14722873270511627,0.06507621705532074,0.02449673041701317,0.2747398614883423,0.6754398941993713,9.896660804748535
13.58,0.09087464213371277,0.06627447158098221,0.022181209176778793,0.8411595821380615,0.5278432369232178,9.396171569824219
13.6,0.09871064871549606,0.048279743641614914,0.02463022992014885,1.108576774597168,0.4675319790840149,8.971229553222656
13.620000000000001,0.07848820090293884,0.03509105369448662,0.008155494928359985,0.8826762437820435,0.47964179515838623,8.97544002532959
13.64,0.0026054938789457083,0.07739423215389252,-0.006897986866533756,0.5592911839485168,0.5272480845451355,9.312798500061035
13.66,0.031176475808024406,0.10436125099658966,-0.04230637475848198,0.3020377457141876,0.8194111585617065,9.706006050109863
13.68,0.03575928136706352,0.10518542677164078,-0.0727289468050003,0.29590532183647156,1.0069141387939453,10.201079368591309
13.700000000000001,-0.0040426612831652164,0.10676181316375732,-0.08400086313486099,0.27118393778800964,1.214235544204712,10.061742782592773
13.72,-0.034147392958402634,0.06842124462127686,-0.0789606124162674,0.30697813630104065,1.3020241260528564,9.311347961425781
13.74,-0.08707375824451447,0.007574791554361582,-0.09043338894844055,0.44966983795166016,1.1253529787063599,9.226762771606445
13.76,-0.15940628945827484,-0.02541046030819416,-0.11941972374916077,0.39655426144599915,1.2278844118118286,9.42947006225586
13.780000000000001,-0.15821003913879395,-0.01050033699721098,-0.1644969880580902,0.39590969681739807,1.3198317289352417,9.176572799682617
13.8,-0.19854803383350372,-0.03452160954475403,-0.18240389227867126,0.45354193449020386,0.8539983034133911,9.089679718017578
13.82,-0.23293599486351013,-0.09017393738031387,-0.1891166865825653,0.3031887114048004,0.668391227722168,9.468192100524902
13.84,-0.1929835081100464,-0.1776503026485443,-0.15204666554927826,-0.5343664884567261,0.5777082443237305,10.626151084899902
13.86,-0.14863502979278564,-0.2017507702112198,-0.025418907403945923,-1.784230351448059,0.26293501257896423,11.933591842651367
13.88,-0.14505742490291595,-0.15455397963523865,0.08443227410316467,-2.0678956508636475,0.3597780466079712,11.325704574584961
13.9,-0.06896276026964188,-0.1346474289894104,0.13442067801952362,-1.5142114162445068,0.6360507011413574,9.70887565612793
13.92,-0.07704289257526398,-0.14844980835914612,0.13692526519298553,-1.1012266874313354,0.5130249261856079,9.075905799865723
13.94,-0.07791847735643387,-0.132253497838974,0.12580551207065582,-0.6076854467391968,0.5647649765014648,9.36314868927002
13.96,-0.05325917527079582,-0.1378108263015747,0.09146459400653839,-0.058267004787921906,0.38189902901649475,9.588457107543945
13.98,-0.017980922013521194,-0.13350512087345123,0.06429572403430939,0.24481764435768127,0.131334587931633,10.271390914916992
14.0,0.0333876796066761,-0.12855468690395355,0.05985313653945923,0.5659980177879333,-0.047772835940122604,10.227645874023438
14.02,0.04802039638161659,-0.14519533514976501,0.08802119642496109,0.8715857863426208,-0.0639234259724617,10.046648979187012
14.040000000000001,0.03860235586762428,-0.15064513683319092,0.0933474749326706,0.9157164692878723,-0.14920678734779358,9.823750495910645
14.06,0.03223563730716705,-0.14793334901332855,0.09568867087364197,0.9213629961013794,0.022965263575315475,9.702741622924805
14.08,0.0382426455616951,-0.12382178008556366,0.0873781070113182,0.9727310538291931,0.09454672038555145,9.100884437561035
14.1,-0.006091481540352106,-0.10149255394935608,0.07005294412374496,0.9840840697288513,0.33791396021842957,9.0658540725708
14.120000000000001,0.03723352402448654,-0.04651665315032005,0.07283542305231094,0.6758809089660645,0.8592378497123718,9.513957023620605
14.14,0.12976963818073273,0.05830249935388565,0.08670324832201004,0.5890974402427673,1.139022707939148,10.187561988830566
14.16,0.08203814178705215,0.12602530419826508,0.08581051230430603,1.0063116550445557,0.8409874439239502,9.571805000305176
14.18,0.038106001913547516,0.12712670862674713,0.07533805072307587,1.177725076675415,0.7887929677963257,9.104903221130371
14.200000000000001,0.04772581905126572,0.20945365726947784,0.03701205924153328,1.1119879484176636,0.4983742833137512,9.1669340133667
14.22,0.06629645079374313,0.25834137201309204,-0.006449469830840826,1.0579761266708374,0.37099331617355347,10.540552139282227
14.24,0.05394713208079338,0.24929670989513397,-0.018086206167936325,0.7870447635650635,0.3189358711242676,11.373886108398438
14.26,0.04779757186770439,0.22851264476776123,-0.027607550844550133,0.6813718676567078,0.18771421909332275,10.672409057617188
14.280000000000001,0.05689249560236931,0.2573282718658447,-0.020484529435634613,0.8269515037536621,0.08075403422117233,9.828790664672852
14.3,0.02250572107732296,0.2795814275741577,-0.006983052473515272,1.017634630203247,0.09874623268842697,9.31622314453125
14.32,0.05807379260659218,0.278263658285141,-0.01144464872777462,0.9135822057723999,0.4663117229938507,9.580039024353027
14.34,0.08459501713514328,0.28120797872543335,0.017070474103093147,0.667538046836853,0.6077603697776794,9.751843452453613
14.36,0.07752593606710434,0.28312087059020996,0.0330110564827919,0.49864834547042847,0.8339239954948425,9.558512687683105
14.38,0.05700966343283653,0.25955909490585327,0.052392978221178055,0.37375155091285706,0.8418007493019104,9.238547325134277
14.4,0.10808216780424118,0.21402914822101593,0.04336599260568619,0.2460264414548874,0.719738781452179,9.221090316772461
14.42,0.1301664561033249,0.16613003611564636,0.035941410809755325,0.054060742259025574,0.4948120713233948,9.50960922241211
14.44,0.11188317835330963,0.13554315268993378,0.011155842803418636,-0.444133996963501,0.421593576669693,9.894648551940918
14.46,0.1093982458114624,0.11127167195081711,-0.011298887431621552,-0.6813076138496399,0.5057533979415894,9.733725547790527
14.48,0.08439191430807114,0.07507628947496414,-0.04590800404548645,-0.8648130297660828,0.9067845344543457,9.636834144592285
14.5,0.08704493939876556,0.05603190138936043,-0.045253656804561615,-1.2153891324996948,1.1612379550933838,9.547773361206055
14.52,0.0515466146171093,0.0403532013297081,-0.045125022530555725,-1.3228124380111694,1.0132770538330078,9.896265029907227
14.540000000000001,0.0033244395162910223,0.023582372814416885,-0.009796367026865482,-1.4189914464950562,1.1291255950927734,10.295110702514648
14.56,0.05791124328970909,-0.017752552404999733,0.024666674435138702,-1.2693525552749634,1.3224273920059204,10.453605651855469
14.58,0.03539161756634712,-0.01924993097782135,0.04096191003918648,-1.1702821254730225,1.154328465461731,10.08002758026123
14.6,0.010624655522406101,-0.04278663545846939,0.04047045856714249,-0.8498101234436035,1.0866594314575195,9.383237838745117
14.620000000000001,-0.016702529042959213,-0.08154318481683731,0.042205870151519775,-0.2567843496799469,1.0995599031448364,9.010544776916504
14.64,0.0005228396039456129,-0.09886288642883301,0.009113281033933163,0.027939144521951675,1.160630226135254,9.274351119995117
14.66,-0.018577642738819122,-0.10986054688692093,-0.012320410460233688,0.11263597756624222,1.132938265800476,9.508588790893555
14.68,-0.040611494332551956,-0.09907631576061249,-0.02922547236084938,0.15368656814098358,0.8536555767059326,9.652844429016113
14.700000000000001,-0.026652304455637932,-0.08023223280906677,-0.021083207800984383,0.19558069109916687,0.5507932901382446,9.818941116333008
14.72,-0.05410302057862282,-0.07729645818471909,-0.029106155037879944,0.15902428328990936,0.3613835573196411,9.829103469848633
14.74,-0.023308660835027695,-0.08671814948320389,-0.016981948167085648,0.052634097635746,0.30791348218917847,9.748583793640137
14.76,-0.025870025157928467,-0.10401695221662521,-0.012503831647336483,0.03213648870587349,0.4536008834838867,9.677024841308594
14.780000000000001,0.003985743038356304,-0.08519292622804642,-0.014176387339830399,-0.048547953367233276,0.6566144227981567,9.669458389282227
14.8,-0.019206026569008827,-0.052682239562273026,-0.029294949024915695,-0.0421835221350193,0.8332798480987549,9.838248252868652
14.82,-0.056850142776966095,-0.027182521298527718,-0.04019750654697418,-0.03012627363204956,0.8696698546409607,9.99692440032959
14.84,-0.06728020310401917,-0.014102642424404621,-0.06810090690851212,0.011359314434230328,0.7492605447769165,10.014747619628906
14.86,-0.0830138772726059,-0.012211303226649761,-0.0642784833908081,0.14101462066173553,0.5656062960624695,9.931652069091797
14.88,-0.06329800933599472,-0.02517039142549038,-0.056247636675834656,0.13844048976898193,0.3560835123062134,10.055887222290039
14.9,-0.07624980807304382,-0.03677081689238548,-0.03559030592441559,0.14615556597709656,0.339157372713089,9.978392601013184
14.92,-0.06012885645031929,-0.040863655507564545,-0.023204639554023743,0.09383130073547363,0.5532763004302979,9.736249923706055
14.94,-0.05774781107902527,-0.02001633308827877,-0.017523013055324554,0.015969304367899895,0.7121579051017761,9.536767959594727
14.96,-0.09281972795724869,-0.004414950963109732,-0.01866236701607704,-0.19510263204574585,0.9519333839416504,9.86618709564209
14.98,-0.025546390563249588,0.04154881462454796,-0.0127620380371809,-0.46421149373054504,0.9667642116546631,10.24984359741211
15.0,-0.05172833800315857,0.05428416654467583,0.019848952069878578,-0.40824952721595764,0.7865738272666931,10.251912117004395
15.02,-0.027477210387587547,0.054688699543476105,0.040700387209653854,-0.24998828768730164,0.6559385657310486,9.48904037475586
15.040000000000001,-0.032681845128536224,0.06986916065216064,0.045865077525377274,-0.11490465700626373,0.4614752233028412,9.362998962402344
15.06,0.022971654310822487,0.13152450323104858,0.05318901315331459,0.023736819624900818,0.43719467520713806,9.470752716064453
15.08,0.01982833631336689,0.16343408823013306,0.05156531184911728,0.490538090467453,0.5028594136238098,9.666336059570312
15.1,-0.004671432543545961,0.15866497159004211,0.03331052139401436,0.9187543988227844,0.5139824748039246,9.549405097961426
15.120000000000001,-0.010984077118337154,0.09668495506048203,0.005823729559779167,1.2589337825775146,0.5497499108314514,9.135956764221191
15.14,-0.01037891861051321,0.04620777815580368,-0.003403394715860486,1.1151961088180542,0.7193374633789062,8.961801528930664
15.16,0.04179167374968529,0.028454240411520004,-0.00040609127609059215,0.6629281044006348,0.5615063905715942,9.112597465515137
15.18,0.01866793818771839,-0.00045423529809340835,0.019515132531523705,0.16182337701320648,0.24705946445465088,9.468026161193848
15.200000000000001,-0.012643414549529552,-0.07352977246046066,0.04490293562412262,-0.23845979571342468,0.5692721605300903,10.203989028930664
15.22,0.04221217334270477,-0.09262163192033768,0.03726667910814285,-0.6256589293479919,0.8076162934303284,10.376302719116211
15.24,0.02477565035223961,-0.08014153689146042,0.024870632216334343,-0.948952317237854,0.9134814143180847,10.02747631072998
15.26,-0.00812853779643774,-0.08283628523349762,0.02074211649596691,-1.1939799785614014,1.0771710872650146,9.737220764160156
15.280000000000001,-0.007063643541187048,-0.1319868117570877,0.0011934044305235147,-1.068943977355957,0.8683867454528809,9.611570358276367
15.3,0.04954700171947479,-0.15926949679851532,0.004057840444147587,-0.9711204171180725,0.46077290177345276,9.787613868713379
15.32,0.04809240251779556,-0.13567425310611725,0.02279370091855526,-0.8598480224609375,0.18926501274108887,10.105902671813965
15.34,0.018297135829925537,-0.13002951443195343,0.02874375507235527,-0.7211907505989075,0.2295907586812973,9.978609085083008
15.36,0.05878298729658127,-0.1201096624135971,0.017627468332648277,-0.4484049379825592,0.49702730774879456,9.681451797485352
15.38,0.04064342752099037,-0.12604045867919922,0.03122246079146862,-0.03849772363901138,0.7973695397377014,9.358332633972168
15.4,0.044448357075452805,-0.13121739029884338,0.017888303846120834,0.35983598232269287,1.1095433235168457,9.485549926757812
15.42,0.028528545051813126,-0.1216752752661705,-0.004479657858610153,0.47964128851890564,1.0312960147857666,9.791584968566895
15.44,0.040788549929857254,-0.08834104984998703,-0.010619992390275002,0.4431668221950531,0.7451191544532776,10.041117668151855
15.46,0.06525067985057831,-0.06825577467679977,-0.00978880189359188,0.4457671642303467,0.4657135009765625,9.788411140441895
15.48,0.03973425552248955,-0.056255340576171875,-0.015467638149857521,0.43879368901252747,0.3046855926513672,9.76424503326416
15.5,0.06372686475515366,-0.03888730704784393,-0.0014765124069526792,0.35285624861717224,0.44521260261535645,9.856978416442871
15.52,0.04112362489104271,-0.02175278775393963,-0.009903140366077423,0.4236380159854889,0.7482286095619202,9.660978317260742
15.540000000000001,-0.006091385148465633,0.014700175262987614,-0.033892787992954254,0.4202525019645691,0.9379051923751831,9.832170486450195
15.56,-0.025932447984814644,0.031193196773529053,-0.04888632148504257,0.32745152711868286,1.1069762706756592,10.167293548583984
15.58,-0.006186426617205143,0.06015926972031593,-0.06126593053340912,0.3085308372974396,1.091756820678711,10.302231788635254
15.6,-0.025543153285980225,0.06309109926223755,-0.03873232379555702,0.45571914315223694,0.6854543685913086,9.654333114624023
15.620000000000001,0.015320700593292713,0.04683404415845871,-0.037963274866342545,0.430605411529541,0.6725350618362427,9.748632431030273
15.64,-0.022799372673034668,0.06123058870434761,-0.03426234796643257,0.29045507311820984,0.8113418817520142,9.935076713562012
15.66,0.009110631421208382,0.06077757105231285,-0.02586040273308754,0.12640854716300964,1.0093047618865967,10.366263389587402
15.68,0.00465516559779644,0.046240612864494324,-0.014816672541201115,0.08346492797136307,0.8604587316513062,9.923137664794922
15.700000000000001,-0.04532673582434654,0.020778965204954147,-0.01654381863772869,0.1877426654100418,0.8500449657440186,9.480788230895996
15.72,-0.02898917905986309,0.005309131927788258,-0.02163723111152649,0.2784143388271332,0.9830976128578186,9.344703674316406
15.74,-0.027084875851869583,-0.005097113084048033,-0.02054818719625473,0.2092084139585495,0.788662314414978,9.155747413635254
15.76,-0.0275680311024189,-0.021093524992465973,-0.013226141221821308,0.07976462692022324,0.6183676719665527,9.531652450561523
15.780000000000001,-0.008554045110940933,-0.007691494654864073,-0.008607316762208939,-0.025697430595755577,0.5534579753875732,9.390546798706055
15.8,0.011236497201025486,-0.002224215306341648,-0.013900220394134521,-0.11835812032222748,0.5198091864585876,9.239373207092285
15.82,0.018136175349354744,0.0015209109988063574,-0.011527334339916706,-0.18417441844940186,0.6882341504096985,9.61437702178955
15.84,-0.0025674193166196346,-0.007241394370794296,-0.02001800574362278,-0.19632403552532196,0.7995452880859375,10.042222023010254
15.860000000000001,0.014282502233982086,-0.0100619001314044,-0.009450813755393028,-0.17181770503520966,0.6137512922286987,10.404829978942871
15.88,-0.026475217193365097,0.0063884262926876545,0.005320597905665636,-0.052421052008867264,0.383221834897995,10.147082328796387
15.9,-0.02360805869102478,0.03267374262213707,0.014752786606550217,0.27729618549346924,0.4238011837005615,9.772738456726074
15.92,0.009652890264987946,0.037508174777030945,0.023024747148156166,0.48288771510124207,0.5198953747749329,9.132585525512695
15.94,0.038842201232910156,0.040879327803850174,0.03184131532907486,0.43601781129837036,0.5679642558097839,9.414939880371094
15.96,0.030957436189055443,0.03734194487333298,0.03976327180862427,0.20681872963905334,0.7185026407241821,9.749918937683105
15.98,0.053954482078552246,0.05296647921204567,0.03517037630081177,0.0780947133898735,0.7614477276802063,9.872611045837402
16.0,0.04679223522543907,0.04595467820763588,0.02780885249376297,0.04887666553258896,0.6816151738166809,9.715100288391113
16.02,0.07580048590898514,0.03371290862560272,0.01598205231130123,0.12476029992103577,0.7490220665931702,9.57017993927002
16.04,0.05303678661584854,0.04929661378264427,0.0027365318965166807,0.12754061818122864,0.7537245750427246,9.491304397583008
16.06,0.07397069036960602,0.06513284891843796,-0.006836351007223129,0.11048807203769684,0.6781054735183716,9.559453964233398
16.080000000000002,0.03930423781275749,0.06175072863698006,0.008294068276882172,0.20852696895599365,0.5349884033203125,9.809247970581055
16.1,0.014409385621547699,0.026296211406588554,-0.001883350545540452,0.035149674862623215,0.6253021955490112,10.312419891357422
16.12,0.04157520830631256,0.00635789567604661,0.006615957710891962,-0.02836362086236477,0.9075868129730225,10.274462699890137
16.14,0.07342714816331863,0.0053163738921284676,-0.006848817225545645,-0.0465828999876976,0.9193741083145142,10.002015113830566
16.16,0.010353069752454758,-0.003133179619908333,-0.015450415201485157,-0.1841714084148407,0.7348453402519226,9.8500337600708
16.18,0.029621556401252747,-0.03178480640053749,-0.02555128186941147,-0.3127416670322418,0.8112277984619141,9.668529510498047
16.2,7.416761218337342e-05,-0.050398580729961395,-0.02966640517115593,-0.3720009922981262,0.8770433068275452,9.588019371032715
16.22,-0.0033257524482905865,-0.06211202219128609,-0.03178299218416214,-0.4083309769630432,0.9517781734466553,9.753825187683105
16.240000000000002,-0.010070940479636192,-0.06366372108459473,-0.017316924408078194,-0.41349026560783386,1.0076502561569214,9.836161613464355
16.26,-0.021783776581287384,-0.06861055642366409,0.006732085719704628,-0.4725947082042694,0.8959677815437317,9.941269874572754
16.28,-0.04862821847200394,-0.07751218229532242,-0.00490734213963151,-0.36101430654525757,0.9067306518554688,9.958108901977539
16.3,-0.022070372477173805,-0.07347887754440308,0.00135706493165344,-0.2163284718990326,1.0669893026351929,9.82381534576416
16.32,-0.034964367747306824,-0.06496605277061462,-0.0016515046590939164,-0.13236303627490997,0.9738708138465881,9.664740562438965
16.34,-0.03834965452551842,-0.05081259459257126,-0.005407068412750959,0.20750679075717926,0.6700546741485596,9.292166709899902
16.36,-0.04153857380151749,-0.04995958134531975,-0.010643471963703632,0.4096207320690155,0.5660279989242554,9.301780700683594
16.38,0.013920542784035206,-0.05799025297164917,-0.019223617389798164,0.4773404896259308,0.42050498723983765,10.259769439697266
16.4,-0.021060697734355927,-0.0523381233215332,-0.014701132662594318,0.42940062284469604,0.48373010754585266,10.678544998168945
16.42,-0.05003327503800392,-0.04600100964307785,-0.0016499898629263043,0.6121466159820557,0.692005455493927,9.878655433654785
16.44,-0.014453938230872154,-0.045175258070230484,-0.0018257532501593232,0.7322755455970764,0.5966541171073914,9.18766975402832
16.46,-0.02432580478489399,-0.017543409019708633,-0.02552277408540249,0.7437037229537964,0.5490769743919373,9.111409187316895
16.48,-0.07677189260721207,0.009634421207010746,-0.044485993683338165,0.6244713664054871,0.7049964070320129,9.14196491241455
16.5,-0.08376749604940414,0.045658960938453674,-0.05990714207291603,0.5448176264762878,0.7574983239173889,9.247297286987305
16.52,-0.03356247767806053,0.06430058181285858,-0.06508605182170868,0.4294964075088501,0.6855984330177307,9.242829322814941
16.54,0.006742231547832489,0.07522182911634445,-0.03551822900772095,0.265925794839859,0.6370120644569397,9.378929138183594
16.56,0.052546560764312744,0.11123621463775635,-0.007687950041145086,0.0723629966378212,0.6403859853744507,9.85837459564209
16.580000000000002,0.03612221032381058,0.13344360888004303,0.015255304053425789,0.12124057114124298,0.7349602580070496,9.97289752960205
16.6,0.016365572810173035,0.14630968868732452,0.009419755078852177,0.12515144050121307,0.7129058241844177,9.90728759765625
16.62,-0.003055652603507042,0.14295600354671478,-0.008558621630072594,0.17149579524993896,0.8422894477844238,10.15575122833252
16.64,0.008053283207118511,0.12496405094861984,-0.016731537878513336,0.30524981021881104,0.7830398082733154,10.174142837524414
16.66,0.008523400872945786,0.09060106426477432,-0.012429820373654366,0.12321244925260544,0.482694149017334,10.149358749389648
16.68,0.005042017437517643,0.04680928960442543,-0.0008706984226591885,-0.0786355584859848,0.37730884552001953,9.998523712158203
16.7,0.01416773721575737,0.010473505593836308,-0.01561739481985569,-0.3097798824310303,0.42576864361763,9.773906707763672
16.72,-0.005309004336595535,-0.022537849843502045,-0.03591368719935417,-0.5010343194007874,0.35167405009269714,9.738140106201172
16.740000000000002,-0.01648489385843277,-0.055172186344861984,-0.04855145514011383,-0.5711116790771484,0.5757095217704773,9.999008178710938
16.76,-0.037160031497478485,-0.0707729384303093,-0.026662280783057213,-0.5792626738548279,0.9965290427207947,10.245524406433105
16.78,-0.018652020022273064,-0.06071048229932785,-0.00011637455463642254,-0.6430590152740479,1.127332329750061,10.127846717834473
16.8,-0.02483344078063965,-0.08163289725780487,0.011875464580953121,-0.5595908761024475,1.1532025337219238,9.53821086883545
16.82,-0.04013926535844803,-0.11107736080884933,0.02529032900929451,-0.48361438512802124,0.8875018954277039,9.195544242858887
16.84,-0.045866288244724274,-0.1240779235959053,0.009628831408917904,-0.3509230315685272,0.7409305572509766,9.39041805267334
16.86,-0.05018534138798714,-0.07883097231388092,-0.006041231099516153,-0.2328195869922638,0.7347956895828247,9.67874813079834
16.88,-0.05056872218847275,-0.02089042216539383,-0.025971313938498497,0.06152805685997009,0.6893838047981262,9.370704650878906
16.9,-0.05124641954898834,0.014793983660638332,-0.04350236803293228,0.24211269617080688,0.6173012256622314,9.101768493652344
16.92,-0.08087974041700363,0.01052631065249443,-0.0482594296336174,0.3963813781738281,0.5069770216941833,9.35759162902832
16.94,-0.08093055337667465,-0.003926048055291176,-0.029954975470900536,0.53159499168396,0.5341088175773621,9.679803848266602
16.96,-0.07339467853307724,-0.0019059343030676246,-0.0074762264266610146,0.5869144797325134,0.5731837749481201,10.162663459777832
16.98,-0.039029959589242935,0.007154879160225391,0.005403806921094656,0.6157495379447937,0.5504847764968872,10.247434616088867
17.0,-0.007801081985235214,0.012523881159722805,0.01302396785467863,0.5455420613288879,0.6216654777526855,10.094371795654297
17.02,0.0044684321619570255,-0.0021000923588871956,0.005676665809005499,0.34759455919265747,0.5096434950828552,9.858272552490234
17.04,0.04687841981649399,0.017433661967515945,-0.01519401278346777,0.21723704040050507,0.32645711302757263,9.497564315795898
17.06,0.0570245236158371,0.02388688363134861,-0.031128276139497757,0.17810367047786713,0.18752342462539673,9.527698516845703
17.080000000000002,0.04653594270348549,-0.01738383248448372,-0.022627368569374084,-0.06710261851549149,0.2445485144853592,10.117165565490723
17.1,0.08477360010147095,-0.06030701473355293,-0.01641058549284935,-0.29186341166496277,0.08861438184976578,10.105687141418457
17.12,0.0797254890203476,-0.06118633598089218,-0.0009962859330698848,-0.3745012879371643,0.02820604480803013,9.597864151000977
17.14,0.07220663875341415,-0.03608205169439316,-0.021984072402119637,-0.167486771941185,0.18394416570663452,9.65442943572998
17.16,0.05874817073345184,-0.06199748441576958,-0.02833831124007702,0.016428636386990547,0.37599778175354004,9.518921852111816
17.18,0.047120582312345505,-0.07981209456920624,-0.04726870730519295,0.18920227885246277,0.4639444053173065,9.472273826599121
17.2,0.04467545077204704,-0.06876365095376968,-0.048323459923267365,0.19676300883293152,0.6285032033920288,9.618675231933594
17.22,0.03924667090177536,-0.049758341163396835,-0.052754007279872894,0.1685967743396759,0.8985652327537537,9.765620231628418
17.240000000000002,0.054901521652936935,-0.04302912950515747,-0.024818331003189087,0.19504520297050476,1.1632095575332642,9.887823104858398
17.26,0.058788690716028214,-0.015541495755314827,0.009141328744590282,0.4175858497619629,1.232974648475647,9.87475299835205
17.28,0.023433778434991837,-0.010195871815085411,0.052926432341337204,0.46082693338394165,1.204158067703247,9.805017471313477
17.3,-0.0025284935254603624,0.021692592650651932,0.048636484891176224,0.25656524300575256,1.1308352947235107,9.939931869506836
17.32,-0.04860828071832657,0.08787133544683456,0.033666085451841354,0.2748183012008667,1.011768102645874,9.736031532287598
17.34,-0.04885276034474373,0.11911404132843018,0.035710763186216354,0.47702905535697937,0.6745378375053406,9.452184677124023
17.36,-0.08199522644281387,0.1340527981519699,0.03276565670967102,0.5283256769180298,0.3836469054222107,9.164229393005371
17.38,-0.05081117898225784,0.19014163315296173,0.05297552049160004,0.3889167308807373,0.457385778427124,9.014603614807129
17.400000000000002,-0.05199991911649704,0.25499239563941956,0.05870036408305168,0.2663242220878601,0.5150133967399597,8.964071273803711
17.42,-0.042177945375442505,0.24220533668994904,0.04068877547979355,0.35702279210090637,0.5588470697402954,9.120265007019043
17.44,-0.09869565814733505,0.18713752925395966,0.03571031242609024,0.30305081605911255,0.9990556836128235,9.93840217590332
17.46,-0.12569394707679749,0.19280065596103668,0.02051505073904991,0.22096312046051025,1.4291865825653076,10.661412239074707
17.48,-0.07623866200447083,0.1879316121339798,0.023527605459094048,0.1744040697813034,1.2334178686141968,11.195821762084961
17.5,-0.060660481452941895,0.13912414014339447,0.031462959945201874,-0.1775190532207489,0.5681433081626892,10.500381469726562
17.52,-0.03497393801808357,0.09435354918241501,0.04925892502069473,-0.539871096611023,0.3670062720775604,10.338147163391113
17.54,0.0371718630194664,0.05354488268494606,0.035213403403759,-0.740193784236908,0.22265121340751648,9.845765113830566
17.56,0.025242485105991364,-0.010192417539656162,0.010663195513188839,-0.7965965867042542,0.3446998596191406,9.255352020263672
17.580000000000002,-0.011184310540556908,-0.06389342993497849,-0.02187449112534523,-0.8034178018569946,0.5622971057891846,8.932093620300293
17.6,0.05595947429537773,-0.12486860901117325,-0.01123541034758091,-0.883958101272583,0.5484771132469177,9.109740257263184
17.62,0.09901626408100128,-0.16402189433574677,-0.0031508607789874077,-1.096354603767395,0.3047788143157959,9.6956205368042
17.64,0.08946532011032104,-0.19487611949443817,0.009057666175067425,-1.195144772529602,0.09625481069087982,10.078164100646973
17.66,0.11509933322668076,-0.21587753295898438,0.039376478642225266,-1.1038912534713745,0.06585023552179337,10.125060081481934
17.68,0.07919986546039581,-0.2251264750957489,0.03879233077168465,-0.7236571907997131,0.27177709341049194,9.991024017333984
17.7,0.06948214024305344,-0.21564897894859314,0.022773897275328636,-0.28521889448165894,0.6973912715911865,9.993531227111816
17.72,0.05756339058279991,-0.1920481026172638,-0.02684047445654869,-0.09404411911964417,0.7773611545562744,9.633984565734863
17.740000000000002,0.03909381106495857,-0.14492729306221008,-0.057564329355955124,0.2662075459957123,0.6378249526023865,9.686433792114258
17.76,0.013527068309485912,-0.1422264128923416,-0.07493481040000916,0.20752200484275818,0.6712827682495117,9.69045352935791
17.78,0.015562382526695728,-0.12029191851615906,-0.0855468139052391,0.10227637737989426,0.8243370056152344,9.999320983886719
17.8,-0.015742773190140724,-0.09314683079719543,-0.07250051200389862,0.333161860704422,0.6474965214729309,10.006532669067383
17.82,-0.032324209809303284,-0.05559651181101799,-0.07564184069633484,0.5940250754356384,0.5072510242462158,9.651223182678223
17.84,-0.05090537294745445,-0.03886132314801216,-0.07942180335521698,0.7973634004592896,0.7425053715705872,9.282793045043945
17.86,-0.03335810452699661,-0.0457623191177845,-0.04350515455007553,1.040780782699585,0.997922956943512,9.583925247192383
17.88,-0.06374116241931915,-0.03969119116663933,-0.019429011270403862,0.7756608724594116,1.385266661643982,10.600931167602539
17.900000000000002,-0.10792164504528046,-0.021523533388972282,-0.019576475024223328,0.7322567105293274,1.6168591976165771,10.548097610473633
17.92,-0.12275109440088272,-0.02043367736041546,-0.0191434845328331,0.5975748300552368,1.2623745203018188,10.238686561584473
17.94,-0.1460804045200348,-0.018636787310242653,-0.011958068236708641,0.6648159027099609,0.7384124994277954,9.664066314697266
17.96,-0.08201736956834793,-0.024810124188661575,-0.008029215037822723,0.6521579623222351,0.41529643535614014,9.113727569580078
17.98,-0.1019371822476387,-0.025390688329935074,0.0059692333452403545,0.6873534917831421,0.23714828491210938,9.102834701538086
18.0,-0.06611672788858414,-0.01787617616355419,0.023238494992256165,0.5239265561103821,0.2813482880592346,9.01832103729248
18.02,-0.04696892201900482,-0.036060456186532974,0.013987790793180466,0.2999921441078186,0.37796488404273987,9.085161209106445
18.04,-0.03995676711201668,-0.014853021129965782,0.012521358206868172,0.0007550824084319174,0.4674821197986603,9.559840202331543
18.06,-0.021344179287552834,0.0012791820336133242,0.013519111089408398,-0.27004915475845337,0.6042929887771606,10.076107025146484
18.080000000000002,-0.009221861138939857,0.008213534951210022,0.012566479854285717,-0.40705519914627075,0.47932159900665283,10.542129516601562
18.1,0.009177708066999912,0.017517950385808945,0.026865681633353233,-0.4040539264678955,0.381124883890152,10.403236389160156
18.12,0.060742780566215515,0.008949690498411655,0.02098981849849224,-0.10241065174341202,0.28566160798072815,9.498626708984375
18.14,0.04641231521964073,-0.006206732243299484,0.015939725562930107,0.1658729910850525,0.2664977014064789,9.276925086975098
18.16,0.10641955584287643,0.020451532676815987,0.0064918408170342445,0.17046339809894562,0.36060774326324463,9.805477142333984
18.18,0.08001775294542313,0.047810040414333344,-0.01589309237897396,0.2508743703365326,0.5527625679969788,10.085511207580566
18.2,0.08163357526063919,0.019338559359312057,-0.026713188737630844,0.4479605555534363,0.3721259534358978,9.75955867767334
18.22,0.039761293679475784,0.00015397797687910497,-0.03357355669140816,0.46682870388031006,0.38838791847229004,9.905340194702148
18.240000000000002,0.004153204616159201,-0.009100065566599369,-0.040655046701431274,0.5534254312515259,0.7004562020301819,9.770607948303223
18.26,-0.019494106993079185,-0.015771962702274323,-0.02853451482951641,0.5886393189430237,0.5409090518951416,9.731834411621094
18.28,-0.0654914453625679,-0.011969828978180885,-0.031037960201501846,0.64726722240448,0.43336188793182373,9.320387840270996
18.3,-0.07427982240915298,-0.025910943746566772,-0.012360132299363613,0.5919815301895142,0.6650065779685974,8.98637580871582
18.32,-0.0509786419570446,-0.05536133423447609,0.013316819444298744,0.42248308658599854,0.9126008749008179,8.99155330657959
18.34,-0.07763593643903732,-0.10635130107402802,0.015572014264762402,0.26968562602996826,1.1657198667526245,9.02364444732666
18.36,-0.08813044428825378,-0.12653858959674835,0.03165225312113762,0.1336016207933426,1.1220262050628662,9.468748092651367
18.38,-0.09707513451576233,-0.13167934119701385,0.021884728223085403,0.06400143355131149,0.7987173199653625,9.881678581237793
18.400000000000002,-0.12332914769649506,-0.12556931376457214,0.019810253754258156,-0.12065871059894562,0.681242823600769,10.251359939575195
18.42,-0.11712858825922012,-0.10768678784370422,0.0033565580379217863,-0.25164809823036194,0.8031338453292847,10.657349586486816
18.44,-0.10457023978233337,-0.08046277612447739,0.005923832301050425,-0.33911871910095215,0.6452186703681946,10.793169975280762
18.46,-0.11165306717157364,-0.07211436331272125,0.013095847330987453,-0.35525909066200256,0.5174623727798462,10.177091598510742
18.48,-0.07720263302326202,-0.10003305971622467,0.024477919563651085,0.059663206338882446,0.38510918617248535,9.543560981750488
18.5,-0.024169808253645897,-0.10973525047302246,0.022184891626238823,0.5918049812316895,0.10697483271360397,9.40989875793457
18.52,-0.03845811262726784,-0.07919394969940186,0.003627330530434847,0.869605302810669,-0.01968882791697979,9.591586112976074
18.54,-0.010203230194747448,-0.032241180539131165,-0.008456234820187092,0.8984953165054321,-0.06003909930586815,9.9307279586792
18.56,0.0007894664304330945,-0.009827911853790283,0.017693491652607918,0.8388575911521912,-0.07302365452051163,9.849798202514648
18.580000000000002,0.010403681546449661,0.009866888634860516,0.03828536719083786,0.568439245223999,0.06177221238613129,10.00514030456543
18.6,0.0466519370675087,0.008119207806885242,0.054759565740823746,0.42994293570518494,0.2845112979412079,10.091253280639648
18.62,0.029835106804966927,0.009173044934868813,0.05045326426625252,0.4701792299747467,0.42696115374565125,10.015754699707031
18.64,0.06514289975166321,0.03533150255680084,0.06381050497293472,0.6031102538108826,0.40719905495643616,9.831757545471191
18.66,0.02478484809398651,0.06414257735013962,0.044028058648109436,0.7182111144065857,0.3789444863796234,9.450955390930176
18.68,0.0457591637969017,0.07370895892381668,0.04210961237549782,0.733083963394165,0.323703795671463,9.248278617858887
18.7,0.06994613260030746,0.0815616250038147,0.04838519170880318,0.6896341443061829,0.26398807764053345,9.424691200256348
18.72,0.06404795497655869,0.11130904406309128,0.03927573561668396,0.6300140619277954,0.34959331154823303,9.776739120483398
18.740000000000002,0.05818513408303261,0.10879050195217133,0.03181012347340584,0.5708130598068237,0.47891783714294434,10.03771686553955
18.76,0.02123909816145897,0.09269756823778152,0.01642485521733761,0.4703599810600281,0.6590521931648254,10.066190719604492
18.78,0.03179904818534851,0.069667287170887,-0.005738912150263786,0.3262793719768524,0.7816148996353149,10.036352157592773
18.8,0.05425594747066498,0.0729832798242569,-0.013283335603773594,0.23654180765151978,0.7488196492195129,9.942184448242188
18.82,0.02237667329609394,0.0918920636177063,0.006455014925450087,0.1744186282157898,0.5554745197296143,9.730194091796875
18.84,0.0034186714328825474,0.07266192883253098,0.005352396052330732,0.13459272682666779,0.44761598110198975,9.58458137512207
18.86,-0.008543986827135086,0.054613735526800156,0.011239727959036827,0.1573326587677002,0.5111926198005676,9.664619445800781
18.88,-0.009658480994403362,0.05679928883910179,0.009121252223849297,0.17300640046596527,0.7065544128417969,10.019124984741211
18.900000000000002,0.010271318256855011,0.06071968004107475,0.034130774438381195,0.3126835823059082,0.8128770589828491,9.844284057617188
18.92,-0.003007781459018588,0.04536554217338562,0.045959025621414185,0.18356221914291382,0.7624990940093994,9.609718322753906
