time,wx,wy,wz,ax,ay,az
0.0,0.109330914914608,0.032379768788814545,0.09328968077898026,-0.24841228127479553,-0.36939576268196106,9.96097469329834
0.02,0.03242245316505432,-0.024165403097867966,0.051254477351903915,-0.6038513779640198,-0.1977844387292862,11.744772911071777
0.04,-0.021344665437936783,-0.0823993906378746,0.00223372969776392,-0.7699492573738098,0.3412677049636841,11.762622833251953
0.06,-0.052227992564439774,-0.10547797381877899,-0.021445292979478836,-0.832140326499939,0.8290042281150818,10.216446876525879
0.08,-0.05763965845108032,-0.12682108581066132,-0.007514128461480141,-1.215114712715149,0.9695286154747009,8.99102783203125
0.1,-0.0805986300110817,-0.1545078009366989,0.013657310977578163,-1.3915836811065674,0.8331037163734436,9.015384674072266
0.12,-0.04191745072603226,-0.17377357184886932,0.04166993498802185,-1.3891788721084595,0.3289385139942169,9.463414192199707
0.14,-0.01991109363734722,-0.15875244140625,0.06546182930469513,-1.0603094100952148,-0.2789132297039032,9.788453102111816
0.16,0.013530105352401733,-0.14265571534633636,0.0706489235162735,-0.7304509282112122,-0.5916299819946289,9.965032577514648
0.18,0.0551130436360836,-0.09975136071443558,0.057483650743961334,-0.20944276452064514,-0.65952068567276,10.090900421142578
0.2,0.08072858303785324,-0.08949185907840729,0.059281978756189346,0.5905371904373169,-0.5281533598899841,9.794110298156738
0.22,0.09780145436525345,-0.09070998430252075,0.06359134614467621,1.1140155792236328,-0.4683900475502014,9.139032363891602
0.24,0.12496016174554825,-0.07244257628917694,0.06194804236292839,1.3745518922805786,-0.40023738145828247,8.98978042602539
0.26,0.17524997889995575,-0.04737147316336632,0.057649463415145874,1.3831638097763062,-0.29942575097084045,9.250890731811523
0.28,0.13324624300003052,-0.017796548083424568,0.0541384294629097,1.285785436630249,-0.1571764498949051,9.62317180633545
0.3,0.14107821881771088,0.023040395230054855,0.04486795514822006,0.8585004210472107,0.0705692395567894,9.68111801147461
0.32,0.15430031716823578,0.05420432984828949,0.01471382100135088,0.27969714999198914,0.30386289954185486,9.501358032226562
0.34,0.12421485036611557,0.11575254052877426,0.0006423492450267076,0.004057733807712793,0.3919770121574402,9.400238037109375
0.36,0.11293045431375504,0.13108840584754944,-0.015365478582680225,0.17303431034088135,0.2869061529636383,9.687555313110352
0.38,0.07933052629232407,0.1066320538520813,-0.01078978180885315,0.39561381936073303,0.5254538655281067,10.7181396484375
0.4,0.0945204645395279,0.09757744520902634,0.023619908839464188,0.5600966811180115,0.9712396860122681,10.802340507507324
0.42,0.07471206784248352,0.07163430750370026,0.05062529072165489,0.4527614414691925,0.9805645942687988,10.362954139709473
0.44,0.05884553864598274,0.028523564338684082,0.07831499725580215,0.06544160842895508,0.6525436043739319,9.584486961364746
0.46,0.05151265487074852,-0.029826626181602478,0.0734388679265976,-0.2176969349384308,0.633691132068634,9.38867473602295
0.48,-0.01977887935936451,-0.0484059602022171,0.057012032717466354,-0.4522242546081543,0.6677796244621277,9.38947582244873
0.5,0.014213837683200836,-0.06454761326313019,0.04576000198721886,-0.5224730968475342,0.6104142665863037,9.56718635559082
0.52,0.005213818978518248,-0.05556156486272812,0.021431228145956993,-0.4381121098995209,0.49528828263282776,9.651594161987305
0.54,-0.037555038928985596,-0.04454893246293068,-0.011270466260612011,-0.23922444880008698,0.39278849959373474,9.494418144226074
0.56,-0.04507649689912796,-0.018424218520522118,-0.025148160755634308,-0.051755424588918686,0.3138410449028015,9.355786323547363
0.58,-0.0635455772280693,-0.01315015833824873,-0.015813983976840973,0.1904950886964798,0.266011118888855,9.654088020324707
0.6,-0.06664804369211197,-0.03421797603368759,-0.024859769269824028,0.4459473788738251,0.3505719006061554,9.99725341796875
0.62,-0.09037194401025772,-0.04883641004562378,-0.018564119935035706,0.6304118037223816,0.5764244794845581,10.040862083435059
0.64,-0.06366907060146332,-0.060192834585905075,0.0064517296850681305,0.6807042956352234,0.704913854598999,9.942142486572266
0.66,-0.07722707092761993,-0.06567178666591644,0.021128056570887566,0.4431805908679962,0.45736101269721985,9.473586082458496
0.68,-0.06270161271095276,-0.047196511179208755,0.03713461756706238,0.20591336488723755,0.1299995332956314,9.040778160095215
0.7000000000000001,-0.03651764243841171,-0.05900176987051964,0.04413909837603569,0.057182542979717255,0.031249050050973892,9.094009399414062
0.72,-0.0039211479015648365,-0.042488738894462585,0.0325930081307888,0.16116540133953094,0.13593268394470215,9.55040168762207
0.74,0.027178527787327766,-0.010231326334178448,0.07235442101955414,0.2112947404384613,0.2717898488044739,9.712861061096191
0.76,0.03997170180082321,0.03488251939415932,0.0835651308298111,0.07390988618135452,0.1534733921289444,9.908134460449219
0.78,0.05830180272459984,0.03895461559295654,0.04463719576597214,-0.02909589372575283,0.0024883246514946222,10.395901679992676
0.8,0.0568261444568634,-0.0033207617234438658,0.00567280501127243,-0.14490167796611786,-0.07774308323860168,10.37756061553955
0.8200000000000001,0.04254276677966118,0.012213819660246372,-0.027800656855106354,-0.3619036078453064,-0.03201704099774361,10.125558853149414
0.84,0.056557733565568924,0.04105328768491745,-0.05730317160487175,-0.46404600143432617,0.14963915944099426,10.353137969970703
0.86,-0.03411884978413582,0.020625099539756775,-0.05911247432231903,-0.15458793938159943,0.4433119297027588,10.478859901428223
0.88,-0.03059886023402214,-0.0391385592520237,-0.057894304394721985,0.01834910176694393,0.5743153095245361,10.050349235534668
0.9,-0.022582756355404854,-0.04091183468699455,-0.04332743585109711,-0.2386191189289093,0.5377932190895081,10.320144653320312
0.92,0.0071531375870108604,-0.034214530140161514,-0.027504686266183853,-0.25333255529403687,0.4760036766529083,10.668899536132812
0.9400000000000001,-0.0325179286301136,-0.045995600521564484,-0.029711615294218063,-0.3182796835899353,0.1057634949684143,10.605816841125488
0.96,-0.0024059396237134933,-0.07351253181695938,-0.02864246815443039,-0.09056995809078217,-0.12406568229198456,10.208145141601562
0.98,-0.012982564978301525,-0.09156712144613266,-0.03057064488530159,0.15621240437030792,-0.12220452725887299,9.6124849319458
1.0,-0.07248695194721222,-0.03256865218281746,-0.0425037145614624,-0.15004663169384003,0.2545735239982605,9.429060935974121
1.02,-0.06482177972793579,0.051271405071020126,-0.0798112079501152,-0.29022833704948425,0.48259902000427246,9.322183609008789
1.04,-0.1124870553612709,0.09857416152954102,-0.11823072284460068,-0.2543516159057617,0.545939028263092,9.183292388916016
1.06,-0.0876300185918808,0.10506388545036316,-0.1436586230993271,-0.08560048043727875,0.8009043335914612,9.647171020507812
1.08,-0.044341884553432465,0.06838852912187576,-0.12430639564990997,0.26420220732688904,1.1198362112045288,9.716926574707031
1.1,-0.03260982781648636,0.1403748244047165,-0.10575640946626663,0.47594377398490906,0.7466750741004944,9.633352279663086
1.12,-0.027443403378129005,0.16386431455612183,-0.07509884983301163,0.8130221366882324,0.2610979378223419,10.301581382751465
1.1400000000000001,-0.042733997106552124,0.10675185918807983,-0.05148572102189064,1.213484764099121,-0.3821396827697754,10.59248161315918
1.16,-0.06826958060264587,0.07244101911783218,-0.025904018431901932,1.357863426208496,-0.588692843914032,10.210216522216797
1.18,-0.08030708879232407,0.046016618609428406,-0.01559676043689251,1.4556840658187866,-0.1907506287097931,9.61043643951416
1.2,-0.10278619080781937,0.004393192008137703,0.015821123495697975,1.1673775911331177,0.0917191356420517,9.117645263671875
1.22,-0.05586899071931839,0.006796998903155327,0.06870416551828384,0.7170886397361755,0.1854708343744278,8.740797996520996
1.24,-0.014427549205720425,0.030762292444705963,0.13211657106876373,0.25171220302581787,0.10444924980401993,8.635308265686035
1.26,0.020418057218194008,0.08366362750530243,0.14714789390563965,-0.04312203451991081,0.0593777634203434,9.229873657226562
1.28,0.0293965395539999,0.10132935643196106,0.16788209974765778,-0.20601025223731995,0.13619811832904816,9.796292304992676
1.3,0.10837183147668839,0.13202272355556488,0.1605094075202942,-0.21719306707382202,0.14950735867023468,10.0993070602417
1.32,0.10748456418514252,0.14086152613162994,0.12038257718086243,-0.2089981734752655,-0.027200862765312195,10.188570976257324
1.34,0.14022555947303772,0.09769725054502487,0.050799835473299026,-0.3425402045249939,-0.3668265640735626,10.510368347167969
1.36,0.10530156642198563,0.014506932348012924,-0.04000295326113701,-0.6174979209899902,-0.22339385747909546,10.505084991455078
1.3800000000000001,0.0784943699836731,-0.09544156491756439,-0.11065719276666641,-0.8544133901596069,0.18775908648967743,9.992757797241211
1.4000000000000001,0.05656721815466881,-0.1431642770767212,-0.12432006746530533,-0.8641344308853149,0.3860471844673157,9.750260353088379
1.42,0.05575181916356087,-0.18165642023086548,-0.11791259050369263,-0.7539616823196411,0.43855080008506775,9.741382598876953
1.44,0.016061419621109962,-0.19573652744293213,-0.09561906009912491,-1.0052905082702637,0.5013152360916138,9.904248237609863
1.46,-0.05080616474151611,-0.19469481706619263,-0.061220329254865646,-1.2861028909683228,0.6008729934692383,10.002208709716797
1.48,-0.09367572516202927,-0.18150192499160767,-0.053429510444402695,-1.2434834241867065,0.4706987142562866,10.183138847351074
1.5,-0.08087708801031113,-0.14473649859428406,-0.0713503360748291,-0.7165301442146301,0.5986636877059937,9.842872619628906
1.52,-0.09139161556959152,-0.10302110016345978,-0.05696586146950722,-0.03847073018550873,0.8474940657615662,9.430871963500977
1.54,-0.08134911954402924,-0.046834878623485565,-0.010103215463459492,0.577733039855957,0.8026801347732544,9.016053199768066
1.56,-0.04971904307603836,-0.030569283291697502,0.006316159851849079,1.3606524467468262,0.44235289096832275,8.75908088684082
1.58,-0.11114857345819473,-0.050209760665893555,0.008388588204979897,1.661112904548645,0.0947796180844307,9.219486236572266
1.6,-0.07022104412317276,-0.0873975157737732,-0.00013842929911334068,1.4235687255859375,-0.12292369455099106,9.871175765991211
1.62,-0.08271245658397675,-0.051536671817302704,0.009090368635952473,0.8919004201889038,-0.16959908604621887,9.633580207824707
1.6400000000000001,-0.08050268143415451,-0.003962687216699123,0.01541606243699789,0.28143614530563354,-0.19714222848415375,9.363799095153809
1.6600000000000001,-0.09399913251399994,-0.012996834702789783,-0.003400422865524888,-0.08921770751476288,-0.3797556459903717,9.270684242248535
1.68,-0.049101587384939194,0.01414012722671032,-0.01626591570675373,-0.021068384870886803,-0.3186730444431305,10.031961441040039
1.7,-0.04977117478847504,0.046706102788448334,-0.022793719545006752,0.3285207152366638,-0.10495319962501526,10.395003318786621
1.72,-0.01265362836420536,0.06665890663862228,-0.005331044085323811,0.7437171339988708,0.2517019212245941,9.971467971801758
1.74,0.008688210509717464,0.05359563231468201,0.0025504017248749733,0.9415169358253479,0.2459266185760498,9.17224407196045
1.76,0.035589687526226044,0.025051189586520195,0.007286419160664082,0.8073103427886963,0.08532688766717911,8.928262710571289
1.78,0.05140196532011032,0.026110082864761353,0.019926050677895546,0.532792329788208,-0.04059227183461189,9.208922386169434
1.8,0.037841688841581345,0.01427553966641426,0.027605464681982994,0.22966109216213226,-0.14978176355361938,9.482864379882812
1.82,0.08605954051017761,0.0013022503117099404,0.03375932201743126,0.05386607348918915,-0.11394567787647247,9.355843544006348
1.84,0.09000645577907562,0.04204566404223442,0.029936645179986954,-0.2441529929637909,-0.15105795860290527,9.987059593200684
1.86,-0.0010395600693300366,0.014227532781660557,-0.009718170389533043,-0.5221968293190002,-0.24649277329444885,11.23544979095459
1.8800000000000001,-0.001692620338872075,-0.006760584656149149,-0.06710046529769897,-0.565893292427063,-0.0006495063425973058,11.55867862701416
1.9000000000000001,-0.06811729818582535,-0.002144855447113514,-0.07703787088394165,-0.2607787251472473,0.42942389845848083,10.619275093078613
1.92,-0.08149392902851105,-0.007316444534808397,-0.062381401658058167,-0.2160974144935608,0.750080943107605,10.046233177185059
1.94,-0.07504191994667053,-0.042216554284095764,-0.01962313987314701,-0.3254801630973816,0.7274685502052307,9.714648246765137
1.96,-0.07499359548091888,-0.07006760686635971,0.01597774028778076,-0.45058339834213257,0.5626969933509827,9.809951782226562
1.98,-0.06359898298978806,-0.047461770474910736,0.059463366866111755,-0.7627630829811096,0.03921370208263397,10.443058013916016
2.0,-0.064107246696949,-0.021063920110464096,0.0653177872300148,-0.32347679138183594,-0.20989009737968445,10.941864967346191
2.02,-0.04164258390665054,-0.036496564745903015,0.04785475507378578,0.32268697023391724,-0.10344408452510834,10.347310066223145
2.04,-0.05512220039963722,-0.02934316173195839,0.028038205578923225,0.7599398493766785,0.15372194349765778,9.338200569152832
2.06,-0.04379837214946747,-0.024757763370871544,0.03395684435963631,0.8773467540740967,0.17972099781036377,9.210404396057129
2.08,-0.02875279076397419,-0.03462665528059006,0.03903644159436226,0.7176312208175659,0.0019985821563750505,9.666400909423828
2.1,0.030318627133965492,-0.058489393442869186,0.059125080704689026,0.5852247476577759,-0.1277381032705307,10.041678428649902
2.12,0.047975413501262665,-0.04545837268233299,0.07227161526679993,0.6278128623962402,-0.3140898048877716,9.60190486907959
2.14,0.05590726062655449,-0.048273369669914246,0.07973161339759827,0.4450092613697052,-0.36867302656173706,9.017580032348633
2.16,0.12770581245422363,-0.04986526444554329,0.07177717983722687,0.22466592490673065,-0.2516638934612274,8.524995803833008
2.18,0.14864569902420044,-0.07664519548416138,0.0449461005628109,0.14516182243824005,-0.22992296516895294,8.687299728393555
2.2,0.17308098077774048,-0.08075559884309769,0.02601836621761322,0.15407505631446838,-0.32796332240104675,9.170830726623535
2.22,0.1683601289987564,-0.08936534821987152,0.019421584904193878,0.12087447941303253,-0.19680224359035492,9.967982292175293
2.24,0.18988962471485138,-0.09545369446277618,-0.002164516830816865,0.08239247649908066,0.0021068700589239597,10.81962776184082
2.2600000000000002,0.16462096571922302,-0.11078016459941864,0.0032618518453091383,0.05049624666571617,0.2451332062482834,10.590330123901367
2.2800000000000002,0.11687668412923813,-0.12395088374614716,-0.005271900910884142,-0.004698325879871845,0.5073354840278625,10.255577087402344
2.3000000000000003,0.06800886243581772,-0.10927829146385193,-0.018075406551361084,-0.035038482397794724,0.6169465184211731,9.814403533935547
2.32,0.03192868456244469,-0.09921765327453613,-0.01918802224099636,0.09141505509614944,0.6521031856536865,9.577499389648438
2.34,0.005637830588966608,-0.0736800953745842,-0.02645990252494812,0.2891319692134857,0.7031775712966919,9.393254280090332
2.36,-0.01615537330508232,-0.02872324176132679,-0.022945955395698547,0.45973318815231323,0.6485934257507324,9.61325454711914
2.38,-0.04360543563961983,0.015213696286082268,-0.03686422109603882,0.6711453199386597,0.4909653067588806,9.83413028717041
2.4,-0.055777620524168015,0.06172032654285431,-0.04857787862420082,0.8057602643966675,0.44428956508636475,9.810172080993652
2.42,-0.04703709855675697,0.10223374515771866,-0.047557055950164795,0.9446336627006531,0.3764726221561432,9.712403297424316
2.44,-0.03158751130104065,0.15164045989513397,-0.05057360231876373,0.8992226719856262,0.3735477030277252,9.318846702575684
2.46,-0.015865564346313477,0.2061259001493454,-0.03723491355776787,0.7063441276550293,0.26072728633880615,9.291208267211914
2.48,-0.01955561526119709,0.2663419246673584,-0.045274440199136734,0.5826370120048523,0.18778657913208008,9.789295196533203
2.5,-0.05308496952056885,0.2959793210029602,-0.05964474752545357,0.530563473701477,0.21712498366832733,10.435358047485352
2.52,-0.0776374563574791,0.2983739972114563,-0.07223094254732132,0.5332368612289429,0.3304400146007538,10.242303848266602
2.54,-0.07358518987894058,0.3018777370452881,-0.05890893191099167,0.7157820463180542,0.29264184832572937,9.295738220214844
2.56,-0.1158096119761467,0.2927964925765991,-0.043216999620199203,0.8178214430809021,0.2836403250694275,8.979426383972168
2.58,-0.10838771611452103,0.23758046329021454,-0.025949981063604355,0.7201525568962097,0.43665891885757446,9.363471031188965
2.6,-0.12263374775648117,0.16501179337501526,0.02386324293911457,0.19318728148937225,0.4618273973464966,10.057721138000488
2.62,-0.13094462454319,0.11267465353012085,0.016837596893310547,-0.44808271527290344,0.2997140884399414,10.165876388549805
2.64,-0.12420236319303513,0.08119967579841614,-0.008509588427841663,-0.8965691328048706,0.20625749230384827,10.413126945495605
2.66,-0.1451103389263153,0.0335368737578392,-0.030044792219996452,-1.0968875885009766,0.16233491897583008,10.343674659729004
2.68,-0.1464526206254959,-0.010015100240707397,-0.03728463128209114,-1.0737826824188232,0.2117505520582199,9.880144119262695
2.7,-0.09667406976222992,-0.048072654753923416,-0.03799721226096153,-1.0654481649398804,0.16949859261512756,9.547392845153809
2.72,-0.09931844472885132,-0.07839261740446091,-0.005286055617034435,-0.9066659212112427,-0.1723356544971466,9.745922088623047
2.74,-0.045831795781850815,-0.10702251642942429,0.01101677305996418,-0.4520208239555359,-0.538628339767456,9.572203636169434
2.7600000000000002,-0.06750568747520447,-0.15412433445453644,0.01795603707432747,-0.13835927844047546,-0.5856302976608276,9.27204704284668
2.7800000000000002,-0.013338139280676842,-0.18712206184864044,0.024456525221467018,-0.11138046532869339,-0.40234750509262085,9.610260963439941
2.8000000000000003,-0.001133038429543376,-0.21543554961681366,0.03889661282300949,-0.14687465131282806,-0.3387051224708557,9.845706939697266
2.82,0.026625650003552437,-0.2037600725889206,0.0421142503619194,-0.1376638263463974,-0.3915272653102875,10.01244831085205
2.84,0.06711683422327042,-0.19045451283454895,0.031349752098321915,-0.10634973645210266,-0.40212738513946533,10.066758155822754
2.86,0.11400040239095688,-0.1922222375869751,0.03268203139305115,0.01773958094418049,-0.38709601759910583,10.132400512695312
2.88,0.10181313008069992,-0.17364007234573364,0.02319500409066677,0.23960810899734497,-0.2852727770805359,10.015844345092773
2.9,0.12848331034183502,-0.1522073894739151,-0.006029585376381874,0.45436838269233704,-0.10899478942155838,9.523134231567383
2.92,0.05277005583047867,-0.14496521651744843,-0.026809412986040115,0.4460539221763611,-0.024778373539447784,9.535260200500488
2.94,-0.0011027087457478046,-0.09256642311811447,-0.04536321386694908,0.3417331874370575,0.09223957359790802,9.946102142333984
2.96,0.01595481112599373,-0.024946970865130424,-0.0761767029762268,0.373333603143692,0.413373202085495,9.883770942687988
2.98,-0.019483236595988274,0.010146179236471653,-0.07348144054412842,0.5313353538513184,0.6683130264282227,9.497249603271484
3.0,-0.07908760756254196,0.03335122764110565,-0.06785271316766739,0.6428104639053345,0.7271755337715149,9.432818412780762
3.02,-0.036444660276174545,0.0449373796582222,-0.04249341040849686,0.6740905046463013,0.5930123925209045,9.853499412536621
3.04,-0.05898572504520416,0.09284747391939163,-0.013005774468183517,0.6832696199417114,0.22998061776161194,10.10971736907959
3.06,-0.06498459726572037,0.11509283632040024,-0.010202089324593544,0.6394556164741516,-0.027778422459959984,9.987260818481445
3.08,-0.08242189884185791,0.11034422367811203,-0.023252218961715698,0.6260421276092529,-0.1347016841173172,9.983403205871582
3.1,-0.09050634503364563,0.08863865584135056,-0.025360239669680595,0.572050929069519,-0.17646674811840057,9.865180969238281
3.12,-0.028395377099514008,0.09693407267332077,-0.03452649712562561,0.2724117040634155,-0.08853890746831894,10.188952445983887
3.14,-0.03522918373346329,0.08529622852802277,0.010796553455293179,-0.013170426711440086,-0.1263739913702011,10.524988174438477
3.16,-0.000536475155968219,0.06396067142486572,0.019043264910578728,-0.20927390456199646,-0.23874887824058533,10.417814254760742
3.18,0.05566036328673363,0.0786157101392746,0.0498993918299675,-0.2365597039461136,-0.3519769012928009,9.830574989318848
3.2,0.05914177745580673,0.08472702652215958,0.05186498910188675,-0.03266892582178116,-0.38828244805336,9.310717582702637
3.22,0.09367735683917999,0.07712630927562714,0.06880829483270645,0.059584155678749084,-0.1935090273618698,8.87510871887207
3.24,0.08318226039409637,0.059053804725408554,0.057265885174274445,0.09824293851852417,-0.07795654237270355,9.07120418548584
3.2600000000000002,0.09720315784215927,0.0849393755197525,0.03861551731824875,0.10461165010929108,0.030594855546951294,9.661115646362305
3.2800000000000002,0.09693782776594162,0.10030850768089294,0.026691021397709846,0.14090655744075775,0.023363836109638214,10.100322723388672
3.3000000000000003,0.10835594683885574,0.07514788955450058,0.02007598802447319,0.34987398982048035,0.018788449466228485,9.949092864990234
3.3200000000000003,0.07406948506832123,0.02638738788664341,0.010133892297744751,0.4171100854873657,0.004765719175338745,9.92894458770752
3.34,0.08863230049610138,0.019366389140486717,0.0069166128523647785,0.17045840620994568,0.05931153893470764,9.836389541625977
3.36,0.07645851373672485,0.012176689691841602,-0.010603493079543114,-0.07661819458007812,0.17592144012451172,9.584160804748535
3.38,0.08684249967336655,0.019701940938830376,-0.01672470197081566,-0.24737294018268585,0.24499846994876862,9.679914474487305
3.4,0.06803270429372787,0.004923783242702484,-0.00880004558712244,-0.3301122784614563,0.4071381390094757,9.841320991516113
3.42,0.0909351333975792,-0.004747294820845127,-0.013366827741265297,-0.27956411242485046,0.3553943634033203,9.640780448913574
3.44,0.06543149799108505,-0.001486026681959629,-0.008985222317278385,-0.06542782485485077,0.2570975124835968,9.336280822753906
3.46,0.09199779480695724,-0.005357321817427874,-0.013620991259813309,0.1660376340150833,0.17100517451763153,9.2313871383667
3.48,0.06448891013860703,-0.00948500819504261,0.002488531405106187,0.259833961725235,0.09980315715074539,9.471898078918457
3.5,0.08632908761501312,-0.035785187035799026,0.012323531322181225,0.20710396766662598,0.025893783196806908,9.96251392364502
3.52,0.03272083401679993,-0.0663902536034584,0.014387212693691254,0.10588731616735458,0.10308311134576797,9.889811515808105
3.54,0.010702703148126602,-0.10186967253684998,0.003412777790799737,0.041992343962192535,0.2747976779937744,9.585430145263672
3.56,0.0007962241652421653,-0.14512750506401062,0.01045799721032381,-0.12321481108665466,0.3709726631641388,9.520564079284668
3.58,0.025160841643810272,-0.1638096123933792,0.007788070943206549,-0.5661731362342834,0.6273903250694275,9.995226860046387
3.6,-0.009782521985471249,-0.14854547381401062,0.0035452230367809534,-0.7206953763961792,0.7602987289428711,10.307732582092285
3.62,-0.034159671515226364,-0.16494925320148468,-0.02031649276614189,-0.661126434803009,0.669899046421051,10.507062911987305
3.64,-0.03266539052128792,-0.17183300852775574,-0.030074631795287132,-0.47623780369758606,0.40811681747436523,10.190512657165527
3.66,-0.030570602044463158,-0.1547388732433319,-0.04173234850168228,-0.3713495135307312,0.18897591531276703,9.874585151672363
3.68,-0.06834447383880615,-0.1150859072804451,-0.06393252313137054,-0.07570283114910126,0.24463456869125366,9.987364768981934
3.7,-0.0748877078294754,-0.11187402904033661,-0.07309005409479141,0.2599017322063446,0.2914355397224426,10.023028373718262
3.72,-0.08534162491559982,-0.11072936654090881,-0.07116053253412247,0.48650923371315,0.16631601750850677,9.74062442779541
3.74,-0.07972057163715363,-0.0910249724984169,-0.06463039666414261,0.6759263873100281,0.005887189880013466,9.498699188232422
3.7600000000000002,-0.11384576559066772,-0.061561886221170425,-0.07961723208427429,0.7774973511695862,0.006427727174013853,9.623867988586426
3.7800000000000002,-0.1386437863111496,-0.04406611993908882,-0.05509081482887268,0.7896690368652344,0.08582651615142822,10.086267471313477
3.8000000000000003,-0.08938083052635193,-0.019914554432034492,-0.04522956162691116,0.7837640047073364,0.2069820910692215,10.0250244140625
3.8200000000000003,-0.0887899249792099,0.006201996933668852,-0.04844698682427406,0.817055344581604,0.1799575537443161,9.146137237548828
3.84,-0.036857906728982925,0.014065900817513466,-0.05250931903719902,0.6956247687339783,0.09465556591749191,8.97944450378418
3.86,-0.03477858752012253,0.04344319552183151,-0.043670374900102615,0.6518998742103577,0.0670030489563942,9.425864219665527
3.88,-0.023415936157107353,0.07379621267318726,-0.029575129970908165,0.5871403813362122,-0.11922593414783478,10.014699935913086
3.9,-0.02741038240492344,0.1022455096244812,-0.018484793603420258,0.590708315372467,-0.3684471845626831,10.235329627990723
3.92,-0.008806931786239147,0.15246710181236267,-0.010210714302957058,0.5885018706321716,-0.24241772294044495,9.792936325073242
3.94,0.006865157280117273,0.172799751162529,0.022243108600378036,0.6012645959854126,-0.024662423878908157,9.367881774902344
3.96,0.07081125676631927,0.18103115260601044,0.03709851950407028,0.6400294303894043,0.12018994987010956,9.17451286315918
3.98,0.06744897365570068,0.21534644067287445,0.0325169675052166,0.7739242315292358,0.021919600665569305,9.436503410339355
4.0,0.08071387559175491,0.18770477175712585,0.01382358092814684,0.9363439083099365,-0.16808778047561646,9.656023979187012
4.0200000000000005,0.07709840685129166,0.175005242228508,-0.0038855033926665783,0.802791953086853,-0.22174525260925293,9.920005798339844
4.04,0.025235749781131744,0.16725338995456696,-0.019921578466892242,0.33410772681236267,-0.0980168804526329,10.535785675048828
4.0600000000000005,0.017730172723531723,0.13383848965168,-0.02154633216559887,-0.04824861139059067,0.22634167969226837,10.396467208862305
4.08,0.01345083024352789,0.05540309101343155,-0.008788992650806904,-0.449648916721344,0.428794801235199,9.794028282165527
4.1,-0.046908166259527206,0.005869048181921244,0.011541496962308884,-0.828750729560852,0.37053823471069336,9.474742889404297
4.12,-0.025336982682347298,-0.022224310785531998,0.011600405909121037,-1.1447795629501343,0.401853084564209,9.95903205871582
4.14,-0.008699867874383926,-0.05202760174870491,-0.001160472515039146,-1.3594634532928467,0.4712439477443695,10.75808334350586
4.16,-0.04099702835083008,-0.05501965805888176,-0.0004329650546424091,-1.168312668800354,0.499867707490921,10.63492488861084
4.18,-0.022326074540615082,-0.0763033777475357,-0.009331523440778255,-0.7117958664894104,0.2769932746887207,9.994368553161621
4.2,0.018397998064756393,-0.10701631754636765,-0.012430192902684212,-0.275442898273468,-0.009383851662278175,9.566727638244629
4.22,-0.023452892899513245,-0.12218210846185684,-0.005706836935132742,0.07106684893369675,-0.13487334549427032,9.456775665283203
4.24,-0.028152041137218475,-0.11959617584943771,0.024370815604925156,0.2818307876586914,-0.11961852759122849,9.735877990722656
4.26,-0.08252454549074173,-0.12781240046024323,0.009588640183210373,0.28696271777153015,-0.012163527309894562,10.187437057495117
4.28,-0.057957228273153305,-0.11651864647865295,0.019775239750742912,0.3976934254169464,0.26513782143592834,10.167989730834961
4.3,-0.03473982214927673,-0.1217259094119072,0.03425748273730278,0.5861244797706604,0.38671350479125977,9.469112396240234
4.32,-0.025376783683896065,-0.10437797009944916,0.034620556980371475,0.7157022356987,0.18803586065769196,9.217625617980957
4.34,-0.01982600800693035,-0.08869531005620956,0.0365893691778183,0.6149598360061646,-0.1841983050107956,9.666240692138672
4.36,0.005813035182654858,-0.07211191207170486,0.03202960640192032,0.5453328490257263,-0.33762750029563904,9.894610404968262
4.38,-0.002716786228120327,-0.04780241474509239,0.02596711553633213,0.4625978469848633,-0.27853092551231384,9.773788452148438
4.4,-0.009337508119642735,-0.026521336287260056,0.026998328045010567,0.3780454397201538,-0.1703728586435318,9.53377628326416
4.42,0.05713512748479843,-0.014603188261389732,0.03919137641787529,0.40252813696861267,-0.0017931335605680943,9.211005210876465
4.44,0.09099800884723663,-0.0009669954306446016,0.04370656609535217,0.49942880868911743,-0.02490239217877388,9.110875129699707
4.46,0.1408437341451645,0.03797990083694458,0.03808865696191788,0.5251742601394653,-0.19366653263568878,8.922506332397461
4.48,0.15187004208564758,0.07298078387975693,0.029965396970510483,0.4462617337703705,-0.2993592917919159,8.960969924926758
4.5,0.13036158680915833,0.09510940313339233,0.011272582225501537,0.4443877339363098,-0.19171008467674255,9.533812522888184
4.5200000000000005,0.11263450235128403,0.09580659866333008,-0.005318168085068464,0.4225923717021942,-0.020803768187761307,10.051020622253418
4.54,0.10921036452054977,0.10019487142562866,-0.009593511000275612,0.400359570980072,0.25755375623703003,10.075886726379395
4.5600000000000005,0.13259804248809814,0.15402157604694366,-0.0028068991377949715,0.23724482953548431,0.422050416469574,9.699334144592285
4.58,0.10627713799476624,0.19412261247634888,0.0037855536211282015,0.18018530309200287,0.41657984256744385,9.729230880737305
4.6000000000000005,0.10442624986171722,0.1971772164106369,0.006777294911444187,0.15197263658046722,0.1983087956905365,10.027256965637207
4.62,0.05102395638823509,0.18359404802322388,-0.02208057790994644,0.12256527692079544,0.09482826292514801,10.718798637390137
4.64,0.01076268870383501,0.15423578023910522,-0.023679690435528755,0.19131621718406677,0.4461793601512909,10.709635734558105
4.66,0.022073013707995415,0.13698150217533112,0.013229390606284142,0.11224757134914398,0.9123679399490356,9.965702056884766
4.68,0.022130819037556648,0.1289096176624298,0.033952366560697556,-0.11882418394088745,0.8983431458473206,9.438218116760254
4.7,-0.007640888448804617,0.12933525443077087,0.022822082042694092,-0.28981560468673706,0.646567702293396,9.297832489013672
4.72,-0.015043934807181358,0.1120377704501152,0.01520756259560585,-0.43627190589904785,0.32278501987457275,9.515432357788086
4.74,-0.036243632435798645,0.0790109932422638,-0.0028649892192333937,-0.5919646620750427,0.2550027072429657,9.926129341125488
4.76,-0.03234601765871048,0.07982303947210312,5.0556089263409376e-05,-0.5366877913475037,0.3473035991191864,10.111602783203125
4.78,0.0038279907312244177,0.07903225719928741,0.010953187942504883,-0.33359625935554504,0.2865659296512604,9.781638145446777
4.8,0.049020640552043915,0.08307433873414993,0.015514101833105087,-0.2400091141462326,0.013376252725720406,9.520120620727539
4.82,0.025533325970172882,0.06466531753540039,0.02630811370909214,-0.2905037999153137,-0.16991032660007477,9.674638748168945
4.84,0.03458143770694733,0.04320411756634712,-0.0013601225800812244,-0.21482500433921814,-0.02025720849633217,9.679220199584961
4.86,0.012980297207832336,0.02580181322991848,-0.022064240649342537,-0.10313751548528671,0.298141747713089,9.636042594909668
4.88,0.03727665916085243,0.011138316243886948,-0.026459721848368645,-0.10666429251432419,0.6141995787620544,9.497488021850586
4.9,0.02811550162732601,0.0030919474083930254,-0.011144353076815605,-0.16349878907203674,0.654212474822998,9.789445877075195
4.92,0.014895763248205185,-0.012027057819068432,-0.010069796815514565,-0.3092089295387268,0.403494656085968,9.79480266571045
4.94,-0.0029853149317204952,-0.03356488421559334,-0.02357329986989498,-0.4259572923183441,0.11355995386838913,9.812902450561523
4.96,0.014460069127380848,-0.025309912860393524,-0.04915960505604744,-0.47241416573524475,0.051574017852544785,10.018028259277344
4.98,-0.004349913448095322,-0.024684429168701172,-0.06113627180457115,-0.37897801399230957,0.169382244348526,9.92558479309082
5.0,-0.02154248207807541,-0.061471547931432724,-0.05986431986093521,-0.22392480075359344,0.3591616451740265,9.61069393157959
5.0200000000000005,0.008113422431051731,-0.07109807431697845,-0.0862889438867569,-0.2596869170665741,0.4444848895072937,9.585719108581543
5.04,-0.04917554557323456,-0.08093350380659103,-0.09125180542469025,-0.3092409074306488,0.4641484022140503,10.042450904846191
5.0600000000000005,-0.06004132330417633,-0.0672268271446228,-0.08625137060880661,-0.3616546094417572,0.43911075592041016,10.196737289428711
5.08,-0.10123343765735626,-0.052698466926813126,-0.07888615131378174,-0.2827521860599518,0.40984195470809937,10.121674537658691
5.1000000000000005,-0.08005063235759735,-0.08485070616006851,-0.06839340180158615,-0.33250370621681213,0.48573586344718933,10.103373527526855
5.12,-0.0971606969833374,-0.10542448610067368,-0.03681330382823944,-0.22195740044116974,0.6355346441268921,9.8606595993042
5.14,-0.09285122901201248,-0.09981852024793625,-0.0015871853101998568,-0.14734101295471191,0.6136382222175598,9.762046813964844
5.16,-0.1148194819688797,-0.08032216876745224,0.01734595000743866,-0.2508864402770996,0.34007298946380615,10.087646484375
5.18,-0.05766662210226059,-0.05265333130955696,-0.009113305248320103,-0.48053449392318726,0.2017136663198471,10.448934555053711
5.2,-0.06883996725082397,-0.05929892882704735,-0.040299125015735626,-0.3236422836780548,0.13909371197223663,9.999177932739258
5.22,-0.03669312596321106,-0.058836184442043304,-0.03408407047390938,-0.0835740938782692,0.07187823951244354,9.603134155273438
5.24,-0.004880623426288366,-0.03157833218574524,-0.0351184718310833,0.0380643866956234,0.0170547217130661,9.454440116882324
5.26,0.001764355693012476,-0.004785603377968073,-0.03045305423438549,0.09806498140096664,-0.14094874262809753,9.50753402709961
5.28,0.039123475551605225,0.013381817378103733,-0.024579990655183792,0.0669412612915039,-0.23700499534606934,9.747154235839844
5.3,0.07134260982275009,0.008762816898524761,-0.03622482717037201,0.22257207334041595,-0.22969503700733185,10.114320755004883
5.32,0.07456585764884949,0.014944919385015965,-0.054002463817596436,0.39151155948638916,-0.08259273320436478,10.033183097839355
5.34,0.034716565161943436,0.025823161005973816,-0.07155600190162659,0.4843806326389313,-0.024471720680594444,9.794875144958496
5.36,0.037875182926654816,0.045129161328077316,-0.06291252374649048,0.43113023042678833,0.006482330150902271,9.81289291381836
5.38,0.06287629902362823,0.07527239620685577,-0.047749113291502,0.34112417697906494,-0.03556302189826965,9.907820701599121
5.4,0.058264534920454025,0.048956818878650665,0.0017129260813817382,0.23669253289699554,-0.07718811929225922,9.94080638885498
5.42,0.025514813140034676,0.034059248864650726,0.01147720217704773,0.021493474021553993,0.001093706232495606,9.923209190368652
5.44,0.0547187440097332,0.0276358500123024,0.023901017382740974,0.0846313089132309,0.23425118625164032,9.609888076782227
5.46,0.0704611986875534,0.026135139167308807,0.0334879569709301,0.295234739780426,0.421683669090271,9.184029579162598
5.48,0.042663879692554474,-0.016487108543515205,0.02572638913989067,0.3372645974159241,0.3489148020744324,8.916391372680664
5.5,0.08166427910327911,-0.05072290077805519,0.018131209537386894,0.14514759182929993,0.39990487694740295,9.445064544677734
5.5200000000000005,0.0010883300565183163,-0.05676794424653053,0.003294226247817278,-0.0579642578959465,0.47806283831596375,9.880575180053711
5.54,0.07282079011201859,-0.10598272830247879,0.029372651129961014,-0.3172575831413269,0.4430719316005707,10.099794387817383
5.5600000000000005,0.054017942398786545,-0.13509830832481384,0.0319756455719471,-0.5388563871383667,0.27135470509529114,9.887993812561035
5.58,0.0727759599685669,-0.13451550900936127,0.011948655359447002,-0.5667300224304199,0.2461560070514679,9.563434600830078
5.6000000000000005,0.021820830181241035,-0.15419462323188782,0.018061386421322823,-0.46960726380348206,0.3719145953655243,9.316043853759766
5.62,0.03036152571439743,-0.1732114851474762,0.02015281282365322,-0.4728698134422302,0.4468240439891815,9.362748146057129
5.64,0.011991612613201141,-0.16682632267475128,0.01597880944609642,-0.4710387587547302,0.4649478793144226,9.886398315429688
5.66,0.005250060465186834,-0.14951494336128235,0.004529082216322422,-0.4257126748561859,0.5023290514945984,10.115168571472168
5.68,0.028027722612023354,-0.14657503366470337,-0.018106428906321526,-0.3087207078933716,0.5435031652450562,10.066825866699219
5.7,-0.003945041447877884,-0.14730453491210938,-0.0163643229752779,0.1271941214799881,0.5135735869407654,9.935874938964844
5.72,-0.017747126519680023,-0.1451137214899063,-0.01682494953274727,0.5097924470901489,0.41096365451812744,9.787853240966797
5.74,0.002868563635274768,-0.13125130534172058,-0.0060642315074801445,0.7032700181007385,0.3409690260887146,9.91662883758545
5.76,-0.009038882330060005,-0.16897912323474884,0.008542666211724281,0.7649058103561401,0.4469783902168274,10.061857223510742
5.78,-0.03511085361242294,-0.1780397891998291,0.03156275674700737,0.637559175491333,0.49984943866729736,9.90339469909668
5.8,0.031076451763510704,-0.15335774421691895,0.048343587666749954,0.5385210514068604,0.46683382987976074,9.63624382019043
5.82,0.041896261274814606,-0.1412188559770584,0.04637664929032326,0.42637526988983154,0.36627134680747986,9.646965026855469
5.84,0.12417834252119064,-0.1035795658826828,0.05571616068482399,0.4294121265411377,0.20506183803081512,9.452876091003418
5.86,0.1023435890674591,-0.07472631335258484,0.03140758350491524,0.3828301429748535,0.03255300596356392,9.336762428283691
5.88,0.09857363253831863,-0.02743903547525406,0.02729451097548008,0.39089497923851013,-0.10874689370393753,9.276869773864746
5.9,0.092878557741642,-0.0025699823163449764,0.01512952335178852,0.5188900828361511,-0.07355507463216782,9.222662925720215
5.92,0.055212829262018204,0.042275555431842804,-0.0016800382873043418,0.6633561849594116,0.14492987096309662,9.173898696899414
5.94,0.11643648147583008,0.0904751718044281,2.7248113838140853e-05,0.8503948450088501,0.35149532556533813,9.3382568359375
5.96,0.08906874805688858,0.1283002495765686,-0.0004732966481242329,0.9657374620437622,0.598175048828125,9.735816955566406
5.98,0.03367520123720169,0.13024456799030304,0.00022319286654237658,1.1615538597106934,0.7712109684944153,10.29965591430664
6.0,-0.03790696710348129,0.11007869988679886,0.002247941680252552,1.0882575511932373,0.8197163939476013,10.959915161132812
6.0200000000000005,-0.06012261286377907,-0.004523808602243662,-0.007205992937088013,0.9544496536254883,0.8010895848274231,11.382173538208008
6.04,-0.00846137199550867,-0.042374029755592346,0.004306962247937918,0.3607419729232788,1.1753594875335693,10.478500366210938
6.0600000000000005,-0.06337827444076538,-0.01772201992571354,0.014283002354204655,-0.1841447800397873,1.2160388231277466,9.447720527648926
6.08,-0.04983852431178093,0.01106446236371994,0.03273840621113777,-0.7529234886169434,0.6426870226860046,9.273290634155273
6.1000000000000005,-0.018325423821806908,-0.040822435170412064,0.03403659164905548,-1.133561134338379,0.11085578799247742,9.456231117248535
6.12,-0.02045103907585144,-0.029397988691926003,0.025409448891878128,-0.7811464667320251,0.05999118834733963,10.301430702209473
6.140000000000001,-0.0012004412710666656,-0.030793508514761925,0.007738086860626936,-0.25754258036613464,0.29444241523742676,10.525486946105957
6.16,-0.01724671758711338,-0.02442208305001259,-0.009338407777249813,0.38623079657554626,0.32264742255210876,10.069284439086914
6.18,-0.022915050387382507,-0.02313186600804329,-0.010768420062959194,0.7819175720214844,0.2430189698934555,9.379692077636719
6.2,0.0011949078179895878,-0.003848449094220996,-0.030980095267295837,0.7056711316108704,0.33183106780052185,9.689580917358398
6.22,-0.008932063356041908,0.01108503807336092,-0.03829091414809227,0.5933694839477539,0.4887724816799164,10.03206729888916
6.24,0.005098151043057442,0.02553504891693592,-0.04310473054647446,0.6183098554611206,0.5488752722740173,10.023781776428223
6.26,-0.01982671581208706,0.02129884622991085,-0.03366250544786453,0.7910882830619812,0.48160165548324585,9.665552139282227
6.28,-0.011377966962754726,0.05173061043024063,-0.02432897500693798,0.9290809631347656,0.4237671494483948,9.363852500915527
6.3,-0.01228147279471159,0.06444136798381805,-0.021467410027980804,1.0294462442398071,0.34115883708000183,9.313302040100098
6.32,-0.023591941222548485,0.0820523202419281,-0.022249815985560417,0.9393705725669861,0.3411182463169098,9.309317588806152
6.34,-0.006285105831921101,0.09047335386276245,-0.05427022650837898,0.8481096625328064,0.45800620317459106,9.200068473815918
6.36,-0.0177154503762722,0.13500703871250153,-0.05328147113323212,0.6051531434059143,0.5776740312576294,9.073150634765625
6.38,-0.01995384320616722,0.1385377198457718,-0.06635064631700516,0.4385710656642914,0.5758506655693054,9.144430160522461
6.4,-0.021089833229780197,0.1513396054506302,-0.06316244602203369,0.17606063187122345,0.48431316018104553,9.302753448486328
6.42,-0.03857943043112755,0.16836132109165192,-0.05743883550167084,0.08219016343355179,0.3909566104412079,9.975167274475098
6.44,-0.044485725462436676,0.16079126298427582,-0.03646232187747955,0.039230890572071075,0.3706708252429962,10.59348201751709
6.46,-0.04357524961233139,0.11976396292448044,-0.00431008031591773,-0.0450371652841568,0.3773553967475891,10.625714302062988
6.48,-0.007161393761634827,0.12036701291799545,0.02115834504365921,-0.06757570058107376,0.3891593813896179,10.427164077758789
6.5,-0.015258555300533772,0.08916213363409042,0.038892507553100586,-0.19069641828536987,0.2602877914905548,10.377861976623535
6.5200000000000005,-0.0026900290977209806,0.036594413220882416,0.03150432929396629,-0.3149147927761078,0.05903376266360283,10.49642276763916
6.54,0.052118003368377686,-0.003816524287685752,0.0370030514895916,-0.5293630361557007,-0.09742758423089981,10.284592628479004
6.5600000000000005,0.042530544102191925,-0.011893180198967457,0.02579011395573616,-0.5366556644439697,-0.14743028581142426,9.912393569946289
6.58,0.06315196305513382,-0.04373851791024208,0.030436493456363678,-0.5267186760902405,-0.04645910859107971,9.708559036254883
6.6000000000000005,0.06951835006475449,-0.05779547989368439,0.020865147933363914,-0.5541123151779175,0.18314026296138763,9.781542778015137
6.62,0.07387528568506241,-0.01771203801035881,0.0007611443288624287,-0.44557619094848633,0.5087143182754517,9.76437759399414
6.640000000000001,0.07669533789157867,0.018105173483490944,-0.03133600205183029,-0.26060763001441956,0.5010606646537781,9.155094146728516
6.66,0.04986822232604027,-0.0018162649357691407,-0.039739929139614105,0.0920024961233139,0.5241180658340454,9.141768455505371
6.68,0.0861978679895401,-0.030129997059702873,-0.05276527255773544,0.2688153386116028,0.36622801423072815,9.498407363891602
6.7,0.04768221080303192,-0.015606996603310108,-0.05520714446902275,0.46124622225761414,0.3741721510887146,9.66261100769043
6.72,0.026131894439458847,0.01325275469571352,-0.03703022748231888,0.4262717366218567,0.5142028331756592,9.836947441101074
6.74,0.03904280439019203,-0.0026694254484027624,-0.003738510888069868,0.36897900700569153,0.626954972743988,9.719264030456543
6.76,0.08171818405389786,-0.011506665498018265,0.017980290576815605,0.2211984246969223,0.7289651036262512,9.96097469329834
6.78,0.06182713434100151,-0.012073036283254623,0.028994694352149963,0.03698255494236946,0.599967360496521,10.130329132080078
6.8,0.046607598662376404,0.022882020100951195,0.02001994103193283,0.06384948641061783,0.4049270749092102,9.847041130065918
6.82,0.04531922563910484,0.0016814152477309108,0.018761388957500458,0.12071125954389572,0.2077540159225464,9.263772964477539
6.84,0.058513861149549484,-0.013964438810944557,0.016734132543206215,0.21987566351890564,0.13784055411815643,9.105368614196777
6.86,0.05674184858798981,-0.016910424456000328,0.022992325946688652,0.24355827271938324,0.3615986704826355,9.571471214294434
6.88,0.05924297869205475,-0.05332452431321144,0.03825923055410385,0.3957558274269104,0.5536240935325623,10.298734664916992
6.9,0.06910727918148041,-0.10913161933422089,0.053035590797662735,0.2523075342178345,0.7821311950683594,10.896493911743164
6.92,0.08646835386753082,-0.104192353785038,0.03339681774377823,0.07307516783475876,0.801038920879364,10.63119125366211
6.94,0.12410388886928558,-0.08034300059080124,0.02695903368294239,-0.0341339111328125,0.5318410992622375,10.136384010314941
6.96,0.14192155003547668,-0.07862799614667892,-0.01525871828198433,-0.15352652966976166,0.46116170287132263,9.852530479431152
6.98,0.13531851768493652,-0.05448415130376816,-0.03563576564192772,-0.070038340985775,0.6824200749397278,9.660920143127441
7.0,0.131466343998909,-0.037671975791454315,-0.04052234813570976,0.15946081280708313,0.8209632039070129,9.092680931091309
7.0200000000000005,0.0994223952293396,-0.03382145240902901,-0.0505201481282711,0.44198688864707947,0.8175513744354248,8.404189109802246
7.04,0.03806585446000099,-0.01635707914829254,-0.046640586107969284,0.551132321357727,0.7602434754371643,8.579545974731445
7.0600000000000005,-0.03811444342136383,0.01957806572318077,-0.0638795718550682,0.569318950176239,0.8112920522689819,9.3101167678833
7.08,-0.09289819002151489,0.01385424192994833,-0.08482998609542847,0.5453311800956726,1.065324306488037,9.729460716247559
7.1000000000000005,-0.13085371255874634,-0.016782982274889946,-0.08148566633462906,0.46591678261756897,1.2877700328826904,9.543161392211914
7.12,-0.22196988761425018,-0.029796678572893143,-0.07799508422613144,0.47970446944236755,1.3661495447158813,9.438724517822266
7.140000000000001,-0.2726950943470001,-0.03483617678284645,-0.06274682283401489,0.35902681946754456,1.445229172706604,9.837151527404785
7.16,-0.22443784773349762,-0.0345945805311203,-0.04859639331698418,0.06796389073133469,1.3669184446334839,10.57204532623291
7.18,-0.21020053327083588,-0.011920792981982231,-0.0034484765492379665,-0.30037572979927063,1.201833724975586,11.03442096710205
7.2,-0.18363167345523834,0.01006799004971981,0.05889464542269707,-0.43621301651000977,0.7589364051818848,10.555156707763672
7.22,-0.1596166044473648,0.006774658802896738,0.06296741962432861,-0.004962202161550522,0.0969303622841835,10.007353782653809
7.24,-0.084116131067276,0.007653980981558561,0.036160655319690704,0.39616334438323975,-0.31857001781463623,9.552511215209961
7.26,-0.04183961823582649,0.01036149077117443,0.008926533162593842,0.6449941396713257,-0.4856037497520447,9.413227081298828
7.28,-0.020006824284791946,0.011062621138989925,-0.020840194076299667,0.7818297743797302,-0.354865163564682,9.562134742736816
7.3,-0.011303589679300785,-0.0057599893771111965,-0.016865629702806473,0.703163743019104,0.03563408553600311,9.688201904296875
7.32,-0.0056468648836016655,-0.013931130059063435,-0.0034074587747454643,0.3303794264793396,0.4076080322265625,9.901460647583008
7.34,-0.002576654776930809,-0.02563283033668995,0.02349378727376461,0.08853886276483536,0.5103534460067749,9.795435905456543
7.36,0.017816005274653435,-0.01300947554409504,0.024690402671694756,-0.08767255395650864,0.4972272217273712,9.763671875
7.38,-0.011674481444060802,-0.013670830987393856,0.016136184334754944,-0.00033056677784770727,0.42634642124176025,9.675193786621094
7.4,-0.024798553436994553,-0.025926833972334862,-0.007509035989642143,0.13576751947402954,0.47720521688461304,9.621259689331055
7.42,-0.053667571395635605,-0.04158834367990494,-0.03635929524898529,0.25962895154953003,0.6728512048721313,9.674140930175781
7.44,-0.04287170618772507,-0.08306706696748734,-0.05301651358604431,0.30517908930778503,0.8389565348625183,9.448485374450684
7.46,-0.047256626188755035,-0.12529706954956055,-0.04761376604437828,0.25931915640830994,0.7534394264221191,9.697790145874023
7.48,-0.020519867539405823,-0.13318710029125214,-0.03465820103883743,0.09727197885513306,0.4319116473197937,9.851324081420898
7.5,-0.02432556450366974,-0.1610458642244339,-0.02495984174311161,-0.06911446154117584,0.1276756376028061,9.795387268066406
7.5200000000000005,-0.010031132027506828,-0.15138517320156097,-0.004255493171513081,-0.2653684616088867,0.0806264579296112,9.975156784057617
7.54,-0.023080674931406975,-0.1273670643568039,0.012136457487940788,-0.22574064135551453,0.1550595909357071,10.034191131591797
7.5600000000000005,-0.006828713696449995,-0.07604272663593292,-0.0062902322970330715,0.06650937348604202,0.14673088490962982,10.213778495788574
7.58,-0.00318465125747025,-0.04947040230035782,-0.03260602056980133,0.3784417510032654,0.19464682042598724,10.079771041870117
7.6000000000000005,0.0007298868731595576,-0.050856977701187134,-0.04600824788212776,0.6584622263908386,0.18540234863758087,9.754363059997559
7.62,-0.0011216731509193778,-0.034099724143743515,-0.03944730758666992,0.8634053468704224,0.20947514474391937,9.524640083312988
7.640000000000001,0.01503834966570139,0.00858318991959095,-0.02501850761473179,0.9865130186080933,0.38255077600479126,9.844518661499023
7.66,0.04382208362221718,0.004202511161565781,-0.015407692641019821,1.127355933189392,0.5589494705200195,9.968889236450195
7.68,0.05457586795091629,0.00372949312441051,0.014895971864461899,1.1704280376434326,0.5537765622138977,10.124971389770508
7.7,0.05304914712905884,0.017380762845277786,0.020830674096941948,0.858382523059845,0.3840119540691376,10.298818588256836
7.72,0.05015447735786438,0.00768830394372344,-0.0017896045465022326,0.6563899517059326,0.24095240235328674,9.92137336730957
7.74,0.07273117452859879,0.0336027666926384,-0.002222381066530943,0.49837952852249146,0.2617349624633789,9.376851081848145
7.76,0.06854289770126343,0.016393108293414116,-0.012559344992041588,0.4030521512031555,0.40241754055023193,8.992262840270996
7.78,0.10491761565208435,0.00499536469578743,-0.016263963654637337,0.33296123147010803,0.5550588965415955,9.205525398254395
7.8,0.09106648713350296,0.01616479456424713,-0.024219712242484093,0.35319942235946655,0.48376038670539856,9.71230697631836
7.82,0.09838370978832245,0.03131875768303871,-0.02179933898150921,0.4233696460723877,0.3136116564273834,10.087158203125
7.84,0.0723230391740799,0.021175848320126534,-0.02104949951171875,0.4044410288333893,0.25464120507240295,9.883970260620117
7.86,0.016975967213511467,0.03609555587172508,-0.030603934079408646,0.17778520286083221,0.4722440540790558,9.760255813598633
7.88,-0.025466185063123703,0.02221534214913845,-0.037637777626514435,-0.17267043888568878,0.888308584690094,10.279255867004395
7.9,-0.12863151729106903,-0.0011711274273693562,-0.05676943063735962,-0.23399460315704346,1.2757073640823364,10.416665077209473
7.92,-0.11386799812316895,-0.028805190697312355,-0.06094885617494583,-0.1771910935640335,1.4280744791030884,10.389116287231445
7.94,-0.11917706578969955,-0.02429909072816372,-0.030376028269529343,0.09830059856176376,1.513530969619751,11.207572937011719
7.96,-0.10837187618017197,-0.020729199051856995,0.023751264438033104,0.6242812275886536,1.1375436782836914,10.892619132995605
7.98,-0.04167921841144562,-0.07097641378641129,0.07155259698629379,0.8930191397666931,0.3690103590488434,9.476192474365234
8.0,0.018237823620438576,-0.12271124124526978,0.09782295674085617,0.6735134124755859,-0.2557014226913452,8.767706871032715
8.02,0.04957430437207222,-0.12570355832576752,0.10545425117015839,0.42843031883239746,-0.5744516849517822,8.550827980041504
8.040000000000001,0.09006600081920624,-0.10577920824289322,0.08172285556793213,0.37955397367477417,-0.739041268825531,8.561182022094727
8.06,0.11306335777044296,-0.07652787864208221,0.044211313128471375,0.6239561438560486,-0.7719980478286743,8.793925285339355
8.08,0.12284353375434875,-0.05342411622405052,0.006812337785959244,0.8252061605453491,-0.5341956615447998,9.260980606079102
8.1,0.11205658316612244,-0.02563539892435074,-0.02038329280912876,0.9214939475059509,-0.11068574339151382,9.669734954833984
8.120000000000001,0.10797169804573059,0.019104255363345146,-0.032317861914634705,1.0331982374191284,0.34690338373184204,9.566739082336426
8.14,0.06980127096176147,0.058154601603746414,-0.056729692965745926,1.0065279006958008,0.9019227027893066,9.031167030334473
8.16,0.01942509040236473,0.12615512311458588,-0.06157342344522476,0.8229891061782837,1.0799460411071777,8.421415328979492
8.18,-0.043046560138463974,0.16375534236431122,-0.05723880976438522,0.6197277307510376,0.9909895062446594,8.122892379760742
8.2,-0.12286774069070816,0.2499912679195404,-0.06880932301282883,0.42659443616867065,1.0081090927124023,8.408700942993164
8.22,-0.1470700055360794,0.3660099506378174,-0.07891622185707092,0.3407655358314514,1.2687621116638184,9.142732620239258
8.24,-0.1704178899526596,0.438340425491333,-0.09424220770597458,0.6185358166694641,1.3717257976531982,10.211885452270508
8.26,-0.149954691529274,0.3578266203403473,-0.08740119636058807,0.954960286617279,1.1147797107696533,12.026216506958008
8.28,-0.15125200152397156,0.29575029015541077,-0.07345232367515564,1.1924655437469482,0.7417612075805664,12.369307518005371
8.3,-0.144358828663826,0.22953981161117554,-0.0483722910284996,0.9459479451179504,0.25728118419647217,10.991122245788574
8.32,-0.1493816375732422,0.2216891497373581,-0.021632257848978043,0.4731822609901428,-0.0027321833185851574,9.432784080505371
8.34,-0.10941952466964722,0.1545785665512085,-0.01875387318432331,-0.04622131213545799,-0.07887563109397888,9.213500022888184
8.36,-0.12895001471042633,0.06312280893325806,-0.028800664469599724,-0.6876780390739441,0.22123591601848602,9.951635360717773
8.38,-0.11037731915712357,0.02999584749341011,-0.0024133636616170406,-1.9183543920516968,0.5286915898323059,10.760538101196289
8.4,-0.05309398099780083,0.025391269475221634,0.028599964454770088,-1.8863897323608398,0.43324515223503113,10.908230781555176
8.42,0.0019658973906189203,0.01565360836684704,0.04410707950592041,-1.6039084196090698,0.0923081710934639,10.131714820861816
8.44,0.013942115008831024,0.021806074306368828,0.059712477028369904,-1.208613395690918,-0.1737138032913208,9.417388916015625
8.46,0.04578828811645508,0.0029180783312767744,0.09147001057863235,-0.3721729516983032,-0.30113422870635986,9.370715141296387
8.48,0.05961181968450546,-0.019478997215628624,0.06003580987453461,0.3472921550273895,-0.1103789433836937,9.180909156799316
8.5,0.06207242235541344,-0.024486271664500237,0.02306336909532547,0.5626980662345886,0.08633393794298172,9.681992530822754
8.52,0.11283395439386368,-0.016697145998477936,-0.015300151892006397,0.5276842713356018,0.306246280670166,9.922476768493652
8.540000000000001,0.07633758336305618,-0.00795201025903225,-0.044098369777202606,0.32017698884010315,0.4699068069458008,10.071124076843262
8.56,0.07132688164710999,0.013353482820093632,-0.06618407368659973,0.17495346069335938,0.48921680450439453,9.90642261505127
8.58,0.030290482565760612,0.02266993559896946,-0.06198522448539734,0.28566989302635193,0.3834206461906433,9.715160369873047
8.6,0.06409307569265366,0.04196980595588684,-0.03626970574259758,0.44011613726615906,0.3043367862701416,9.601614952087402
8.620000000000001,0.07763972878456116,0.06270761042833328,-0.003922976087778807,0.39724433422088623,0.358119398355484,9.731364250183105
8.64,0.05673367902636528,0.06123290956020355,0.029074611142277718,0.4189121127128601,0.4092708230018616,10.169293403625488
8.66,0.0869186595082283,0.036892663687467575,0.05038152635097504,0.24214710295200348,0.49954861402511597,10.279553413391113
8.68,0.06945011764764786,0.017397522926330566,0.04171909764409065,0.04486769810318947,0.5831412076950073,9.76732063293457
8.700000000000001,0.051588159054517746,0.015210086479783058,0.01516646146774292,-0.23003248870372772,0.48776721954345703,9.618529319763184
8.72,0.043039318174123764,-0.005965317599475384,-0.008084378205239773,-0.3649614453315735,0.42430615425109863,9.758048057556152
8.74,0.02483608014881611,-0.02377544902265072,-0.03244145214557648,-0.5144907236099243,0.41710156202316284,9.692484855651855
8.76,-0.014712339267134666,-0.03723582252860069,-0.027887623757123947,-0.5293166041374207,0.5034896731376648,9.72866439819336
8.78,0.010964012704789639,-0.05205320566892624,-0.030730534344911575,-0.718514621257782,0.5784304738044739,9.830316543579102
8.8,-0.011610719375312328,-0.05957714468240738,-0.006797590758651495,-0.4894251525402069,0.5880035758018494,9.92199993133545
8.82,-0.021893443539738655,-0.07174675911664963,0.010081633925437927,-0.3865864872932434,0.5965259671211243,9.93808650970459
8.84,0.014911199919879436,-0.07416604459285736,0.019296588376164436,-0.1970282346010208,0.5258216261863708,9.949014663696289
8.86,0.017938904464244843,-0.0871216282248497,0.007560073863714933,-0.05190693587064743,0.48581254482269287,9.76540470123291
8.88,0.02376798912882805,-0.08924484997987747,0.016825594007968903,0.16910132765769958,0.45881187915802,9.435083389282227
8.9,0.04207000881433487,-0.08341002464294434,0.032085221260786057,0.3009631037712097,0.26153799891471863,9.213043212890625
8.92,0.0226226095110178,-0.04022049903869629,0.017851797863841057,0.26389777660369873,0.03898162394762039,9.35666561126709
8.94,0.000382552039809525,0.037153881043195724,-0.007912741042673588,-0.21649615466594696,-0.09743613749742508,9.866899490356445
8.96,0.02130901999771595,0.09474396705627441,-0.03707827255129814,-0.6748492121696472,0.18821124732494354,10.271702766418457
8.98,-0.04198674112558365,0.08880062401294708,-0.058647725731134415,-0.5551640391349792,0.694489598274231,10.534295082092285
9.0,-0.045006997883319855,0.11189796775579453,-0.03097127377986908,-0.14070160686969757,0.8507702350616455,10.768243789672852
9.02,0.010002108290791512,0.12488134950399399,0.005123768467456102,0.5748199820518494,0.9321146011352539,10.801469802856445
9.040000000000001,0.05375541001558304,0.12183544784784317,0.041399821639060974,1.2266860008239746,0.911760151386261,10.177523612976074
9.06,-0.03674748167395592,0.03715043142437935,0.061087824404239655,1.5611563920974731,0.5939339399337769,9.155735969543457
9.08,0.0061553725972771645,-0.0526365227997303,0.03810885548591614,1.142439842224121,0.42454707622528076,8.175786972045898
9.1,-0.07149561494588852,-0.08486142754554749,0.005514753051102161,0.4949922263622284,0.5642974972724915,7.847205638885498
9.120000000000001,-0.11794156581163406,-0.09377840161323547,-0.02278023026883602,-0.13341960310935974,0.8486148118972778,8.236321449279785
9.14,-0.18398281931877136,-0.11119543015956879,-0.042781587690114975,-0.16096925735473633,1.0022236108779907,8.786921501159668
9.16,-0.1877603828907013,-0.1743268221616745,-0.012916505336761475,0.3169517517089844,0.9781440496444702,8.934969902038574
9.18,-0.20603197813034058,-0.18952365219593048,0.00038725099875591695,0.05445362254977226,0.65277099609375,8.696757316589355
9.200000000000001,-0.20610830187797546,-0.16549082100391388,0.03240340203046799,-0.3672552704811096,0.244588702917099,8.913830757141113
9.22,-0.1356620043516159,-0.22294582426548004,0.07167796790599823,-0.40529865026474,0.2610202431678772,9.903529167175293
9.24,-0.10113721340894699,-0.2437589466571808,0.11414293199777603,-0.49885430932044983,0.133043572306633,11.699302673339844
9.26,0.004547582007944584,-0.13597966730594635,0.1126411184668541,-0.9689924120903015,-0.49816611409187317,12.40435791015625
9.28,0.10899314284324646,-0.01867113821208477,0.08165781199932098,-1.4152902364730835,-0.9801234006881714,10.818381309509277
9.3,0.09710909426212311,-0.019649755209684372,0.06288079172372818,-1.233154296875,-0.9848732352256775,9.689416885375977
9.32,0.08353957533836365,-0.04913821443915367,-0.005541757680475712,-0.11811179667711258,-0.6383988261222839,9.317766189575195
9.34,0.07980041205883026,0.014923891983926296,-0.06298690289258957,0.30039671063423157,-0.08015288412570953,9.596810340881348
9.36,0.10302802920341492,0.05609831586480141,-0.09598018229007721,0.7258533239364624,0.35726630687713623,9.997074127197266
9.38,0.11947217583656311,0.036611974239349365,-0.0637192502617836,1.071340560913086,0.5656520128250122,10.2325439453125
9.4,0.0854043960571289,0.0017187056364491582,-0.03179025650024414,1.064107060432434,0.598384439945221,10.191110610961914
9.42,0.07069826871156693,-0.021568775177001953,-0.00843622162938118,0.8713411092758179,0.5909124612808228,9.915129661560059
9.44,0.037079859524965286,0.019372519105672836,-0.0041833496652543545,0.3663928806781769,0.6161888837814331,9.74240779876709
9.46,0.0013865819200873375,0.039281927049160004,0.01660732738673687,0.3153868615627289,0.7831878662109375,9.681971549987793
9.48,0.04424373805522919,0.0231292974203825,0.03989719599485397,0.6592956781387329,0.9730775952339172,9.639355659484863
9.5,0.05132472515106201,0.007840064354240894,0.04579228535294533,0.8209917545318604,0.9832329154014587,9.746964454650879
9.52,0.017723189666867256,0.012294607236981392,0.059633079916238785,0.8701357841491699,0.7017001509666443,9.805633544921875
9.540000000000001,0.04647256061434746,0.03452971205115318,0.07909451425075531,0.6107854247093201,0.33173343539237976,9.595654487609863
9.56,0.11019597202539444,0.052043646574020386,0.10397077351808548,0.19821254909038544,0.07351779192686081,9.220922470092773
9.58,0.01200803741812706,0.11401563137769699,0.09753122180700302,-0.23708516359329224,-0.08967529237270355,9.307570457458496
9.6,0.04422420263290405,0.12715326249599457,0.048335328698158264,-0.33278390765190125,0.17604784667491913,9.8875093460083
9.620000000000001,0.03316454961895943,0.12289015203714371,0.008960645645856857,-0.24384677410125732,0.367781400680542,10.473285675048828
9.64,0.06708183139562607,0.06997066736221313,-0.022460812702775,0.06123131141066551,0.35707083344459534,10.469141006469727
9.66,0.05204933136701584,0.06976219266653061,-0.011436925269663334,-0.11493875831365585,0.3448311388492584,10.484703063964844
9.68,0.05562528222799301,0.06963344663381577,-0.004926714114844799,-0.2624063193798065,0.47307074069976807,10.755697250366211
9.700000000000001,0.09870985895395279,0.0528879277408123,0.029813546687364578,-0.3983202874660492,0.5823923945426941,10.078524589538574
9.72,0.086042620241642,-0.013882791623473167,0.0595184750854969,-0.30547770857810974,0.4280328154563904,9.566479682922363
9.74,0.05360123887658119,-0.05088052153587341,0.05588240176439285,-0.4178451895713806,0.3350173532962799,9.509529113769531
9.76,0.0602082721889019,-0.08795863389968872,0.030344964936375618,-0.21440783143043518,0.4139503538608551,9.491819381713867
9.78,0.04450212046504021,-0.061703864485025406,0.014489710330963135,-0.173708975315094,0.619709849357605,10.078315734863281
9.8,0.005135819781571627,-0.044213250279426575,0.0031344222370535135,-0.11047474294900894,0.8692426681518555,10.407842636108398
9.82,-0.009210272692143917,-0.03909960389137268,-0.032901763916015625,-0.0009109317325055599,0.8220478892326355,9.556610107421875
9.84,-0.04630305990576744,-0.04431988298892975,-0.05418698862195015,0.12229232490062714,0.7298275232315063,8.646803855895996
9.86,-0.0475090928375721,-0.03123062290251255,-0.06512603163719177,0.27727505564689636,1.054800033569336,9.249536514282227
9.88,-0.061396170407533646,-0.005927151069045067,-0.040777575224637985,0.4339486360549927,1.1171032190322876,9.993582725524902
9.9,-0.025917204096913338,-0.00765838660299778,-0.0068102022632956505,0.6584456562995911,0.7596926093101501,10.242198944091797
9.92,-0.009223534725606441,0.002508009783923626,0.024242999032139778,0.7166265249252319,0.2392951101064682,9.91217041015625
9.94,0.022417020052671432,0.04517606645822525,0.03690098598599434,0.7448464632034302,-0.15283821523189545,9.158245086669922
9.96,0.006656788755208254,0.07933500409126282,0.06594788283109665,0.7303963303565979,-0.12207252532243729,8.722433090209961
9.98,0.08426914364099503,0.08477042615413666,0.07675027847290039,0.7636854648590088,0.03656875342130661,8.690770149230957
10.0,0.18425379693508148,0.08231250941753387,0.08590405434370041,0.5125085115432739,0.05004700645804405,8.984347343444824
10.02,0.20923267304897308,0.11728578060865402,0.07728014886379242,0.048430509865283966,-0.079307921230793,9.993596076965332
10.040000000000001,0.2222779095172882,0.14356322586536407,0.04265020787715912,-0.19947609305381775,-0.03305325657129288,11.07135009765625
10.06,0.1409139484167099,0.09823255240917206,-0.014772331342101097,-0.6164569854736328,0.2302430272102356,11.73779296875
10.08,0.11685502529144287,0.08489242941141129,-0.07078827917575836,-0.566941499710083,0.787102222442627,11.154848098754883
10.1,0.05704420432448387,0.13998036086559296,-0.0996524840593338,-0.5840427875518799,1.5576090812683105,10.001811027526855
10.120000000000001,-0.0200244951993227,0.140356183052063,-0.08785634487867355,-0.18283849954605103,1.943749189376831,9.102599143981934
10.14,-0.07426907867193222,0.06179454177618027,-0.0656203180551529,-0.07697900384664536,1.6601343154907227,8.481378555297852
10.16,-0.09053082764148712,-0.0068031796254217625,-0.04874373972415924,0.013195275329053402,1.40251624584198,8.778435707092285
10.18,-0.1699254810810089,-0.015650879591703415,-0.0415569432079792,-0.01574600674211979,1.422047734260559,9.136707305908203
10.200000000000001,-0.19005702435970306,-0.006609227508306503,-0.009212681092321873,0.17051494121551514,1.2471346855163574,9.008180618286133
10.22,-0.24030637741088867,0.0006742253317497671,0.007520898710936308,0.23997873067855835,0.8766094446182251,9.129537582397461
10.24,-0.2541734278202057,-0.03284250199794769,0.0067523508332669735,0.11455987393856049,0.710824728012085,9.290701866149902
10.26,-0.22659507393836975,-0.032156072556972504,0.01633974350988865,-0.1341300755739212,0.49004778265953064,9.567423820495605
10.28,-0.17416580021381378,-0.034116826951503754,0.04654825106263161,-0.6859282851219177,0.2631264626979828,10.256760597229004
10.3,-0.03654465451836586,0.0315200611948967,0.09092718362808228,-0.5235612988471985,-0.04387164115905762,10.602054595947266
10.32,0.011986641213297844,0.0489003024995327,0.10277782380580902,-0.12166789174079895,-0.5147575736045837,10.156731605529785
10.34,0.07733465731143951,0.02726130560040474,0.06903403252363205,-0.010278813540935516,-0.8825002312660217,9.634278297424316
10.36,0.06541486084461212,0.022596994414925575,0.009378831833600998,-0.08163944631814957,-0.8537206053733826,9.625536918640137
10.38,0.04691091179847717,0.018249141052365303,-0.02109522931277752,-0.05783776193857193,-0.33395394682884216,10.247870445251465
10.4,0.08473127335309982,0.015598392114043236,-0.008574401028454304,-0.048387765884399414,0.3654648959636688,10.400856971740723
10.42,0.11794906109571457,-0.032929014414548874,0.010600332170724869,0.007826007902622223,0.8328575491905212,9.848504066467285
10.44,0.12920379638671875,-0.047716591507196426,0.023192066699266434,-0.11485351622104645,0.7515553832054138,8.875021934509277
10.46,0.11953168362379074,-0.03940664976835251,0.03693749010562897,-0.11905065178871155,0.5201521515846252,8.798388481140137
10.48,0.14626824855804443,-0.02211974374949932,0.02949650213122368,-0.20164884626865387,0.44142597913742065,9.649189949035645
10.5,0.15126162767410278,-0.04120563715696335,0.03270874544978142,-0.3981456160545349,0.5554691553115845,10.744952201843262
10.52,0.15405993163585663,-0.037609413266181946,0.028577128425240517,-0.49728086590766907,0.5982530117034912,11.31294059753418
10.540000000000001,0.11608804017305374,-0.033366382122039795,0.004333628341555595,-0.4315897822380066,0.5808077454566956,10.678398132324219
10.56,0.11845956742763519,-0.01559115294367075,-0.04580099135637283,-0.24515283107757568,0.6019744277000427,9.82496166229248
10.58,0.06774799525737762,0.012091515585780144,-0.07250439375638962,-0.13084834814071655,0.8217599391937256,9.644634246826172
10.6,0.0262441523373127,0.028587015345692635,-0.08935140073299408,0.009162506088614464,1.092187523841858,9.535025596618652
10.620000000000001,0.029540404677391052,0.023741094395518303,-0.07372837513685226,0.16557300090789795,1.181649923324585,9.163534164428711
10.64,0.013384150341153145,0.0067359632812440395,-0.060580238699913025,0.20240387320518494,1.1652424335479736,9.331109046936035
10.66,-0.03824719414114952,-0.009460517205297947,-0.03665637969970703,-0.020111635327339172,0.9246827363967896,10.068960189819336
10.68,-0.09270098805427551,0.03407150134444237,-0.04890446364879608,-0.4117923378944397,0.7089187502861023,10.842530250549316
10.700000000000001,-0.036678120493888855,0.05737297609448433,-0.07046744972467422,-0.271208792924881,0.8328244090080261,10.773905754089355
10.72,-0.05755643919110298,0.0347757488489151,-0.07584170252084732,-0.01945796236395836,1.0991002321243286,9.971358299255371
10.74,-0.07250478118658066,-0.00743387034162879,-0.06556147336959839,0.1984528750181198,1.091661810874939,9.336824417114258
10.76,-0.07698550820350647,0.004045443143695593,-0.07841096818447113,-0.15891532599925995,0.8077758550643921,9.696015357971191
10.78,-0.07223454862833023,0.0035071903839707375,-0.09271097183227539,-0.10867288708686829,0.5898448824882507,10.121005058288574
10.8,-0.046412937343120575,0.01445141714066267,-0.09260992705821991,-0.42725828289985657,0.6117625832557678,10.566927909851074
10.82,-0.05759014934301376,-0.0014193945098668337,-0.08681783825159073,-0.21809716522693634,0.5992510318756104,9.728532791137695
10.84,-0.029158400371670723,-0.01771692931652069,-0.06606332212686539,0.1481160670518875,0.5662978887557983,8.643081665039062
10.86,0.0002375602925894782,-0.02732722833752632,-0.05917159467935562,0.31751230359077454,0.43513062596321106,8.21164608001709
10.88,-0.0042039817199110985,-0.02591257356107235,-0.040335118770599365,0.4207543134689331,0.272184282541275,8.647398948669434
10.9,0.04464473947882652,-0.018573077395558357,-0.047929443418979645,0.3736756145954132,-0.07880555093288422,9.071423530578613
10.92,0.01062795426696539,-0.007154330611228943,-0.04537584260106087,0.011900614947080612,-0.00873681902885437,10.322175025939941
10.94,-0.02735968679189682,0.021367276087403297,-0.04460461065173149,-0.32331109046936035,0.3504312336444855,11.036749839782715
10.96,-0.024225106462836266,0.023003514856100082,-0.029645444825291634,-0.2986849546432495,0.7183544039726257,10.291830062866211
10.98,-0.03939361870288849,0.04031313955783844,-0.007645817007869482,-0.18510794639587402,0.9190691709518433,9.365309715270996
11.0,-0.03210972249507904,0.0042632329277694225,0.01071176491677761,-0.05330617353320122,1.1926875114440918,9.475069999694824
11.02,-0.0746728926897049,-0.004841782618314028,0.0504857636988163,-0.010856598615646362,1.0541951656341553,9.629091262817383
11.040000000000001,-0.013426125049591064,-0.046880852431058884,0.07427366077899933,-0.028384802863001823,0.7926232218742371,9.554064750671387
11.06,0.0076502724550664425,-0.075144924223423,0.0811968594789505,-0.10579317808151245,0.7178828120231628,9.423571586608887
11.08,0.0030777626670897007,-0.08508460968732834,0.08858111500740051,-0.11577347666025162,0.6811021566390991,9.748591423034668
11.1,0.004075414501130581,-0.08647982031106949,0.08687975257635117,-0.15027478337287903,0.5669233798980713,10.085887908935547
11.120000000000001,0.008682790212333202,-0.03817220777273178,0.072408027946949,-0.4112744629383087,0.3031851351261139,9.74978256225586
11.14,-0.012386626563966274,0.060944799333810806,0.04044006019830704,-0.4227187931537628,-0.08764424175024033,8.547698974609375
11.16,0.011797088198363781,0.13372281193733215,0.006059322971850634,-0.40646469593048096,-0.12413250654935837,9.540169715881348
11.18,0.07148188352584839,0.08799547702074051,-0.01382534485310316,-0.3674262762069702,0.22969390451908112,11.213655471801758
11.200000000000001,0.07610727846622467,0.0483442060649395,-0.031074531376361847,0.1465144157409668,0.2504390478134155,10.897598266601562
11.22,0.07821285724639893,0.04214632511138916,-0.03189439699053764,0.5117585062980652,-0.00802477914839983,9.464170455932617
11.24,0.10574332624673843,0.02844253182411194,-0.013194884173572063,0.5516021251678467,-0.3630961775779724,9.222647666931152
11.26,0.11682184785604477,0.001765755470842123,-0.016093149781227112,0.38142073154449463,-0.2694040536880493,10.082651138305664
11.28,0.042195484042167664,-0.07777855545282364,-0.04295907914638519,0.0747087374329567,0.21065597236156464,10.529571533203125
11.3,0.000956272822804749,-0.12328028678894043,-0.06550214439630508,-0.38286519050598145,0.85580974817276,10.225597381591797
11.32,0.035936787724494934,-0.10762029141187668,-0.07501238584518433,-0.641601026058197,1.19658625125885,9.181157112121582
11.34,0.027942942455410957,-0.07279445230960846,-0.06987570226192474,-0.6266211867332458,1.6756157875061035,9.115714073181152
11.36,0.025957686826586723,-0.08733484148979187,-0.05091601237654686,-0.36386436223983765,1.8453590869903564,9.569491386413574
11.38,-0.017817087471485138,-0.10508136451244354,-0.0042548407800495625,-0.2342217117547989,1.433120608329773,9.980013847351074
11.4,-0.0701104924082756,-0.10231433808803558,-0.006043595727533102,-0.11939650028944016,0.9104410409927368,9.763379096984863
11.42,-0.12730662524700165,-0.10044269263744354,0.022240471094846725,0.02027258649468422,0.5742663145065308,9.346473693847656
11.44,-0.08068004250526428,-0.09149552136659622,0.017550718039274216,-0.060642436146736145,0.5528486967086792,9.36255168914795
11.46,-0.14361022412776947,-0.0776488408446312,0.015304440632462502,-0.07119056582450867,0.6744679808616638,9.830246925354004
11.48,-0.05670013651251793,-0.09150460362434387,-0.0025060304906219244,-0.07739778608083725,0.7160981297492981,10.542559623718262
11.5,-0.05233542621135712,-0.10431315749883652,0.01261975709348917,0.10146237909793854,0.3900263011455536,10.320627212524414
11.52,0.006544420961290598,-0.09503412246704102,0.007617342751473188,0.12296384572982788,-0.03204780071973801,9.96430492401123
11.540000000000001,0.07057712227106094,-0.0906444564461708,0.01129617914557457,0.15291063487529755,-0.17721562087535858,9.853697776794434
11.56,0.04595860093832016,-0.09572269767522812,-0.006197761744260788,0.17877085506916046,-0.2267610728740692,10.061477661132812
11.58,0.06599380820989609,-0.11325407028198242,0.0016763866879045963,0.2083241492509842,-0.008187958970665932,9.910971641540527
11.6,0.0876895934343338,-0.1289435178041458,0.006146482191979885,0.1893843412399292,0.21340076625347137,9.78121280670166
11.620000000000001,0.050946008414030075,-0.12800072133541107,0.005412520840764046,0.05768536776304245,0.4317166209220886,9.785076141357422
11.64,0.05265747755765915,-0.11445265263319016,-0.00850830040872097,-0.035156361758708954,0.7214004397392273,9.619877815246582
11.66,0.006813826970756054,-0.10702205449342728,-0.008791615255177021,0.023000098764896393,0.9784029722213745,9.715360641479492
11.68,0.04383903741836548,-0.0694938376545906,-0.011991558596491814,0.255168616771698,1.0777727365493774,9.884976387023926
11.700000000000001,0.04309052601456642,-0.04013565555214882,0.001441913889721036,0.5380001068115234,0.8606738448143005,9.81320571899414
11.72,0.01718452200293541,-0.026384426280856133,-0.010636793449521065,0.6158291101455688,0.5743940472602844,9.81014633178711
11.74,0.00042091115028597414,0.0037046424113214016,-0.01776266098022461,0.5369634628295898,0.5377723574638367,9.781757354736328
11.76,-0.0368499793112278,0.03351505100727081,-0.014815743081271648,0.5223826766014099,0.8209711909294128,9.848421096801758
11.78,-0.042529936879873276,0.040597375482320786,-0.004086458124220371,0.6591532230377197,1.0272908210754395,9.774843215942383
11.8,-0.05219913274049759,0.03677930310368538,0.008444258943200111,0.7188212871551514,1.0474944114685059,9.545025825500488
11.82,-0.07596884667873383,0.043880198150873184,0.02828429825603962,0.6214874386787415,0.8541494607925415,9.675806045532227
11.84,-0.08011171221733093,0.029462480917572975,0.019735846668481827,0.4602114260196686,0.6553356051445007,10.112857818603516
11.86,-0.053949546068906784,-0.003947956021875143,0.01563328504562378,0.2270280420780182,0.5405312180519104,10.243521690368652
11.88,-0.034324757754802704,0.009448296390473843,-0.0058419471606612206,-0.0005608897190541029,0.456397145986557,9.889745712280273
11.9,-0.017162228003144264,0.011625973507761955,-0.018701612949371338,-0.10919152945280075,0.4775198698043823,9.42542839050293
11.92,-0.011001886799931526,-0.025406373664736748,-0.02636837214231491,-0.0895075723528862,0.39385083317756653,9.345495223999023
11.94,-0.021556390449404716,-0.08606825023889542,-0.04278407245874405,-0.16327932476997375,0.37997469305992126,9.302593231201172
11.96,-0.008646726608276367,-0.10569442063570023,-0.05917709320783615,-0.07921628654003143,0.46531787514686584,9.631636619567871
11.98,-0.011752591468393803,-0.09443938732147217,-0.04586585611104965,0.02045353688299656,0.5301339626312256,10.229787826538086
12.0,-0.03928035497665405,-0.08641847223043442,-0.04934387654066086,-0.19953061640262604,0.6873265504837036,10.901124000549316
12.02,-0.06485974043607712,-0.04015614464879036,-0.05318509042263031,-0.15827949345111847,0.945173978805542,10.521258354187012
12.040000000000001,-0.04410009831190109,-0.006133234594017267,-0.05664408951997757,0.17133863270282745,0.9885205030441284,9.571064949035645
12.06,-0.09927907586097717,-0.011002338491380215,-0.05292120203375816,0.6399410963058472,0.7085413932800293,8.820560455322266
12.08,-0.10516619682312012,-0.01722809113562107,-0.04536263644695282,0.9163161516189575,0.4805564880371094,8.548836708068848
12.1,-0.10980316251516342,0.002324072876945138,-0.03753390163183212,1.0429388284683228,0.5293546319007874,9.112356185913086
12.120000000000001,-0.10959403961896896,0.06419819593429565,0.011909750290215015,0.7645818591117859,0.8352006077766418,10.160101890563965
12.14,-0.04069708660244942,0.12785792350769043,0.057293184101581573,0.7272270321846008,0.7450940608978271,10.035284996032715
12.16,-0.01074394304305315,0.11798863112926483,0.05921310558915138,0.7946992516517639,0.19847746193408966,9.34058952331543
12.18,0.03132086247205734,0.05616900324821472,0.0307683814316988,0.7149204015731812,0.12621285021305084,9.374238014221191
12.200000000000001,0.06786634773015976,-0.005278400145471096,0.011032148264348507,0.7376987934112549,0.11109738051891327,9.866974830627441
12.22,0.09405414760112762,-0.02518310956656933,0.003923346754163504,0.5578364729881287,-0.07538814842700958,10.061058044433594
12.24,0.1571463644504547,-0.02189534716308117,-0.0026438445784151554,0.18207357823848724,-0.34709450602531433,9.969223022460938
12.26,0.1959051787853241,-0.05573761463165283,0.03040740080177784,-0.2942272126674652,-0.5859212279319763,10.424485206604004
12.280000000000001,0.18831640481948853,-0.1135735884308815,0.06831429898738861,-0.8175414204597473,-0.41341865062713623,10.236372947692871
12.3,0.20473641157150269,-0.14171035587787628,0.11449380964040756,-0.724319338798523,-0.09547319263219833,9.922091484069824
12.32,0.17525985836982727,-0.1553749293088913,0.14387091994285583,-0.3801743686199188,0.05935898423194885,9.636144638061523
12.34,0.17015424370765686,-0.1492134928703308,0.1229444071650505,-0.06706668436527252,0.3537522852420807,10.18946647644043
12.36,0.10669172555208206,-0.10075181722640991,0.05401398614048958,0.05588921904563904,0.9110512137413025,10.791821479797363
12.38,0.11961264163255692,-0.050117023289203644,-0.04191681742668152,0.2468993216753006,1.5348042249679565,10.503396034240723
12.4,0.10447579622268677,-0.06243867054581642,-0.11614550650119781,0.7861452102661133,1.7083704471588135,9.269599914550781
12.42,0.0462176613509655,-0.05895233526825905,-0.1461278796195984,1.0668859481811523,1.4063599109649658,8.575000762939453
12.44,-0.02016141638159752,-0.030350038781762123,-0.14252296090126038,1.284908652305603,1.151382565498352,8.768641471862793
12.46,-0.06972642987966537,0.0019606011919677258,-0.09321093559265137,1.335537075996399,0.9584097862243652,9.667520523071289
12.48,-0.12355925887823105,-0.004828296601772308,-0.027350550517439842,1.2405951023101807,1.126192331314087,10.104555130004883
12.5,-0.1500074714422226,-0.007180216256529093,0.030703093856573105,0.9454940557479858,1.3920047283172607,9.481481552124023
12.52,-0.14279475808143616,0.009762939997017384,0.04240313917398453,0.4385084807872772,1.4136565923690796,9.127991676330566
12.540000000000001,-0.13678814470767975,0.06396268308162689,0.03442593663930893,0.040101613849401474,1.2258886098861694,9.102100372314453
12.56,-0.14621350169181824,0.12546755373477936,0.023201067000627518,0.16550830006599426,0.6033408641815186,9.604646682739258
12.58,-0.08074591308832169,0.12208542972803116,0.00515906885266304,0.42427167296409607,0.22410498559474945,10.243019104003906
12.6,-0.10184787958860397,0.11215832829475403,-0.001793809817172587,0.6192404627799988,-0.17765052616596222,10.553507804870605
12.620000000000001,-0.05724157765507698,0.10582907497882843,0.0019481214694678783,0.7866777181625366,-0.3610176742076874,10.003546714782715
12.64,-0.03460761159658432,0.11204864829778671,0.004280265420675278,0.7843050360679626,-0.22639144957065582,9.343337059020996
12.66,-0.027609990909695625,0.10281934589147568,0.006834014318883419,0.5462534427642822,0.0698014348745346,9.432937622070312
12.68,-0.010748414322733879,0.09300104528665543,-0.0004234599182382226,0.28041818737983704,0.4092181921005249,10.007245063781738
12.700000000000001,-0.011430901475250721,0.07461227476596832,-0.04742494970560074,0.16268795728683472,0.6830422878265381,10.08076286315918
12.72,0.007097428664565086,0.06055627390742302,-0.05169907212257385,0.10158560425043106,0.8259003758430481,9.950040817260742
12.74,-0.02180027775466442,0.06347046047449112,-0.04719838500022888,0.04110109806060791,0.8185389637947083,9.998068809509277
12.76,-0.04048570618033409,0.0571410208940506,-0.02869989164173603,0.24722743034362793,0.6630976796150208,9.956028938293457
12.780000000000001,-0.048067569732666016,0.048352185636758804,-0.005907983984798193,0.3402408957481384,0.5064195990562439,9.416576385498047
12.8,-0.0390770323574543,0.05159235745668411,-0.004923275206238031,0.08122314512729645,0.4950997829437256,9.474308967590332
12.82,-0.06725644320249557,0.07744912058115005,0.009715249761939049,-0.16062214970588684,0.5154569745063782,9.885246276855469
12.84,-0.040630023926496506,0.09730637073516846,0.019446467980742455,-0.27993255853652954,0.5776507258415222,10.138055801391602
12.86,-0.06838301569223404,0.1099075973033905,0.011954149231314659,-0.07441529631614685,0.4107511639595032,9.939419746398926
12.88,-0.06742412596940994,0.1385049819946289,0.026460083201527596,0.290544331073761,0.13059157133102417,9.500774383544922
12.9,-0.05469231680035591,0.15797968208789825,0.04018703103065491,0.5689281821250916,0.11220743507146835,9.127857208251953
12.92,-0.006183117162436247,0.15232494473457336,0.06803549081087112,0.7175887227058411,0.24548505246639252,9.144203186035156
12.94,-0.006651692558079958,0.14760544896125793,0.06391918659210205,0.623358964920044,0.2981102466583252,9.696240425109863
12.96,-0.007237249054014683,0.14059637486934662,0.034415364265441895,0.30800801515579224,0.32958662509918213,10.493305206298828
12.98,0.00014862912939861417,0.12753593921661377,-0.015237824060022831,-0.07717008143663406,0.37057387828826904,10.244426727294922
13.0,-0.05379463732242584,0.08393057435750961,-0.052063047885894775,-0.22801090776920319,0.4851633608341217,9.578336715698242
13.02,-0.08462148159742355,0.09501653909683228,-0.054469384253025055,-0.38415369391441345,0.5722617506980896,9.286612510681152
13.040000000000001,-0.06487007439136505,0.07728347927331924,-0.04770103096961975,-0.3745042383670807,0.6595169305801392,9.48768138885498
13.06,-0.06690791249275208,0.051819756627082825,-0.022209061309695244,-0.4809357821941376,0.8011294603347778,10.35063362121582
13.08,-0.05825207382440567,0.006678889971226454,0.00536912027746439,-0.530900239944458,0.7058861255645752,10.327166557312012
13.1,-0.019282590597867966,0.014400637708604336,0.024187156930565834,-0.559904932975769,0.3973069190979004,9.769865036010742
13.120000000000001,-0.026391535997390747,0.012430394999682903,0.03325161337852478,-0.4484478235244751,0.12733346223831177,9.292502403259277
13.14,-0.002081315265968442,-0.005966458003968,0.0409839004278183,-0.3165269196033478,0.09613977372646332,9.36288833618164
13.16,-0.024054862558841705,-0.03485572710633278,0.04596554487943649,-0.25201109051704407,-0.06793510913848877,9.742287635803223
13.18,0.03502407297492027,-0.04109465330839157,0.03479405492544174,-0.3217834532260895,0.039836958050727844,10.29554271697998
13.200000000000001,0.062178630381822586,-0.037810854613780975,0.03647702559828758,-0.4456331431865692,0.1023678109049797,10.661757469177246
13.22,0.06590958684682846,-0.05755959823727608,0.017918534576892853,-0.262177050113678,0.13406626880168915,10.285865783691406
13.24,0.07589466124773026,-0.08336754143238068,0.010983477346599102,-0.0992356687784195,0.22090698778629303,9.8828125
13.26,0.05517708510160446,-0.07556142657995224,0.010519641451537609,-0.34416601061820984,0.31122785806655884,10.104451179504395
13.280000000000001,0.08542583137750626,-0.057470038533210754,0.006908076349645853,-0.3184451162815094,0.39937150478363037,10.27396011352539
13.3,0.10673367232084274,-0.04618219658732414,0.0021236641332507133,-0.26376840472221375,0.42827507853507996,9.911443710327148
13.32,0.06771325320005417,-0.04010889679193497,0.001160855288617313,-0.06579785794019699,0.48360830545425415,9.584026336669922
13.34,0.046708233654499054,-0.03652981296181679,0.01549141388386488,0.016711195930838585,0.5118221640586853,9.31533145904541
13.36,0.03497275337576866,-0.010761264711618423,0.02322891168296337,0.20234209299087524,0.5955008864402771,9.331106185913086
13.38,0.09291929751634598,-0.0006268584984354675,0.03383485972881317,0.48211488127708435,0.6416786313056946,9.511945724487305
13.4,0.08903878182172775,0.004435766488313675,0.05266135558485985,0.6646760702133179,0.5789806246757507,9.592179298400879
13.42,0.10632146894931793,0.004827538039535284,0.04078901186585426,0.5418297648429871,0.38915786147117615,9.870390892028809
13.44,0.07495549321174622,-0.010154421441257,0.011134015396237373,0.35203590989112854,0.3247818648815155,10.461206436157227
13.46,0.05858887359499931,-0.005519626196473837,-0.017626620829105377,0.18302196264266968,0.27636611461639404,10.296622276306152
13.48,0.03488442301750183,-0.007231616880744696,-0.032180435955524445,0.12493708729743958,0.36429768800735474,9.439628601074219
13.5,-2.1217067114776e-05,0.0029839056078344584,-0.04517364129424095,-0.03595580533146858,0.4966026544570923,9.179832458496094
13.52,-0.031623341143131256,-0.027745524421334267,-0.04497125744819641,-0.11165973544120789,0.6322376132011414,9.524438858032227
13.540000000000001,0.02575371228158474,-0.041458334773778915,-0.029328465461730957,-0.08710438013076782,0.8572891354560852,9.940540313720703
13.56,0.0037954202853143215,-0.07803118973970413,-0.002639418002218008,-0.39997491240501404,0.8392632007598877,10.606759071350098
13.58,-0.0026339152827858925,-0.11800815910100937,0.017184080556035042,-0.5621524453163147,0.6494474411010742,10.153840065002441
13.6,-0.0297743771225214,-0.12748196721076965,0.006548682693392038,-0.592461347579956,0.3958907127380371,9.82511043548584
13.620000000000001,-0.012198916636407375,-0.1512332707643509,-0.00417617242783308,-0.5422984957695007,0.2913476228713989,9.824151992797852
13.64,-0.012959886342287064,-0.19165612757205963,-0.02915424108505249,-0.3979639708995819,0.22967316210269928,10.138479232788086
13.66,0.026328379288315773,-0.20305189490318298,-0.0339399129152298,-0.2206421196460724,0.15878303349018097,9.908869743347168
13.68,0.024616865441203117,-0.20387515425682068,-0.02230221964418888,0.21021796762943268,0.1427781879901886,9.43439769744873
13.700000000000001,0.07146678864955902,-0.2065952718257904,-0.020516758784651756,0.4832669198513031,0.035749875009059906,9.123188018798828
13.72,0.08450258523225784,-0.20914539694786072,-0.015057011507451534,0.7773759365081787,0.012808112427592278,9.301916122436523
13.74,0.06665346771478653,-0.17012596130371094,-0.0004419945180416107,0.9084426164627075,0.1605077087879181,9.468900680541992
13.76,0.07224145531654358,-0.1152305081486702,-0.009345363825559616,0.947098970413208,0.4524570107460022,9.516112327575684
13.780000000000001,0.07187217473983765,-0.06503808498382568,-0.010897326283156872,0.7741205096244812,0.7936002612113953,9.204632759094238
13.8,0.013127169571816921,-0.011268693953752518,-0.032128576189279556,0.6954445242881775,0.9921731352806091,9.12041187286377
13.82,-0.006445334758609533,0.033756837248802185,-0.04566174000501633,0.7650425434112549,0.9348404407501221,9.058835983276367
13.84,-0.026211591437458992,0.05008658766746521,-0.05998944118618965,1.0027949810028076,0.8448126912117004,9.700028419494629
13.86,-0.11121729761362076,0.059350062161684036,-0.05262969434261322,1.0757757425308228,0.9440056085586548,9.970102310180664
13.88,-0.14247576892375946,0.08558210730552673,-0.03006756491959095,0.9864188432693481,1.1957670450210571,9.617939949035645
13.9,-0.2062787264585495,0.07144272327423096,0.004529439844191074,0.8067246675491333,1.3816391229629517,8.878046035766602
13.92,-0.20826350152492523,0.03486703336238861,0.019731244072318077,0.34056416153907776,1.287424921989441,8.921974182128906
13.94,-0.20262204110622406,0.03852509334683418,0.02072509378194809,-0.10001812130212784,0.976798951625824,9.708008766174316
13.96,-0.1713864654302597,0.03372702747583389,0.010558887384831905,-0.33414506912231445,0.5920664668083191,10.498101234436035
13.98,-0.1465824693441391,-0.005645855329930782,0.010166117921471596,-0.33350870013237,0.22007326781749725,10.646306991577148
14.0,-0.1318328082561493,-0.021568017080426216,0.007049997337162495,-0.38916686177253723,-0.03839043900370598,10.399490356445312
14.02,-0.06376776099205017,-0.04703853279352188,0.008937950246036053,-0.0448172502219677,-0.22223488986492157,9.991134643554688
14.040000000000001,-0.005365043878555298,-0.06734556704759598,0.04383491724729538,0.14346832036972046,-0.3182220160961151,9.872642517089844
14.06,0.0009201288339681923,-0.0858706384897232,0.04325777292251587,0.1699908822774887,-0.42456960678100586,10.39241886138916
14.08,0.02809727191925049,-0.09364879876375198,0.036736294627189636,0.16225707530975342,-0.2814220190048218,10.561043739318848
14.1,-0.017992457374930382,-0.0983811542391777,0.04624338448047638,0.15287403762340546,-0.05523592606186867,10.63346004486084
14.120000000000001,-0.04099300876259804,-0.11164765059947968,0.031660046428442,0.18008309602737427,0.3597332537174225,10.166850090026855
14.14,-0.03919117897748947,-0.0998920127749443,0.02525405026972294,0.244440957903862,0.7605242729187012,9.757949829101562
14.16,-0.09482597559690475,-0.11540551483631134,0.011013000272214413,0.3915824890136719,0.9172919988632202,9.682755470275879
14.18,-0.09366410225629807,-0.13099665939807892,-0.005132223479449749,0.6082814931869507,0.9707030653953552,9.453428268432617
14.200000000000001,-0.1230926662683487,-0.11501622945070267,-0.007720065303146839,0.6366591453552246,0.8758154511451721,9.205865859985352
14.22,-0.031336721032857895,-0.09056252241134644,0.0016505969688296318,0.5122800469398499,0.6984718441963196,9.144797325134277
14.24,-0.03429076075553894,-0.08275250345468521,0.036590054631233215,0.5847532749176025,0.29979169368743896,9.473457336425781
14.26,0.007419231813400984,-0.0867123082280159,0.05171375721693039,0.6519684791564941,-0.04002592712640762,9.365731239318848
14.280000000000001,0.026335710659623146,-0.032096125185489655,0.06706271320581436,0.7176799178123474,-0.12241440266370773,9.45030689239502
14.3,0.05135299265384674,0.0074448720552027225,0.05645197257399559,0.6736970543861389,-0.21129590272903442,9.800528526306152
14.32,0.09193398058414459,0.06581718474626541,0.0704420953989029,0.6922577619552612,-0.5822615027427673,10.328567504882812
14.34,-0.0067085144110023975,0.13838912546634674,0.032505810260772705,0.6636013984680176,-0.8535972833633423,10.102804183959961
14.36,-0.029938427731394768,0.15816587209701538,-0.02280394174158573,0.9106372594833374,-0.4775894284248352,9.493051528930664
14.38,-0.023675447329878807,0.17820367217063904,-0.010001212358474731,1.2602298259735107,0.2852281332015991,9.009933471679688
14.4,-0.02589276246726513,0.20928284525871277,0.011484864167869091,1.4830280542373657,0.9883329272270203,8.700713157653809
14.42,0.0800691694021225,0.22984230518341064,0.056478749960660934,1.3317992687225342,0.961033821105957,8.94908332824707
14.44,0.11986614018678665,0.21800458431243896,0.09771459549665451,0.9197502136230469,0.5162286758422852,9.294500350952148
14.46,0.11600256711244583,0.20283392071723938,0.1175675094127655,0.40471553802490234,0.07135003060102463,9.829529762268066
14.48,0.1357397437095642,0.22976617515087128,0.1223549097776413,0.009097295813262463,-0.23384594917297363,10.065455436706543
14.5,0.08362848311662674,0.25942036509513855,0.07742597162723541,-0.34267178177833557,-0.2331613302230835,11.144739151000977
14.52,0.03742285817861557,0.18488629162311554,0.0394817590713501,-0.3707526922225952,0.20758339762687683,11.665263175964355
14.540000000000001,0.0346192829310894,0.10692870616912842,-0.005317925475537777,-0.517727792263031,0.6721988320350647,11.429987907409668
14.56,-0.024811740964651108,0.05431469902396202,-0.01899394765496254,-0.5910446643829346,0.8900244832038879,10.642576217651367
14.58,-0.008105368353426456,0.056846778839826584,-0.0034566442482173443,-0.5868189334869385,0.7525754570960999,9.87134838104248
14.6,-0.03730509802699089,-0.003986909054219723,0.015219139866530895,-0.5465790033340454,0.6299007534980774,9.43671703338623
14.620000000000001,-0.045633863657712936,-0.05317983776330948,0.038284339010715485,-0.62555330991745,0.4873662292957306,9.494599342346191
14.64,-0.016686057671904564,-0.028594370931386948,0.04111793264746666,-0.7696263790130615,0.21238964796066284,10.04771900177002
14.66,-0.04887839034199715,0.004368138965219259,0.0432143434882164,-0.3875005841255188,0.021943718194961548,10.496793746948242
14.68,-0.0010140992235392332,0.017943499609827995,0.03576384484767914,0.1976647675037384,0.002319824183359742,9.908116340637207
14.700000000000001,-0.04742042347788811,0.032416172325611115,0.037345245480537415,0.670437753200531,0.19671379029750824,8.891921997070312
14.72,-0.02264452911913395,0.07479056715965271,0.02604374848306179,0.8537052273750305,0.30931395292282104,8.343247413635254
14.74,-0.050679732114076614,0.09461905807256699,0.026117317378520966,0.9230075478553772,0.2853747010231018,8.378754615783691
14.76,-0.0665583461523056,0.09333806484937668,0.03833618760108948,0.9664791822433472,0.16713634133338928,9.032206535339355
14.780000000000001,-0.04372503235936165,0.06348894536495209,0.05192094296216965,0.7133959531784058,0.2667786180973053,9.96821403503418
14.8,-0.013157670386135578,0.023883666843175888,0.06113004311919212,0.31658226251602173,0.5074675679206848,10.713950157165527
14.82,-0.05579888075590134,0.025815747678279877,0.06282543390989304,-0.10529032349586487,0.4630502760410309,10.55665397644043
14.84,-0.0072481511160731316,0.02315519191324711,0.04280833899974823,-0.41832494735717773,0.212650328874588,9.878979682922363
14.86,0.053284790366888046,-0.014087771996855736,0.004626204259693623,-0.5949131846427917,-0.10050663352012634,9.665326118469238
14.88,0.03602833300828934,-0.03482617810368538,-0.015983514487743378,-0.64508455991745,-0.20130230486392975,10.020233154296875
14.9,0.03150160610675812,-0.031157508492469788,-0.038350660353899,-0.44126632809638977,-0.024828944355249405,10.087328910827637
14.92,0.0612713061273098,-0.037000201642513275,-0.023776469752192497,-0.06594560295343399,0.11468382924795151,9.515430450439453
14.94,0.07658104598522186,-0.04927034303545952,-0.007941682823002338,0.13760873675346375,0.27454227209091187,9.187945365905762
14.96,0.061867840588092804,-0.044490914791822433,-0.00959930568933487,0.20819157361984253,0.3554574251174927,9.086283683776855
14.98,0.07164008170366287,-0.031170954927802086,-0.039874278008937836,0.31122419238090515,0.46098265051841736,9.384716987609863
15.0,0.09483663737773895,0.003270435845479369,-0.05888494849205017,0.3668438792228699,0.475669801235199,9.403775215148926
15.02,0.05946599692106247,0.00742964306846261,-0.07447031885385513,0.4598236083984375,0.2839895784854889,9.414361953735352
15.040000000000001,0.032712724059820175,0.0050221821293234825,-0.08618775755167007,0.37168949842453003,0.1834016591310501,9.373961448669434
15.06,0.009940997697412968,0.0226286593824625,-0.07755628228187561,0.26289814710617065,0.26798632740974426,9.892173767089844
15.08,-0.01575709693133831,0.009011605754494667,-0.05528246983885765,0.09600311517715454,0.46458327770233154,10.343423843383789
15.1,-0.07366347312927246,-0.011928998865187168,-0.0376695953309536,-0.23655763268470764,0.5203543901443481,11.331857681274414
15.120000000000001,-0.0658932775259018,-0.024945328012108803,-0.012284813448786736,-0.02657048963010311,0.6089339852333069,11.092576026916504
15.14,-0.10809559375047684,-0.03707258030772209,0.026504386216402054,0.0027804772835224867,0.4259202480316162,10.113415718078613
15.16,-0.10936668515205383,-0.004342650528997183,0.06187207251787186,0.14122290909290314,0.46685630083084106,9.289228439331055
15.18,-0.09732954949140549,0.013145852833986282,0.08311676979064941,0.314688116312027,0.6389422416687012,8.92960262298584
15.200000000000001,-0.09746544063091278,0.0113803306594491,0.09029042720794678,0.42240452766418457,0.5940089225769043,8.928184509277344
15.22,-0.05146964266896248,-0.012726844288408756,0.08401413261890411,0.5094659328460693,0.5301809906959534,9.171813011169434
15.24,-0.0030318102799355984,0.025993505492806435,0.07865521311759949,0.5418289303779602,0.5045527815818787,9.312692642211914
15.26,-0.017260901629924774,0.07227089256048203,0.07939928025007248,0.4615393877029419,0.12765385210514069,9.639540672302246
15.280000000000001,0.016393441706895828,0.06984352320432663,0.10882067680358887,0.34931328892707825,-0.23807501792907715,10.036067962646484
15.3,-0.004461152479052544,0.0700002908706665,0.10295162349939346,0.1123380959033966,-0.2974918484687805,10.373136520385742
15.32,0.004416303709149361,0.09428884834051132,0.07925908267498016,-0.18616411089897156,0.0032678931020200253,9.998556137084961
15.34,0.06471717357635498,0.056270863860845566,0.059756089001894,-0.14737817645072937,0.23643621802330017,9.061850547790527
15.36,0.04359731823205948,0.008967221714556217,0.06581714749336243,-0.2804284393787384,-0.010723582468926907,9.648119926452637
15.38,0.07462142407894135,-0.01457136869430542,0.04677855595946312,-0.3160608410835266,-0.27819663286209106,9.858952522277832
15.4,0.06602837145328522,-0.008579232729971409,0.023406222462654114,-0.4515147805213928,-0.15701796114444733,9.873567581176758
15.42,0.08387462794780731,-0.0012019266141578555,-0.01463127601891756,-0.512812077999115,0.011681964620947838,9.453999519348145
15.44,0.08199096471071243,-0.018222782760858536,-0.02263779379427433,-0.4820292294025421,0.15020348131656647,9.250835418701172
15.46,0.0760551244020462,-0.031332798302173615,-0.0350993387401104,-0.2684655487537384,0.2981615364551544,9.537817001342773
15.48,0.023624690249562263,-0.02125851809978485,-0.05504829064011574,-0.1055571511387825,0.5870333909988403,9.688531875610352
15.5,0.029246285557746887,-0.01860428787767887,-0.023635299876332283,0.20236119627952576,0.7588504552841187,9.759599685668945
15.52,0.007156122475862503,-0.03056102804839611,0.006791691295802593,0.26465147733688354,0.8432297110557556,9.83139419555664
15.540000000000001,0.008579196408390999,-0.04216437786817551,0.025633743032813072,0.04754126816987991,0.5565349459648132,9.943619728088379
15.56,0.02924405224621296,-0.03323619067668915,0.0116730323061347,-0.21853335201740265,0.2745380103588104,10.033065795898438
15.58,0.022812457755208015,-0.026646580547094345,0.000612919800914824,-0.38910964131355286,0.08002091199159622,10.644208908081055
15.6,-0.003792337141931057,0.003721545683220029,-0.015605220571160316,-0.5835620164871216,0.06716424971818924,11.150076866149902
15.620000000000001,0.029741568490862846,0.04686260595917702,-0.0541917085647583,-0.45148107409477234,0.3244732618331909,10.820470809936523
15.64,-0.015931284055113792,0.06341299414634705,-0.07015324383974075,-0.011240832507610321,0.5828019976615906,9.624268531799316
15.66,-0.03517468273639679,0.04195469245314598,-0.05711907520890236,0.4233737885951996,0.7310381531715393,9.158726692199707
15.68,-0.01857837662100792,0.030687229707837105,-0.05034785717725754,0.6421605944633484,0.6831427216529846,9.327779769897461
15.700000000000001,0.023675939068198204,0.027578866109251976,-0.030781086534261703,0.7897689938545227,0.3996545970439911,9.638678550720215
15.72,-0.011846947483718395,0.030566103756427765,-0.022576777264475822,0.6435940265655518,0.2281101644039154,9.782639503479004
15.74,-0.02538463845849037,0.0049530877731740475,-0.02276771329343319,0.27714887261390686,-0.013731684535741806,9.99731731414795
15.76,-0.05493847653269768,0.017410758882761,-0.0339009054005146,-0.1914469599723816,-0.19972507655620575,10.343920707702637
15.780000000000001,-0.03851229324936867,0.04579678550362587,-0.06095898896455765,-0.29954373836517334,-0.16765472292900085,10.220394134521484
15.8,-0.05338825285434723,0.058661218732595444,-0.056184425950050354,-0.15116249024868011,0.04164867103099823,9.447678565979004
15.82,-0.018022892996668816,0.0908646434545517,-0.04487995058298111,-0.026794791221618652,0.386794775724411,9.1343355178833
15.84,0.01718812622129917,0.1304803192615509,-0.02224120683968067,0.09958872944116592,0.49384063482284546,9.277363777160645
15.860000000000001,0.04628768935799599,0.1636132150888443,-0.003551855683326721,0.06905297189950943,0.4282740354537964,9.835345268249512
15.88,0.06380860507488251,0.1721886545419693,0.029877379536628723,-0.02359434962272644,0.24344374239444733,9.930009841918945
15.9,0.046433258801698685,0.14012038707733154,0.048967137932777405,-0.10501682758331299,-0.040988337248563766,10.386441230773926
15.92,0.0417640246450901,0.12730684876441956,0.044941943138837814,-0.060964036732912064,-0.008287282660603523,10.78451919555664
15.94,0.0637320727109909,0.10250864923000336,0.04555065557360649,0.11466476321220398,0.4253191351890564,10.08687686920166
15.96,0.09381887316703796,0.09161537140607834,0.04500804841518402,0.027137121185660362,0.673333466053009,9.358382225036621
15.98,0.12439286708831787,0.05330601707100868,0.051819343119859695,-0.34004852175712585,0.4653344750404358,9.1654634475708
16.0,0.134315624833107,0.009103132411837578,0.043587084859609604,-0.5768275260925293,0.1699148416519165,9.21435546875
16.02,0.1570453941822052,-0.019951459020376205,0.028481053188443184,-0.8604268431663513,0.19349554181098938,9.428770065307617
16.04,0.12253961712121964,-0.0688256025314331,0.02058817259967327,-0.9945533275604248,0.3993676006793976,9.744236946105957
16.06,0.055042069405317307,-0.10211683809757233,-0.011086506769061089,-1.052578091621399,0.5517707467079163,10.282624244689941
16.080000000000002,-0.03843199834227562,-0.12492808699607849,-0.05560097470879555,-1.2510441541671753,1.0230627059936523,10.522482872009277
16.1,-0.10504350066184998,-0.15569758415222168,-0.08511791378259659,-0.9070144891738892,1.3371787071228027,9.98651123046875
16.12,-0.20398679375648499,-0.202268585562706,-0.07900914549827576,-0.5185516476631165,1.273423671722412,9.362479209899902
16.14,-0.24717941880226135,-0.21179752051830292,-0.07690068334341049,-0.29574114084243774,1.1407126188278198,9.692638397216797
16.16,-0.27674126625061035,-0.21518005430698395,-0.06579875946044922,-0.16602136194705963,1.0973111391067505,10.691545486450195
16.18,-0.2869742512702942,-0.2366619110107422,-0.04590753838419914,0.15010300278663635,1.0486772060394287,10.923493385314941
16.2,-0.2775128185749054,-0.25236332416534424,-0.021414006128907204,0.3719578683376312,0.7976722121238708,9.757375717163086
16.22,-0.21682733297348022,-0.22058425843715668,-0.001806858112104237,0.5095246434211731,0.22391067445278168,8.669981956481934
16.240000000000002,-0.14532902836799622,-0.1741172820329666,0.008908705785870552,0.5994789600372314,-0.1950383484363556,8.621330261230469
16.26,-0.08960847556591034,-0.16603553295135498,0.013804084621369839,0.6290892362594604,-0.4074609875679016,8.936480522155762
16.28,0.003316517686471343,-0.15487778186798096,0.013623970560729504,0.504645586013794,-0.4140037000179291,8.887605667114258
16.3,0.11994537711143494,-0.11883584409952164,0.03301547095179558,0.16961824893951416,-0.5752174854278564,9.436857223510742
16.32,0.15154442191123962,-0.04646584019064903,0.05385194718837738,0.08373751491308212,-0.8509514927864075,9.942656517028809
16.34,0.12347625941038132,-0.03989052399992943,0.04632444679737091,0.3336217701435089,-1.111902117729187,10.39087963104248
16.36,0.1341830939054489,-0.010111015290021896,0.03246200457215309,0.42257434129714966,-0.8113512992858887,10.487988471984863
16.38,0.10159650444984436,0.016086405143141747,0.0033536546397954226,0.5570102334022522,-0.08407258242368698,10.107498168945312
16.4,0.044580113142728806,0.09759479761123657,-0.0098732253536582,0.6921908259391785,0.6660892367362976,9.32282543182373
16.42,0.08182343095541,0.13867981731891632,-0.03031601756811142,1.0082224607467651,1.0773526430130005,8.809986114501953
16.44,0.08375995606184006,0.13162174820899963,-0.03889968618750572,1.1623913049697876,1.0080801248550415,8.963065147399902
16.46,0.09285455197095871,0.14864438772201538,-0.030986353754997253,0.9775552153587341,0.6830461621284485,9.361191749572754
16.48,0.13551150262355804,0.16899698972702026,-0.024985739961266518,0.73084557056427,0.3724958300590515,9.54469108581543
16.5,0.1126391813158989,0.17197151482105255,-0.008563583716750145,0.5638909339904785,0.2079964131116867,9.798779487609863
16.52,0.04083576425909996,0.1544913649559021,0.0013804355403408408,0.12257449328899384,0.0938320904970169,10.741811752319336
16.54,-0.011994961649179459,0.11396170407533646,-0.016890516504645348,-0.37201255559921265,0.2590385377407074,10.874250411987305
16.56,0.03474964573979378,0.098441481590271,-0.03277793899178505,-0.679175615310669,0.7541346549987793,10.122400283813477
16.580000000000002,-0.05291417986154556,0.03429632633924484,-0.022070875391364098,-0.8944629430770874,1.0505224466323853,10.34637451171875
16.6,-0.08515282720327377,-0.052114203572273254,-0.03287569805979729,-1.0977774858474731,0.953556478023529,10.316206932067871
16.62,-0.04263130575418472,-0.09073368459939957,-0.025566840544342995,-1.0472230911254883,0.6413373351097107,9.845160484313965
16.64,-0.07475694268941879,-0.11655443906784058,-0.003253939328715205,-0.8107885718345642,0.37474197149276733,9.711714744567871
16.66,-0.024762263521552086,-0.1683608442544937,0.02750290185213089,-0.5565341711044312,0.19726450741291046,9.87637710571289
16.68,-0.07437540590763092,-0.1858471781015396,0.03808487206697464,-0.33606085181236267,0.20977064967155457,9.657108306884766
16.7,0.00857513677328825,-0.13320088386535645,0.04131504148244858,-0.022664450109004974,0.09001046419143677,9.371049880981445
16.72,0.023217571899294853,-0.10911808907985687,0.0413040854036808,0.2739860415458679,0.050343625247478485,9.275026321411133
16.740000000000002,0.1118282601237297,-0.06302947551012039,0.03277592360973358,0.45467060804367065,-0.006906123831868172,9.071146011352539
16.76,0.10225338488817215,0.03327712416648865,0.037379030138254166,0.6652931571006775,-0.20203183591365814,9.228862762451172
16.78,0.11183744668960571,0.08964521437883377,0.025987235829234123,0.9768314361572266,-0.09862269461154938,9.951437950134277
16.8,0.15042422711849213,0.05221250653266907,0.0313594825565815,1.3389623165130615,0.00952987652271986,10.269102096557617
16.82,0.13964645564556122,0.029297558590769768,0.01668880507349968,1.2073320150375366,0.0748276337981224,9.914880752563477
16.84,0.13648664951324463,0.07627185434103012,-0.0030457675457000732,0.8326473832130432,0.549061119556427,9.29901123046875
16.86,0.07557102292776108,0.12289869785308838,-0.02212781086564064,0.30631864070892334,0.7881065607070923,9.811844825744629
16.88,-0.01708359643816948,0.056605059653520584,-0.048171594738960266,-0.1928527057170868,0.880340576171875,10.214423179626465
16.9,-0.05327022448182106,-0.049753304570913315,-0.08182241022586823,-0.5257564187049866,1.013042688369751,10.413978576660156
16.92,-0.1276300847530365,-0.05233519896864891,-0.07593248784542084,-0.7600507736206055,1.1468721628189087,10.102005958557129
16.94,-0.16119256615638733,-0.01490302849560976,-0.04654894396662712,-0.5398187041282654,1.3831063508987427,10.127653121948242
16.96,-0.1343858391046524,-0.03469789773225784,0.016228271648287773,-0.22380289435386658,1.3455297946929932,9.875314712524414
16.98,-0.1529475897550583,-0.07857754081487656,0.05024721473455429,0.029583575204014778,0.8237783908843994,9.39258861541748
17.0,-0.10962941497564316,-0.05397922545671463,0.048992011696100235,-0.018191993236541748,0.2937263548374176,9.383855819702148
17.02,-0.07342202216386795,0.005813426338136196,0.05925861746072769,-0.20479825139045715,-0.03539378196001053,9.673218727111816
17.04,-0.024838484823703766,0.0716593787074089,0.05901239812374115,0.2185443639755249,-0.3805188834667206,9.790907859802246
17.06,0.021187644451856613,0.07126083970069885,0.055926043540239334,0.5623688697814941,-0.5070034265518188,9.929884910583496
17.080000000000002,0.08389545232057571,0.056509874761104584,0.05520252510905266,0.7702070474624634,-0.15652060508728027,10.145631790161133
17.1,0.09431464225053787,0.0763854831457138,0.07887761294841766,0.6105602383613586,0.17341957986354828,10.237959861755371
17.12,0.10015171766281128,0.11110424250364304,0.111765056848526,0.5483349561691284,0.20048046112060547,10.201709747314453
17.14,0.112069271504879,0.11899646371603012,0.10339896380901337,0.432731568813324,-0.09947319328784943,9.905329704284668
17.16,0.06338553130626678,0.08443518728017807,0.05848264694213867,0.07591784000396729,-0.18560351431369781,9.62855339050293
17.18,0.005385984666645527,0.043406616896390915,-0.0013763319002464414,-0.2372325211763382,0.1556949019432068,9.7224702835083
17.2,-0.019770195707678795,0.07350818812847137,-0.01725468970835209,-0.3245292603969574,0.6644041538238525,9.822619438171387
17.22,-0.05651911348104477,0.10588319599628448,-0.020876696333289146,-0.06356960535049438,1.0769035816192627,9.887859344482422
17.240000000000002,-0.0803888589143753,0.10419479757547379,-0.027233637869358063,-0.1974511593580246,1.2731040716171265,9.908926963806152
17.26,-0.07227244973182678,0.12283500283956528,-0.051691923290491104,-0.12191502749919891,1.1291834115982056,9.407045364379883
17.28,-0.13907156884670258,0.16387531161308289,-0.05704321339726448,0.07581176608800888,0.9248594045639038,8.997173309326172
17.3,-0.1768355667591095,0.1888311803340912,-0.05328355357050896,0.21270762383937836,0.8974300622940063,8.722270011901855
17.32,-0.20798997581005096,0.18563401699066162,-0.02579074166715145,0.15107397735118866,0.8713111281394958,9.314192771911621
17.34,-0.21522237360477448,0.16740739345550537,-0.0031601209193468094,0.03501562401652336,1.0479657649993896,10.422908782958984
17.36,-0.17463155090808868,0.15590280294418335,0.05363542214035988,0.16428332030773163,0.9092453122138977,10.378002166748047
17.38,-0.13937516510486603,0.15882126986980438,0.0973869264125824,0.2651020288467407,0.23001320660114288,9.299160957336426
17.400000000000002,-0.09176286309957504,0.11374248564243317,0.12468347698450089,0.1195421889424324,-0.49320435523986816,8.697943687438965
17.42,0.0015093188267201185,0.02399255521595478,0.10928405076265335,-0.24658599495887756,-0.8860124349594116,9.105718612670898
17.44,0.058188971132040024,-0.042821601033210754,0.09721646457910538,-0.32127994298934937,-1.1199438571929932,9.620977401733398
17.46,0.09852733463048935,-0.08592864125967026,0.08981397747993469,-0.6397770047187805,-1.2521538734436035,10.792764663696289
17.48,0.11665165424346924,-0.16162370145320892,0.06646768748760223,-1.3391540050506592,-0.821627140045166,10.40388011932373
17.5,0.12453320622444153,-0.19059087336063385,0.01772408001124859,-1.6327238082885742,-0.14763911068439484,10.13633918762207
17.52,0.11256151646375656,-0.21652325987815857,-0.022834977135062218,-1.454563856124878,0.3925270736217499,9.830269813537598
17.54,0.10845152288675308,-0.20034725964069366,-0.045778535306453705,-1.259891390800476,0.6508180499076843,10.125312805175781
17.56,0.10405923426151276,-0.17325825989246368,-0.036847010254859924,-1.341750979423523,0.5987616181373596,10.215978622436523
17.580000000000002,0.02204466238617897,-0.10392866283655167,-0.022874878719449043,-1.797352910041809,0.47223833203315735,10.448513984680176
17.6,0.017100825905799866,-0.06617461889982224,-0.02060016244649887,-0.9021957516670227,0.3998635709285736,9.937098503112793
17.62,-0.02825513295829296,-0.0584585927426815,-0.01801350712776184,0.22711944580078125,0.26282986998558044,8.699113845825195
17.64,-0.05919962748885155,0.010085446760058403,-0.009606567211449146,0.7535142302513123,0.33975672721862793,8.752248764038086
17.66,-0.03999513015151024,0.045376092195510864,0.0346522182226181,1.3830876350402832,0.7313672304153442,9.954151153564453
17.68,-0.060961849987506866,-0.0015126570360735059,0.0903732180595398,1.4560315608978271,0.8326573967933655,11.470292091369629
17.7,0.03515290841460228,-0.03810056671500206,0.09624402225017548,1.3135309219360352,0.5569286942481995,11.452765464782715
17.72,0.07021773606538773,-0.061252497136592865,0.09376979619264603,0.7764425277709961,0.22684608399868011,10.208070755004883
17.740000000000002,0.07150216400623322,-0.07748261839151382,0.08669482916593552,0.4898384213447571,0.11903562396764755,9.411211967468262
17.76,0.12878945469856262,-0.12147320061922073,0.08509393036365509,0.40791794657707214,0.07557932287454605,9.4193754196167
17.78,0.1657835990190506,-0.15844978392124176,0.03876928240060806,0.13476838171482086,-0.02783053182065487,9.817739486694336
17.8,0.1499420702457428,-0.18925844132900238,-0.0032997471280395985,-0.14091265201568604,-0.13765716552734375,9.812929153442383
17.82,0.12025928497314453,-0.1992688924074173,-0.04990895465016365,-0.3126469850540161,-0.12564827501773834,9.264886856079102
17.84,0.08186358958482742,-0.19012802839279175,-0.07235070317983627,-0.31149572134017944,0.13892658054828644,8.841376304626465
17.86,0.07359804213047028,-0.15034815669059753,-0.06808408349752426,-0.14495165646076202,0.6261669397354126,9.020524024963379
17.88,0.03071800246834755,-0.13021494448184967,-0.05616722255945206,-0.07367550581693649,0.9814674854278564,9.397867202758789
17.900000000000002,0.0257320124655962,-0.08612820506095886,-0.039739325642585754,-0.045788176357746124,1.1027202606201172,9.726531028747559
17.92,0.0251005906611681,-0.01310846209526062,-0.031748633831739426,0.07959672063589096,0.8442361950874329,9.763213157653809
17.94,-0.0037384082097560167,0.04912369325757027,-0.013755081221461296,0.5224900245666504,0.5524918437004089,9.36733341217041
17.96,-0.045524511486291885,0.06974013149738312,-0.00013747370394412428,0.8248509764671326,0.4543687701225281,9.2431058883667
17.98,-0.062055375427007675,0.12178707122802734,0.0022248649038374424,0.9525916576385498,0.5867499709129333,9.620494842529297
18.0,-0.08529753237962723,0.16441777348518372,0.0035140884574502707,0.9988954067230225,0.708454966545105,9.868699073791504
18.02,0.00932356622070074,0.15623022615909576,-0.012807043269276619,1.0113309621810913,0.5814636945724487,9.9174222946167
18.04,0.000432622735388577,0.13935010135173798,-0.027147259563207626,0.9866243004798889,0.42540299892425537,9.998620986938477
18.06,0.0020625845063477755,0.12087850272655487,-0.04319768399000168,0.6500441431999207,0.34337911009788513,9.786198616027832
18.080000000000002,0.020841160789132118,0.11635768413543701,-0.03806096687912941,0.23092341423034668,0.3160739839076996,9.551815032958984
18.1,-0.03084118478000164,0.08924701064825058,-0.020920827984809875,-0.19500476121902466,0.35600903630256653,9.706023216247559
18.12,-0.09672984480857849,0.04384514316916466,-0.021206960082054138,-0.6222196817398071,0.5563148856163025,10.096030235290527
18.14,-0.05846264213323593,0.027340760454535484,-0.021480293944478035,-0.8545070886611938,0.7239223718643188,10.254170417785645
18.16,-0.1095215454697609,0.004221257753670216,-0.03090616874396801,-0.8392166495323181,0.7529894113540649,10.163078308105469
18.18,-0.14071732759475708,0.011758919805288315,-0.0302493367344141,-0.6905068755149841,0.6565195322036743,9.740396499633789
18.2,-0.07468723505735397,-0.03265602886676788,-0.027498094365000725,-0.4763272702693939,0.5196199417114258,9.540815353393555
18.22,-0.0695161297917366,-0.05988597869873047,-0.005707204341888428,-0.39477139711380005,0.37176668643951416,9.70838737487793
18.240000000000002,-0.06250926852226257,-0.06409848481416702,0.011416176334023476,-0.36442095041275024,0.10512574762105942,10.123820304870605
18.26,-0.004784764256328344,-0.0410708449780941,0.011043699458241463,-0.22696398198604584,-0.0470428392291069,9.86561393737793
18.28,-0.016968093812465668,-0.047626350075006485,-0.0005844756960868835,-0.044105712324380875,-0.05638066306710243,9.616439819335938
18.3,0.00045193207915872335,-0.02446443773806095,0.0019302851287648082,0.15493127703666687,0.06548675894737244,9.763693809509277
18.32,-0.010341807268559933,-0.008929025381803513,-0.010127929039299488,0.3531757593154907,0.23121100664138794,9.919177055358887
18.34,0.004489575047045946,-0.03373638167977333,-0.02124945819377899,0.5911281704902649,0.3329354524612427,9.953924179077148
18.36,-0.007525609340518713,-0.040498390793800354,-0.015430116094648838,0.7754940390586853,0.32055243849754333,9.50689697265625
18.38,0.016708463430404663,-0.051827650517225266,-0.007976059801876545,0.687065839767456,0.29642853140830994,9.432120323181152
18.400000000000002,-0.02947705239057541,-0.06281021982431412,-0.0010237658862024546,0.3431846797466278,0.3066830337047577,9.477712631225586
18.42,-0.07982822507619858,-0.08483894914388657,-0.025609154254198074,-0.23582936823368073,0.12058807909488678,10.422621726989746
18.44,-0.08130623400211334,-0.07075684517621994,-0.04676320403814316,-0.7094144225120544,-0.08589468896389008,10.703333854675293
18.46,-0.0871674120426178,-0.030221624299883842,-0.0708739385008812,-0.6532416343688965,0.18250524997711182,10.061127662658691
18.48,-0.055321089923381805,0.00954872090369463,-0.0637408196926117,-0.313337504863739,0.4483458995819092,9.280813217163086
18.5,-0.056451961398124695,0.03618113696575165,-0.045301955193281174,0.20863458514213562,0.6026473045349121,9.086455345153809
18.52,-0.02894538827240467,0.04224865138530731,-0.02354069985449314,0.6589222550392151,0.4894461929798126,9.753939628601074
18.54,-0.012851623818278313,0.007195646408945322,-0.01956826262176037,0.9299041032791138,-0.0976560190320015,10.802907943725586
18.56,0.005098690278828144,-0.0264268908649683,-0.03241419047117233,0.9324537515640259,-0.3553800582885742,10.469893455505371
18.580000000000002,0.024861257523298264,0.017120148986577988,-0.05237050727009773,0.6833805441856384,-0.11163618415594101,9.611922264099121
18.6,0.016872437670826912,0.0477888360619545,-0.056068893522024155,0.43104881048202515,0.30719321966171265,9.359600067138672
18.62,0.028462277725338936,0.05065414309501648,-0.03946586698293686,0.027956144884228706,0.6562626361846924,9.33566951751709
18.64,0.026722880080342293,0.07592463493347168,-0.02972090058028698,-0.17647330462932587,0.644364595413208,9.243003845214844
18.66,0.015843667089939117,0.11392785608768463,-0.0242516677826643,-0.14622129499912262,0.42762863636016846,9.089363098144531
18.68,0.0567619688808918,0.14209866523742676,-0.009577144868671894,-0.02580644190311432,0.24744495749473572,9.519723892211914
18.7,0.11149446666240692,0.18668942153453827,0.0010344827314838767,0.18756182491779327,0.1463058888912201,9.5119047164917
18.72,0.10475240647792816,0.2412651926279068,0.031019266694784164,0.07269202917814255,0.14300447702407837,10.061417579650879
18.740000000000002,0.14354825019836426,0.29711633920669556,0.05713227763772011,-0.11609707772731781,-0.10468026250600815,10.492912292480469
18.76,0.17538368701934814,0.281594842672348,0.05498160421848297,-0.21786005795001984,-0.501173198223114,11.169828414916992
18.78,0.15967820584774017,0.2195313274860382,0.05851078778505325,-0.27302753925323486,-0.5284115672111511,11.653804779052734
18.8,0.1160200983285904,0.16115419566631317,0.031163491308689117,-0.07615475356578827,-0.04682503640651703,10.604910850524902
18.82,0.07328642904758453,0.15551742911338806,0.02108919806778431,0.07308686524629593,0.6923218965530396,9.555730819702148
18.84,-0.009305841289460659,0.11531294882297516,0.01385475043207407,-0.15753893554210663,1.1411577463150024,9.4974946975708
18.86,-0.004082145169377327,0.02167375199496746,-0.04117230698466301,-0.48597148060798645,1.244268536567688,9.328919410705566
18.88,-0.08151718974113464,-0.04895104095339775,-0.05995537340641022,-0.7532410621643066,1.3784637451171875,9.303669929504395
