time,wx,wy,wz,ax,ay,az
0.0,-0.047160372138023376,-0.07592768222093582,0.010963089764118195,0.27320221066474915,0.34416303038597107,9.842350006103516
0.02,-0.01931825466454029,-0.08259126543998718,0.003481464460492134,-0.2984604239463806,0.06688225269317627,9.67614459991455
0.04,-0.025501471012830734,-0.062429558485746384,0.008736364543437958,-0.7985324859619141,-0.3057173788547516,9.947168350219727
0.06,0.03365689143538475,-0.03273189440369606,0.025332562625408173,-0.8250877261161804,-0.5676226019859314,10.251593589782715
0.08,0.00898244883865118,-0.00747731514275074,0.04657651111483574,-0.268800288438797,-0.33464694023132324,9.791303634643555
0.1,-0.0058027757331728935,0.01708555407822132,0.06019190326333046,0.30758872628211975,-0.1856863647699356,9.263978004455566
0.12,0.012920319102704525,0.015199251472949982,0.04831395670771599,0.5009534955024719,-0.0934072807431221,9.019234657287598
0.14,0.013720194809138775,0.0512840710580349,0.026909343898296356,0.479682594537735,-0.0934763252735138,8.998896598815918
0.16,0.0019924857188016176,0.06958876550197601,0.005627947393804789,0.3936460316181183,-0.021996458992362022,9.634960174560547
0.18,0.025393344461917877,0.07607745379209518,0.020303035154938698,0.4677818715572357,0.06419096887111664,10.10470199584961
0.2,0.03666664659976959,0.07723035663366318,0.05540259927511215,0.4561965763568878,0.13189946115016937,10.260046005249023
0.22,0.04648241028189659,0.08824454993009567,0.05606236308813095,0.4133627712726593,-0.03571399673819542,9.956414222717285
0.24,0.041287265717983246,0.07683377712965012,0.045543260872364044,0.40168777108192444,-0.20292289555072784,9.615113258361816
0.26,0.015275728888809681,0.08643212914466858,0.030068185180425644,0.3302280902862549,-0.08458572626113892,9.662275314331055
0.28,0.04983246326446533,0.05931151285767555,0.004533569328486919,0.24176818132400513,0.18302878737449646,9.880393028259277
0.3,0.05087984353303909,0.057947784662246704,-0.011043156497180462,-0.0058931452222168446,0.35283103585243225,10.061933517456055
0.32,0.040468715131282806,0.0576087050139904,-0.0008844372350722551,-0.15381045639514923,0.19286370277404785,9.864059448242188
0.34,0.03916985169053078,0.06356778740882874,-0.0020857537165284157,-0.1880248337984085,0.0315704382956028,9.713829040527344
0.36,0.029868759214878082,0.03743348643183708,0.01931808888912201,-0.19237135350704193,-0.008451548404991627,9.504498481750488
0.38,0.004617092665284872,0.03651267662644386,0.012052841484546661,-0.174098938703537,0.06944546103477478,9.574615478515625
0.4,0.011527169495821,0.023989735171198845,0.005544515326619148,-0.18910741806030273,0.18701337277889252,9.816571235656738
0.42,-0.010158459655940533,0.025168076157569885,-0.008730165660381317,-0.35788312554359436,0.2828088104724884,10.18472671508789
0.44,-0.04263222590088844,-0.011676955968141556,-0.034529250115156174,-0.34462445974349976,0.33257579803466797,10.241451263427734
0.46,-0.04913916438817978,-0.03523465245962143,-0.039245765656232834,-0.24922731518745422,0.2656475305557251,9.851606369018555
0.48,-0.10069847851991653,-0.06354990601539612,-0.048389632254838943,-0.1430949866771698,0.11456558853387833,9.30201530456543
0.5,-0.09457861632108688,-0.07831741869449615,-0.05721230059862137,-0.11936235427856445,-0.18114477396011353,9.033061981201172
0.52,-0.13588367402553558,-0.07612758874893188,-0.055491749197244644,0.010039186105132103,-0.3320368528366089,9.213085174560547
0.54,-0.13908077776432037,-0.07587675005197525,-0.06617911159992218,-0.046681810170412064,-0.10256244242191315,9.602707862854004
0.56,-0.12414802610874176,-0.07875256985425949,-0.0429399237036705,-0.17736011743545532,0.13074550032615662,10.07619571685791
0.58,-0.08767227828502655,-0.10783758014440536,-0.012205026112496853,-0.1642889678478241,0.3520364761352539,10.472432136535645
0.6,-0.093162901699543,-0.1286529004573822,0.012675943784415722,-0.098502516746521,0.5272325873374939,10.397100448608398
0.62,-0.10184159874916077,-0.09865912795066833,0.018741516396403313,0.030237700790166855,0.3816555440425873,9.78622055053711
0.64,-0.058921147137880325,-0.0741049200296402,0.03173932805657387,0.2824252247810364,-0.04517620429396629,9.303062438964844
0.66,-0.05579431354999542,-0.04492649808526039,0.020018810406327248,0.4905155897140503,-0.24264079332351685,9.082905769348145
0.68,-0.04251287877559662,-0.048641350120306015,0.014730433002114296,0.6320132613182068,-0.4944290518760681,9.33888053894043
0.7000000000000001,-0.029555626213550568,-0.06291279196739197,0.019134676083922386,0.6177828907966614,-0.6802726984024048,9.955863952636719
0.72,0.016060587018728256,-0.056973349303007126,0.03966093808412552,0.30104291439056396,-0.702417254447937,10.334444046020508
0.74,0.06651076674461365,-0.04858492687344551,0.04765695706009865,0.11738184839487076,-0.7618417739868164,9.940155029296875
0.76,0.08287903666496277,-0.02356860227882862,0.04812220484018326,0.10891851037740707,-0.5764826536178589,9.916463851928711
0.78,0.09193483740091324,-0.023395856842398643,0.02783941477537155,0.22538290917873383,-0.3102359473705292,9.790185928344727
0.8,0.08092734217643738,-0.02988855354487896,0.002731393091380596,0.381702721118927,-0.06902237981557846,9.641826629638672
0.8200000000000001,0.07163894176483154,-0.038247402757406235,-0.01618793047964573,0.38844799995422363,0.07921203225851059,9.544343948364258
0.84,0.07920680940151215,-0.029274562373757362,-0.010455181822180748,0.5066214799880981,0.020521920174360275,9.633577346801758
0.86,0.08457507193088531,-0.03348032385110855,-0.012052264995872974,0.579906702041626,-0.17185047268867493,9.829305648803711
0.88,0.07712209224700928,-0.057645831257104874,-0.008695479482412338,0.4858176112174988,-0.33437249064445496,9.441311836242676
0.9,0.041315194219350815,-0.04827157407999039,0.011131305247545242,0.17192432284355164,-0.21136526763439178,9.213129997253418
0.92,0.09616519510746002,-0.0495237298309803,0.045885004103183746,-0.09807402640581131,-0.056984055787324905,9.453567504882812
0.9400000000000001,0.04232465848326683,-0.040375325828790665,0.04127325117588043,-0.2658787667751312,0.12736737728118896,9.862093925476074
0.96,0.04407297074794769,-0.04143109545111656,0.050996750593185425,-0.44663241505622864,0.4333101809024811,10.451249122619629
0.98,0.048810139298439026,-0.015017340891063213,0.03566013649106026,-0.5199312567710876,0.49640145897865295,11.038689613342285
1.0,0.05082157999277115,0.012628291733562946,-0.004366226494312286,-0.20373103022575378,0.4243754744529724,10.761034965515137
1.02,0.037658147513866425,0.007606035098433495,-0.034183453768491745,0.31564921140670776,0.07500781863927841,9.965389251708984
1.04,0.034716565161943436,-0.0031295805238187313,-0.05680195614695549,0.7211781740188599,-0.2037104219198227,9.468467712402344
1.06,0.04276984930038452,0.0017788525437936187,-0.04182521626353264,0.9981054663658142,-0.21847589313983917,9.330864906311035
1.08,0.03861022740602493,-0.0008045652066357434,-0.04456107318401337,1.0912748575210571,-0.10768340528011322,9.02239990234375
1.1,0.05007180571556091,-0.019479181617498398,-0.014278077520430088,0.9352147579193115,-0.00627202307805419,9.442500114440918
1.12,0.006707563530653715,-0.0017547185998409986,-0.005828095134347677,0.6026697158813477,0.19888249039649963,10.15279483795166
1.1400000000000001,-0.0030543948523700237,0.041558120399713516,0.010495108552277088,0.4277788996696472,0.2207309752702713,9.74860668182373
1.16,-0.007119912654161453,0.03473876789212227,-0.010959656909108162,0.34604042768478394,0.10053455084562302,9.367650985717773
1.18,-0.019791264086961746,0.009765950962901115,-0.004511462990194559,0.20517028868198395,0.18727336823940277,9.127896308898926
1.2,0.004152944777160883,0.040457725524902344,-0.005790896248072386,0.16424915194511414,0.22420890629291534,9.345610618591309
1.22,-0.008168254978954792,0.06645603477954865,-0.009710436686873436,0.16023549437522888,0.009000107645988464,9.812829971313477
1.24,-0.017777947708964348,0.09308870136737823,0.007688326295465231,0.21611370146274567,-0.18219827115535736,9.994866371154785
1.26,-0.03462276980280876,0.07458732277154922,0.006572081707417965,0.19951438903808594,-0.06442372500896454,9.87805461883545
1.28,0.0019938508048653603,0.08659746497869492,0.007764140143990517,0.15103191137313843,0.15740403532981873,9.642472267150879
1.3,0.0029060293454676867,0.07747025787830353,0.002552696969360113,0.14577464759349823,0.12683355808258057,9.863054275512695
1.32,0.0031986914109438658,0.058147408068180084,0.0133442347869277,0.07857535034418106,0.06144661456346512,10.157361030578613
1.34,0.0009318017400801182,0.016682066023349762,0.0262193214148283,0.03637050837278366,-0.10506857931613922,10.352418899536133
1.36,0.03485254943370819,-0.005725392606109381,0.01898806542158127,-0.0851079598069191,-0.25834426283836365,10.42215633392334
1.3800000000000001,0.07099652290344238,-0.025830505415797234,0.020779723301529884,-0.2685936689376831,-0.3242069482803345,10.118972778320312
1.4000000000000001,0.05105297639966011,-0.02578612044453621,0.01383113395422697,-0.22259925305843353,-0.3973415195941925,9.72839641571045
1.42,0.07624813914299011,-0.0588076114654541,-0.018327655270695686,-0.19451546669006348,-0.3660489320755005,9.532179832458496
1.44,0.04131448641419411,-0.07470586895942688,-0.04628107324242592,-0.19957807660102844,-0.04771461710333824,9.849019050598145
1.46,0.0036086696200072765,-0.0715668722987175,-0.06812567263841629,-0.19294048845767975,0.35657283663749695,9.734461784362793
1.48,0.02084352634847164,-0.061055563390254974,-0.0919431671500206,-0.03840381279587746,0.3007943630218506,9.384137153625488
1.5,-0.0015186754753813148,-0.03851206973195076,-0.07555879652500153,-0.014507299289107323,0.20916560292243958,9.186981201171875
1.52,-0.03381284326314926,-0.02356787584722042,-0.07718782126903534,0.24332986772060394,0.19767573475837708,9.561053276062012
1.54,-0.0939035415649414,-0.02756163291633129,-0.05960828438401222,0.3363223373889923,0.24690255522727966,10.022478103637695
1.56,-0.07528190314769745,-0.016187692061066628,-0.03515319526195526,0.5091502666473389,0.254643976688385,9.97113037109375
1.58,-0.10184870660305023,0.013856764882802963,-0.02717350237071514,0.5334733724594116,0.22468410432338715,9.826638221740723
1.6,-0.10000146925449371,0.025158366188406944,-0.031335361301898956,0.5601683855056763,0.11610591411590576,9.92391300201416
1.62,-0.08696556091308594,0.03323007747530937,-0.010145998559892178,0.394598126411438,0.09809819608926773,10.201911926269531
1.6400000000000001,-0.058809105306863785,0.06683097779750824,-0.019109351560473442,0.18753762543201447,0.0917244553565979,10.047455787658691
1.6600000000000001,-0.06412088125944138,0.10530335456132889,-0.022039275616407394,0.4395296275615692,0.08160334825515747,9.527262687683105
1.68,-0.08435041457414627,0.06614132225513458,-0.027552882209420204,0.7102692723274231,0.16566579043865204,9.57479190826416
1.7,-0.13769260048866272,0.045627277344465256,-0.033447083085775375,0.7706860303878784,0.2477927803993225,9.933856010437012
1.72,-0.04490411654114723,0.0452825129032135,-0.04010327532887459,0.6897446513175964,0.031945183873176575,9.701425552368164
1.74,-0.05121889337897301,0.05267694219946861,-0.03459794074296951,0.5254316329956055,-0.2879073917865753,9.464221000671387
1.76,-0.06851943582296371,0.0770062655210495,-0.04856288805603981,0.35409432649612427,-0.42730700969696045,9.39133358001709
1.78,-0.05661863833665848,0.1015411987900734,-0.0197646152228117,0.02866034023463726,-0.5413348078727722,9.605117797851562
1.8,0.00278526172041893,0.13454584777355194,-0.012000186368823051,-0.17352691292762756,-0.6263676285743713,9.89195442199707
1.82,0.03142914921045303,0.11719070374965668,0.006324513349682093,-0.1743144541978836,-0.5286253690719604,9.789466857910156
1.84,0.03589707612991333,0.11063425987958908,0.010229170322418213,-0.06427206099033356,-0.41252654790878296,9.480321884155273
1.86,0.02909672074019909,0.09873169660568237,0.011435035616159439,0.039763420820236206,-0.36670878529548645,9.780888557434082
1.8800000000000001,0.06491318345069885,0.10710891336202621,0.01210479624569416,0.08081485331058502,-0.21707941591739655,10.13287353515625
1.9000000000000001,0.10653515160083771,0.09851323068141937,0.005943358410149813,0.10444127023220062,-0.17114795744419098,10.392430305480957
1.92,0.11711493134498596,0.08449939638376236,0.02407160773873329,0.14222370088100433,-0.17011567950248718,10.140083312988281
1.94,0.12482062727212906,0.08294972777366638,0.03484512120485306,0.2127690315246582,-0.273032009601593,9.680709838867188
1.96,0.10347235947847366,0.06337244808673859,0.020586980506777763,0.13904650509357452,-0.24626129865646362,9.392474174499512
1.98,0.12803025543689728,0.02229241468012333,-0.00035164470318704844,-0.14407230913639069,-0.1619090735912323,9.60258674621582
2.0,0.12323004007339478,0.01171348337084055,-0.020129982382059097,-0.44165781140327454,0.09478987008333206,9.942848205566406
2.02,0.14617058634757996,0.02847285382449627,-0.01365275401622057,-0.6293983459472656,0.016322864219546318,10.321606636047363
2.04,0.09209242463111877,0.01957516185939312,-0.02786330133676529,-0.7970472574234009,-0.08988063782453537,10.487424850463867
2.06,0.09906478971242905,-0.0025701948907226324,-0.044502295553684235,-0.6356102824211121,0.11069054901599884,9.868844985961914
2.08,0.1597737967967987,-0.006521230097860098,-0.03057803586125374,-0.26710036396980286,0.06977906823158264,9.414215087890625
2.1,0.11698592454195023,-0.002388519700616598,0.01463036797940731,0.10535183548927307,0.010768605396151543,9.465733528137207
2.12,0.11110889166593552,-0.02162138745188713,0.03886466845870018,0.34578266739845276,0.03680259361863136,9.7156343460083
2.14,0.04844643920660019,-0.05835684388875961,0.04966757819056511,0.2756137251853943,0.003384120762348175,10.195534706115723
2.16,0.00423301849514246,-0.10170779377222061,0.015030691400170326,0.22459691762924194,0.20021097362041473,10.086636543273926
2.18,-0.07051994651556015,-0.13338163495063782,-0.006260787136852741,0.013864705339074135,0.5972633361816406,10.149715423583984
2.2,-0.04422110691666603,-0.10812161862850189,-0.02880292944610119,-0.016742683947086334,0.6984078884124756,9.71933364868164
2.22,-0.025774449110031128,-0.13396713137626648,-0.03968646004796028,-0.16036701202392578,0.46000680327415466,9.298453330993652
2.24,-0.07230477035045624,-0.17332004010677338,-0.059029363095760345,-0.23942291736602783,0.36485254764556885,9.02493953704834
2.2600000000000002,-0.07783117890357971,-0.1700940579175949,-0.053521472960710526,-0.23727089166641235,0.39939141273498535,9.527554512023926
2.2800000000000002,-0.11549429595470428,-0.14942984282970428,-0.03746984153985977,-0.13848835229873657,0.4307386577129364,9.914996147155762
2.3000000000000003,-0.1457127183675766,-0.15253271162509918,-0.018641918897628784,0.02486683428287506,0.6201379299163818,9.947122573852539
2.32,-0.0996038094162941,-0.15469259023666382,-0.0005942636053077877,0.08794143795967102,0.556885838508606,9.73853588104248
2.34,-0.07796259969472885,-0.13919022679328918,-0.006715324707329273,0.1127842590212822,0.23314492404460907,9.395609855651855
2.36,-0.11252767592668533,-0.1178872287273407,6.653411401202902e-05,0.19116844236850739,0.04064556211233139,9.482283592224121
2.38,-0.05822828412055969,-0.09761779010295868,0.015528087504208088,0.24484659731388092,-0.03111567348241806,9.931368827819824
2.4,-0.05103714391589165,-0.08925116062164307,0.003272400936111808,0.3429444134235382,-0.1772436648607254,10.298246383666992
2.42,-0.014735952019691467,-0.07658370584249496,0.03010484389960766,0.6615755558013916,-0.49756988883018494,9.864080429077148
2.44,0.013844690285623074,-0.022645719349384308,0.027772774919867516,0.791094183921814,-0.6806178689002991,9.568482398986816
2.46,0.03405149281024933,0.04712814837694168,0.04341880604624748,0.7937983870506287,-0.6345914006233215,9.349760055541992
2.48,0.024938158690929413,0.10203256458044052,0.03389052301645279,0.791050136089325,-0.4705381691455841,9.110779762268066
2.5,-0.0037093639839440584,0.12110455334186554,0.0059467339888215065,0.5543082356452942,-0.1305764615535736,9.163376808166504
2.52,-0.010486289858818054,0.1305597871541977,-0.023277688771486282,0.4283757507801056,0.2583969831466675,9.47761058807373
2.54,-0.05245503783226013,0.16647863388061523,-0.06329091638326645,0.28921371698379517,0.19297625124454498,9.607211112976074
2.56,-0.06896311789751053,0.20322632789611816,-0.07363107055425644,0.5118253827095032,0.13645650446414948,9.39832592010498
2.58,-0.02821754477918148,0.1641262173652649,-0.057993486523628235,0.8391619920730591,-0.12317881733179092,9.481441497802734
2.6,0.030585123226046562,0.11822344362735748,0.011349526233971119,0.79105544090271,-0.5253162384033203,10.6984224319458
2.62,0.022295031696558,0.12400904297828674,0.051629286259412766,0.3561670184135437,-0.3184987008571625,11.097871780395508
2.64,0.03201670199632645,0.0787370577454567,0.04998587816953659,-0.04489920288324356,0.038341812789440155,10.461301803588867
2.66,0.017612723633646965,0.021762680262327194,0.02714889496564865,-0.4290250539779663,0.21750397980213165,9.418855667114258
2.68,0.0020670993253588676,0.0070344205014407635,0.0013084409292787313,-0.5156022310256958,0.5768440365791321,9.551348686218262
2.7,-0.024423282593488693,0.014923065900802612,0.009440074674785137,-0.39138105511665344,0.7457429766654968,10.021310806274414
2.72,-0.0026954582426697016,-0.02260676771402359,0.0025503907818347216,-0.27703747153282166,0.40338361263275146,10.137608528137207
2.74,0.0033754371106624603,-0.0569009892642498,-0.0002208047517342493,-0.29214200377464294,-0.20404525101184845,9.728230476379395
2.7600000000000002,-0.015934878960251808,-0.06493113934993744,0.011227044276893139,-0.26353955268859863,-0.44917064905166626,9.140474319458008
2.7800000000000002,-0.024112630635499954,-0.0702739804983139,0.01513614784926176,-0.1667049080133438,-0.3929803669452667,9.275527000427246
2.8000000000000003,-0.032730117440223694,-0.05724536255002022,0.01546490378677845,-0.1177610233426094,-0.2030925154685974,9.423406600952148
2.82,-0.022643789649009705,-0.0723809227347374,0.024319367483258247,-0.0009420014685019851,-0.20801012217998505,9.964070320129395
2.84,-0.008130484260618687,-0.07765963673591614,0.02186189778149128,0.10321813076734543,-0.1484106481075287,9.900781631469727
2.86,0.015940016135573387,-0.04878224804997444,0.016924601048231125,0.16629686951637268,-0.09226097166538239,9.609198570251465
2.88,0.011632893234491348,-0.020707080140709877,0.00603384617716074,0.1598719209432602,-0.08497682958841324,9.410036087036133
2.9,0.012585051357746124,-0.0013611245667561889,-0.008558499626815319,0.31100207567214966,-0.1177368015050888,9.425233840942383
2.92,-0.012380121275782585,-0.01112865936011076,-0.03392409533262253,0.5192678570747375,-0.0009631564607843757,9.652032852172852
2.94,0.014368032105267048,-0.010038298554718494,-0.019657474011182785,0.4253291189670563,0.22988848388195038,10.59394359588623
2.96,0.050601162016391754,0.016779525205492973,0.0011190071236342192,0.32084548473358154,0.14398103952407837,10.529096603393555
2.98,0.08598614484071732,0.010824041441082954,0.03336561471223831,0.27348607778549194,-0.046475816518068314,10.040136337280273
3.0,0.12986448407173157,0.010830276645720005,0.05804434418678284,0.22674237191677094,-0.3688112795352936,9.603092193603516
3.02,0.12464799731969833,0.017411427572369576,0.042501769959926605,0.09621287137269974,-0.4351922273635864,9.648945808410645
3.04,0.11543790996074677,0.009241229854524136,0.011490141972899437,0.032666854560375214,-0.19463957846164703,9.833881378173828
3.06,0.1020900085568428,-0.00904332846403122,0.0002954344963654876,0.07442887127399445,0.07278547435998917,9.83099365234375
3.08,0.08293461799621582,-0.03922712430357933,-0.028402522206306458,0.017119044438004494,0.1840546876192093,10.090526580810547
3.1,0.09368094801902771,-0.049984633922576904,-0.028305737301707268,0.010528300888836384,0.2427457571029663,9.917670249938965
3.12,0.07480644434690475,-0.03376230597496033,-0.01940794102847576,-0.09464465826749802,0.10506144911050797,9.94080638885498
3.14,0.09289314597845078,-0.03741078078746796,-0.0018618914764374495,-0.13920007646083832,0.007190217729657888,10.033163070678711
3.16,0.0539032481610775,-0.04987580329179764,-0.016177406534552574,-0.1315270960330963,0.12592078745365143,9.92224407196045
3.18,0.057889409363269806,-0.06644083559513092,0.002474486129358411,-0.0848843902349472,0.2300635725259781,9.852840423583984
3.2,0.01823449693620205,-0.06104256957769394,-0.0006979391328059137,-0.24822019040584564,0.2851366102695465,9.941827774047852
3.22,-0.025624599307775497,-0.05479193851351738,-0.008648748509585857,-0.2875925600528717,0.4762691557407379,10.007956504821777
3.24,-0.03911035507917404,-0.04014868661761284,-0.01571168750524521,-0.1582810878753662,0.4770050346851349,9.934045791625977
3.2600000000000002,-0.05379500240087509,-0.008528510108590126,-0.0502912737429142,-0.15835364162921906,0.2570001184940338,9.646775245666504
3.2800000000000002,-0.08089631050825119,0.021937482059001923,-0.0684327557682991,0.08760697394609451,0.11162559688091278,9.630542755126953
3.3000000000000003,-0.06678509712219238,-0.0005103711155243218,-0.07341872900724411,0.45129650831222534,0.08488655090332031,9.524605751037598
3.3200000000000003,-0.09843849390745163,0.00040421774610877037,-0.06287448853254318,0.7993893027305603,0.1263006627559662,10.003073692321777
3.34,-0.09747081995010376,0.003984750248491764,-0.040417518466711044,1.0166958570480347,0.28237929940223694,10.141265869140625
3.36,-0.04771842435002327,0.02729613706469536,-0.03635633364319801,0.9615328907966614,0.09666169434785843,9.77306842803955
3.38,-0.005561468657106161,0.04989708214998245,-0.043486155569553375,0.9576274752616882,0.10018015652894974,8.9733247756958
3.4,0.021016743034124374,0.04316281899809837,-0.06503662467002869,0.8046308755874634,-0.20591720938682556,9.24101734161377
3.42,-0.040636952966451645,0.052882079035043716,-0.08067253232002258,0.6089220643043518,-0.19434824585914612,9.58100414276123
3.44,-0.026067910715937614,0.05938754230737686,-0.061430368572473526,0.585777759552002,-0.019279127940535545,10.25666618347168
3.46,0.012654098682105541,0.05434194207191467,-0.030278164893388748,0.5889959335327148,-0.032908737659454346,10.409097671508789
3.48,-0.03519114479422569,0.07488459348678589,-0.010666335932910442,0.5248053073883057,0.09793688356876373,9.934436798095703
3.5,-0.04787394031882286,0.08621611446142197,0.013886924833059311,0.5124664306640625,0.4098949432373047,8.961888313293457
3.52,0.010738697834312916,0.06593342125415802,0.016613764688372612,0.33461567759513855,0.4714427590370178,8.283686637878418
3.54,-0.025087937712669373,0.03985781595110893,0.012062911875545979,0.20323951542377472,0.3948080241680145,8.45450210571289
3.56,-0.07707598805427551,-3.786899833357893e-05,0.0020755366422235966,0.326460063457489,0.3380468189716339,8.908702850341797
3.58,-0.04859992489218712,-0.029570238664746284,-0.0001912237494252622,0.16882096230983734,0.023335833102464676,9.496087074279785
3.6,-0.19045880436897278,-0.02682318352162838,-8.913180499803275e-05,-0.20471638441085815,-0.1857036054134369,10.279437065124512
3.62,-0.09211479872465134,-0.06581605970859528,0.024449653923511505,-0.3130019009113312,-0.009367072023451328,10.45223331451416
3.64,0.017877142876386642,-0.07335405796766281,0.07715362310409546,-0.9171505570411682,-0.31829673051834106,10.977977752685547
3.66,-0.0194866880774498,-0.01467939279973507,0.10179869085550308,-1.2611441612243652,-0.586172342300415,10.153024673461914
3.68,0.003735986305400729,-0.01838628575205803,0.11702469736337662,-0.9364460706710815,0.1992969959974289,9.4130859375
3.7,0.027081195265054703,-0.04010985419154167,0.09766372293233871,-0.631080687046051,0.28934672474861145,9.630221366882324
3.72,0.07347388565540314,-0.05461886152625084,0.04788598418235779,-0.17452609539031982,-0.05620020627975464,9.947271347045898
3.74,0.08130762726068497,-0.02658683992922306,0.00971301645040512,0.1019066572189331,-0.5571613311767578,10.186967849731445
3.7600000000000002,0.0595310814678669,-0.029386069625616074,-0.012173210270702839,0.08312223106622696,-0.9650470614433289,9.9970703125
3.7800000000000002,0.0917799174785614,-0.010652168653905392,-0.03080751560628414,0.06014255806803703,-0.9033178687095642,9.81848430633545
3.8000000000000003,0.09147762507200241,0.02276984229683876,-0.02115645818412304,0.23709607124328613,-0.6437398195266724,9.531932830810547
3.8200000000000003,0.12738138437271118,0.03016674518585205,-0.043681349605321884,0.49794596433639526,-0.3636086881160736,9.3670072555542
3.84,0.07645639777183533,0.026955081149935722,-0.03853929042816162,0.46448808908462524,-0.13522273302078247,9.400530815124512
3.86,0.10586094111204147,0.017357751727104187,-0.04956973344087601,0.3781965672969818,0.20302525162696838,10.09311580657959
3.88,0.0748230516910553,0.04053032025694847,-0.05146143585443497,0.38796016573905945,0.36511608958244324,9.779417037963867
3.9,0.06331221014261246,0.07017093151807785,-0.036494918167591095,0.5221231579780579,0.4154406487941742,9.964547157287598
3.92,0.0655437782406807,0.06925027072429657,-0.02649242989718914,0.6905850768089294,0.5284380316734314,10.224106788635254
3.94,0.06375918537378311,0.023208077996969223,0.021048035472631454,0.8985226154327393,0.6848909258842468,10.224541664123535
3.96,0.02475166879594326,-0.008144805207848549,0.04759984090924263,0.9469887018203735,0.5820925831794739,9.696331977844238
3.98,-0.011964602395892143,-0.0024481555446982384,0.042189400643110275,0.7151104807853699,0.4457700550556183,9.528076171875
4.0,-0.028456712141633034,-0.00460100919008255,0.020983343943953514,0.35255542397499084,0.2978290319442749,9.605273246765137
4.0200000000000005,-0.04252301901578903,-0.04201133921742439,-0.0033787277061492205,0.05174605920910835,0.2829386293888092,9.88614559173584
4.04,-0.08000921458005905,-0.06547984480857849,-0.03573952242732048,-0.028212711215019226,0.35040855407714844,9.528661727905273
4.0600000000000005,-0.08235138654708862,-0.06720936298370361,-0.03803737834095955,-0.48619621992111206,0.37632226943969727,9.809710502624512
4.08,-0.016490403562784195,-0.08991385251283646,-0.010373247787356377,-0.9100257158279419,-0.019823715090751648,10.14370059967041
4.1,0.010996781289577484,-0.0775049701333046,0.02417648769915104,-0.8724824786186218,-0.11277836561203003,10.35642147064209
4.12,0.02040223591029644,-0.0908292680978775,0.040695298463106155,-0.5734443664550781,0.018979908898472786,10.054471969604492
4.14,0.03182700276374817,-0.12626227736473083,0.05986994877457619,-0.0690242126584053,0.1508491337299347,9.91658878326416
4.16,0.022631432861089706,-0.10380863398313522,0.051710136234760284,0.3356897830963135,0.2143152952194214,9.932994842529297
4.18,0.030393533408641815,-0.09899205714464188,0.037480998784303665,0.7248328328132629,0.05044107139110565,9.654157638549805
4.2,0.041140735149383545,-0.05711865797638893,0.039170779287815094,0.6352763175964355,-0.39679011702537537,9.24661636352539
4.22,0.07127055525779724,0.001498787198215723,0.006869210395962,0.40002864599227905,-0.38161858916282654,9.078675270080566
4.24,0.10016804188489914,0.04674530029296875,-0.009596125222742558,0.0707569271326065,-0.18322134017944336,9.7584810256958
4.26,0.051972102373838425,0.016305450350046158,0.009781857952475548,0.11938074231147766,-0.05380764603614807,10.750296592712402
4.28,0.052732571959495544,-0.01649712212383747,0.0009006886975839734,0.45084619522094727,0.2438029795885086,10.774617195129395
4.3,0.093782439827919,0.017103753983974457,0.0003633831220213324,0.7029398083686829,0.27205950021743774,9.874383926391602
4.32,0.0869024470448494,0.04287751764059067,0.01478161197155714,0.8257759809494019,0.15767033398151398,8.94532585144043
4.34,0.036837387830019,0.08175618946552277,0.011959334835410118,0.9457898139953613,0.36978211998939514,8.957139015197754
4.36,0.018794702365994453,0.04530806094408035,0.023453833535313606,0.9021807312965393,0.4511517882347107,9.75310230255127
4.38,-0.009907376021146774,0.010736383497714996,0.021305302157998085,0.6891432404518127,0.32833799719810486,10.509112358093262
4.4,-0.005602089688181877,0.04498153552412987,-0.005573267117142677,0.4839041829109192,0.24738241732120514,10.27501106262207
4.42,0.04192067310214043,0.08500073850154877,-0.02583484724164009,0.3846878111362457,0.09337978810071945,9.624395370483398
4.44,0.02060220018029213,0.12388180941343307,-0.05405418574810028,0.4250205457210541,0.04826846346259117,9.064788818359375
4.46,0.015958450734615326,0.11962734162807465,-0.07484627515077591,0.3459552824497223,0.19325102865695953,8.992766380310059
4.48,-0.023859340697526932,0.10555017739534378,-0.08728335797786713,0.2774204909801483,0.24393367767333984,9.172451972961426
4.5,-0.04460491985082626,0.08180329948663712,-0.09109234064817429,0.1637066751718521,0.29705268144607544,9.512846946716309
4.5200000000000005,0.005008550360798836,0.09633529931306839,-0.07271088659763336,-0.016390129923820496,0.27667778730392456,9.889762878417969
4.54,-0.011974574998021126,0.14935016632080078,-0.047497425228357315,-0.17303310334682465,0.16367453336715698,10.228673934936523
4.5600000000000005,0.01899721659719944,0.1438007950782776,-0.03311401233077049,-0.14983083307743073,0.18050344288349152,10.061789512634277
4.58,0.03259196877479553,0.14685122668743134,-0.03702748939394951,-0.22654931247234344,0.1558489054441452,9.992279052734375
4.6000000000000005,0.04840980842709541,0.1685439646244049,-0.03964025899767876,-0.17121030390262604,0.11888841539621353,10.095311164855957
4.62,0.042643602937459946,0.1604038029909134,-0.06785853207111359,0.0261317640542984,0.07061918824911118,10.4592924118042
4.64,0.04270021989941597,0.11457549035549164,-0.060893673449754715,0.25389647483825684,0.16773459315299988,10.358720779418945
4.66,0.06036471202969551,0.07051075994968414,-0.0411236435174942,0.30936259031295776,0.290391206741333,9.868802070617676
4.68,0.056698378175497055,0.0303097702562809,-0.0029260118026286364,0.1543787568807602,0.3156415820121765,9.343212127685547
4.7,0.050401121377944946,0.024300608783960342,0.020012469962239265,-0.06890469044446945,0.21840615570545197,9.103918075561523
4.72,0.011202740482985973,-0.020494308322668076,0.04325531795620918,-0.2097969949245453,0.11112961173057556,9.180414199829102
4.74,-0.024022141471505165,-0.07275629043579102,0.061024732887744904,-0.24091042578220367,0.18860690295696259,9.118456840515137
4.76,-0.004259286914020777,-0.13538438081741333,0.06725402921438217,0.00975565891712904,0.4879230558872223,8.970987319946289
4.78,0.01148700900375843,-0.17916235327720642,0.08158215135335922,-0.13069167733192444,0.3557870090007782,9.087393760681152
4.8,-0.07390428334474564,-0.1920243203639984,0.048797544091939926,-0.6249272227287292,0.3074556291103363,9.842294692993164
4.82,-0.039846353232860565,-0.20706890523433685,-0.008381829597055912,-1.0982147455215454,0.600203275680542,10.824908256530762
4.84,-0.016276128590106964,-0.17212353646755219,-0.052362605929374695,-1.5199812650680542,0.8310218453407288,11.182156562805176
4.86,-0.058668117970228195,-0.1648271530866623,-0.062493011355400085,-1.4968011379241943,0.6220427751541138,10.73184585571289
4.88,-0.046623826026916504,-0.1479126662015915,-0.06496407091617584,-1.3429228067398071,0.08124731481075287,9.924151420593262
4.9,-0.05641574040055275,-0.17078500986099243,-0.04890225827693939,-0.48259687423706055,-0.20312818884849548,9.405017852783203
4.92,-0.07225209474563599,-0.15897007286548615,-0.06583750247955322,0.21691133081912994,-0.3301056921482086,9.474148750305176
4.94,-0.03099817782640457,-0.12380953133106232,-0.06433498114347458,0.8408657312393188,-0.15013472735881805,9.733821868896484
4.96,-0.016015008091926575,-0.08443041890859604,-0.07135128974914551,1.1411763429641724,-0.14521299302577972,9.748968124389648
4.98,-0.03728870674967766,-0.05208268761634827,-0.06557296216487885,1.1341112852096558,0.1716810166835785,9.611681938171387
5.0,-0.0546967051923275,-0.05233081430196762,-0.07347527891397476,1.070876955986023,0.36398911476135254,9.892243385314941
5.0200000000000005,-0.04507090896368027,-0.03269097954034805,-0.08711837977170944,0.8861982226371765,0.36346235871315,10.158918380737305
5.04,-0.07213932275772095,-0.0069665159098804,-0.09552408754825592,0.6617569923400879,0.1744752675294876,10.202939987182617
5.0600000000000005,-0.10397214442491531,0.007876643911004066,-0.09050421416759491,0.3688007891178131,0.07408060133457184,9.715924263000488
5.08,-0.0916597917675972,0.03365335613489151,-0.10274555534124374,0.1582137942314148,0.1839025467634201,9.563114166259766
5.1000000000000005,-0.0770927220582962,0.04941437393426895,-0.08716032654047012,0.16957390308380127,0.23093298077583313,9.965744972229004
5.12,-0.1288675218820572,0.05212225019931793,-0.08277156203985214,0.49092039465904236,0.3832963705062866,10.484731674194336
5.14,-0.15586110949516296,0.012603557668626308,-0.059480030089616776,1.000854730606079,0.5368331670761108,10.4555025100708
5.16,-0.12005911767482758,-0.06293775886297226,-0.016575206071138382,1.151406168937683,0.44341278076171875,10.436307907104492
5.18,-0.09470337629318237,-0.0723688155412674,0.03625423088669777,0.7540618777275085,0.3647296726703644,10.479318618774414
5.2,-0.10001858323812485,-0.028372231870889664,0.0932263657450676,0.6249643564224243,0.17956791818141937,9.977370262145996
5.22,-0.1015533059835434,-0.019806748256087303,0.1341158002614975,0.6738613247871399,0.03908879682421684,8.957162857055664
5.24,-0.09748122096061707,-0.022830376401543617,0.1594398021697998,0.5176032185554504,0.11374150961637497,8.684124946594238
5.26,-0.10154088586568832,-0.02184789814054966,0.18505626916885376,0.36298668384552,0.254917174577713,8.45465087890625
5.28,-0.041677601635456085,-0.0020665277261286974,0.21050116419792175,0.1341376006603241,0.15620878338813782,9.062652587890625
5.3,0.0030428802128881216,0.0019332587253302336,0.23511871695518494,0.0013531518634408712,0.2175551801919937,9.005568504333496
5.32,0.0392315573990345,0.025002911686897278,0.2609826624393463,0.1446385234594345,0.14296720921993256,9.614912986755371
5.34,0.07114371657371521,0.058319054543972015,0.26525744795799255,0.4147223234176636,-0.3401832580566406,9.626964569091797
5.36,0.08636664599180222,0.05368931591510773,0.23761726915836334,0.7357991933822632,-0.4685371518135071,9.830684661865234
5.38,0.12130541354417801,0.09321743249893188,0.18766310811042786,0.9085883498191833,-0.5117883682250977,9.29413890838623
5.4,0.14344191551208496,0.1202121153473854,0.13467007875442505,0.7295781970024109,-0.6558254361152649,9.406641006469727
5.42,0.09236108511686325,0.16338790953159332,0.09719343483448029,0.6014134287834167,-0.7041301727294922,9.675864219665527
5.44,0.14340151846408844,0.16694194078445435,0.06616372615098953,0.7300235033035278,-0.6281341314315796,9.5814790725708
5.46,0.16999612748622894,0.13700339198112488,0.06133328378200531,0.4443055987358093,-0.5100271105766296,9.324700355529785
5.48,0.182999849319458,0.14345909655094147,0.05891278386116028,0.2715432643890381,-0.1741989105939865,9.403634071350098
5.5,0.1970118284225464,0.1527411937713623,0.058056991547346115,0.3754517436027527,0.024895939975976944,9.395676612854004
5.5200000000000005,0.1775207668542862,0.13183313608169556,0.07286665588617325,0.3585295081138611,0.013325048610568047,9.776606559753418
5.54,0.11928447335958481,0.06961220502853394,0.04656582325696945,-0.2792533040046692,0.06963341683149338,10.344362258911133
5.5600000000000005,0.05642623081803322,0.0472831204533577,-0.0017988585168495774,-0.7189030647277832,0.4094884693622589,10.77265739440918
5.58,0.01993374712765217,0.0474737249314785,-0.044988907873630524,-0.566977858543396,0.7625566124916077,10.824377059936523
5.6000000000000005,0.029650980606675148,0.03359401226043701,-0.05660909786820412,-0.44924813508987427,0.8709142208099365,10.138500213623047
5.62,0.05303782597184181,-0.014870241284370422,-0.045839615166187286,-0.3449612855911255,0.5898359417915344,9.052417755126953
5.64,0.031258340924978256,-0.06779775023460388,-0.042634617537260056,-0.3802119493484497,0.5385344624519348,8.951130867004395
5.66,-0.004483270924538374,-0.11261097341775894,-0.03784395754337311,-0.47465279698371887,0.7324343919754028,9.671618461608887
5.68,-0.027707021683454514,-0.11261632293462753,-0.029899507761001587,-0.6136161088943481,0.7073937654495239,10.72769546508789
5.7,-0.013385104946792126,-0.09916651248931885,-0.004149978049099445,-0.9291344285011292,0.2294645607471466,10.797784805297852
5.72,-0.04584519565105438,-0.042388398200273514,-0.007065491750836372,-1.367241382598877,0.03395397961139679,10.13961124420166
5.74,-0.04490933194756508,-0.003571926848962903,-0.023748740553855896,-1.2305281162261963,0.21838484704494476,9.779386520385742
5.76,-0.07520125806331635,-0.04132680222392082,-0.03564094752073288,-0.08933946490287781,0.5898696184158325,9.582406997680664
5.78,-0.05428926274180412,-0.06543910503387451,-0.04683662950992584,0.33938610553741455,0.4855230450630188,9.423933029174805
5.8,-0.03333291411399841,-0.025714101269841194,-0.07132133841514587,0.2980966567993164,0.11990896612405777,9.8795166015625
5.82,-0.07174443453550339,0.01754416711628437,-0.08080348372459412,0.5793014168739319,-0.09795470535755157,10.092287063598633
5.84,-0.038580454885959625,0.032132674008607864,-0.03806222230195999,0.8130149245262146,-0.0843985378742218,10.032818794250488
5.86,-0.023598268628120422,0.050193529576063156,0.03324204310774803,0.49319517612457275,0.009214537218213081,9.807306289672852
5.88,-0.025248076766729355,0.07177182286977768,0.07643453776836395,0.19836848974227905,0.24662373960018158,9.74760913848877
5.9,-0.061577945947647095,0.04488188028335571,0.07758251577615738,0.2338029146194458,0.5339549779891968,9.922783851623535
5.92,-0.06445299088954926,0.05169301852583885,0.07475206255912781,0.30992165207862854,0.6242140531539917,10.153497695922852
5.94,-0.01845003478229046,0.0762983113527298,0.0574701651930809,0.4426943063735962,0.4768937826156616,10.224469184875488
5.96,-0.022295771166682243,0.0854245275259018,0.042490582913160324,0.8037752509117126,0.16737903654575348,9.862908363342285
5.98,0.0012402406428009272,0.06352892518043518,0.023426277562975883,0.8623006939888,0.0007259987178258598,9.715088844299316
6.0,0.0045278617180883884,0.03721406310796738,0.007277937140315771,0.6982269287109375,-0.3062390089035034,9.314279556274414
6.0200000000000005,-0.030199049040675163,0.010336292907595634,-0.006555118598043919,0.1228276789188385,-0.40960466861724854,9.793919563293457
6.04,-0.0608396902680397,0.002242587273940444,0.0002520423149690032,-0.41074663400650024,-0.19617588818073273,10.226479530334473
6.0600000000000005,-0.058578383177518845,-0.007707394193857908,0.011310340836644173,-0.49815618991851807,0.09096992760896683,9.880036354064941
6.08,-0.04093838855624199,-0.02230674773454666,0.020491858944296837,-0.1866168975830078,0.39962661266326904,9.337148666381836
6.1000000000000005,-0.028293421491980553,-0.051290176808834076,0.005952904000878334,-0.033419229090213776,0.3425968289375305,9.129497528076172
6.12,-0.04436585679650307,-0.0380464568734169,-0.013660668395459652,-0.13073675334453583,0.23840372264385223,9.59208869934082
6.140000000000001,-0.041761163622140884,-0.017409006133675575,-0.041975781321525574,-0.03276558965444565,0.10139991343021393,9.745572090148926
6.16,-0.06733521074056625,-0.05228003114461899,-0.04742821678519249,-0.022698186337947845,-0.011217298917472363,9.771113395690918
6.18,-0.08408273756504059,-0.0725708082318306,-0.03901786729693413,-0.2449750155210495,-0.004181278869509697,10.26883602142334
6.2,-0.11406826227903366,-0.061725445091724396,-0.028460903093218803,-0.4939594864845276,0.2195534110069275,10.489129066467285
6.22,-0.10194143652915955,-0.03464432805776596,-0.02228708751499653,-0.3732343018054962,0.30772146582603455,10.23548412322998
6.24,-0.07091888785362244,-0.02210700325667858,-0.009644271805882454,-0.100000761449337,0.09236395359039307,9.692414283752441
6.26,-0.061194371432065964,-0.0064690811559557915,-0.012399958446621895,0.25104352831840515,-0.06905537098646164,9.195405960083008
6.28,-0.050856199115514755,-0.00600875448435545,-0.003222324186936021,0.560793399810791,-0.053494058549404144,9.243313789367676
6.3,-0.026197165250778198,-0.0027152388356626034,-0.00873058196157217,0.8879469037055969,-0.2207137942314148,9.45169734954834
6.32,-0.024450432509183884,-0.01865348033607006,0.013651955872774124,1.0281535387039185,-0.3323517441749573,9.437098503112793
6.34,0.013197333551943302,-0.007438157685101032,0.028714124113321304,1.07666015625,-0.27266183495521545,9.153810501098633
6.36,0.06435542553663254,-0.004742791876196861,0.024734528735280037,0.9692490100860596,-0.23732471466064453,8.784749984741211
6.38,0.08374222368001938,0.0249387938529253,0.017069406807422638,0.63109290599823,-0.11906985938549042,8.681741714477539
6.4,0.14120961725711823,0.04997393488883972,0.035031069070100784,0.2436806708574295,-0.18998940289020538,9.118294715881348
6.42,0.13518090546131134,0.06758145987987518,0.045957960188388824,0.059954363852739334,-0.6820606589317322,9.793445587158203
6.44,0.14474020898342133,0.05764210969209671,0.048945266753435135,0.028067750856280327,-0.896777331829071,9.881681442260742
6.46,0.13979080319404602,0.05144307017326355,0.04238627478480339,-0.2983958125114441,-0.642623782157898,10.354598999023438
6.48,0.1869177520275116,0.08212924748659134,0.032442040741443634,-0.4058569073677063,-0.26947009563446045,10.50607967376709
6.5,0.18947526812553406,0.11869210749864578,0.036896493285894394,-0.14326205849647522,-0.11417015641927719,10.353979110717773
6.5200000000000005,0.1384061723947525,0.12187203764915466,0.036325711756944656,0.09844973683357239,0.12440110743045807,10.06213665008545
6.54,0.1453985720872879,0.09941627830266953,0.045947425067424774,0.10372108221054077,0.43541425466537476,9.586718559265137
6.5600000000000005,0.17428719997406006,0.08393342047929764,0.059944167733192444,-0.046107541769742966,0.5467215180397034,9.455288887023926
6.58,0.12980002164840698,0.06913261860609055,0.053395260125398636,-0.19027407467365265,0.6943392753601074,9.867547035217285
6.6000000000000005,0.07179270684719086,0.07780224829912186,0.0176403746008873,-0.33090776205062866,1.1800287961959839,10.054842948913574
6.62,0.08158783614635468,0.060918040573596954,0.00163513224106282,-0.527570366859436,1.141139268875122,10.278935432434082
6.640000000000001,0.09081066399812698,0.06627288460731506,-0.006797798443585634,-0.5826395750045776,0.7442352175712585,10.31750774383545
6.66,0.05298060178756714,0.051904622465372086,-0.027286333963274956,-0.6930530071258545,0.458680659532547,10.469257354736328
6.68,0.0339958555996418,0.011786140501499176,-0.051106397062540054,-0.6173850297927856,0.5392218232154846,10.016701698303223
6.7,0.014859244227409363,-0.010815629735589027,-0.07328663021326065,-0.13639220595359802,0.5349403023719788,9.59131908416748
6.72,-0.03363821655511856,-0.02088869921863079,-0.037959024310112,0.06351090222597122,0.4503639340400696,9.653768539428711
6.74,-0.03715860843658447,-0.0603439025580883,-0.028723103925585747,0.11391378939151764,0.45229554176330566,10.175570487976074
6.76,-0.06881583482027054,-0.11434364318847656,-0.03849642351269722,0.04312359541654587,0.45702749490737915,10.316482543945312
6.78,-0.05974409356713295,-0.10408996790647507,-0.013849994167685509,-0.3380744755268097,0.20438408851623535,10.340641021728516
6.8,-0.07453159242868423,-0.0778801292181015,0.016696369275450706,-0.6127259731292725,-0.06429325044155121,10.271613121032715
6.82,-0.04970693215727806,-0.06531977653503418,0.020457882434129715,-0.5788448452949524,-0.02871418185532093,9.81033992767334
6.84,-0.05736111104488373,-0.06382609158754349,0.06495143473148346,-0.3486516773700714,0.06848809868097305,8.856683731079102
6.86,-0.07333461195230484,-0.07409501820802689,0.08043429255485535,-0.0966436043381691,0.12093158066272736,8.94576644897461
6.88,-0.06693316251039505,-0.08507426083087921,0.07392045110464096,0.1024925708770752,0.3568357229232788,9.556689262390137
6.9,-0.07866568863391876,-0.07777688652276993,0.08091864734888077,0.01091378927230835,0.5452435612678528,10.082743644714355
6.92,-0.08339244872331619,-0.06706339120864868,0.050794217735528946,0.4752930700778961,0.46040335297584534,10.013909339904785
6.94,-0.08672722429037094,-0.05826115235686302,0.01397920586168766,0.7384634613990784,0.238343745470047,9.4907808303833
6.96,-0.11307521164417267,-0.045109692960977554,0.0041990820318460464,0.8725975751876831,0.20960672199726105,9.067566871643066
6.98,-0.10414861142635345,-0.046556513756513596,-0.0039864941500127316,0.6407070755958557,0.4221508204936981,9.62918758392334
7.0,-0.0921119824051857,-0.03474830836057663,0.002256841165944934,0.18969431519508362,0.4642411172389984,10.606929779052734
7.0200000000000005,-0.08661431074142456,-0.047727346420288086,-0.014217925257980824,-0.039732687175273895,0.61081463098526,10.83949089050293
7.04,-0.12276101112365723,-0.05416790023446083,-0.029714878648519516,-0.09754542261362076,0.6871006488800049,10.333747863769531
7.0600000000000005,-0.08312073349952698,-0.04082939401268959,-0.031110750511288643,-0.15056675672531128,0.2188873440027237,9.596207618713379
7.08,-0.07205244153738022,-0.019567206501960754,-0.026380246505141258,-0.026491263881325722,-0.143256276845932,9.44916820526123
7.1000000000000005,-0.06724807620048523,-0.010244857519865036,0.016150014474987984,0.1801028549671173,-0.26887965202331543,9.614418029785156
7.12,-0.07260622829198837,-0.02255074307322502,0.01835075207054615,0.4262976348400116,-0.23228469491004944,9.988847732543945
7.140000000000001,-0.05568490922451019,-0.04126224294304848,0.031054554507136345,0.5035822987556458,-0.2099924087524414,10.042229652404785
7.16,-0.04763652756810188,-0.043825410306453705,0.02680821157991886,0.46312204003334045,-0.21834196150302887,9.931782722473145
7.18,-0.014475947245955467,-0.035128235816955566,0.002344996901229024,0.378661185503006,-0.24702030420303345,9.349990844726562
7.2,0.015675976872444153,-0.013012328185141087,-0.012214940041303635,0.2057209610939026,-0.25147709250450134,8.980941772460938
7.22,0.041442688554525375,-0.0002939802943728864,-0.018067043274641037,0.17078165709972382,-0.20594333112239838,9.083891868591309
7.24,0.012053186073899269,0.027243277058005333,-0.022112451493740082,0.1477954089641571,-0.18712668120861053,9.574915885925293
7.26,0.06302770972251892,0.043745554983615875,-0.009398107416927814,0.2155640423297882,-0.17774136364459991,9.846336364746094
7.28,0.0581338033080101,0.057177212089300156,0.02119826152920723,0.3297252655029297,-0.145307257771492,9.8199462890625
7.3,0.0640307366847992,0.05868671461939812,0.04122869297862053,0.5235185623168945,-0.09082669764757156,9.604076385498047
7.32,0.06692635267972946,0.07635261118412018,0.03754725679755211,0.7289977669715881,-0.029322195798158646,9.395424842834473
7.34,0.08001776784658432,0.0943622812628746,0.04011733829975128,0.7189679145812988,0.0009967101505026221,9.191333770751953
7.36,0.10068123042583466,0.12579478323459625,0.041290462017059326,0.6210035085678101,0.07584311068058014,9.171393394470215
7.38,0.07534731179475784,0.15165352821350098,0.012120543047785759,0.45405980944633484,0.08136512339115143,9.614441871643066
7.4,0.04221554845571518,0.11676584929227829,0.0003598410985432565,0.16736182570457458,0.1778704673051834,9.983920097351074
7.42,0.008129749447107315,0.09443210065364838,-0.010770068503916264,-0.19936293363571167,0.40249255299568176,10.289183616638184
7.44,0.019962234422564507,0.0733688473701477,-0.0014115982921794057,-0.2669319808483124,0.5125505924224854,10.192826271057129
7.46,-0.010996581055223942,0.06342945992946625,0.03068508580327034,-0.08433914184570312,0.37049251794815063,9.881763458251953
7.48,-0.009720674715936184,0.006573018617928028,0.06759759038686752,0.4952682554721832,0.1760672777891159,9.709117889404297
7.5,0.01079762913286686,-0.04318717122077942,0.1259050816297531,0.29146644473075867,-0.04485386982560158,9.48110294342041
7.5200000000000005,0.0471697561442852,-0.10249865055084229,0.18358860909938812,0.42280274629592896,-0.2496764361858368,9.397165298461914
7.54,0.05308094993233681,-0.13531017303466797,0.2070830762386322,0.22997450828552246,-0.20749901235103607,9.338360786437988
7.5600000000000005,0.03015533648431301,-0.14936676621437073,0.21089689433574677,-0.7592695951461792,0.13265053927898407,9.496623992919922
7.58,0.07583118975162506,-0.13936084508895874,0.24444909393787384,-1.803472638130188,0.206923246383667,9.41884994506836
7.6000000000000005,0.1070176512002945,-0.13584275543689728,0.2928274869918823,-1.8035179376602173,0.35114166140556335,9.741897583007812
7.62,0.1076740175485611,-0.09682070463895798,0.31070026755332947,-1.284705400466919,0.665011465549469,9.068097114562988
7.640000000000001,0.10881460458040237,-0.07955092191696167,0.30418893694877625,-0.7837677597999573,0.9047134518623352,9.64365291595459
7.66,0.12767021358013153,-0.06653385609388351,0.262018620967865,-0.5155479907989502,0.6758950352668762,9.1311674118042
7.68,0.13278748095035553,-0.08046171069145203,0.23832286894321442,-0.30890369415283203,0.19298020005226135,10.61462116241455
7.7,0.06058420240879059,-0.12323776632547379,0.2112753838300705,0.0081642996519804,-0.23750914633274078,11.029118537902832
7.72,0.08056279271841049,-0.1144808977842331,0.21646343171596527,0.39811310172080994,0.0383688360452652,10.06132698059082
7.74,0.09706190228462219,-0.09912317991256714,0.20808161795139313,0.30618777871131897,0.2833400368690491,9.312468528747559
7.76,0.11480505019426346,-0.08806663751602173,0.20513011515140533,0.0774901732802391,0.2556421756744385,8.639642715454102
7.78,0.009053608402609825,-0.0652155950665474,0.17863275110721588,0.04394501447677612,0.5149747729301453,9.186829566955566
7.8,-0.07570189982652664,-0.0343983918428421,0.14306114614009857,0.10517670214176178,1.3090919256210327,9.371272087097168
7.82,-0.07075012475252151,-0.019672734662890434,0.14200067520141602,0.2622007429599762,1.3838629722595215,10.764392852783203
7.84,-0.03297174721956253,-0.037905726581811905,0.1501084566116333,0.5943635702133179,0.7556152939796448,9.79415512084961
7.86,-0.10367774963378906,-0.05773240700364113,0.21267415583133698,0.8964507579803467,0.47903960943222046,9.361859321594238
7.88,-0.07164011895656586,-0.0313149057328701,0.25161242485046387,0.6329721808433533,0.689542293548584,8.721659660339355
7.9,-0.05024121329188347,0.043226826936006546,0.3093114495277405,0.6488367319107056,0.7982060313224792,8.809882164001465
7.92,-0.10070447623729706,0.12357357889413834,0.29660797119140625,0.510330855846405,0.8457533121109009,9.287797927856445
7.94,-0.07285050302743912,0.11569799482822418,0.265608549118042,0.6293810606002808,0.8625771999359131,9.728535652160645
7.96,-0.06367353349924088,0.09630289673805237,0.2512618601322174,0.5461884140968323,0.27848970890045166,9.35781478881836
7.98,-0.05864301323890686,0.10065677762031555,0.24242861568927765,0.6039605736732483,0.07282377034425735,9.306169509887695
8.0,-0.04618990421295166,0.1263733059167862,0.248094379901886,0.7295487523078918,0.015779023990035057,10.058130264282227
8.02,-0.048967767506837845,0.16200971603393555,0.23264425992965698,0.5346226096153259,-0.2786289155483246,10.367610931396484
8.040000000000001,-0.0496581569314003,0.13235469162464142,0.20853805541992188,0.8197134137153625,-0.5120089054107666,9.619800567626953
8.06,0.016367318108677864,0.05409553274512291,0.21023792028427124,0.8400817513465881,-0.4882228970527649,8.143138885498047
8.08,0.024704087525606155,0.054817747324705124,0.23980364203453064,0.6827552318572998,-0.3409546911716461,8.646188735961914
8.1,0.023323211818933487,0.0916571244597435,0.2476181834936142,-0.002412637695670128,0.09187356382608414,10.448979377746582
8.120000000000001,-0.0065401033498346806,0.09789416193962097,0.23342512547969818,0.026984993368387222,0.0641794502735138,11.185667991638184
8.14,0.01726336032152176,0.05329224467277527,0.21951936185359955,0.09916292876005173,0.28681594133377075,10.608611106872559
8.16,0.014377540908753872,0.0371122732758522,0.21334068477153778,0.37680017948150635,0.7662204504013062,9.310673713684082
8.18,0.044852618128061295,0.0438874289393425,0.20082443952560425,0.4083766043186188,0.6543563604354858,8.858596801757812
8.2,0.01770707033574581,0.04699638485908508,0.18898726999759674,0.3234882950782776,0.46056169271469116,8.952728271484375
8.22,0.05586513876914978,0.0247461199760437,0.18636099994182587,0.28305357694625854,0.2664489150047302,9.161409378051758
8.24,0.025113258510828018,-0.006118238437920809,0.20297330617904663,0.28459709882736206,-0.004361387342214584,9.775446891784668
8.26,0.02571001648902893,-0.0010634680511429906,0.21558378636837006,0.4666081964969635,0.07438820600509644,9.941756248474121
8.28,0.047255631536245346,0.013564452528953552,0.24515517055988312,0.4591295123100281,0.2440047264099121,9.661209106445312
8.3,0.0580071397125721,0.04022321477532387,0.2654523253440857,0.11886590719223022,0.39804232120513916,9.190173149108887
8.32,-0.003498553764075041,0.023221710696816444,0.26331669092178345,-0.07809608429670334,0.30886945128440857,9.778681755065918
8.34,-0.036131422966718674,-0.029180429875850677,0.2318193018436432,-0.4420180916786194,0.4720856547355652,10.552937507629395
8.36,-0.023494400084018707,-0.02657814510166645,0.21839666366577148,-0.7136010527610779,0.21100068092346191,9.627962112426758
8.38,-0.0018038431880995631,0.002689135493710637,0.24809235334396362,-0.6310007572174072,-0.11272575706243515,8.80791187286377
8.4,-0.05224348604679108,0.00813018623739481,0.26227259635925293,-0.5480520725250244,-0.07798019796609879,8.731755256652832
8.42,-0.0006975607248023152,-0.010747197084128857,0.269155889749527,-0.2828938066959381,0.23139026761054993,9.759718894958496
8.44,-0.004479054361581802,-0.035621870309114456,0.25867003202438354,-0.16805224120616913,0.34005507826805115,10.888659477233887
8.46,-0.03643599525094032,-0.04622717574238777,0.2580389380455017,-0.1429702341556549,0.6250723004341125,10.230120658874512
8.48,0.013872493989765644,-0.08433899283409119,0.2638588845729828,-0.003086304757744074,0.5633820295333862,8.724312782287598
8.5,0.03630504757165909,-0.07217424362897873,0.26742252707481384,0.07501395046710968,0.5184327363967896,8.950961112976074
8.52,0.01454233005642891,-0.06153106316924095,0.26672863960266113,0.3799370229244232,0.23660622537136078,9.691549301147461
8.540000000000001,-0.015836749225854874,-0.12723207473754883,0.23932136595249176,0.48771724104881287,0.324722558259964,10.476003646850586
8.56,0.08631636202335358,-0.12385726720094681,0.24504709243774414,-0.008640101179480553,0.3863556683063507,9.269674301147461
8.58,0.0881650447845459,-0.051178138703107834,0.24372784793376923,-0.4059716463088989,0.4187122583389282,9.191242218017578
8.6,-0.029335690662264824,-0.09692510962486267,0.22719793021678925,-0.5240248441696167,-0.03172704577445984,9.845770835876465
8.620000000000001,-0.020452463999390602,-0.1602044254541397,0.20912644267082214,-0.6091195344924927,0.14447417855262756,10.715607643127441
8.64,0.04437455162405968,-0.15455570816993713,0.20489974319934845,-0.4990631341934204,0.4005477726459503,10.329038619995117
8.66,-0.034826699644327164,-0.14274439215660095,0.19765952229499817,0.019095590338110924,0.3193111717700958,8.99276351928711
8.68,-0.09350515156984329,-0.1823066771030426,0.2006121724843979,0.46438831090927124,0.22346186637878418,9.117157936096191
8.700000000000001,-0.08990717679262161,-0.18355508148670197,0.20900297164916992,0.9064255356788635,0.13669094443321228,9.987085342407227
8.72,-0.09114997833967209,-0.15527063608169556,0.21052150428295135,1.130184531211853,0.3277207612991333,10.572491645812988
8.74,-0.10801682621240616,-0.17246302962303162,0.22879824042320251,1.1832404136657715,0.6162176132202148,9.809414863586426
8.76,-0.17090703547000885,-0.1938331127166748,0.27276310324668884,0.5755302906036377,1.1652339696884155,9.34872055053711
8.78,-0.1154726967215538,-0.12098700553178787,0.29835253953933716,0.09014293551445007,1.449209213256836,9.189482688903809
8.8,-0.03898589313030243,-0.032255951315164566,0.2982786297798157,-0.16006432473659515,1.2293040752410889,8.590930938720703
8.82,-0.044549476355314255,0.044900812208652496,0.31860965490341187,-0.48586758971214294,0.8293496370315552,8.580355644226074
8.84,-0.014212938956916332,0.1225750744342804,0.35364440083503723,-0.5110916495323181,0.5523537993431091,8.443645477294922
8.86,0.05646204948425293,0.17783892154693604,0.38863006234169006,-0.06409353762865067,0.5544212460517883,8.874998092651367
8.88,0.03269213065505028,0.21552756428718567,0.4287594258785248,0.16565614938735962,0.21200832724571228,9.635885238647461
8.9,0.0794859528541565,0.2359793335199356,0.4586744010448456,0.9002901315689087,-0.09798111021518707,9.920543670654297
8.92,0.054643578827381134,0.15990252792835236,0.4505971670150757,2.214020013809204,-0.07756732404232025,9.244420051574707
8.94,0.08365073800086975,0.11271123588085175,0.39679041504859924,2.374610185623169,-0.4649142622947693,9.435823440551758
8.959999999999999,0.12884651124477386,0.14697974920272827,0.34968116879463196,1.8971836566925049,-0.9290390610694885,10.743086814880371
8.979999999999999,0.18774637579917908,0.19449292123317719,0.31431421637535095,1.2072696685791016,-0.9717254638671875,10.617579460144043
8.999999999999998,0.1339380443096161,0.13578955829143524,0.28452813625335693,0.5158982276916504,-0.9972102642059326,11.160598754882812
9.02,0.05000516027212143,0.05517520010471344,0.2421901375055313,0.35769274830818176,-0.6243881583213806,10.807326316833496
9.04,0.09127626568078995,-0.004739630967378616,0.21068863570690155,0.5103797912597656,0.06285301595926285,10.23680305480957
9.059999999999999,0.04402046650648117,0.01684935949742794,0.20297084748744965,0.6418477892875671,0.24963976442813873,9.342126846313477
9.079999999999998,0.021873487159609795,0.02156868949532509,0.23382584750652313,0.5736027956008911,0.37571847438812256,8.75055980682373
9.1,0.06427682936191559,-0.02283819392323494,0.26662352681159973,0.3542461097240448,0.22820918262004852,8.771665573120117
9.12,0.048188552260398865,-0.05009187385439873,0.27157437801361084,-0.2586732506752014,0.341687947511673,9.324950218200684
9.139999999999999,-0.04425797238945961,-0.09569670259952545,0.25662297010421753,-0.9477975964546204,0.803157389163971,10.085939407348633
9.159999999999998,-0.11123847961425781,-0.16164876520633698,0.2079136073589325,-1.248930811882019,1.230049729347229,10.968002319335938
9.179999999999998,-0.11947118490934372,-0.18225355446338654,0.16523578763008118,-0.9200485348701477,0.9497814774513245,10.437626838684082
9.2,-0.05192137509584427,-0.18777121603488922,0.167469322681427,-0.2777574956417084,0.42965513467788696,9.384766578674316
9.219999999999999,-0.04712601751089096,-0.2127007693052292,0.19775180518627167,0.28367435932159424,0.3130895793437958,8.61407470703125
9.239999999999998,-0.053329773247241974,-0.23186631500720978,0.23739561438560486,0.5022777915000916,0.7969697117805481,8.958834648132324
9.259999999999998,-0.08951129764318466,-0.20453424751758575,0.284071147441864,0.7312055230140686,1.2943191528320312,9.391756057739258
9.28,-0.04110611975193024,-0.1500115841627121,0.3406659960746765,0.5261069536209106,1.500363826751709,8.633999824523926
9.299999999999999,-0.008030619472265244,-0.08141721040010452,0.4141169488430023,-0.029118074104189873,1.6550819873809814,8.519003868103027
9.319999999999999,0.05495218560099602,0.020646866410970688,0.4947783648967743,-0.8280710577964783,1.4496010541915894,8.231562614440918
9.339999999999998,0.07919783145189285,0.10993068665266037,0.5185385942459106,-0.8126457333564758,0.9280335307121277,7.88409423828125
9.36,0.0302890557795763,0.18307995796203613,0.5216243863105774,0.4638996422290802,-0.030529135838150978,8.468578338623047
9.379999999999999,-0.013598482124507427,0.1645776927471161,0.45795124769210815,1.9776424169540405,-0.7632247805595398,8.790586471557617
9.399999999999999,-0.005492904223501682,0.15072251856327057,0.38181227445602417,2.4216854572296143,-0.8658862709999084,9.640593528747559
9.419999999999998,0.0183204784989357,0.20272427797317505,0.32215049862861633,2.07527756690979,-0.9605136513710022,10.897603988647461
9.44,0.006660995073616505,0.20591525733470917,0.2914752960205078,1.520232915878296,-1.0319522619247437,10.816506385803223
9.459999999999999,0.03294793888926506,0.1824083924293518,0.2424408197402954,0.9401548504829407,-1.1074942350387573,9.631635665893555
9.479999999999999,0.023751916363835335,0.15266400575637817,0.1944095641374588,0.534660279750824,-0.775857150554657,9.514177322387695
9.499999999999998,-0.050052691251039505,0.13215093314647675,0.15517887473106384,0.6990213990211487,-0.239705428481102,10.23187255859375
9.52,-0.03605002537369728,0.0614515095949173,0.141815647482872,1.029414415359497,0.42808568477630615,9.58681869506836
9.54,-0.01089822594076395,0.05343210697174072,0.15495601296424866,0.4505770802497864,0.5254018306732178,8.130687713623047
9.559999999999999,-0.07219351828098297,0.09210429340600967,0.18907061219215393,-0.0933622270822525,0.8115189075469971,9.35534954071045
9.579999999999998,-0.09661352634429932,0.10488489270210266,0.17540206015110016,-0.6272364854812622,0.8160673975944519,10.402238845825195
9.6,-0.09124592691659927,0.14322441816329956,0.1267651468515396,-1.140036702156067,0.6637677550315857,10.829632759094238
9.62,-0.04426708072423935,0.18263737857341766,0.10008736699819565,-0.8030592203140259,0.3577727973461151,9.763410568237305
9.639999999999999,-0.03596581146121025,0.1438051164150238,0.1375938504934311,-0.5346861481666565,0.0669553279876709,9.157045364379883
9.659999999999998,-0.0468568280339241,0.1226092129945755,0.20020322501659393,-0.18874111771583557,-0.19253361225128174,9.072937965393066
9.68,-0.011309338733553886,0.09633740037679672,0.22844922542572021,0.20754006505012512,-0.40905964374542236,8.949911117553711
9.7,0.01513783447444439,0.1144639328122139,0.24896053969860077,0.25328031182289124,0.045322235673666,9.262575149536133
9.719999999999999,-0.013070465065538883,0.11806875467300415,0.25103089213371277,0.6390292048454285,0.32263949513435364,9.760977745056152
9.739999999999998,-0.020400607958436012,0.04978181794285774,0.2520958185195923,1.035243272781372,0.5771133303642273,10.161964416503906
9.759999999999998,-0.03768358379602432,-0.0229943860322237,0.241308331489563,1.0799942016601562,0.3992261290550232,9.958967208862305
9.78,-0.03740541264414787,-0.03449493646621704,0.21126854419708252,0.8427684307098389,0.28407180309295654,10.270197868347168
9.799999999999999,-0.02276664227247238,-0.036707211285829544,0.1955184042453766,0.3915591537952423,-0.4592791199684143,9.497907638549805
9.819999999999999,0.017399422824382782,-0.07987570762634277,0.21020953357219696,-0.4283098876476288,-0.6650968194007874,8.6444091796875
9.839999999999998,0.08376090228557587,-0.05375150963664055,0.23083609342575073,-1.2022825479507446,-0.1436629444360733,8.536938667297363
9.86,0.04333752021193504,-0.03401196002960205,0.24270528554916382,-1.5599865913391113,-0.1384912133216858,9.451702117919922
9.879999999999999,-0.029836667701601982,-0.07218892872333527,0.23667611181735992,-1.4469373226165771,-0.06918593496084213,11.108912467956543
9.899999999999999,-0.0051377881318330765,-0.10616724193096161,0.23925472795963287,-0.81788569688797,0.01995808631181717,11.355802536010742
9.919999999999998,-0.02773735672235489,-0.10696155577898026,0.24422797560691833,0.14907845854759216,0.1227840781211853,10.174190521240234
9.939999999999998,-0.02670556679368019,-0.10622385889291763,0.2638254463672638,0.8120818138122559,0.17824473977088928,8.63253402709961
9.959999999999999,-0.006367172114551067,-0.11753398925065994,0.28967535495758057,0.8544195294380188,-0.08893868327140808,7.9695940017700195
9.979999999999999,-0.0620347335934639,-0.1618662178516388,0.2920280396938324,0.7243372797966003,-0.501348614692688,9.450281143188477
10.0,-0.020227039232850075,-0.1742728054523468,0.2705715596675873,0.3968390226364136,-0.03431494161486626,9.945140838623047
10.02,0.002712961984798312,-0.1489727795124054,0.25119686126708984,0.15140725672245026,0.5353225469589233,10.308755874633789
10.04,-0.040598779916763306,-0.09308948367834091,0.2113475799560547,-0.32824602723121643,0.8116997480392456,9.680424690246582
10.059999999999999,-0.041985101997852325,-0.06557174026966095,0.19999541342258453,-0.3496340811252594,0.9798329472541809,9.208826065063477
10.079999999999998,0.01881490834057331,-0.03773044794797897,0.20888130366802216,-0.3039480745792389,0.9738183617591858,9.300080299377441
10.099999999999998,-0.04951672628521919,0.05156359076499939,0.22078973054885864,-0.31202927231788635,0.7740789651870728,9.707674026489258
10.12,-0.13791389763355255,0.11304470896720886,0.2291974276304245,0.18061867356300354,0.39979907870292664,10.09705638885498
10.139999999999999,-0.13126462697982788,0.1408941149711609,0.26511821150779724,0.7095969915390015,0.025974519550800323,9.51935863494873
10.16,-0.14594092965126038,0.13901449739933014,0.3244543671607971,1.4368408918380737,-0.2877348065376282,9.061729431152344
10.18,-0.14008814096450806,0.15298841893672943,0.38155874609947205,1.616387963294983,-0.09810332208871841,8.672391891479492
10.2,-0.11174152046442032,0.19924107193946838,0.43927058577537537,1.2316378355026245,0.19744999706745148,8.76530647277832
10.219999999999999,-0.04619675129652023,0.21860960125923157,0.46997717022895813,1.109031081199646,0.26612958312034607,8.876089096069336
10.239999999999998,0.03683383762836456,0.19110260903835297,0.47775036096572876,0.8916541934013367,0.32921409606933594,9.271671295166016
10.259999999999998,0.07237919420003891,0.18626129627227783,0.43808895349502563,0.4015789031982422,0.5226895809173584,9.875144958496094
10.279999999999998,0.047130435705184937,0.17564044892787933,0.4165823459625244,0.06284323334693909,0.11918309330940247,10.689099311828613
10.299999999999999,0.07645449042320251,0.1389867067337036,0.37253817915916443,-0.48054301738739014,-0.39141589403152466,10.15987777709961
10.319999999999999,0.1357099562883377,0.11258623003959656,0.3194376528263092,-1.0045244693756104,-0.5712091326713562,8.932462692260742
10.34,0.0944337248802185,0.045800913125276566,0.24163426458835602,-0.931954562664032,-1.3653324842453003,9.755138397216797
10.36,0.1781274825334549,0.003029787912964821,0.17303834855556488,-0.8218553066253662,-1.245701551437378,9.837236404418945
10.379999999999999,0.2112477421760559,-0.0028489171527326107,0.11622201651334763,-0.7244588136672974,-0.9769285321235657,10.010958671569824
10.399999999999999,0.22619664669036865,-0.012783520855009556,0.13036438822746277,-0.6659739017486572,-0.7427083253860474,10.063782691955566
10.419999999999998,0.19092366099357605,-0.04540697857737541,0.15012983977794647,-0.6587663292884827,-0.538576602935791,10.135885238647461
10.439999999999998,0.15040387213230133,-0.09044453501701355,0.16623859107494354,-0.5392857193946838,-0.0888592079281807,9.317506790161133
10.459999999999999,0.12308420240879059,-0.13273262977600098,0.2178082913160324,-0.27038201689720154,0.32406413555145264,9.435870170593262
10.479999999999999,0.10819254070520401,-0.16736909747123718,0.2548026144504547,-0.22114762663841248,0.5832138657569885,9.378116607666016
10.5,0.09294118732213974,-0.15166789293289185,0.2777685523033142,-0.15854321420192719,0.711176335811615,9.877567291259766
10.52,0.048925504088401794,-0.1446458250284195,0.2547154426574707,0.04313752055168152,0.6143843531608582,8.590227127075195
10.54,0.024279188364744186,-0.16606372594833374,0.252681702375412,-0.05233585089445114,0.715374231338501,8.775554656982422
10.559999999999999,-0.0077276648953557014,-0.14507175981998444,0.26672762632369995,-0.3308722674846649,0.8757973909378052,9.316370964050293
10.579999999999998,-0.022610800340771675,-0.07241013646125793,0.2625437378883362,-0.259091854095459,1.3549615144729614,9.934735298156738
10.599999999999998,-0.017398059368133545,-0.035998035222291946,0.24934062361717224,0.06747906655073166,1.5077526569366455,9.689472198486328
10.62,0.02115430310368538,-0.0005280703771859407,0.2039463073015213,-0.01306789182126522,1.2109063863754272,9.060415267944336
10.639999999999999,0.048005975782871246,0.027072789147496223,0.19621992111206055,0.11616295576095581,0.6667522192001343,9.612593650817871
10.66,0.000684484257362783,0.012682520784437656,0.18969105184078217,0.22021843492984772,0.8245494365692139,10.670411109924316
10.68,0.0293674748390913,0.019516773521900177,0.20516251027584076,0.1478918343782425,0.7492298483848572,9.847564697265625
10.7,0.06858596205711365,0.0371176153421402,0.2014363557100296,0.4661814868450165,0.12380766868591309,8.801863670349121
10.719999999999999,-0.005415047984570265,0.03351026773452759,0.17122893035411835,0.28787508606910706,-0.4474101662635803,9.5662202835083
10.739999999999998,-0.02327902987599373,-0.0074212863110005856,0.13521014153957367,0.48366671800613403,-0.3658946752548218,11.152485847473145
10.759999999999998,-0.033840201795101166,-0.03420432284474373,0.11717510223388672,0.7258163094520569,-0.16557365655899048,11.022279739379883
10.779999999999998,-0.02286633662879467,-0.016331197693943977,0.12365925312042236,0.573915958404541,0.040381141006946564,8.808502197265625
10.799999999999999,0.02573297545313835,-0.021618789061903954,0.12135559320449829,0.22005851566791534,0.39196452498435974,8.675182342529297
10.819999999999999,-0.021499713882803917,-0.025884028524160385,0.09328846633434296,0.2621040344238281,0.3929871916770935,9.385505676269531
10.84,-0.06632596999406815,-0.035523973405361176,0.0673045739531517,0.2928074300289154,0.6947294473648071,10.532983779907227
10.86,-0.08717013150453568,-0.02884647063910961,0.09838679432868958,-0.04198033735156059,0.5156147480010986,10.05052375793457
10.879999999999999,-0.0662844255566597,0.0038062534295022488,0.1282045692205429,-0.04639451578259468,0.18707963824272156,9.111307144165039
10.899999999999999,-0.09931983798742294,-0.01432824693620205,0.1683468222618103,0.42484229803085327,-0.029721001163125038,8.590058326721191
10.919999999999998,-0.09408954530954361,-0.062192320823669434,0.22682912647724152,0.7846093773841858,-0.3063906729221344,8.46489143371582
10.939999999999998,-0.03761405497789383,-0.08839718997478485,0.25617530941963196,0.9718685150146484,-0.2373572140932083,8.341504096984863
10.959999999999999,-0.05858910456299782,-0.0928635448217392,0.27931609749794006,0.7678859233856201,0.0030189293902367353,9.068224906921387
10.979999999999999,-0.15452420711517334,-0.05274244025349617,0.24934251606464386,0.3042338192462921,0.21883796155452728,10.441160202026367
11.0,-0.11999767273664474,0.002956918440759182,0.19606952369213104,0.1327250450849533,0.4177635610103607,11.215771675109863
11.02,-0.09782322496175766,0.04953748360276222,0.20223718881607056,-0.06868543475866318,0.05275806039571762,9.588101387023926
11.04,-0.1421319842338562,0.018955131992697716,0.22790786623954773,-0.14713600277900696,-0.10407384485006332,9.082240104675293
11.059999999999999,-0.11364150792360306,-0.006297214888036251,0.2749800682067871,-0.1255216747522354,0.0033466173335909843,9.217142105102539
11.079999999999998,-0.08145487308502197,0.02602015621960163,0.29141926765441895,0.02441234141588211,-0.07730042934417725,9.621280670166016
11.099999999999998,-0.047041259706020355,0.047711655497550964,0.28442487120628357,0.1541890949010849,-0.3467628061771393,9.129202842712402
11.12,0.022377749904990196,0.011693844571709633,0.2886779010295868,0.14938688278198242,-0.5052440762519836,8.083324432373047
11.139999999999999,0.06526193022727966,-0.0003531921829562634,0.27456364035606384,0.2402956783771515,-0.2654714584350586,9.053184509277344
11.16,0.014665677212178707,0.027922574430704117,0.24360878765583038,0.3851728141307831,0.08711683005094528,11.105755805969238
11.18,-0.01666893996298313,0.0010749985231086612,0.20254933834075928,0.638403058052063,0.16233529150485992,11.133485794067383
11.2,0.03875138610601425,-0.08912577480077744,0.1678231656551361,0.6515670418739319,-0.07234805077314377,9.322477340698242
11.219999999999999,0.0634637251496315,-0.10177884995937347,0.16982656717300415,0.3375830054283142,-0.13916276395320892,9.003416061401367
11.239999999999998,0.012541727162897587,-0.036862462759017944,0.20258893072605133,0.11791454255580902,0.13173121213912964,9.773322105407715
11.259999999999998,0.04195304960012436,-0.027026403695344925,0.2147826999425888,0.2898677885532379,0.23311837017536163,10.38388729095459
11.279999999999998,0.06473370641469955,-0.07491421699523926,0.24819190800189972,0.3149406611919403,0.23551401495933533,9.297849655151367
11.299999999999999,0.07662200927734375,-0.07663262635469437,0.2694668471813202,0.30701345205307007,0.28479254245758057,8.53573226928711
11.319999999999999,0.03596774861216545,-0.07845859229564667,0.2911488711833954,0.5161373615264893,0.4331330358982086,9.102339744567871
11.34,0.0501132607460022,-0.044564925134181976,0.30097469687461853,0.4111194908618927,0.5502658486366272,9.937738418579102
11.36,0.05321910232305527,0.02344505302608013,0.26966845989227295,0.17440944910049438,0.2860117256641388,10.417251586914062
11.379999999999999,0.01109915878623724,0.01598018780350685,0.23890337347984314,0.20012757182121277,0.06559427082538605,10.321224212646484
11.399999999999999,0.03549833968281746,-0.006256811320781708,0.23695890605449677,0.32715892791748047,0.14045622944831848,9.884658813476562
11.419999999999998,0.005277958232909441,0.08255233615636826,0.23554939031600952,0.37450844049453735,0.3025730550289154,9.10267162322998
11.439999999999998,0.0053616976365447044,0.13538943231105804,0.24620163440704346,0.6389020085334778,0.11274237185716629,8.324703216552734
11.459999999999999,0.08519279211759567,0.05952003598213196,0.2532670497894287,0.5775831937789917,-0.560670793056488,8.623554229736328
11.479999999999999,-0.032936155796051025,-0.014144598506391048,0.2378031313419342,0.09210634231567383,-0.4765724241733551,11.565260887145996
11.5,-0.12990505993366241,-0.034881848841905594,0.21020126342773438,-0.3270958662033081,0.9687844514846802,12.676239013671875
11.52,-0.11272797733545303,-0.020548634231090546,0.191018208861351,0.2636650502681732,0.9251531362533569,10.486749649047852
11.54,-0.049749914556741714,-0.05028058588504791,0.18691664934158325,0.41680341958999634,-0.04477924853563309,7.49354362487793
11.559999999999999,-0.05628756061196327,-0.08616864681243896,0.1940264254808426,0.20499087870121002,-0.08010345697402954,6.918390274047852
11.579999999999998,-0.051184237003326416,-0.06646634638309479,0.20787544548511505,-0.27147412300109863,0.20558105409145355,9.329154014587402
11.599999999999998,-0.05310804024338722,-0.05586940795183182,0.1928955465555191,-0.5373603701591492,0.33059442043304443,12.006874084472656
11.62,-0.019166840240359306,-0.05714026838541031,0.20127472281455994,-0.7983397841453552,0.1907034069299698,11.190152168273926
11.639999999999999,-0.014610844664275646,-0.07438461482524872,0.2065107673406601,-0.7623469829559326,0.3584367036819458,8.728361129760742
11.66,0.1173928827047348,0.009479185566306114,0.23356743156909943,-0.7786515355110168,0.9342559576034546,6.894172668457031
11.68,0.09857948869466782,0.08225762844085693,0.2637123763561249,-0.030087094753980637,0.5571408867835999,8.002751350402832
11.7,0.018631890416145325,0.04439285770058632,0.28073057532310486,0.7527182698249817,-0.19776050746440887,10.80556869506836
11.719999999999999,0.07482252269983292,0.011557769030332565,0.2891971170902252,0.7428356409072876,0.0941915214061737,11.628389358520508
11.739999999999998,0.07081367820501328,0.17165429890155792,0.3337736129760742,0.04423105716705322,0.9164589643478394,9.440532684326172
11.759999999999998,0.0056041390635073185,0.18706735968589783,0.37380608916282654,0.5688626766204834,0.32931751012802124,8.222312927246094
11.779999999999998,0.013760787434875965,0.051218315958976746,0.38097089529037476,0.8019335269927979,-0.8261004686355591,8.925811767578125
11.799999999999999,0.11617108434438705,-0.005482601933181286,0.3312227427959442,1.1515750885009766,-0.6062915325164795,9.021150588989258
11.819999999999999,0.09069764614105225,0.06499995291233063,0.304114431142807,1.0607154369354248,-0.44323936104774475,10.107101440429688
11.84,-0.04393750801682472,0.052015095949172974,0.23505522310733795,0.9364161491394043,-0.5389882922172546,11.643197059631348
11.86,0.0021481565199792385,0.014403213746845722,0.15100474655628204,0.653366208076477,0.20576409995555878,10.629646301269531
11.879999999999999,0.0061965212225914,0.03870995715260506,0.11460192501544952,0.6455368995666504,0.6013252139091492,9.350390434265137
11.899999999999999,-0.02832162380218506,0.048358313739299774,0.15769539773464203,0.4241883158683777,0.6267751455307007,8.154397010803223
11.919999999999998,-0.013197018764913082,0.03864291310310364,0.20503740012645721,-0.21381084620952606,0.3891255259513855,8.582616806030273
11.939999999999998,-0.005858851131051779,0.07041652500629425,0.20186233520507812,-1.1202070713043213,-0.07123664021492004,9.691975593566895
11.959999999999999,-0.01807529479265213,0.11990780383348465,0.17765578627586365,-1.5605483055114746,-0.3997246325016022,10.6594820022583
11.979999999999999,-0.01040286011993885,0.07854771614074707,0.153720423579216,-0.9047672152519226,-0.46885019540786743,10.722970008850098
12.0,0.007134268060326576,0.020963137969374657,0.12617501616477966,-0.4250749945640564,-0.4715360105037689,9.741673469543457
12.02,0.032496873289346695,0.06458008289337158,0.11488379538059235,-0.2122722864151001,-0.24761752784252167,8.78792953491211
12.04,0.008447056636214256,0.11094339936971664,0.1258637011051178,-0.8658664226531982,-0.9681670069694519,8.769988059997559
12.059999999999999,-0.057526350021362305,0.026883170008659363,0.13293899595737457,-1.2089295387268066,-0.8118575215339661,9.553301811218262
12.079999999999998,-0.01375744491815567,-0.019092338159680367,0.18855857849121094,-2.4545795917510986,-0.1320517361164093,9.934354782104492
12.099999999999998,-0.013786708004772663,0.038056015968322754,0.2463516891002655,-3.0767757892608643,0.014530915766954422,10.259664535522461
12.12,-0.03822512552142143,0.014637904241681099,0.29788294434547424,-2.852867603302002,-0.5628255605697632,9.220029830932617
12.139999999999999,-0.03743280842900276,-0.05728699639439583,0.3518083095550537,-2.715878963470459,-0.35250672698020935,9.088846206665039
12.16,-0.03299325332045555,-0.05923905223608017,0.38490942120552063,-2.554506540298462,0.2941262125968933,9.596491813659668
12.18,-0.014156718738377094,-0.03846777230501175,0.38439488410949707,-2.22711181640625,0.35231247544288635,10.33977222442627
12.2,-0.00820816121995449,-0.08048524707555771,0.34357500076293945,-1.5057085752487183,0.2678833305835724,9.983453750610352
12.219999999999999,0.026626160368323326,-0.10393363982439041,0.3158276081085205,-0.777876079082489,0.9381870627403259,9.32663345336914
12.239999999999998,0.07151222229003906,-0.052516382187604904,0.2913283109664917,-0.22620446979999542,1.668745994567871,9.305852890014648
12.259999999999998,0.04690459743142128,-0.009296966716647148,0.24935942888259888,0.448959082365036,1.395169973373413,9.971916198730469
12.279999999999998,0.04047681391239166,-0.045515190809965134,0.16704851388931274,0.737476646900177,1.0641998052597046,10.532061576843262
12.299999999999999,0.0644836276769638,-0.033121995627880096,0.13366691768169403,0.5198488235473633,0.9166144132614136,9.865677833557129
12.319999999999999,0.04340755194425583,0.01374682318419218,0.18383842706680298,0.58721923828125,0.21363210678100586,9.384415626525879
12.34,0.032882772386074066,0.010736295022070408,0.23663751780986786,0.8254953622817993,-0.5024465918540955,9.480875015258789
12.36,0.044056642800569534,0.025206569582223892,0.2591496407985687,0.9541908502578735,-0.9793843030929565,10.067466735839844
12.379999999999999,0.01551381777971983,0.0492422915995121,0.25900107622146606,1.0213682651519775,-1.0068778991699219,10.275406837463379
12.399999999999999,0.0075804805383086205,0.025722118094563484,0.22425693273544312,0.9599353075027466,-0.8571459054946899,9.69792652130127
12.419999999999998,0.020214099436998367,-0.013528949581086636,0.19975052773952484,0.5087004899978638,-0.6615079641342163,9.254131317138672
12.439999999999998,-0.008270359598100185,-0.006408424116671085,0.1988823264837265,-0.16160893440246582,-0.09703554958105087,10.258879661560059
12.459999999999999,-0.009911032393574715,0.004752300679683685,0.16897402703762054,-0.3956700563430786,0.3987879157066345,10.567278861999512
12.479999999999999,0.006893565412610769,-0.005014405585825443,0.16629137098789215,-0.7018529176712036,0.2978825867176056,9.258504867553711
12.5,0.017650924623012543,0.016305377706885338,0.20627285540103912,-0.7011346220970154,0.3254651129245758,8.578350067138672
12.52,0.00441138818860054,0.02787516452372074,0.24850091338157654,-0.08256565034389496,0.26621025800704956,10.184225082397461
12.54,-0.005800266284495592,0.014886702410876751,0.20661842823028564,0.4322599768638611,0.3018752634525299,11.28490924835205
12.559999999999999,0.029211867600679398,0.020591380074620247,0.17236998677253723,0.09313377737998962,0.11107983440160751,9.643204689025879
12.579999999999998,0.022431619465351105,0.019099896773695946,0.19117586314678192,-0.25840333104133606,-0.15337544679641724,8.212136268615723
12.599999999999998,0.021570224314928055,-0.019009990617632866,0.2279512882232666,-0.017899800091981888,-0.5820242762565613,9.763849258422852
12.62,0.007873542606830597,-0.018873315304517746,0.18678270280361176,-0.06511704623699188,0.017295129597187042,11.791402816772461
12.639999999999999,0.05116595700383186,0.03455100208520889,0.15484930574893951,0.06013483554124832,0.6087523102760315,10.025245666503906
12.66,0.04891247674822807,0.012567995116114616,0.17617973685264587,0.14443576335906982,0.1833866387605667,8.118821144104004
12.68,0.018813742324709892,-0.03767547011375427,0.23262278735637665,0.33247077465057373,0.07127764075994492,8.83011245727539
12.7,0.0033526201732456684,0.011333011090755463,0.22333858907222748,0.16537992656230927,0.3362313210964203,11.66945743560791
12.719999999999999,0.020614584907889366,0.044510990381240845,0.1659519523382187,0.39308884739875793,0.5060564875602722,10.702408790588379
12.739999999999998,-0.005009625107049942,0.010505546815693378,0.14989270269870758,0.3322739899158478,0.6024371385574341,8.185981750488281
12.759999999999998,-0.022079676389694214,-0.02966841496527195,0.20856443047523499,0.33112847805023193,0.007830847054719925,8.246713638305664
12.779999999999998,-0.028763020411133766,-0.012197243981063366,0.2000817060470581,0.10115808993577957,-0.4866178035736084,11.73209285736084
12.799999999999999,-0.02617643214762211,0.026482153683900833,0.13570056855678558,0.10114894062280655,-0.20364192128181458,11.68980598449707
12.819999999999999,-0.027504295110702515,-0.026557864621281624,0.11832470446825027,-0.3058481812477112,-0.058896590024232864,8.90931224822998
12.84,-0.056246403604745865,-0.049579255282878876,0.1654130071401596,-0.6563450694084167,0.0893947184085846,8.235699653625488
12.86,0.016431692987680435,-0.014843041077256203,0.1900990754365921,-0.4183228611946106,0.03258657082915306,9.802092552185059
12.879999999999999,-0.006515221670269966,-0.009600033052265644,0.15920335054397583,0.29819971323013306,0.1959228217601776,11.33842945098877
12.899999999999999,-0.007569935638457537,-0.035002633929252625,0.1374560296535492,0.37720295786857605,0.373512327671051,9.756858825683594
12.919999999999998,-0.014762762002646923,-0.0539151206612587,0.16563965380191803,0.3867945671081543,0.07376990467309952,8.265470504760742
12.939999999999998,0.03257115185260773,-0.03426014631986618,0.22099317610263824,0.42274612188339233,0.0672350823879242,9.329445838928223
12.959999999999999,0.007734808139503002,0.009990963153541088,0.22213023900985718,0.5956377983093262,-0.13195008039474487,11.327676773071289
12.979999999999999,0.018624138087034225,-0.005084639880806208,0.193422332406044,0.7172266244888306,0.1909121870994568,10.5111722946167
13.0,0.00922984816133976,-0.03598269447684288,0.18912991881370544,0.7614114284515381,0.547487199306488,9.079238891601562
13.02,-0.010630249977111816,-0.03488816320896149,0.22927488386631012,0.5711912512779236,0.8737474679946899,9.178640365600586
13.04,-0.005025460384786129,0.020089587196707726,0.23721691966056824,0.48091211915016174,0.15606632828712463,10.267579078674316
13.059999999999999,-0.018347838893532753,0.038727767765522,0.21205148100852966,0.30505532026290894,-0.4890522360801697,10.076809883117676
13.079999999999998,-0.013783563859760761,0.001494022784754634,0.21396447718143463,0.16965650022029877,-0.5612664222717285,9.272494316101074
13.099999999999998,0.012348883785307407,-0.007277877535670996,0.2524144649505615,0.0790160596370697,-0.3452243506908417,9.184123992919922
13.12,-0.012072600424289703,0.028835775330662727,0.26266729831695557,0.697804868221283,-0.0961717888712883,10.111001014709473
13.139999999999999,-0.016769113019108772,0.032493941485881805,0.20046132802963257,1.1528949737548828,0.33593103289604187,10.768997192382812
13.16,-0.007941445335745811,-0.01592535339295864,0.12292991578578949,1.3067140579223633,0.37825602293014526,9.54998779296875
13.18,0.024008361622691154,-0.028222834691405296,0.09456475079059601,0.9809122681617737,0.21869027614593506,8.691058158874512
13.2,0.013793641701340675,-0.0326310433447361,0.11296017467975616,1.0799514055252075,-0.23781850934028625,9.400951385498047
13.219999999999999,0.023453429341316223,-0.04059732332825661,0.11174609512090683,0.8988337516784668,-0.6944623589515686,10.993542671203613
13.239999999999998,0.012580852955579758,-0.03357882425189018,0.096997931599617,1.1807408332824707,-0.27482345700263977,10.737850189208984
13.259999999999998,0.01960824243724346,-0.03212304040789604,0.09168873727321625,1.0921025276184082,0.3980117738246918,9.392271995544434
13.279999999999998,0.057275716215372086,-0.06411080062389374,0.07743183523416519,1.2142746448516846,0.3987390100955963,8.692880630493164
13.299999999999999,0.0631026029586792,-0.008677995763719082,0.11881265789270401,0.7199735045433044,0.003890185384079814,10.047470092773438
13.319999999999999,0.024040130898356438,0.049862831830978394,0.13836543262004852,0.6489575505256653,-0.19922003149986267,10.934144020080566
13.34,0.015269073657691479,0.013389351777732372,0.15682631731033325,0.5960388779640198,-0.006188679952174425,10.193781852722168
13.36,0.0894724652171135,-0.047419629991054535,0.1893114596605301,1.1411033868789673,0.5138375163078308,8.61151123046875
13.379999999999999,0.05024575814604759,-0.06469830870628357,0.19089838862419128,2.2885429859161377,0.22469064593315125,8.751195907592773
13.399999999999999,-0.045538414269685745,-0.04372260719537735,0.14400963485240936,2.96476674079895,0.07447407394647598,11.048379898071289
13.419999999999998,-0.048072900623083115,-0.02471465803682804,0.08642764389514923,2.583681344985962,-0.03671138733625412,12.424689292907715
13.439999999999998,0.01566111296415329,-0.01317377295345068,0.051609985530376434,1.6556077003479004,-0.1697063148021698,10.570289611816406
13.459999999999999,0.022181624546647072,-0.027904469519853592,0.061246976256370544,0.7153036594390869,0.29613828659057617,8.310522079467773
13.479999999999999,0.03465956822037697,-0.0557534396648407,0.08651263266801834,0.04685993865132332,0.5639907121658325,7.667538642883301
13.5,-0.029191119596362114,-0.018584443256258965,0.1257610321044922,-0.22780999541282654,0.30931323766708374,10.037761688232422
13.52,-0.05271207168698311,0.0320713073015213,0.1289329081773758,0.40741705894470215,0.28004810214042664,11.066601753234863
13.54,0.01852104440331459,0.05370417609810829,0.14248846471309662,0.5096755027770996,0.12895996868610382,9.523618698120117
13.559999999999999,0.03651603311300278,0.026515783742070198,0.1594645380973816,0.5850405693054199,-0.1764049232006073,7.929398059844971
13.579999999999998,-0.047731656581163406,0.003921594936400652,0.16237163543701172,0.6280896067619324,-0.2650439143180847,9.48575496673584
13.599999999999998,-0.07331641018390656,0.04454745724797249,0.13978561758995056,0.6183542609214783,-0.0330788679420948,10.887280464172363
13.62,0.03608958423137665,0.09096173197031021,0.1304708868265152,0.871286153793335,0.017893973737955093,10.499659538269043
13.639999999999999,0.019738247618079185,0.05409664660692215,0.14117346704006195,0.695305347442627,-0.18362362682819366,8.502189636230469
13.66,0.052205413579940796,0.013470150530338287,0.15054385364055634,0.3873405158519745,0.16661372780799866,7.983163833618164
13.68,-0.060817208141088486,0.025285210460424423,0.16687975823879242,0.039680562913417816,0.16172908246517181,9.801495552062988
13.7,-0.11251866072416306,0.03001842275261879,0.1269826591014862,0.2572336792945862,0.4349401295185089,11.145406723022461
13.719999999999999,-0.06729430705308914,0.03254011273384094,0.12990160286426544,0.5580078959465027,0.17981365323066711,10.660341262817383
13.739999999999998,-0.05605108290910721,-0.019776850938796997,0.17265693843364716,0.854464054107666,-0.168084517121315,9.09450912475586
13.759999999999998,-0.08958787471055984,-0.01366358995437622,0.20641840994358063,0.8116288781166077,-0.031170830130577087,8.456964492797852
13.78,-0.11030235886573792,0.00922390352934599,0.23479409515857697,0.6103270053863525,0.0016860984032973647,8.995231628417969
13.799999999999999,-0.10050646215677261,0.024331573396921158,0.2428564876317978,0.041351813822984695,0.18022605776786804,9.81220817565918
13.819999999999999,-0.054211366921663284,0.059858422726392746,0.222489595413208,-0.16498994827270508,0.42384639382362366,9.705650329589844
13.84,-0.0988696813583374,0.05596812441945076,0.22443661093711853,-0.09362988919019699,0.27599194645881653,9.225929260253906
13.86,-0.07551608234643936,0.014563579112291336,0.2300851047039032,0.04375072196125984,0.23990324139595032,9.643024444580078
13.879999999999999,0.016247091814875603,-0.014919795095920563,0.2314264327287674,-0.21021953225135803,-0.08128032833337784,8.9276704788208
13.899999999999999,-0.008668901398777962,-0.03339569270610809,0.20538754761219025,-0.10726506263017654,-0.5946800112724304,9.443581581115723
13.919999999999998,-0.0453970842063427,-0.06367051601409912,0.17570646107196808,0.11759352684020996,-0.3855520486831665,9.887242317199707
13.94,0.0030164914205670357,-0.059034865349531174,0.15254367887973785,0.18652190268039703,-0.4099118411540985,9.750115394592285
13.959999999999999,0.006436489522457123,-0.028122561052441597,0.13910868763923645,0.14854460954666138,-0.37334728240966797,9.32314682006836
13.979999999999999,-0.02268075756728649,-0.005505605135113001,0.13411259651184082,-0.07268045097589493,0.008817753754556179,9.05461311340332
14.0,-0.0010812141699716449,-0.023928411304950714,0.15897779166698456,0.07235275954008102,0.2410871386528015,9.529230117797852
14.02,-0.04764002189040184,-0.07204277813434601,0.17455756664276123,0.45890700817108154,0.05921517685055733,10.861047744750977
14.04,-0.10671857744455338,-0.1508001983165741,0.22218827903270721,0.7991759181022644,0.3444996774196625,11.011794090270996
14.059999999999999,-0.026766380295157433,-0.20065392553806305,0.2652333378791809,1.038112998008728,-0.016878142952919006,9.464092254638672
14.079999999999998,0.034521155059337616,-0.1704442948102951,0.3102986216545105,0.523236095905304,-0.26708823442459106,7.377173900604248
14.099999999999998,0.03725464642047882,-0.10672413557767868,0.3321201503276825,-0.3654022514820099,-0.11513945460319519,7.998446941375732
14.12,-0.033222686499357224,-0.06391696631908417,0.30817940831184387,-0.8237712979316711,0.4254605770111084,10.654680252075195
14.139999999999999,0.029220372438430786,-0.11023160815238953,0.2935788929462433,-0.7526463866233826,0.773123025894165,11.558473587036133
14.159999999999998,0.07133929431438446,-0.09492384642362595,0.293536901473999,-0.6898318529129028,0.7067885994911194,10.511301040649414
14.18,0.11132391542196274,-0.041380539536476135,0.30083906650543213,-0.4526476263999939,0.5876487493515015,8.816845893859863
14.2,0.10024714469909668,0.0031438127625733614,0.28026360273361206,0.05897631123661995,0.2374405562877655,8.30385971069336
14.219999999999999,0.1234443262219429,-0.006186507176607847,0.21888288855552673,0.056647393852472305,-0.17910684645175934,8.268802642822266
14.239999999999998,0.14815986156463623,-0.01855207048356533,0.19801607728004456,0.41590267419815063,-0.5264023542404175,9.375608444213867
14.259999999999998,0.11079233884811401,-0.061435516923666,0.20896433293819427,0.833772599697113,-0.6014774441719055,10.1869535446167
14.28,0.12203115969896317,-0.0496506541967392,0.21959398686885834,1.1722967624664307,-0.5416533946990967,9.707050323486328
14.299999999999999,0.16030527651309967,-0.04796355590224266,0.21571531891822815,1.413655161857605,-0.43283510208129883,9.71940803527832
14.319999999999999,0.15523478388786316,-0.10943243652582169,0.18691453337669373,1.2960870265960693,-0.48675858974456787,9.034551620483398
14.34,0.15204377472400665,-0.1620197296142578,0.16406521201133728,0.8925741314888,-0.19765417277812958,9.719401359558105
14.36,0.0816832035779953,-0.16749073565006256,0.1464214324951172,0.7762213945388794,0.3402985632419586,10.52219009399414
14.379999999999999,0.09614865481853485,-0.12654918432235718,0.15688659250736237,0.8481999039649963,0.7676275968551636,10.350374221801758
14.399999999999999,0.07772566378116608,-0.09987390786409378,0.15390685200691223,0.35219332575798035,0.521109938621521,9.279341697692871
14.419999999999998,0.03332170099020004,-0.11313145607709885,0.15318985283374786,-0.07032203674316406,0.09011427313089371,8.94801139831543
14.44,0.025198157876729965,-0.11701037734746933,0.1454620063304901,-0.35453489422798157,0.26036596298217773,8.563115119934082
14.459999999999999,-0.0046090614050626755,0.01318846084177494,0.1516731232404709,-0.3448692560195923,0.42974865436553955,10.11527156829834
14.479999999999999,-0.14247652888298035,0.07736314088106155,0.10668560862541199,0.48556992411613464,0.5799522995948792,9.624533653259277
14.5,-0.026469502598047256,-0.005353700835257769,0.12251333147287369,1.0435336828231812,0.5586920976638794,9.360495567321777
14.52,0.004594824276864529,-0.057745855301618576,0.17550605535507202,1.4967814683914185,0.7566792964935303,9.615242958068848
14.54,-0.14203299582004547,0.07221563905477524,0.20631477236747742,1.5790443420410156,1.2319378852844238,9.795050621032715
14.559999999999999,-0.12651795148849487,0.16839154064655304,0.2018928825855255,1.3904517889022827,0.9571396112442017,8.68430233001709
14.579999999999998,-0.10257577151060104,0.10208740830421448,0.20830866694450378,1.0485293865203857,0.07353304326534271,7.569380283355713
14.599999999999998,-0.1764429211616516,0.055960554629564285,0.2297978699207306,0.8493213653564453,0.10673927515745163,9.623878479003906
14.62,-0.24184197187423706,0.18814906477928162,0.18811969459056854,0.5849277377128601,0.7823642492294312,10.792155265808105
14.639999999999999,-0.20346666872501373,0.286152184009552,0.15911541879177094,0.5680637955665588,0.6497356295585632,9.990826606750488
14.659999999999998,-0.09928841143846512,0.21301469206809998,0.17488008737564087,0.41767773032188416,-0.28518226742744446,8.808335304260254
14.68,-0.11981309950351715,0.1635558158159256,0.2061363160610199,0.28007084131240845,-0.7470786571502686,9.833106994628906
14.7,-0.12124252319335938,0.15821969509124756,0.19956834614276886,0.4066981375217438,-0.6394489407539368,10.990287780761719
14.719999999999999,-0.029955288395285606,0.1253998875617981,0.1980700045824051,0.6588454246520996,-0.8966043591499329,9.857170104980469
14.739999999999998,-0.09368880093097687,0.05337430164217949,0.1880149096250534,0.6610623598098755,-0.8496369123458862,9.206901550292969
14.759999999999998,-0.07850666344165802,0.040250424295663834,0.16763213276863098,0.3510270118713379,-0.51872318983078,10.392622947692871
14.78,-0.02237352728843689,0.1075240820646286,0.1393892616033554,0.09055253863334656,-0.0892777070403099,10.498018264770508
14.799999999999999,-0.0034351516515016556,0.15196992456912994,0.13838642835617065,0.23664020001888275,0.07552258670330048,9.035615921020508
14.819999999999999,0.047769997268915176,0.12224362790584564,0.15217554569244385,0.174042746424675,0.01677554100751877,8.01859188079834
14.84,0.04054790735244751,0.02424989826977253,0.19316989183425903,0.13240540027618408,-0.5802884101867676,8.833889961242676
14.86,0.031492214649915695,-0.009702331386506557,0.19145527482032776,-0.31932708621025085,-0.7249332666397095,10.856697082519531
14.879999999999999,0.06758489459753036,0.0390009805560112,0.20468871295452118,-0.3688793182373047,-0.4131695330142975,10.417139053344727
14.899999999999999,0.11836877465248108,0.05906550958752632,0.2168465107679367,-0.38609811663627625,-0.15790335834026337,8.1771879196167
14.919999999999998,0.16827279329299927,0.05085423216223717,0.251836895942688,-0.36958780884742737,-0.12128767371177673,7.468111991882324
14.94,0.07173491269350052,0.07377471774816513,0.2552928924560547,-0.6048231720924377,0.039919618517160416,9.973296165466309
14.959999999999999,0.0013117891503497958,0.0704462081193924,0.23111622035503387,0.1262435019016266,0.44843485951423645,12.005824089050293
14.979999999999999,0.07197929918766022,0.013142838142812252,0.20991773903369904,0.6429750919342041,0.016465000808238983,10.416091918945312
15.0,-0.034563660621643066,0.021865347400307655,0.16593408584594727,0.4923979640007019,-0.05892621725797653,9.799957275390625
15.02,-0.056367792189121246,0.05095096677541733,0.12306760996580124,0.5136557221412659,0.25787678360939026,9.432345390319824
15.04,-0.06385787576436996,0.021516498178243637,0.08452799171209335,0.776018500328064,0.08834181725978851,9.300785064697266
15.059999999999999,-0.0925414189696312,-0.0156279057264328,0.05724608898162842,1.106325387954712,0.1290966272354126,9.821983337402344
15.079999999999998,-0.06095588579773903,-0.04208973050117493,0.01488006953150034,0.8133525848388672,0.471735417842865,10.022048950195312
15.099999999999998,-0.06002647802233696,0.02854522131383419,-0.008199097588658333,0.27192389965057373,0.3518156111240387,10.034954071044922
15.12,-0.05594036355614662,0.060836903750896454,-0.0054253158159554005,0.16904683411121368,0.18955209851264954,9.585247993469238
15.139999999999999,-0.03691822662949562,0.038753435015678406,0.023035451769828796,0.16486629843711853,-0.20623661577701569,9.034025192260742
15.159999999999998,-0.033695053309202194,0.01789262518286705,0.06957118958234787,0.04062667489051819,-0.6609019041061401,9.208714485168457
15.18,0.021679336205124855,0.04479636624455452,0.11012603342533112,-0.14063699543476105,-0.8037371635437012,9.543434143066406
15.2,0.027635956183075905,0.06454664468765259,0.12783600389957428,-0.2684861123561859,-0.7621386647224426,9.565492630004883
15.219999999999999,0.05484022945165634,0.06989220529794693,0.1262294501066208,-0.2515949308872223,-0.7515090107917786,9.677457809448242
15.239999999999998,0.052544016391038895,0.04407815635204315,0.11407480388879776,-0.11482193320989609,-0.578963041305542,9.70641040802002
15.259999999999998,0.10053600370883942,0.02814396098256111,0.07471752911806107,0.05106520652770996,-0.46070799231529236,9.837489128112793
15.28,0.07341074198484421,0.031312406063079834,0.010604367591440678,0.22274421155452728,-0.33484184741973877,10.116063117980957
15.299999999999999,0.052936356514692307,0.034543946385383606,-0.021226312965154648,0.3242684006690979,-0.13139382004737854,10.055292129516602
15.319999999999999,0.023503046482801437,0.02365669049322605,-0.04102259874343872,0.18421758711338043,-0.026288079097867012,9.706199645996094
15.34,0.0336063951253891,0.007098599337041378,-0.028200233355164528,-0.06852933764457703,-0.061200737953186035,9.566550254821777
15.36,0.024037931114435196,-0.0005349191487766802,-0.00791187584400177,-0.28352218866348267,-0.061294250190258026,9.90402889251709
15.379999999999999,-0.02859395556151867,-0.0035360045731067657,0.004049285314977169,-0.3154423236846924,0.0887397900223732,9.720902442932129
15.399999999999999,-0.0052795191295444965,-0.013115376234054565,0.014092807658016682,-0.1961331069469452,0.37028592824935913,9.743293762207031
15.419999999999998,-0.020493239164352417,-0.0006257263012230396,0.02494150958955288,-0.48719948530197144,0.2868782877922058,10.286591529846191
15.44,0.015002015046775341,0.04897494614124298,0.08272504061460495,-0.7278195023536682,-0.12489162385463715,10.21475887298584
15.459999999999999,-0.009623540565371513,0.06405992060899734,0.1428779512643814,-0.4943336248397827,-0.42785996198654175,9.512872695922852
15.479999999999999,-0.007058279123157263,0.03497143089771271,0.1732887476682663,-0.05609629303216934,-0.37629860639572144,8.81185245513916
15.5,-0.0318906307220459,0.03647080808877945,0.1735253483057022,0.14292190968990326,-0.09770961105823517,8.698287963867188
15.52,-0.041032083332538605,0.05831543728709221,0.18372848629951477,0.2820567786693573,0.1318514049053192,9.833815574645996
15.54,-0.006503641605377197,0.06522253900766373,0.15851332247257233,0.40351739525794983,0.11307627707719803,10.7871732711792
15.559999999999999,0.027467116713523865,0.037739936262369156,0.11182454228401184,0.6568250060081482,-0.017240392044186592,10.691913604736328
15.579999999999998,0.04662635549902916,0.04171513393521309,0.06946228444576263,0.4393574297428131,-0.2164539396762848,9.767282485961914
15.599999999999998,0.04678407683968544,0.053820230066776276,0.03787853196263313,0.15418581664562225,-0.5073527097702026,8.912846565246582
15.62,0.09538597613573074,0.02073640003800392,0.024643659591674805,0.11250974237918854,-0.7573094964027405,9.127488136291504
15.639999999999999,0.14115576446056366,-0.028510820120573044,0.002668647328391671,0.14433595538139343,-0.8559376001358032,9.741229057312012
15.659999999999998,0.09250876307487488,-0.0441998615860939,-0.013078792952001095,0.07034042477607727,-0.5241038799285889,10.106054306030273
15.68,0.04226735606789589,-0.016826532781124115,-0.01908625103533268,-0.04684603214263916,0.17558875679969788,9.713871002197266
15.7,0.027572767809033394,-0.05786549299955368,-0.04885818809270859,-0.018695088103413582,0.6685206294059753,9.124348640441895
15.719999999999999,-0.010203234851360321,-0.10889119654893875,-0.06378597021102905,-0.06884968280792236,0.837454080581665,9.224910736083984
15.739999999999998,-0.06812529265880585,-0.11154364049434662,-0.0668785348534584,-0.3257307708263397,0.7720509171485901,10.105121612548828
15.759999999999998,-0.07504602521657944,-0.10490261018276215,-0.057956065982580185,-0.506829559803009,0.5060638785362244,10.635459899902344
15.78,-0.06327781826257706,-0.09939517080783844,-0.01775306463241577,-0.4269614815711975,0.050494179129600525,10.43185043334961
15.799999999999999,-0.10217485576868057,-0.11728379130363464,0.02590733952820301,-0.4689173400402069,-0.31287825107574463,9.756464958190918
15.819999999999999,-0.07330536097288132,-0.1341094821691513,0.053929343819618225,-0.25450342893600464,-0.3885786831378937,9.370028495788574
15.84,-0.07854407280683517,-0.11030425131320953,0.03601400926709175,0.052192144095897675,-0.07581456005573273,9.478917121887207
15.86,-0.1134965568780899,-0.11098293215036392,0.018349559977650642,0.21573375165462494,0.27003994584083557,9.962965965270996
15.879999999999999,-0.07432001829147339,-0.06570782512426376,0.0123225636780262,0.26168084144592285,0.30477046966552734,10.331086158752441
15.899999999999999,-0.05963932350277901,-0.029771989211440086,0.01420256495475769,0.4334523379802704,-0.08382470905780792,9.830233573913574
15.919999999999998,-0.0019549906719475985,-0.015663474798202515,0.014658606611192226,0.5147647857666016,-0.4676898121833801,9.440056800842285
15.94,-0.01102612353861332,-0.028342681005597115,0.023192090913653374,0.45481202006340027,-0.7354738712310791,9.5360689163208
15.959999999999999,0.04787684977054596,-0.02647978626191616,0.035517118871212006,0.35692495107650757,-0.8952226638793945,9.851670265197754
15.979999999999999,0.03250250965356827,-0.009180096909403801,0.03807584568858147,0.33240005373954773,-0.7742449641227722,9.57040786743164
15.999999999999998,0.07874290645122528,0.00900797825306654,0.031174007803201675,0.44229811429977417,-0.6164742708206177,9.28210163116455
16.02,0.06579612195491791,0.02509635128080845,0.00012977690494153649,0.3580826222896576,-0.3818855583667755,9.737432479858398
16.04,0.07113680243492126,0.07379638403654099,-0.030663296580314636,0.18534494936466217,-0.11614616960287094,10.484228134155273
16.06,0.07719779759645462,0.09967661648988724,-0.05611021816730499,0.07551515102386475,-0.17810876667499542,10.515721321105957
16.08,0.08376428484916687,0.07405705004930496,-0.029961705207824707,0.06654486060142517,-0.22479139268398285,10.373604774475098
16.099999999999998,0.037599481642246246,0.053491804748773575,-0.020429780706763268,0.025919225066900253,-0.08271272480487823,10.032584190368652
16.119999999999997,0.014860874973237514,0.04702433943748474,9.467094059800729e-05,-0.027060458436608315,-0.02213074453175068,9.748269081115723
16.14,-0.019752539694309235,0.057089418172836304,0.008656126447021961,0.05336384102702141,0.2705509662628174,9.260384559631348
16.16,-0.003214804455637932,0.05386793985962868,0.006845863536000252,0.222370907664299,0.4939480721950531,9.47247314453125
16.18,-0.029359808191657066,0.028402026742696762,0.00793062150478363,0.19468748569488525,0.40546590089797974,10.203662872314453
16.2,-0.03898842632770538,0.0008684328640811145,0.009928470477461815,0.1753433495759964,0.3180127441883087,10.30058765411377
16.22,-0.04691630229353905,-0.015327841974794865,0.02029544860124588,-0.13534599542617798,0.09157895296812057,10.108734130859375
16.24,-0.038179006427526474,-0.005717817693948746,0.003726799273863435,-0.2240734100341797,-0.20941472053527832,9.690853118896484
16.259999999999998,-0.026648996397852898,-0.0132483821362257,0.012809397652745247,-0.1281125694513321,-0.24208472669124603,9.277639389038086
16.279999999999998,-0.02745043858885765,-0.023292211815714836,-0.004559694789350033,-0.0715794637799263,-0.15876434743404388,9.35325813293457
16.299999999999997,-0.021276667714118958,-0.01763921231031418,-0.026713447645306587,-0.018821340054273605,-0.16454629600048065,9.748215675354004
16.32,0.016239918768405914,-0.021002737805247307,-0.027751009911298752,0.01732507348060608,-0.23817573487758636,9.899709701538086
16.34,0.015950554981827736,-0.02399083971977234,-0.02816605195403099,-0.0992421880364418,-0.49007007479667664,9.903182983398438
16.36,0.03250351548194885,-0.018948448821902275,-0.04208718240261078,-0.2177063673734665,-0.6875573396682739,9.769635200500488
16.38,-0.018365798518061638,0.02301308698952198,-0.0358886793255806,-0.18287436664104462,-0.6151894330978394,9.791727066040039
16.4,-0.030728332698345184,0.030514126643538475,-0.029065314680337906,0.226880744099617,-0.4376472532749176,9.150530815124512
16.419999999999998,-0.029941117390990257,0.010914821177721024,-0.030957967042922974,0.44663670659065247,-0.2233472615480423,9.1816987991333
16.439999999999998,-0.04159069061279297,0.023608339950442314,-0.027546599507331848,0.357576459646225,-0.015083126723766327,9.718013763427734
16.46,-0.05509338527917862,0.07430604100227356,-0.020754968747496605,0.2670980989933014,0.12805692851543427,10.05498218536377
16.48,-0.06859811395406723,0.07608361542224884,-0.04320378229022026,0.22562254965305328,0.11966917663812637,10.375658988952637
16.5,-0.06996100395917892,0.04148639738559723,-0.04988879710435867,0.25281423330307007,0.16327838599681854,10.31641960144043
16.52,-0.09494604915380478,0.01707637682557106,-0.04024873301386833,0.20503555238246918,0.14660972356796265,10.29438304901123
16.54,-0.11101122200489044,0.017614547163248062,-0.021046588197350502,0.05960219353437424,0.0966842770576477,9.810052871704102
16.56,-0.08654291927814484,0.07473575323820114,0.0023709330707788467,0.09352435916662216,0.031846724450588226,9.43109130859375
16.58,-0.10459529608488083,0.08309663832187653,0.020813841372728348,0.17874230444431305,0.04631270840764046,9.389034271240234
16.599999999999998,-0.117098867893219,0.09361729770898819,0.027521934360265732,0.19229047000408173,-0.09981979429721832,9.49891471862793
16.619999999999997,-0.11384478956460953,0.11251718550920486,0.044779084622859955,0.15759484469890594,-0.38553208112716675,9.505759239196777
16.64,-0.1470448523759842,0.1243073046207428,0.05391940101981163,-0.06538373231887817,-0.6756651401519775,9.532487869262695
16.66,-0.06557979434728622,0.12879565358161926,0.04407355934381485,-0.5955067276954651,-0.8459508419036865,9.678729057312012
16.68,-0.08043231815099716,0.13720929622650146,0.04280341789126396,-0.8528578281402588,-0.878027617931366,9.997467041015625
16.7,-0.07492797076702118,0.1328635811805725,0.04057635739445686,-1.2524540424346924,-0.7203612923622131,10.243645668029785
16.72,-0.05165683105587959,0.1294594705104828,0.006121501792222261,-1.5857136249542236,-0.4889800548553467,10.083654403686523
16.74,-0.07546224445104599,0.1104520708322525,-0.024555087089538574,-1.7168316841125488,-0.41024404764175415,9.631989479064941
16.759999999999998,-0.055349983274936676,0.08320850878953934,-0.06297244131565094,-1.5865674018859863,-0.2688668370246887,9.468873977661133
16.779999999999998,-0.037199608981609344,0.07020936906337738,-0.08514832705259323,-1.6323240995407104,-0.3857886791229248,9.74778938293457
16.799999999999997,-0.02795540913939476,0.07763264328241348,-0.11372818052768707,-2.051112174987793,-0.5953378081321716,9.836519241333008
16.82,-0.04700012132525444,0.05097236484289169,-0.09498853981494904,-2.6869864463806152,-0.5092406868934631,9.477086067199707
16.84,-0.03173398599028587,-0.010549597442150116,-0.05996135249733925,-2.681878089904785,-0.26710984110832214,9.119213104248047
16.86,-0.02309299446642399,-0.060914669185876846,-0.010638173669576645,-2.9554007053375244,-0.32872214913368225,9.474374771118164
16.88,-0.00041987179429270327,-0.014941222965717316,0.04668513312935829,-4.067057132720947,-0.6074045896530151,9.562135696411133
16.9,0.011929817497730255,0.01942676492035389,0.09517846256494522,-4.349052906036377,-1.1359761953353882,9.722244262695312
16.919999999999998,-0.005437077954411507,-0.03376574441790581,0.08115433156490326,-2.629490613937378,-1.3984596729278564,9.765774726867676
16.939999999999998,0.007121291011571884,-0.10371045768260956,0.010893645696341991,-1.0714478492736816,-0.45334547758102417,9.65230941772461
16.959999999999997,0.0600304938852787,-0.08482855558395386,-0.014664302580058575,-0.5556626915931702,-0.02413932792842388,9.590941429138184
16.98,0.06527697294950485,-0.05843625217676163,-0.04385866969823837,-0.8394954800605774,-0.2792970538139343,10.159708976745605
17.0,0.0769466906785965,-0.07236769050359726,-0.08655354380607605,-0.5161529183387756,-0.6076778769493103,9.895866394042969
17.02,0.08208326250314713,-0.09587518125772476,-0.06715461611747742,0.03103753924369812,-0.6672108173370361,9.809775352478027
17.04,0.07514684647321701,-0.09401118755340576,-0.03288060799241066,0.1607636958360672,-0.760278046131134,9.845772743225098
17.06,0.0777142271399498,-0.0822068452835083,0.003526883665472269,0.2022750973701477,-0.6205257773399353,9.873310089111328
17.08,0.0784604549407959,-0.07804780453443527,0.024595949798822403,0.3846456706523895,-0.588589608669281,9.888967514038086
17.099999999999998,0.09626413136720657,-0.08718373626470566,0.044541388750076294,0.476938396692276,-0.4278924763202667,10.098860740661621
17.119999999999997,0.11521466076374054,-0.1053202822804451,0.028703562915325165,0.620753288269043,-0.2142854779958725,10.037004470825195
17.14,0.10682680457830429,-0.11170913279056549,-0.008430210873484612,0.5786552429199219,-0.09597434848546982,9.844673156738281
17.16,0.07578429579734802,-0.07250373810529709,-0.02646097168326378,0.43580111861228943,-0.0229243952780962,9.655893325805664
17.18,0.026280229911208153,-0.032162535935640335,-0.03946778178215027,0.28386372327804565,0.14214596152305603,9.697150230407715
17.2,0.012209165841341019,-0.006485487800091505,-0.024194438010454178,0.1247117891907692,0.17490154504776,9.795693397521973
17.22,-0.0040368554182350636,0.00824001431465149,-0.012924453243613243,0.09621062129735947,0.01695963181555271,9.686604499816895
17.24,-0.010505596175789833,0.019382623955607414,0.002536507323384285,0.03992253169417381,-0.24506698548793793,9.85214900970459
17.259999999999998,-0.01996828243136406,0.03381556272506714,0.026539748534560204,0.0873384028673172,-0.2868417501449585,9.672340393066406
17.279999999999998,-0.03604917600750923,0.041250020265579224,0.015469956211745739,0.16913563013076782,-0.30198022723197937,9.835824966430664
17.3,-0.04848624765872955,0.055672433227300644,0.0026179070118814707,0.14544011652469635,-0.2832954227924347,9.911005020141602
17.32,-0.0717979446053505,0.07514315843582153,-0.027667777612805367,0.06714102625846863,-0.19441784918308258,9.849468231201172
17.34,-0.09059195965528488,0.09063395112752914,-0.02572041004896164,0.002802151720970869,-0.053122565150260925,9.704903602600098
17.36,-0.08525990694761276,0.09634873270988464,-0.0031170400325208902,-0.005581230390816927,-0.0449117012321949,9.84537410736084
17.38,-0.0729384794831276,0.09470532834529877,0.0095683503895998,-0.17227703332901,-0.2525966167449951,10.060193061828613
17.4,-0.06703352183103561,0.07973691821098328,0.010713924653828144,-0.25010815262794495,-0.6103745698928833,9.897331237792969
17.419999999999998,-0.05564601719379425,0.05456875264644623,-0.0006869028438813984,-0.23473866283893585,-0.878844141960144,9.756775856018066
17.439999999999998,-0.03824521601200104,0.04318192973732948,-0.012796225026249886,-0.1957029551267624,-0.8683007955551147,9.616546630859375
17.459999999999997,-0.016439974308013916,0.01857645995914936,-0.021250253543257713,-0.1956835836172104,-0.6682745814323425,9.680232048034668
17.48,0.004762199241667986,0.000586013775318861,-0.01346083078533411,-0.3212498724460602,-0.4953150749206543,9.670278549194336
17.5,0.008375882171094418,-0.007161553483456373,-0.007781100459396839,-0.44777750968933105,-0.4134811460971832,9.784005165100098
17.52,0.008804529905319214,-0.005063842516392469,-0.0017295069992542267,-0.48639416694641113,-0.4582669138908386,9.814927101135254
17.54,0.01993105560541153,-0.012159748934209347,0.007570211309939623,-0.44051268696784973,-0.5343008041381836,9.7230863571167
17.56,0.014822610653936863,-0.024448048323392868,0.01037756260484457,-0.4183221459388733,-0.5593181848526001,9.678823471069336
17.58,0.03448629006743431,-0.0361807681620121,0.017274972051382065,-0.4007057845592499,-0.5502276420593262,9.795778274536133
17.599999999999998,0.033857330679893494,-0.032873351126909256,0.01012248732149601,-0.3271787464618683,-0.49291300773620605,9.85536003112793
17.619999999999997,0.04120763763785362,-0.041828930377960205,0.004222549498081207,-0.17524239420890808,-0.39378395676612854,9.842612266540527
17.64,0.041335802525281906,-0.052818551659584045,-0.008058176375925541,0.12368493527173996,-0.25202298164367676,9.788349151611328
17.66,0.050518788397312164,-0.053641125559806824,-0.00872435886412859,0.271312415599823,-0.23001067340373993,9.845629692077637
17.68,0.03966269642114639,-0.04269436374306679,-0.0017709333915263414,0.15142284333705902,-0.2570182979106903,9.899389266967773
17.7,0.028732813894748688,-0.02611585520207882,0.008578331209719181,0.06749620288610458,-0.2504291534423828,9.816896438598633
17.72,0.002698698779568076,-0.01188758946955204,0.0019709814805537462,0.006306565832346678,-0.19459956884384155,9.709757804870605
17.74,-0.004722160287201405,0.003373237792402506,0.001238908269442618,-0.02461744286119938,-0.1895494908094406,9.773024559020996
17.759999999999998,-0.014445836655795574,0.02308836206793785,0.004880547057837248,0.02185169607400894,-0.21339449286460876,9.840124130249023
17.779999999999998,-0.02972288988530636,0.03483736515045166,0.0016835890710353851,0.1194087415933609,-0.2954180836677551,9.813451766967773
17.8,-0.038196466863155365,0.047775473445653915,-0.004057371057569981,0.1316397786140442,-0.3480381667613983,9.841556549072266
17.82,-0.032829247415065765,0.043983303010463715,-0.0026773361023515463,-0.040627870708703995,-0.38563138246536255,9.833770751953125
17.84,-0.036013856530189514,0.043981101363897324,0.0005829811561852694,-0.22419679164886475,-0.3812856376171112,9.81508731842041
17.86,-0.028832167387008667,0.03638407215476036,0.00025279787951149046,-0.2733158767223358,-0.3892192840576172,9.806978225708008
17.88,-0.01907120645046234,0.020977606996893883,0.0013993685133755207,-0.26529160141944885,-0.4673856794834137,9.778685569763184
