time,wx,wy,wz,ax,ay,az
0.0,-0.0032316826979173,0.0054282000339122,-0.0116093327838233,0.6271244880090525,1.177420326727507,9.83015857854036
0.01,-0.0044949654733925,0.0134307968486527,-0.0076044668990424,-0.0200269179105662,0.8224048588625015,9.523377945305317
0.02,0.0001604549944972,-0.0016308351694228,-0.0039981758768907,-1.289333447911979,0.5738955243429792,9.928770835806436
0.03,0.006750557838283,-0.0156862965342849,-0.001504611837422,-1.1933793084164477,0.4424592579720964,9.752931156910496
0.04,0.0036558380075304,-0.0275785238205141,-0.0045469847123376,-0.880226978930543,0.9159602689519546,9.901273748547556
0.05,0.0055327494257697,-0.0357524409168113,-0.0159114684525183,-0.6246563782459496,0.6404811940557942,9.573727251954242
0.06,0.005396337059572,-0.0718448753573758,-0.0585774864617041,-1.9980120988041332,-0.0245631165919794,10.243200141739036
0.07,0.0175764571096081,-0.1107386991446592,-0.0978695835533789,-1.8378390241697704,-1.0516391356853003,9.940350249883592
0.08,0.0233891934059459,-0.1725346038538497,-0.1079489077988318,-1.6361271766463652,-0.491474989537643,10.99408356252174
0.09,0.0308050511864479,-0.1952280393945539,-0.101802171355789,2.0043045241126367,-0.8205828292646852,10.553689552057753
0.1,0.0504853997595196,-0.1914985692508561,-0.0799052502575567,4.3278377054184105,-1.5573348298173533,10.353473796033784
0.11,0.0714697583877068,-0.1604410812729748,-0.0487124707165411,6.223905606140028,-0.9977621764955882,9.634254991477684
0.12,0.0692519706006608,-0.1058644070936804,-0.0162705156567743,7.0303665211920014,0.9171345831298446,8.95598048915838
0.13,0.0590707848763354,-0.0549987243285452,0.011727208123798,5.940391669530807,2.0315477161270428,8.370273017780177
0.14,0.0378961881055902,-0.0093172028755612,0.0252751771745034,4.535345762089937,2.9063014769838493,8.163907701086774
0.15,0.0160939840906908,0.0195695245354926,0.0244330045220204,2.492668697396764,3.173523306898884,8.271152091998353
0.16,-0.0114954434412789,0.0407121967150781,0.0174119852867671,1.192965232312072,3.8990841375958314,8.655150039119162
0.17,-0.0394905842162672,0.0475626407137105,0.0036780183122255,-0.5153349027257911,4.139489477880554,9.418050281096855
0.18,-0.0724597296412112,0.0385582918824198,-0.0083248281467012,-2.085877915108907,4.445390736234851,10.356497490967042
0.19,-0.0975893858394214,0.0114926482130469,-0.0201088890048912,-3.2557720505512924,3.5259530061124176,11.193435567657632
0.2,-0.1006925066257162,-0.0114700177561951,-0.02559610936672,-2.911233161220454,1.8234751890134877,11.181313831498244
0.21,-0.0853603214391656,-0.0284877271404239,-0.0332147936883619,-2.301797694366925,0.1295311658029119,10.982461183325578
0.22,-0.0684022146710513,-0.0272567866213039,-0.0295233141246489,-1.1327138909519208,0.0322123578409038,10.238542741115229
0.23,-0.0667167127562182,-0.0195005489333139,-0.0217464912298372,-0.8648746033402755,0.7353721802194118,9.7326992930503
0.24,-0.0721172002762437,-0.0190371948928619,-0.0117585297289541,-1.2174796432613224,0.9727412490841748,9.482269606126058
0.25,-0.082674004068357,-0.0128042608939757,-0.00018670680814,-0.8512181161445942,0.8792709977973177,9.2691673133829
0.26,-0.0872844119944016,-0.0114650135706764,0.0078504922252842,-1.1820369325419169,0.1105281850920408,9.251669612235752
0.27,-0.0746001620739767,-0.0120425582329816,0.0156908490148135,-1.2733345168653756,-1.0244197252324252,9.201167458535153
0.28,-0.0593848319439884,-0.0149648777117301,0.0261201866355487,-1.4826363339155393,-1.2962027500709343,9.362524661569328
0.29,-0.0324415534319163,-0.0237439640997711,0.0299286589410849,-2.0336289459988186,-2.020172597014912,9.533842744383495
0.3,-0.0099287163564058,-0.0397988773662415,0.0344073091086694,-2.524651557944531,-1.6922227712532163,9.84757291808639
0.31,0.0020044115932899,-0.0650055717451201,0.0412577417132207,-3.329251259568688,-0.5738899205809103,10.282647182453523
0.32,0.0117829074185976,-0.1035043423197563,0.0464409690734692,-4.095106600480742,-0.3896342044064693,10.741308546641816
0.33,0.0166224254809578,-0.1340214680185127,0.0473352659878083,-3.6285816545036855,-0.0504978705588443,10.651820346656931
0.34,0.0316249960035298,-0.1647091626926254,0.0519901018974133,-3.318800257179498,-0.5284570191196295,10.526198529562576
0.35000000000000003,0.0413710678770263,-0.1833069929945926,0.0556883801159211,-2.3495524647834447,-0.1098656111616785,10.159325486221135
0.36,0.0589635627804133,-0.1964914937356905,0.0596866261598416,-1.802664235812693,-0.3753851128221607,9.803363675843311
0.37,0.0625635514351565,-0.1945206417021309,0.0629690837499448,-0.6393144662916327,0.5641751319691173,9.542077892364068
0.38,0.062676237135894,-0.1788499097393502,0.0747459967073747,0.6104493841755334,1.0587854874230913,9.328079865166323
0.39,0.0496153769757955,-0.1353962361063086,0.1013368133839913,2.466827552299528,2.071566632741101,9.17470478879659
0.4,0.0325140992069563,-0.0774220323613537,0.1395128507551499,3.3060317348188306,2.9394511964543715,8.82783086887003
0.41000000000000003,0.0079424102317918,-0.0120934259673624,0.1764060397085496,3.788014601929647,3.505543612757622,8.796555813090487
0.42,-0.012453036884261,0.0554984785909839,0.1981204141315766,3.116153812975316,3.577083043283213,8.489045831517213
0.43,-0.0383717085838947,0.1066787129104127,0.2008524675306626,1.396196071816142,3.6805657574792825,8.701278467277412
0.44,-0.0634303261059617,0.1311358403262827,0.1832451213535615,-1.0316196476220625,3.586388860387427,9.131531682851548
0.45,-0.0865047957246134,0.1252031201853334,0.1432657678064652,-3.35156926329122,2.785476121622618,10.017660952721425
0.46,-0.0935529457672119,0.0962422104143507,0.0945166189607926,-5.0410514586611175,1.2519445426711344,10.502212638939003
0.47000000000000003,-0.0870078691924548,0.0364165168298065,0.0435263391968556,-6.930326983546336,-0.4381937797732007,10.980649653301322
0.48,-0.0660030943917278,-0.0510469851526296,-0.0008115471887639,-7.737618522627372,-2.1939075183396253,11.718609785193667
0.49,-0.0254500276042729,-0.1141863087202176,-0.031414494997566,-5.128361021737082,-3.923487380130259,11.166568610755649
0.5,0.0164893315695354,-0.1401636674111703,-0.0377013470593146,-1.9003050034341733,-3.844337157793078,10.179682476328368
0.51,0.037701656068121,-0.1352495359861605,-0.0388592715922049,0.5333870192160511,-2.676139976297749,9.528002493220631
0.52,0.0521299230099701,-0.106352048325158,-0.0213309574487856,2.276338300326686,-1.8455809968669088,8.742772142270619
0.53,0.0509790330763806,-0.0731307320612131,0.0093837830622443,2.6201372207572464,-0.3504959448278034,8.580045442860133
0.54,0.0486496820786836,-0.0543227608043159,0.028159164675767,1.6783567945205715,-0.4915265085847504,8.978816194642388
0.55,0.0544932651804694,-0.0359245013638625,0.0520137761172601,1.5551086062537145,-0.553600864187371,9.033740628972836
0.56,0.0674334510841109,-0.0256815373437456,0.0653208259877511,0.6784607367902534,-0.8193702512933043,9.30644900660469
0.5700000000000001,0.0864368940181698,-0.0283061476467746,0.0710154910024949,-0.4200517671079445,-0.6539819072413688,9.600719811100513
0.58,0.0913489947010572,-0.0423261920072243,0.0697183374699899,-1.3204736148087943,0.5989540711000108,10.126267429183796
0.59,0.0941441901848285,-0.0613827096713853,0.063367961758072,-1.6613559746426394,1.1934504352405402,10.317772481859194
0.6,0.0865940619780725,-0.078077465442042,0.0525474686559983,-1.4377645440898497,1.905122732182838,10.53160077668135
0.61,0.0778215042891863,-0.0871696259383653,0.0376118895050832,-0.7812809522722861,1.9454898345071336,10.46737105871285
0.62,0.0683171056602873,-0.0849515909636867,0.0232809771236726,0.0831651208547217,1.9826644189308071,10.208238338467572
0.63,0.056628204630755,-0.0758573464470501,0.0114398802083679,0.6990468543866826,2.1397539632751124,9.997657903035517
0.64,0.043766926806917,-0.0576388260191717,0.000183256428013,1.3351890590218742,2.150981634972767,9.622485557079903
0.65,0.0284333089779224,-0.0370103287255287,-0.0101409770163944,1.4500270183368995,2.094907464339981,9.485518554764152
0.66,0.0102553545801854,-0.0124736797682963,-0.0127353874582103,1.808802933993779,2.26350925641962,9.325819226116716
0.67,-0.0064081124832205,0.0071870599453796,-0.0153621576342037,1.4095362185461624,1.8843913224426545,9.408841459687777
0.68,-0.0151184840542503,0.02429963838012,-0.0164551000657728,1.1783884354564016,1.3977563926565928,9.371069615241309
0.6900000000000001,-0.0196226530461816,0.0354003693938789,-0.0153973169240406,0.6785586495404292,1.0434542754387233,9.542398614013193
0.7000000000000001,-0.0214974013946042,0.0388086697660437,-0.015629517993634,0.1335770861199939,0.7279127932708171,9.749644228088554
0.71,-0.0212998947503929,0.0391089547652344,-0.0107735331717184,-0.0854752179178723,0.6358199441753668,9.883103631323229
0.72,-0.0160133781775363,0.0293002943387573,-0.0098525845992616,-0.7041926847751537,0.240096821969894,10.09299359191939
0.73,-0.0140948570922482,0.0235691805867457,-0.0071792427066019,-0.4696845713303088,0.3642299178597167,10.036319594564148
0.74,-0.0053529970358103,0.0150539761979954,-0.0035560495767048,-0.4622712686224265,0.0117101970634694,9.95019165497852
0.75,0.0040489078972292,0.0115261111872678,-0.0021741214755228,-0.1130117250505028,-0.1113817107808192,9.75844345691952
0.76,0.0103882646226938,0.0120689298141625,-0.0018621801014295,0.2131335350136512,-0.0056846667039586,9.606057755621643
0.77,0.0145407788466666,0.0144565520286854,0.0013305539882504,0.5042803651209136,0.220432288316718,9.5204535792277
0.78,0.0155064620496053,0.0199162916238836,-0.0005032929207435,0.6646707049453807,0.2919909270055649,9.423722223592629
0.79,0.0198172489823464,0.026857008764677,-0.0044232426758161,0.7469430452492853,0.1500395797824934,9.306301732236864
0.8,0.0241469280645758,0.0347484777817729,-0.0078229654195955,0.7253026102764016,0.2525861480536523,9.42925643437346
0.81,0.0246913143337142,0.0451702396066556,-0.0054301551158777,0.9267544596604176,0.5009032210536182,9.411115163623894
0.8200000000000001,0.027044788635958,0.0480516722160045,-0.0021426120388558,0.4253338391385295,0.5348344931873339,9.64786164446334
0.8300000000000001,0.0271639202812979,0.0492343739708006,-0.002802382836794,-0.027625642259412,0.5837257350972239,9.809310307190312
0.84,0.0266502693511122,0.0444916421988581,0.0019046910578846,-0.4630110113756671,0.7408773350734236,9.998224240547266
0.85,0.0276750869133698,0.0390591770106172,0.0113733409357019,-0.5943225762722766,0.7395607297298806,9.977714223015523
0.86,0.0368525238909424,0.0306640771369322,0.0156445660081454,-0.9555983439433658,0.2792740092087187,9.81090035536742
0.87,0.0386536389098124,0.0206525356025547,0.0188258931425162,-1.0492008898438636,0.6446069503433178,9.868889371111813
0.88,0.0424157171140566,0.0119790723242397,0.0145281346899219,-1.1274646403921955,0.4340335168089382,9.704929567782605
0.89,0.0426325986450729,0.0067950418081057,0.0104604678612896,-0.9085051951344796,0.6014584677345342,9.720384713177747
0.9,0.0453914577907371,0.0003192736263412,0.0032462288777106,-1.0010839417541513,0.4183358556630157,9.79872144281083
0.91,0.0472340482656963,-0.0033509504786437,-0.0029709778341702,-0.8559651942047937,0.5488188309542239,9.846233542056329
0.92,0.0472600978936303,-0.0014469585542966,-0.0143965586635521,-0.6185093991465755,0.4619786381660776,9.86548366960982
0.93,0.0455498401962241,0.0038945902112783,-0.0110161129000834,-0.2150324295598143,0.9583006287856316,9.952413756568584
0.9400000000000001,0.0412676515658921,0.0112756478563932,-0.0074868892866424,-0.2625835509112071,1.1946061087528848,9.83971599938034
0.9500000000000001,0.0336579557407298,0.015724283656144,-0.0052737134124389,-0.5226816332067021,1.3943439974699443,9.888041752182463
0.96,0.0281643384555731,0.0145464738469908,0.0009759388317116,-0.7677244002134158,1.462436400489442,9.892281399891845
0.97,0.0180985263681673,0.0136447462076442,0.0055530093063362,-0.7883889809137258,1.6892606770791088,9.942446341649571
0.98,0.0208518227978953,0.0131076057682715,0.0065496799920448,-0.7786409313698833,0.8810399348559097,9.758032331082257
0.99,0.0167563342706515,0.0128694389543887,0.0096278561663576,-0.6571392692521537,1.2628999518344977,9.900375619172086
1.0,0.0180633996079661,0.0112130954683928,0.0115901789081045,-0.6259597008968664,1.0153635924331077,9.820324774234331
1.01,0.018853306896021,0.013848063379142,0.0126445785549231,-0.3749000861024332,1.0625291204034308,9.61795008364794
1.02,0.0104023816943895,0.0183546401119176,0.0101262785878726,-0.2657258681765309,1.4534153373445418,9.638685346197068
1.03,0.0062363649747234,0.0191939332359743,0.0054195079405554,-0.4526263522948949,1.1596386011751332,9.535166305476572
1.04,0.0021560616942206,0.0242081519743997,0.0045798985206284,-0.1300452878940355,1.2017588546244573,9.38351741038724
1.05,-0.0038014247061926,0.0250202941542256,-0.0016842476639202,-0.4707264881561218,1.0801582038218076,9.523148153105062
1.06,-0.0039532329372104,0.0221588144540985,-0.0108736568677476,-0.5614346204164484,0.7735087185852723,9.482195304066703
1.07,-0.0035034860269955,0.0223105336828831,-0.017462805992668,-1.2850104332757382,-0.7403993840880829,9.39403255242307
1.08,-0.0007769438608177,0.0166240026240299,-0.0203710618975809,-0.9100521843357576,0.5340984939658702,9.6606006149261
1.09,0.0015677184116396,0.0087794210577883,-0.0223993092390946,-0.985806370881733,0.531069581767129,9.786346083479328
1.1,0.0002564694105953,0.0007577513755489,-0.0236721925053051,-1.048173261315066,0.6599833718430808,9.910199319812978
1.11,0.0067527326864789,-0.0083951206377741,-0.025817607677286,-1.0632686077838698,0.2816256623510031,9.808691047786471
1.12,0.0056771778830037,-0.0132467166621875,-0.0234596386167458,-0.7273010426176405,0.7827581983508702,9.805982894952354
1.1300000000000001,0.0061436940862041,-0.0177948804401372,-0.0204233314457586,-0.6473969525262651,0.6894373716786248,9.816309536048845
1.1400000000000001,0.0056515404194052,-0.019558182716314,-0.0195675409945896,-0.4682273788040827,0.7311367261684397,9.824932107522953
1.1500000000000001,0.0036619392932213,-0.017999098126633,-0.0147053069981983,-0.2416139412869744,0.9786302549003172,9.843511191655791
1.16,-0.0004948287524754,-0.0136064591785755,-0.00995013970763,-0.1002457606905897,1.2113169436985225,9.927295558740369
1.17,-0.0040427375423325,-0.0118541181138995,-0.0053191889624348,-0.2564574375864399,1.240390628320314,10.081603965042136
1.18,-0.0116464645487957,-0.0078337593661515,0.0028663444950007,-0.0661733524821322,1.5328253538408856,10.20280415366441
1.19,-0.0154712471899915,-0.0004320233998823,0.0084940882784077,0.0318723657853198,1.2801658781973346,10.106204850133718
1.2,-0.0190102849436175,0.0068866116441338,0.0111521304038115,0.1570291457662394,1.376135119059349,9.996638449322289
1.21,-0.0203338452228075,0.0195313740305776,0.0108065762010165,0.2793298460034029,1.243089503020557,9.689487665441332
1.22,-0.0270778345881945,0.026354946160126,0.0102204455447145,-0.142851956307884,1.5698550897933188,9.71073091199709
1.23,-0.0345252026591596,0.0272592089528533,0.0034995033324458,-0.674407426578936,1.4778688921811691,9.722610448380433
1.24,-0.0421868226217791,0.0250809070764101,-0.0007567083544335,-0.9854478809159064,1.467602631059954,9.709322990751794
1.25,-0.0440630420039997,0.0177884023319141,-0.006916161774402,-1.4051309235429794,0.9963024097893828,9.811005984262572
1.26,-0.0475900693964988,0.0096549890157114,-0.015502355209296,-1.6067549333249225,0.8144137933813426,9.948504268044289
1.27,-0.0455217892724516,-0.0011803919011928,-0.0175656612578085,-1.7026800257716517,0.546612963704369,10.073042478523949
1.28,-0.0412911441788917,-0.0055953606835442,-0.0210551499936035,-1.404385149220975,0.2530080161242113,9.957033172789972
1.29,-0.039918477501023,-0.0117802541937787,-0.0239865306380442,-1.504263092704453,0.2570956659103153,10.07599575592782
1.3,-0.0383098113506989,-0.0104207657665775,-0.0239556535694054,-1.1052988505810564,0.2630764925896852,9.899099088081991
1.31,-0.0332725353659349,-0.0096850871938447,-0.0180354427161863,-1.1252714558968553,0.1176737569989041,9.867179136803196
1.32,-0.0330046231800505,-0.0070595526376307,-0.006534180751746,-1.0568903409205797,0.4013739228920343,9.896744600956865
1.33,-0.0238572186994614,-0.0066285015664284,0.0032866141677596,-1.3188084090148533,-0.0761635420039961,9.799139497021184
1.34,-0.017977661722527,-0.012325645526776,0.0146308586385794,-1.662930081433958,0.2424390839355045,9.968444786083207
1.35,-0.016014188557857,-0.0152236507418035,0.0199607879307814,-1.5978324746658787,0.5216708726481952,9.897105314016695
1.36,-0.01620907654323,-0.0210564109224394,0.016400410645897,-1.7606369617157975,0.6062684158433244,9.96281141545009
1.37,-0.0141242679011887,-0.0267540059337315,0.0150897017133184,-1.577034502683684,0.6989684138100015,9.917020681442532
1.3800000000000001,-0.0151117614558486,-0.0319726876395266,0.0069915390026518,-1.5095228914309642,0.7594292274910939,9.92920520027732
1.3900000000000001,-0.0132847353780999,-0.0299768119478121,-0.0069093463558009,-1.0822620980154816,0.5565614003240594,9.714752020121765
1.4000000000000001,-0.011515559212616,-0.0276754849568744,-0.0165960110339573,-0.9111897093416632,0.6702739158436342,9.718428068265148
1.41,-0.0136213346562906,-0.0255114861741608,-0.0229435853275707,-0.8053293678200751,0.889703239755344,9.81160700043046
1.42,-0.0152044076538025,-0.0200055616052601,-0.023275961315935,-0.5651416061513919,0.927850303379512,9.701335863893815
1.43,-0.0161730485813506,-0.0149950356856708,-0.0207611687097004,-0.6717929671216138,0.8327438182394997,9.64312137304567
1.44,-0.0153412997085463,-0.0148377293704071,-0.0140026930335215,-0.800656074979666,0.7056565948936541,9.752577500783843
1.45,-0.0155565125760188,-0.0134139025689974,-0.0040354301768592,-0.7456825458338986,0.757169317162587,9.726653781449818
1.46,-0.0120197048724608,-0.0159951747712511,0.0025408846244909,-0.9786966208223662,0.435350525234831,9.74135512712802
1.47,-0.0104976018447102,-0.0222007378909946,0.0030992619844847,-1.2208218540205151,0.4841185767609354,9.728095441514766
1.48,-0.0056742509778887,-0.028538330508597,-0.0052388209465197,-1.071858789114237,0.0828293964138219,9.802882549218143
1.49,-0.0060767338377897,-0.0267202800149018,-0.0049578306812099,-0.4717486058981303,0.5566862221676422,9.699149790936907
1.5,-0.0031731108789202,-0.0233552268964908,-0.0105617625254443,-0.3707223139033929,0.1898589188370769,9.65781713356446
1.51,-0.00103296192436,-0.0172587864379267,-0.0145779970648935,-0.2155581533945124,0.318657161330617,9.645021105010835
1.52,0.0031103683126006,-0.0092843072716033,-0.0133717555168322,-0.0689105108689043,0.4260078944399658,9.53570033747036
1.53,0.0017613007861597,-0.0066602899397127,-0.0146718836936405,-0.427270077536742,0.6676767512099524,9.749224863490468
1.54,0.0011729735916099,-0.0045492293262213,-0.0134369499597004,-0.4700365620081438,0.7912480674724202,9.714410669924352
1.55,-0.0021696649530983,-0.0016334107842772,-0.0141678426030329,-0.4837442383883227,0.8651617233202303,9.753445181220886
1.56,-0.0013191509843098,-0.0040731340602656,-0.0098487419623187,-0.6671330694039274,0.8420488137033358,9.827087975544192
1.57,-0.0047736575145888,-0.0038365546968655,-0.008234946205025,-0.5370848649076925,0.9999312586908532,9.824104758952926
1.58,-0.0029970166181668,-0.0023490546920358,-0.0052521165075949,-0.4614206600073257,0.7587771153853357,9.69671343436737
1.59,-0.0049271040770319,-0.0019090985765603,-0.005191397535359,-0.5150757347747151,0.8611003179419823,9.798605549277037
1.6,-0.006355792214271,0.000883335949853,-0.0061975979793122,-0.4084837340824125,0.7869111934161234,9.731302565510784
1.61,-0.0065692468296339,0.0025146448945778,-0.005870149153029,-0.4669113699161319,0.7561043117961435,9.722962625868847
1.62,-0.0052773045448648,-0.0018602807260885,-0.0063208967062882,-0.8302633967262798,0.598923574482118,9.739677902717098
1.6300000000000001,-0.0060294789750436,-0.0112856329104781,0.0006479967537098,-0.996660850168885,0.817428108016114,9.825728981597113
1.6400000000000001,-0.0120741705047363,-0.0233558856782477,0.0110573357355543,-0.960345647288284,1.1435056162747883,9.92683972231552
1.6500000000000001,-0.0174734611759346,-0.035213806362246,0.0302212059882232,-0.4146122358749681,1.4052718160590163,9.990658902201162
1.6600000000000001,-0.0233929275004853,-0.0385239846441458,0.0387092370924302,0.1758630874317605,1.1942048163890882,9.93562688582444
1.67,-0.02357447072441,-0.0369262453697741,0.0494862486061402,0.7621735558707523,1.0323630870813831,9.870042252407895
1.68,-0.0198226943444668,-0.0233134360676037,0.0452399764594384,1.3052570990039178,0.4642695436697319,9.561779931095964
1.69,-0.0187923867726139,-0.0136026967608134,0.0388045411941357,1.1420664668994414,0.6123113858993506,9.7287516171698
1.7,-0.0160844816441739,-0.0023688803165484,0.0300796058413335,1.084998397573825,0.5173542724491245,9.54767737448986
1.71,-0.0193088114886455,0.004232237206175,0.0126104614150472,0.5429628512365989,0.6544871601286794,9.636591513725037
1.72,-0.0179102273816998,0.005548362231169,0.0018293526604475,0.2472524920371423,0.5989132007357519,9.592825207766824
1.73,-0.020155357516221,-0.0014268446850598,-0.0093149395275167,-0.2875992483149195,0.7305662702512019,9.867573028375876
1.74,-0.0235352793034768,-0.0079601620743389,-0.0218799702438763,-0.3378226738175321,0.6938620408458235,9.911070547011166
1.75,-0.0240077104877098,-0.0089704308576177,-0.0275330442550829,0.0910571438003512,0.636664523890244,9.829718723649028
1.76,-0.026617170836249,-0.0052100694516377,-0.0251497134181908,0.4460773074648883,0.9079323846269642,9.846133950556116
1.77,-0.0262933590629683,0.0038294118796412,-0.0178001831832579,0.574726077912323,0.7536099760320281,9.828240461514945
1.78,-0.0270589211559926,0.0129679432280681,-0.013042238688772,1.0437080838084984,0.9600274256823614,9.554558498637538
1.79,-0.0279504865038295,0.0196372992125795,-0.0088924748438647,0.3278974525859572,0.885372523397579,9.768020030589808
1.8,-0.0291168787525753,0.0210905355881783,-0.0049589035648158,-0.0772945634349948,0.9920201143544148,9.83509442460045
1.81,-0.034862995841551,0.0225800441385732,-0.0067617559421113,-0.2757365676325108,1.141346518543903,9.802344427472471
1.82,-0.0378722982994296,0.0218465507077362,-0.0077972739550522,-0.4917661178958206,0.969426250262092,9.686065609906182
1.83,-0.0382093806453384,0.0174289049995855,-0.011859385444527,-0.7709540301050728,0.7205069394432005,9.622327419508226
1.84,-0.0369409463890581,0.0121952992479037,-0.0144508435937813,-0.8237613548830524,0.6368906132105677,9.593556698352709
1.85,-0.0375574807161222,0.0075249449368374,-0.0181034460279396,-0.7728428864850517,0.6589875419120397,9.637538500631576
1.86,-0.0391605031989661,0.0076248427243301,-0.0199117336037806,-0.4422699438025699,0.6403518526515204,9.607635536273598
1.87,-0.0384773620911019,0.0142303216094281,-0.0133023952680877,-0.138115618526124,0.5135239977999927,9.468103084868869
1.8800000000000001,-0.0326167517602331,0.0175903403940516,-0.002381699307566,-0.344378702161169,0.2915472173573508,9.482209513459017
1.8900000000000001,-0.0306625154048325,0.0136213356141211,0.0031573648716085,-0.9463328097339924,0.3260316226324302,9.682341199373212
1.9000000000000001,-0.0233732849793048,0.0046461834726639,0.0056202747777798,-1.2917715271202588,-0.0072633498402672,9.718054226971164
1.9100000000000001,-0.0221129655509485,-0.0022614872012831,0.0085367982660182,-1.266446766715792,0.3824779333776051,9.716214911076
1.92,-0.0202402473610056,-0.0169477384133576,0.006027189401234,-1.7124370978354593,0.1991184614490075,9.891934273410907
1.93,-0.019700026452656,-0.0231891581950911,0.0051885557745345,-1.2189868775110029,0.3717425223373498,9.684562944559756
1.94,-0.0177724791537641,-0.0358775123258739,0.0021284664958012,-1.4688488565954754,0.3002530319767113,9.882655886030356
1.95,-0.0147775276816639,-0.0399685362278999,-0.0021292275364748,-0.9788812232971024,0.3163748633668684,9.679840062108603
1.96,-0.0155767891686983,-0.0397976369310792,-0.0050482416141084,-0.6711599216901875,0.6656126902495361,9.746520710438022
1.97,-0.0208319560513339,-0.0385783894384776,-0.0106352131429365,-0.6438360234521284,0.9798712348197764,9.922868535328908
1.98,-0.0273519112303304,-0.03486997710518,-0.0156019042792967,-0.5096178884560127,1.2476331725348777,10.050905392421358
1.99,-0.0323181794889434,-0.0292761036846545,-0.0201992142561129,-0.5185971895628984,1.1670763695774022,10.104252279554125
2.0,-0.0423578572336886,-0.0243997756165561,-0.0213893923524073,-0.5269922697746225,1.5901157197958002,10.2567971192616
2.0100000000000002,-0.0483633890382208,-0.0178458641162799,-0.0251900788012198,-0.6495401429063136,1.300976660020088,10.105946272076254
2.02,-0.0551211594524613,-0.0147816640713939,-0.0278830576303652,-0.9606093639882716,1.3361248297674078,10.12136856122888
2.0300000000000002,-0.0594425207153269,-0.0111580921844454,-0.0265371270093372,-1.0086388853287525,1.2101898323313829,9.949829387323808
2.04,-0.0622988503706838,-0.0137503076279086,-0.0256226930382898,-1.462196189117244,0.9447707505271624,9.967132496588896
2.05,-0.0610862783168352,-0.0142166818846091,-0.0219234834972075,-1.376659948177135,0.6784663431361462,9.768099430837552
2.06,-0.0618028928345565,-0.0145748928001502,-0.019920201188629,-1.4835545309599705,0.5987595113350536,9.74410904981921
2.07,-0.0588053189276527,-0.018952982909005,-0.0194760068866661,-1.7311467398732274,0.2653669893354515,9.753636533920082
2.08,-0.0596641862369557,-0.028165425067894,-0.0181434779974869,-2.016334869399079,0.3126278420526351,9.8401776155298
2.09,-0.055191480640699,-0.0460876004232617,-0.0098867874208143,-2.047356642570473,0.0742794926930968,10.089567094185332
2.1,-0.050755248281563,-0.0531858983470664,-0.0011715918394974,-1.2036137432177578,-0.1191768206049205,9.99477870985717
2.11,-0.0387070731066417,-0.0495316806936038,0.0125165561598488,-0.2617139450105076,-0.5178236626502816,9.815261767964213
2.12,-0.0330819130481843,-0.0430814112966037,0.0265488893178054,0.202712636547076,-0.2818063211014356,9.930934680871434
2.13,-0.0252818277417941,-0.030384900906598,0.0453728836414166,0.8281608835828767,-0.1896024628334904,9.73332387041546
2.14,-0.0196640595287736,-0.0130779565450773,0.0625301104423352,1.1183136567959373,-0.0365427702649876,9.549346971108513
2.15,-0.020290317987265,-0.0011803443303692,0.0758160565432854,0.7884274942442677,0.2447666275134495,9.600558478190944
2.16,-0.0154587850753522,0.0005879908028163,0.0825052623090096,0.2032561269983167,0.0066332322957593,9.541822731114411
2.17,-0.0134029530614087,0.0027582020729227,0.0821804915007897,0.2921807504229707,0.065471398881971,9.642973475246654
2.18,-0.0108273869094804,0.0079883851699947,0.0789069671568223,0.5396439501522955,0.1347533508752271,9.59269408437153
2.19,-0.0047370085868308,0.0140674892965722,0.0750065658625909,0.7480264251329491,0.0646727006050687,9.640321008676096
2.2,0.002250051370036,0.0215246766102062,0.0670214657124825,0.8634562696781738,-0.0123239323064661,9.65535262224752
2.21,0.0039381161115556,0.0303990247978263,0.0580766562756844,1.0332264004859997,0.3593023689088952,9.74625922414009
2.22,0.0102791771948786,0.0411057382837656,0.0496066462632962,1.1588681874200153,0.2304794306976582,9.58733752386381
2.23,0.0099982451997755,0.0489789262425672,0.0412540126976319,1.042432648795179,0.6475566490018954,9.68528488476174
2.24,0.0082878204280232,0.0579686767680822,0.0325924855109998,1.0872944250720442,0.7647301055749873,9.643407702595695
2.25,0.0072449091851853,0.0626787075365975,0.0246044069912978,0.8741624633020711,0.74735135073193,9.633507210233308
2.2600000000000002,0.0085060344041233,0.0704375816039972,0.0214160725858756,1.0939947314983964,0.7348388054877038,9.445508003925472
2.27,0.0057826295705296,0.0778687834645959,0.0173618903768011,0.9498027751893352,0.7763407801198113,9.458965449951805
2.2800000000000002,0.0049886121618999,0.0865378895100195,0.0150205631193467,0.9125140098532992,0.6088088791706245,9.366937399158656
2.29,0.0062784467016206,0.0908227292845978,0.0180437740322896,0.5548344204490178,0.5623601182362843,9.372513304717494
2.3000000000000003,0.0134439036701626,0.0873709092093755,0.0159076832619258,-0.0975685049460091,0.0715678410291057,9.389909363566868
2.31,0.0162322027723391,0.0809258142147277,0.0125455612701126,-0.319057366563653,0.3325826445205854,9.53971939866262
2.32,0.0143075552141319,0.0779705661160448,0.0039652323734709,-0.2166078840337299,0.7791845757668838,9.794238488592288
2.33,0.0096863568133327,0.0751628025553192,-0.0107870773959211,-0.3371707877427639,0.648080451590829,9.971290715553494
2.34,0.0113394830255606,0.0815664021511823,-0.0199114560696533,0.152953655077929,0.4165016014468645,9.881850064297028
2.35,0.0108069061151035,0.087569080205164,-0.0204646654042652,-0.2437717447466672,0.637632756827331,9.851467679920836
2.36,0.0104387741832753,0.0860430587610061,-0.0169008142861775,-0.8850879018286236,0.7275694270693619,9.860529890880697
2.37,0.0139233278994942,0.0688235394516517,-0.0194803226354769,-2.176045701503305,0.4691398286378038,9.947371229563071
2.38,0.0120652128868845,0.0434847134077778,-0.0170783504459313,-2.6494157876746387,0.7434717242635908,10.120242007251678
2.39,0.0163124831647856,0.0239234954045451,-0.021917623615568,-2.643224859484256,0.3270678775517769,9.78354741510298
2.4,0.0158898910785932,-0.0038739951439687,-0.0242632116738012,-2.9035676192469517,0.4990305940778154,10.10433114156717
2.41,0.0187702801392108,-0.0235996650579567,-0.0283300552132776,-2.503266858754427,0.1401867127684591,9.818614730903684
2.42,0.0261764816036795,-0.0412425476153531,-0.0300222646060637,-2.1908462669400066,0.0533742281157149,9.833704411157484
2.43,0.0247888747103553,-0.050523299962858,-0.0314905803266218,-1.5460297611154,0.468231960721382,9.802787904232355
2.44,0.0231309329678368,-0.0563526199949575,-0.0344820107880285,-1.2612289654771731,0.3703081332165858,9.89536190378857
2.45,0.0181375063380339,-0.0552935853676712,-0.0329460624221018,-0.4920136566385726,1.00287812450036,10.102473944988803
2.46,0.0056523353842732,-0.0395938481965577,-0.0248610797885111,0.3749158565184554,1.2251614270344835,10.00975321510006
2.47,0.0079214140244309,-0.0241996872392243,-0.0167025990399769,0.253890057598059,0.2905401505718329,9.907763174163184
2.48,0.0119018019554358,-0.0129677764840708,-0.007663412167435,-0.0438206132388288,0.1086561774479437,9.79883533201627
2.49,0.0151402647070754,0.0028601742834644,0.0112529032316752,0.0498405917686464,0.3500287793548544,9.554384874503484
2.5,0.0194936914643169,0.0132533774303403,0.0319473993417569,-0.6021973898430335,0.4502009709927861,9.433606686916155
2.5100000000000002,0.0119116465911716,0.0120922774569262,0.0508588616189309,-1.4801547765112495,1.0674138661508477,9.728071992078585
2.52,0.0065139700362361,0.0070276257334791,0.0678973187145539,-1.9460789594970131,1.0049315060732216,9.770176678895776
2.5300000000000002,0.0046651114239189,-0.0060217851721607,0.0763093445834466,-2.6200894349284303,0.5597599544035036,9.915152126753242
2.54,0.0064575142791137,-0.021082157723148,0.0741904665169068,-2.8404916661746977,0.1616781474354337,9.953296691782398
2.5500000000000003,0.015590170295933,-0.0359032959362108,0.0703190703329392,-2.8178404982712104,-0.1764152537520902,9.876608536435883
2.56,0.0186960211390873,-0.046414544448992,0.0612579461571523,-2.400357578622928,0.0931908043957869,9.912310230239132
2.57,0.0223587387482422,-0.0524113207876121,0.048035493904049,-2.1470828712938603,0.0408834997494094,9.9014088508894
2.58,0.0318487582993369,-0.0562377573373941,0.0334104884800263,-1.781310842754115,-0.0394583558660664,9.837798173802806
2.59,0.0333556135924511,-0.0553782133829608,0.0221492581453868,-1.586234524327018,0.3624263258170924,9.79965997754814
2.6,0.0304954949029545,-0.0648337900610349,0.0135611657437631,-2.027413129976232,0.6598038280955767,10.026944792852216
2.61,0.032635128408232,-0.0739528405485758,0.0109391741839,-1.713842798749839,0.5506590372289174,9.828852910042215
2.62,0.0304374186691224,-0.0862844587886004,0.0183841184166022,-1.4350543018573594,0.9648050835310592,9.961391544765403
2.63,0.026263867208416,-0.0909319781270984,0.0302745670464583,-0.6865959522511988,1.151659333644547,9.773715394385524
2.64,0.0271906721775131,-0.1012005744627114,0.0418025542434998,-0.5216827805881675,0.8431867940743908,9.935351385283854
2.65,0.0274850916211457,-0.0964521398530723,0.0518538158771344,0.4964687952871419,0.7403172216074394,9.687039409778604
2.66,0.0272106461526514,-0.0916867343303677,0.0608635273215123,0.9596436778507014,0.7948240538315923,9.73483926692968
2.67,0.0281119877797524,-0.0784211370984802,0.0633664679166623,1.3670163033106872,0.4971505791211794,9.616449954746
2.68,0.0297688414408134,-0.0675664712371409,0.0627507631120034,1.3099441613301532,0.3967441641986171,9.60693860357762
2.69,0.0318056819685203,-0.0531288834883341,0.0585745338734933,1.399013056901005,0.3623582038061369,9.472121967661364
2.7,0.0358286496058238,-0.0491309322428981,0.0507900741335698,0.6552678148953406,0.1863946859074355,9.631494618260286
2.71,0.0353520065187897,-0.0450535138690652,0.0474381920334645,0.6257950158822679,0.521042815810363,9.698930162852882
2.72,0.0369854590088718,-0.0402298620950556,0.0424853478011437,0.5413567228538909,0.4341621686227169,9.613078957359043
2.73,0.0338823998412464,-0.0344702772299257,0.0395086471375771,0.5491372999593512,0.7284662987001338,9.727700220059644
2.74,0.0323079892434776,-0.0279749416117956,0.0400622029241868,0.5007014683287944,0.774863866959279,9.68762842895613
2.75,0.0303512519261622,-0.022817068181743,0.0410385828849622,0.2044056682661215,0.8282954785826288,9.733296602968933
2.7600000000000002,0.0249273966720127,-0.0185234489495035,0.0410655465361424,-0.0023176637733506,1.015221231378762,9.757141168626466
2.77,0.0221257047055799,-0.0192807259453382,0.0426596019801446,-0.4405127667422915,0.929149498880821,9.748627468195057
2.7800000000000002,0.0212713641465065,-0.0237765389297677,0.0447547052439996,-0.7755181267877427,0.9032683645091908,9.76121336141304
2.79,0.0172958736358896,-0.0271345391926501,0.045178199970419,-0.7940911335411062,1.0089925641481254,9.807364366741254
2.8000000000000003,0.015182726149572,-0.0317545529706977,0.0439624924597093,-0.8532117671664478,0.9665513625974438,9.873055246531386
2.81,0.013256598250282,-0.0296193278535386,0.0418183345732041,-0.5643863612373486,0.8895341064530476,9.724153698147884
2.82,0.0112355679928092,-0.0269116134136579,0.041354178303177,-0.4698253161385208,0.9541406858784064,9.762117888252542
2.83,0.0067500797172571,-0.0225727815683151,0.039506773316557,-0.5789365172384018,0.9604162175856,9.707415875955125
2.84,0.0033862854987869,-0.0234362699447932,0.0451246973511525,-0.771146525286498,0.9908058945851624,9.808870206408423
2.85,0.0012612039104579,-0.0232675273839476,0.0511175457772561,-0.7690755815910943,0.8247517137101843,9.771510734107151
2.86,-0.0008365622488477,-0.0257967852710955,0.0596463296946832,-0.8542454433188292,0.8383948340616828,9.791665030792094
2.87,0.0014514546761651,-0.0293056301317707,0.0658320326742478,-0.8050985030957151,0.5635298198095424,9.76770371486058
2.88,0.0018699368727309,-0.0302135996136734,0.0721131850418397,-0.6094278800015804,0.6345490980723371,9.74320782889915
2.89,0.0023756616207269,-0.0308500268662788,0.0752513174351998,-0.4737431342099711,0.6977872832173939,9.793032566607277
2.9,-0.0013098134569414,-0.0321778884332322,0.0758819271263429,-0.4920402749122249,0.8344633874822239,9.819542020447503
2.91,-0.003227173983631,-0.0265782755630319,0.0819985557731934,-0.0332221637665826,0.8141327816488826,9.585904869797377
2.92,-0.0018584549973604,-0.0254186300392912,0.087266496234829,-0.1490119216107173,0.5869514608108584,9.751558645163604
2.93,0.0014887905286521,-0.0179224877103548,0.0859143723186799,0.0935561771770367,0.3232703298316715,9.630653859511986
2.94,0.0040660421325795,-0.0145314785665223,0.0875731844839402,-0.028720195283581,0.5873168292217454,9.783431267513622
2.95,0.0054962955870384,-0.0171472246071936,0.0867854494985886,-0.3339434557408568,0.6661286915991907,10.016748784882
2.96,0.0057053036415435,-0.012300255364484,0.0824378867086716,-0.122117075854953,0.7383026895130546,9.823020336672242
2.97,0.0054700118794298,-0.0138424665677758,0.075151166730816,-0.4778824141055994,0.6458783413438239,9.95434983834494
2.98,0.0067460307143755,-0.0142956661669739,0.0698323537048646,-0.3432283789914677,0.5913215927950707,9.82314535393566
2.99,0.0079772191067353,-0.0169174234917788,0.0694171477493592,-0.3614787167953185,0.7136247488876213,9.855222856087783
3.0,0.006415853110004,-0.0162248756794205,0.0673675898846932,-0.243471121798794,0.7567383279243428,9.824468325275843
3.0100000000000002,0.0101492334713574,-0.012939427950207,0.067536725514824,-0.0875112555505834,0.4940402136174038,9.62886791343763
3.02,0.0104350618391428,-0.0118419454939342,0.06748637449115,-0.2587623780813211,0.5524801175055138,9.732913794887311
3.0300000000000002,0.0122405568831018,-0.0155417407024986,0.0720379788812943,-0.5598064214655903,0.563671134385313,9.821735339338533
3.04,0.0154465313293103,-0.0200515118198144,0.0725705165800401,-0.7129318808898006,0.4178708903431801,9.828881474150975
3.0500000000000003,0.0140754205965548,-0.021827724559267,0.0741993029054948,-0.5599650792089466,0.5871815344536022,9.868146236209803
3.06,0.0136421473522635,-0.0258274804955019,0.0720355797943421,-1.45499067134106,0.4635201044907466,10.377888526621764
3.0700000000000003,0.0144348628381115,-0.026449283359485,0.0705103490886041,-0.6190026970565279,0.5364239896330419,9.96891769978873
3.08,0.0115767704956867,-0.0263492911135625,0.0721992019948312,-0.5226367538230958,0.9291944375961037,10.06654450954304
3.09,0.0064188720972486,-0.0262670503907188,0.0739221115049668,-0.583574844598422,1.035503625721109,10.0576963069486
3.1,0.0083190067029152,-0.0266170792129211,0.0775101248559304,-0.6355290523227151,0.6647303353475904,9.9004676279257
3.11,0.00772456728295,-0.0246983253186063,0.0810828421649285,-0.5247574400314144,0.8255411270243501,9.802913080803853
3.12,0.0067634728058082,-0.0224742755440579,0.087213686519558,-0.5222656006780599,1.011579296024412,9.730971125232257
3.13,0.0036391948017965,-0.0281028398477372,0.0867484797176667,-0.959056917750182,0.9472113207588272,9.953391024598757
3.14,-0.0003172642337014,-0.0311373563396951,0.0882207591471024,-0.7133379698308596,0.9971960309920506,9.853940800065718
3.15,-0.0007087166222856,-0.0319527489189793,0.088123946302826,-0.5818341808550219,0.7407636945499275,9.80042541831471
3.16,-0.0022087805634165,-0.0367505524122946,0.0897776920732804,-0.6771655079418641,0.8488197354779633,9.92948127343304
3.17,-0.0008597882966922,-0.0368859482338109,0.0863508943852731,-0.4463294202713356,0.6254793431639875,9.825590358329343
3.18,-0.0049648022847055,-0.0343236187778661,0.0878460992512055,-0.1042970675242034,0.8966832897346549,9.852266387985637
3.19,-0.0028411951779621,-0.0361287286338421,0.0832273129758187,-0.2737934219660319,0.4873017288971849,9.91092291515598
3.2,-0.0015117386514772,-0.0314940057640002,0.0835701961454697,0.2121270712646754,0.690764459690703,9.80526790624436
3.21,-0.0041853660932232,-0.0313361629955385,0.084457381480629,0.0266366599769077,0.9694404944617422,9.914389568306191
3.22,-0.0054189277547575,-0.0280902556392636,0.0815973643597909,0.2147847633460317,0.8171348312473625,9.741018150959151
3.23,-0.0070241385736973,-0.0238812387924576,0.0821476865944215,0.3379770738913668,0.840550749102998,9.679615318299748
3.24,-0.0077083562468707,-0.020149615453463,0.0844987024006196,0.394151867240094,0.7664272248235083,9.749962952244209
3.25,-0.0056434084044896,-0.0181711213349344,0.0861177284654923,0.2661331261420638,0.5526825841125812,9.672203490815228
3.2600000000000002,-0.0012707453868213,-0.011513802695436,0.0853245694574662,0.4079518044845918,0.3258800514594229,9.50880027056953
3.27,0.0005025676781462,-0.0077980118381894,0.088825276904995,0.2836159410950079,0.560468622166975,9.682093921053418
3.2800000000000002,0.0069658665181608,-0.0058362849885766,0.0906640801963158,0.1084172104189339,0.2733225185988511,9.672213397496805
3.29,0.0070680551327485,-0.0006382591070937,0.0938943241175958,0.4670404062887325,0.5646074392121789,9.67992084090944
3.3000000000000003,0.0122990455575357,0.0028012116967545,0.0938124124345132,0.0832996062019493,0.1250951620588329,9.67490520551264
3.31,0.0157715059784661,0.0091234883765557,0.0966532517608949,0.1891008948547501,0.2865559422782751,9.63282416721945
3.3200000000000003,0.0199204025859213,0.0098918041885055,0.0997013736900636,-0.1680727428161007,0.186070448630191,9.739855568707336
3.33,0.0270052306138002,0.0119381687218461,0.1010587949690171,-0.1456852897878812,-0.0687492380457897,9.610330326804704
3.34,0.0432019515571851,0.0145042615080822,0.1035362396773644,-0.2890352443807618,0.0323016226326416,9.58631207623896
3.35,0.0438409973349437,0.0137394946331833,0.1031318594154664,-0.4570345947531774,0.4004857462688341,9.744022033293664
3.36,0.0449288479969465,0.0099651758818317,0.1031210113701173,-0.6200311375263475,0.4633349060295617,9.809282778043498
3.37,0.045516739732191,0.0085809219655544,0.1036170486745187,-0.5585827104875766,0.5408506503735057,9.744796776612494
3.38,0.0512245548627631,0.0058330838251803,0.1011875261005708,-0.6102706417377054,0.2550939416147176,9.758580635693413
3.39,0.0498066719297006,0.0016940450538384,0.1042194653686829,-0.6484273800197191,0.8585921127562047,9.891699627666396
3.4,0.0522114207955484,0.0018928790258495,0.1043770376977273,-0.4221835029042484,0.6729225287212537,9.747246943821713
3.41,0.0483391348192305,-0.0011228942595178,0.1030198101338693,-0.5470884547854047,1.1610427874330107,9.941689856325937
3.42,0.0455250463422829,-0.0037572092129687,0.0986405376729318,-0.441247238588757,1.1890203750734245,9.954487305128024
3.43,0.0410020923069146,0.0007758065493922,0.0945459295448609,-0.0113626495812635,1.3972831647335222,9.76276667362426
3.44,0.0287136055986227,0.0029280469065559,0.0909661192831345,-0.0036910682889487,1.807200342349869,9.932978702261773
3.45,0.0218348677063846,0.0073401251126413,0.0855250571307488,0.1522240738700657,1.4472971923958151,9.779912661266987
3.46,0.0168255963479162,0.013715558735739,0.0855039421853371,0.4859000968658017,1.3931296485380986,9.69774906532129
3.47,0.0111123259154176,0.0184238429884028,0.0835198823746987,0.3749634423467956,1.329652165718579,9.718013448882989
3.48,0.0030920427620657,0.0249034128370944,0.0836028743919679,0.518495754088285,1.3903064294298302,9.67467175386764
3.49,-0.0013121126283608,0.0299699133028431,0.0863619361457177,0.4849327271649816,1.1615940363298642,9.647931077579498
3.5,-0.0014939578159455,0.0353338838152688,0.0856998477515527,0.4273522317735657,0.8242305148455046,9.536706444372326
3.5100000000000002,-0.0041573554392008,0.0372916732617452,0.0907566536602326,0.309737428708398,1.0271610101627962,9.674853430098102
3.52,-0.0079931715067726,0.0393591880228456,0.0927841354545899,0.1573736900854823,0.949738864569967,9.706015302459855
3.5300000000000002,-0.0116984450165876,0.0422149484804776,0.0937873561319657,0.1055445784734697,0.9000848430579491,9.693983692365649
3.54,-0.0097420365240092,0.0419961897244955,0.093781842702324,-0.1364475276140491,0.5641333270573375,9.632580942810376
3.5500000000000003,-0.0139342626219394,0.0414686849443637,0.0964721504983254,-0.2263698094547678,0.939453641363738,9.691104601809236
3.56,-0.0167930698843592,0.0410911862417369,0.0969656397041627,-0.3035568005345048,0.7060601206704246,9.768267119665508
3.5700000000000003,-0.0134483762137303,0.0374121356713109,0.0931715060409852,-0.6494465702958423,0.3602195812914778,9.736065241618569
3.58,-0.0081568628119654,0.0348670239303181,0.090714945310051,-0.624757271840111,0.3235050194209074,9.689019083125173
3.59,-0.0066796999247417,0.0281730760645145,0.0843357433018037,-1.0339977574654482,0.4625661312357735,9.890317278586211
3.6,-0.0066014249129502,0.021275192782472,0.0831784893211671,-1.0183278393321464,0.8170962892021937,9.86293720523144
3.61,-0.0041346376103342,0.0176961285366989,0.0783743773040124,-0.8969843619433204,0.6245015644594383,9.81493180574978
3.62,-0.0030849875623213,0.0147893804343969,0.0790247831878014,-0.8565140034379091,0.9289976720690007,9.822586422296071
3.63,-0.0041624894552173,0.0081114734088442,0.0759454135236092,-1.0220191110950876,1.02764354257918,10.0076536179056
3.64,-0.0065756391335128,0.0085456719413639,0.0737758566078492,-0.6207367360991219,1.210164731087659,9.80058376342114
3.65,-0.0144118812147729,0.0088494718540968,0.0723282162484475,-0.5931705710698516,1.5643936075479798,9.938041617781776
3.66,-0.0170722973818408,0.0116950482780304,0.0693026248750039,-0.5802849745711391,1.3087476564052751,9.74790151159998
3.67,-0.0252112623495813,0.0106737001610036,0.0656934742268868,-0.5729863420726582,1.267125762488529,9.831852509254624
3.68,-0.0323924986251267,0.011985282244558,0.067559978776867,0.1889959919333507,4.64963498454321,10.497129951239383
3.69,-0.0375642325108509,0.0095199775721405,0.0665789757308312,-2.14268513551434,3.874482988424019,11.637886321898211
3.7,-0.0452029923352364,0.0094873042012167,0.0639733139809914,-1.0525758617942962,4.635481298407925,11.304646076443412
3.71,-0.0469480154394817,0.0053777846934266,0.0682201970753022,-0.9885575407456196,1.8422949477098332,10.456486814488429
3.72,-0.0521148702232998,0.0068096952736735,0.0715068493422814,-0.2850486552445967,1.1443797499482735,9.864502491646618
3.73,-0.0499507759052726,0.0045002133493493,0.0736034799751588,-0.4418597732364592,0.7047160402421179,9.768769937716408
3.74,-0.0469355918662468,-0.0001359728573108,0.0767673243221589,-0.5262559421019611,0.6378000735110396,9.664824569610843
3.75,-0.0501613571429963,-0.0088778457696864,0.0739044908818551,-0.5807392116698612,0.6511759317371619,9.894580985179385
3.7600000000000002,-0.0392146365377661,-0.0087899063897944,0.076787321680481,0.1873028233530713,-0.3182388162037003,9.575637958016806
3.77,-0.0216925422064533,0.0019049237533071,0.0780325893697091,0.8465655617039686,-0.369793578502823,9.334122516239178
3.7800000000000002,-0.0236834235655831,0.0133401012354912,0.0774362076458283,0.6850481232815379,0.614385904874524,9.437388391532028
3.79,-0.0282718223492058,0.0195448999846128,0.0770076800522157,0.4397710024524817,0.75539833033373,9.662476445162923
3.8000000000000003,-0.0275761105397339,0.0192405139483937,0.0794298787054368,-0.0554206095101673,0.3555824171016127,9.81217047012803
3.81,-0.0231658990655026,0.0148490211996379,0.0784407321748086,-0.4047649641761973,0.152439830609019,9.871586633527745
3.8200000000000003,-0.0168541273168332,0.0129853636878084,0.0761312384542771,-0.3095427706642157,-0.0726088163502135,9.802308547572965
3.83,-0.0150597868199663,0.0058123075440385,0.073584086113865,-0.5333755402611294,0.2748598983735617,9.987333321639085
3.84,-0.0090650382577914,0.0043187502628552,0.072223826163704,-0.2133292306155713,0.2001007663061087,9.7617264222485
3.85,-0.0087377744922516,0.0005309248502247,0.0737579379615136,-0.3202767122569747,0.5529475931121454,9.87960421695298
3.86,-0.0092052191498732,-0.0009153078913636,0.0673202786979028,-0.2833992335205551,0.5011553992209901,9.775830241351631
3.87,-0.0094284434753609,0.0030486576717291,0.0658785988029786,-0.080775540512001,0.4906225934261381,9.557650823541472
3.88,-0.004861312708971,-0.0003099329656252,0.064797869735653,-0.3800842375306271,0.3202023332938193,9.6925173946896
3.89,6.605925108811118e-06,0.001810531953532,0.0666429985699006,-0.1538490794325873,0.356538230654165,9.495042129836936
3.9,0.001404316844751,-0.0022421814597799,0.0611374106642552,-0.6078096227843401,0.4872205344570744,9.71741753595545
3.91,-0.0020255050112733,-0.0064360025877771,0.0600618970033475,-0.6137835442026712,0.9713976638038394,9.74192220911612
3.92,-0.0034963993976049,-0.0088238821819922,0.0524976913270303,-0.6759816427052108,0.7848986721929075,9.67151564984854
3.93,-0.0070935346373487,-0.0151225180347338,0.0416082803544351,-0.9874263689891156,0.7990757169750352,9.896806651787337
3.94,-0.0052896229629886,-0.0194785650430921,0.0352854755160161,-0.8683080694837841,0.6375093192106123,9.736573773122752
3.95,-0.0057855695563401,-0.0192680725561059,0.0303822894033738,-0.6586916862174873,0.6477185820472383,9.77697529834572
3.96,-0.0053520512182843,-0.0267335065977413,0.0319719788071462,-1.0055554990369986,0.8551901691773366,9.987916605199104
3.97,-0.0058756876350563,-0.0255678553396389,0.0340242710348912,-0.6577992122014431,0.8365451985069539,9.799703630733724
3.98,-0.0067103097194539,-0.0306080058275117,0.0387186248239823,-0.9857937148743062,0.9628827170401753,9.978736200504397
3.99,-0.0086732456267043,-0.0334573533378364,0.0459413964685746,-0.8821188752206556,1.0276603233420762,9.855201985814904
4.0,-0.0134298539569104,-0.0391414362490787,0.0508351501461812,-1.0762142727692017,1.0865569992886168,9.930107779598025
4.01,-0.0183452114825465,-0.0461765110094794,0.0562258091208287,-1.0150353275770607,1.090471359196692,9.94698960102449
4.0200000000000005,-0.0148396391825733,-0.0449816520967956,0.0606820982333966,-0.5590667850517562,0.4777044434864834,9.635736881454957
4.03,-0.011405226393543,-0.04766740965041,0.0602293786045857,-0.6339974066661974,0.2695265091597928,9.799088651540751
4.04,-0.0106662837392998,-0.045432941315631,0.0623157162603684,-0.3178658448666904,0.3993022426760848,9.862497211219155
4.05,-0.0057418894793632,-0.0433533706208618,0.0591956477996655,-0.1221865153729961,-0.7521941560322578,9.435155380614958
4.0600000000000005,0.0007987736895334,-0.0443540183928594,0.0576548975345441,-0.834814146991236,-2.826471905353192,9.214553236731993
4.07,0.0046973736559698,-0.042454933284508,0.0548558485147305,-0.1044241279872646,0.1798867594876071,9.802780442807656
4.08,0.0106130566582739,-0.0397374226221027,0.0435670081910439,-0.0691708557802684,-0.0172160429884145,9.776404951932742
4.09,0.0151666863436931,-0.0413673926822838,0.0299034051981517,-0.2586035251808986,0.0159032210662124,9.861901412335468
4.1,0.0174834824995968,-0.0409919517781769,0.0219196051743575,-0.0464487200275767,0.3489672843927769,9.860234161646082
4.11,0.0197834791707897,-0.0398060032336999,0.0134089438629099,0.0012736243188573,0.3538111611707059,9.82468965770038
4.12,0.0241127215928631,-0.0407377501792501,0.0093707212631353,-0.0335845526162156,0.419114371672099,9.857398091126294
4.13,0.0236603490084041,-0.0360474395305275,0.0066902705852636,0.1872082729066217,0.6925929959686286,9.74639426619355
4.14,0.0218090417652167,-0.0346379287046454,0.0063066886191018,0.03830807560658,0.8973727129962082,9.81867032995676
4.15,0.0205492891659403,-0.0349700379523308,0.0062042338226684,-0.1341120640593989,0.8744446123505227,9.805442575364523
4.16,0.0136434567937658,-0.0335494950533499,0.0097246112686344,0.004306187428656,1.318900377349976,9.864597135288252
4.17,0.0110262422121219,-0.0353890242707187,0.015268514716322,-0.1969727681037158,1.2455104956683414,9.865318584221695
4.18,0.0071891847095496,-0.0346444159772555,0.0148887548980065,-0.2021271008347155,1.1296780966479203,9.787708136591805
4.19,0.0054585185831921,-0.0321514115985104,0.0141011502978154,-0.218252604915409,0.9774914846118088,9.71763845102898
4.2,0.000428023321634,-0.0305166949212496,0.0155428879347392,-0.3023198629128518,1.131475593910085,9.738840999950703
4.21,0.0011802922097282,-0.0365070137416937,0.0117801836144873,-0.8165135117648794,0.6619256609642387,9.819313950755772
4.22,-0.0038032741931965,-0.0437265874104151,0.013289846332068,-0.8371650738011782,0.9985662505817794,9.892514157774196
4.23,0.000923036098045,-0.0461949000664317,0.0148666099098273,-0.6227895145474894,0.4667570764797795,9.65408890378201
4.24,-0.0029720869664704,-0.0520142906858667,0.0133213082712837,-0.7826234118279328,0.7638730913905687,9.86169332142982
4.25,-0.0023524583923082,-0.0546431817017769,0.0153282711666771,-0.5361784623136435,0.6070837605760065,9.825570344098711
4.26,-0.0013993431282261,-0.0538985644224505,0.0159043677535601,-0.3528879092356609,0.5646447233241493,9.78407936684952
4.2700000000000005,-0.0060222769403425,-0.0546742417346078,0.0194051869597979,-0.3209048353259251,0.8934556321714643,9.93483773815506
4.28,-0.0012141349512998,-0.0523781947290801,0.0196336441126414,-0.2766615791453238,0.29717718575337,9.747654396965569
4.29,0.0003677462628798,-0.0572344081839926,0.0200603556272336,-0.5427871262422251,0.4507944432989808,9.995423778700324
4.3,0.0056969472323743,-0.0556004556405361,0.0160185432445951,-0.2212356973207841,0.1737190310896323,9.805885169421686
4.3100000000000005,0.00481822404949,-0.0584667410314371,0.0125308547553368,-0.3074506714975775,0.534194383478616,10.036265809149151
4.32,0.0108205051253385,-0.0520547554421102,0.0115467271220632,0.2950824895017135,0.3160744594155912,9.749456228134774
4.33,0.0082682295245291,-0.048524394005905,0.006498301719571,0.1474521870920377,0.6113691743991703,9.94770044256844
4.34,0.0093817999543593,-0.04225769280969,0.0077153289143689,0.4481321887519104,0.6247222234282791,9.85606831080685
4.3500000000000005,0.0094131367955373,-0.0400385298451527,0.0019607952831075,0.1378771416715029,0.505244367837939,9.93646212669
4.36,0.0093060191848972,-0.0380525368930886,0.0034980916802533,0.2693468235483154,0.7015681419267231,9.944004146946613
4.37,0.0119908238442738,-0.0359649962947425,0.0050844408956118,0.2059954005801704,0.6052438689877934,9.841758067064188
4.38,0.0104363815950216,-0.0353837918030975,0.005661173808644,0.1239394405643935,0.7947501195820862,9.86312433316529
4.39,0.0093944145391036,-0.0351706967871068,0.01014162957787,0.1856332324948024,0.9344249950292468,9.811367770148063
4.4,0.007136235740241,-0.0383215384126761,0.0092024894815632,-0.0269439994944732,0.9660390449435198,9.83126703024705
4.41,0.0042820100756226,-0.0353484178764394,0.0149645971518703,0.5374899737203118,1.2197785591839665,9.6351246774766
4.42,-0.0013100538091731,-0.0350082205789747,0.0174343575176545,0.3544122946807549,1.2484661642470771,9.716177743168313
4.43,0.0029083745690539,-0.0280151968821821,0.0141085645568319,0.7032189983796695,0.6365651022974939,9.450981406429694
4.44,0.0057014730565499,-0.0222819975034138,0.0119300045457431,0.6971788181553003,0.7142550851772771,9.537445937058283
4.45,0.0014827050740484,-0.0146033481341418,0.0087770250078984,0.753927011830393,0.9677302615253964,9.665572210331986
4.46,0.0038705352884346,-0.0045726356175251,0.0027848990552821,0.8399372258342706,0.5216546328726455,9.530659804298104
4.47,0.0052600518428276,0.0020818445837913,-0.0033614911685935,0.5757825563895078,0.4701010704391923,9.667283150640174
4.48,0.0077831675821801,0.0080847407595684,-0.0080330550286224,0.5663444484985961,0.2998456404696458,9.684682660830957
4.49,0.0082250373256302,0.0161484540894468,-0.0113862204912356,0.6072022493248049,0.3289032513725535,9.659370390380142
4.5,0.0128224103848744,0.0215062384009006,-0.0116476222488335,0.4755334602400451,0.086530803976385,9.673234341417103
4.51,0.0179069677636073,0.0306615458198591,-0.0128978604066423,0.6298206514669381,-0.0307143392116454,9.52596717576811
4.5200000000000005,0.0248715629766049,0.0372711680636877,-0.0089961971703222,0.5290663965841547,-0.0154020408914929,9.537149496796811
4.53,0.0283613955518738,0.0452750380363514,-0.0065833750727823,0.6062425313562974,0.0870720405401489,9.58383492148219
4.54,0.0324505571019735,0.0516691595073531,0.0011307709769108,0.5813187492473282,0.2604135049277372,9.586365420448448
4.55,0.0370964451504868,0.0585806507723307,0.0086800515104779,0.5450753720119103,0.3047107996390346,9.596877398449886
4.5600000000000005,0.0407980244668473,0.0612034922076385,0.0129524449270912,0.214250570247838,0.439668094836785,9.682925064701442
4.57,0.0370404915624576,0.0654973933957412,0.0139839768794127,0.1552379912372591,0.8724883494000254,9.781787823919684
4.58,0.035895472024295,0.0638715097583014,0.0180043157574483,-0.2287505488331736,0.9896038983536232,9.827315693509457
4.59,0.032889108381852,0.0604955692063615,0.0155844528612443,-0.5026519481200654,1.0566724096733902,9.878979615013064
4.6000000000000005,0.029332341898343,0.0531012310547192,0.0128482876729914,-0.8190528843287491,1.1954970565062686,9.912616896755976
4.61,0.0277108339453118,0.0471021906185917,0.0086312427569874,-0.776414596859651,1.2305033763161624,9.81172799397694
4.62,0.0214457025546675,0.0357333032582946,0.0039909887977638,-1.058481329864706,1.5729978800832898,10.089658266942992
4.63,0.0101809184538396,0.0353217405469059,-0.0103364597621611,-0.6294159372846378,1.726035669906281,9.924227045621915
4.64,0.0077080793347341,0.0359486370123035,-0.0253760117653063,-0.7836234237012485,1.2234776864471242,9.708719604964598
4.65,-0.0002516663799973,0.0262776635553694,-0.0395258377853087,-1.3894680091789924,1.3970385515774504,9.95789976098345
4.66,-0.0100265240193908,0.0188752511005483,-0.0424296196165732,-1.141980637285004,1.6972945662019,9.900297285348673
4.67,-0.0164181360024057,0.0118941369780375,-0.0393566649022749,-1.0319931507742632,1.5885875876851003,9.839050160280406
4.68,-0.0247069686126602,0.0095236121831181,-0.029805262720888,-0.6824343644645262,1.5960747033929124,9.759996457718172
4.69,-0.0312347570417385,0.0072263573455878,-0.0219081334385327,-0.6772130205912082,1.368539910946187,9.78538121795046
4.7,-0.0354778255095135,0.005849137927846,-0.0107023698824695,-0.5584788953901011,1.160798031398273,9.75734535129596
4.71,-0.0369601242577278,0.0038000571578697,-0.0032266552175632,-0.5650988549414191,0.9138554889047592,9.75172784293645
4.72,-0.0377610726954127,0.0009349049272629,0.0058276907925256,-0.4515613176295941,0.8994696800862406,9.78163504987099
4.73,-0.0411440248190772,-5.35041252923804e-05,0.0067206773360022,-0.4171233347675522,0.8128256387525727,9.778335980317598
4.74,-0.0376936588366385,0.0019598400350195,0.007035932355816,-0.1855319349183707,0.4904920443005775,9.594088370899826
4.75,-0.0413437085571806,0.000220662042466,-0.0011873672797582,-0.413973133743687,0.6639189915545948,9.812399960979093
4.76,-0.037186266716492,0.0047182418961616,-0.0017756485927156,0.0800515690131717,0.4543622788530049,9.58893995957554
4.7700000000000005,-0.039070248328678,0.0081761952412295,-0.0089120782527378,-0.0720836095760834,0.6414757539470122,9.71942490437973
4.78,-0.0411954872137961,0.0102388055402092,-0.0151040881487778,-0.1184973080474841,0.729573413981719,9.750122935874924
4.79,-0.0410233637758261,0.0129994286473488,-0.0177985030773333,-0.1421449999660036,0.7616928404743402,9.683213966518853
4.8,-0.0437751757363314,0.0142607226838458,-0.0161439377430132,-0.2492536332313458,0.9834674427890436,9.760364853915108
4.8100000000000005,-0.0428068037779251,0.0137437741693689,-0.0152895163360289,-0.4645918740625985,0.8211912744187304,9.774928169198708
4.82,-0.0488954637984954,0.0084498504148832,-0.0100497698026946,-0.6352976309472071,1.278151385958548,10.045592767553693
4.83,-0.051254851033478,0.0073103318684431,-0.0043290864291838,-0.4714822065360888,1.060002914580668,9.916094355399194
4.84,-0.0533420883147403,0.0065962878310695,-0.001086967213755,-0.4801314583404252,0.9215051550174208,9.950834518495254
4.8500000000000005,-0.0517365099751281,0.0063804627415607,0.0020691825170298,-0.4791709136075849,0.648990329150485,9.908318629285905
4.86,-0.0503811867490001,0.0094574164261867,0.0019028562651011,-0.4129738748375994,0.4815165280829888,9.868004099965354
4.87,-0.0463084342651324,0.0064107721374768,-0.0012813102535209,-0.8468487050129747,0.1906076148563615,9.969448395681091
4.88,-0.043146411522998,0.0049835095904721,-0.0024381067219427,-0.8286122509846013,0.2191470863660073,9.902453052538275
4.89,-0.0357975248892332,-0.0044710092558301,-0.0111509628209522,-1.2236995037233869,-0.0444956316415837,9.963164588215626
4.9,-0.0294142290905278,-0.0078662677628484,-0.0207659296307018,-1.0633083258213771,-0.3985416197612867,9.910363950582106
4.91,-0.0290332313020714,-0.0076066629124681,-0.0247106507036141,-0.5862704580696588,0.2188090301741002,9.9497672150502
4.92,-0.0249502609994243,-0.002686135332735,-0.0267633005592278,-0.3097627540059198,0.0432525005551305,9.797521046135488
4.93,-0.0215968237863446,0.0079166391661459,-0.0218175921204737,0.0022476734129343,0.2211946975474138,9.645629944110729
4.94,-0.0171280436183552,0.0106651972150249,-0.0177632711443356,-0.5207772746185692,0.2097107898766148,9.787596142974309
4.95,-0.0132440701542653,0.0146129851951132,-0.0056765234644762,-0.4541403175996437,0.5022192814543864,9.721951708390224
4.96,-0.014990260431301,0.0112904183586175,-0.0018052397377095,-1.078541881264221,0.620777249767984,9.925799188060926
4.97,-0.0131447219806036,0.0067902111080718,0.0053225337446429,-1.1125640615574257,0.5579873743899334,9.843961268598788
4.98,-0.0138055359835139,0.0035026350782028,0.0158804169309088,-0.9671257828697792,0.845995653927276,9.830616406197723
4.99,-0.0103805356524143,0.0006588534791181,0.0164659720298596,-0.9990778314407204,0.4294489975023911,9.786655507554702
5.0,-0.0103766063968579,-0.0010980973740982,0.0184585422661849,-0.8715130659428806,0.6823072305484734,9.827409937785088
5.01,-0.0069085191842167,0.000730623657937,0.0142632395413466,-0.7257024776297994,0.3569532561686597,9.691544089635167
5.0200000000000005,-0.0066698399873458,-0.0006157554600504,0.0072670973290451,-0.8957825034944684,0.4458001140955419,9.819727339476392
5.03,-0.0065867849127181,0.003698569113249,0.0058287240949221,-0.5356423437890692,0.5811357216155029,9.679274432477028
5.04,-0.0026554478907646,0.0032213605449444,-0.0006670354946753,-0.8434881649011943,0.2354719619273438,9.71859715320186
5.05,0.0004204849033032,0.0014880071966421,-0.0009959723416021,-0.8524623825985883,0.3886879146771739,9.724322163369298
5.0600000000000005,-0.001476371411358,-0.0061708261195919,-0.0034535458858362,-1.1120415899681124,0.5593905364026065,9.936385482093574
5.07,0.0004004697793528,-0.0092776620254119,-0.0047797962638786,-0.7446382995088562,0.4401946842488575,9.770336875337192
5.08,0.0036667526957355,-0.0104012214011535,-0.0078572408843091,-0.5995135715295452,0.2415143093936677,9.630427292948497
5.09,0.0086284684410618,-0.0238132647256215,-0.0214347906026295,-1.1941769768688972,0.2152689456567117,9.830827098942429
5.1000000000000005,0.0081971488743224,-0.0428152117234669,-0.0439727764192274,-1.1723026712625002,0.3697958741587208,10.063615361454652
5.11,0.0129045785504751,-0.0547925961373439,-0.0740191127720526,-0.5551963413274339,-0.0236566567795203,9.864322471045249
5.12,0.0136195511917727,-0.0625236891965251,-0.0981584202113798,0.38145578789007,0.2165521619472777,10.10648994939382
5.13,0.0140075194974796,-0.0515721915062684,-0.1093951623502424,1.8474121262592045,0.5098099753699988,9.771608553580718
5.14,0.0099791893924646,-0.0355980605383954,-0.1163333516183546,2.347069312534693,0.719455447463774,9.826120201875868
5.15,0.0087770897233439,-0.0202638375371769,-0.1080293815198591,2.065591836536217,0.6374925065829212,9.9700703713177
5.16,0.0043271564168273,-0.0023626928403074,-0.0964661325874975,4.52944662271078,1.783000976195664,8.832389430756505
5.17,0.0052598630189735,0.002695359382917,-0.0822266872587851,1.8096666662061087,0.6065780928416108,9.685392700805153
5.18,0.0063622389831989,0.0045630105222789,-0.059881952739065,1.6759324385534058,0.957049833645196,9.61578530309814
5.19,0.0082489840085358,0.0008620907244792,-0.0387044448021105,1.0941887519663225,0.7699481755592799,9.724761464510769
5.2,0.0056741369013756,-0.0061469480576982,-0.0176734078291109,0.7771171390086848,1.2422290273704255,9.893552516838126
5.21,0.0043070203086236,-0.0116697946701308,0.0034672710730456,0.8416577795714684,1.1097459916773336,9.775576822651148
5.22,0.0033153842580623,-0.0109321777152346,0.0184027318295785,1.0641766255232632,0.976750417985743,9.720585801492716
5.23,0.0053915353611831,-0.0094484142258081,0.0259248268243619,0.8771363159414094,0.7133071198595531,9.643981362589138
5.24,0.0074713625472823,-0.0118828617024664,0.0343670945998975,0.6776464696891649,0.7731030008816616,9.769539368094168
5.25,0.0062239223301137,-0.0135555324638698,0.0350543622311898,0.3881784178268492,0.7653609728893682,9.741317174189096
5.26,0.0083007203435075,-0.012989413212692,0.03400428485244,0.3786912407669699,0.6393994971564553,9.648711773225296
5.2700000000000005,0.0107912522034423,-0.0123653962644606,0.0329134881880828,0.198719987517883,0.5801221018889994,9.613897768243149
5.28,0.0060673746256564,-0.0122156362972115,0.0303915374365397,-0.0021707392922621,0.8181092906371625,9.745915216537067
5.29,0.00767136876156,-0.0132998312161114,0.0314912319567748,-0.1198680860914621,0.5752160800479399,9.690021959406362
5.3,0.0094476962746303,-0.0137013019692561,0.028773273193533,-0.3304044397640389,0.4164096450954355,9.692569784942476
5.3100000000000005,0.0070594155591009,-0.0144412431609854,0.0317117412027665,-0.3764895774268487,0.711903951371535,9.782551445575384
5.32,0.0112617658790132,-0.0208630885918589,0.0306472748902388,-0.7383548169992329,0.413910987579643,9.73050494987051
5.33,0.0155114858234988,-0.0243884350082917,0.0245603219059058,-0.853223537184259,0.2133550827713307,9.675143749993795
5.34,0.0157669160430265,-0.0202153734513586,0.0185354955878802,-0.2185206131794731,0.5803973238429249,9.757095878408016
5.3500000000000005,0.0198491999073672,-0.0022888778065376,-0.0083110296714357,0.0345039833834599,0.0818683620871911,9.425995147748509
5.36,0.0224272628698978,0.0103361914071636,-0.0400003540876558,-0.5523920922982759,-0.0714440826013712,9.6155501567053
5.37,0.0264499842591543,0.0193904642729051,-0.0668801452580145,-1.062495557246978,0.0287216051894081,9.594171775310294
5.38,0.0251729537221774,0.0232855219747922,-0.0871189768973044,-1.6283742006541468,0.3651065757553853,9.785726243495493
5.39,0.0260307630317736,0.0128503146414614,-0.0944728713098219,-2.544714922359097,0.4664572049722406,9.95761386462307
5.4,0.0201820659998175,0.0025385847478533,-0.0908836956682852,-2.427911889310302,0.8897500180708819,10.02837970901849
5.41,0.020318925728748,-0.0065918136318636,-0.0751982267561606,-2.149874359171294,0.8716240308574543,9.80829424333522
5.42,0.0136409927110883,-0.0150224259307735,-0.0492418083909205,-1.71107080287214,1.3491731978089436,9.943681748084844
5.43,0.0150445833561337,-0.01220744384508,-0.0231615911784819,-1.0401211174485347,0.9544743564803456,9.565113211005231
5.44,0.0125049028363457,-0.0184568737231696,-0.0018466102506271,-1.4922922399322895,1.1566289476798672,9.733953342890487
5.45,0.0138014975343316,-0.0310762446024946,0.0037507988431253,-1.6572102999212108,0.7783339514214425,9.831194559084173
5.46,0.0105085715815742,-0.0488636763254704,-0.0066954159724763,-1.8229134826962825,0.7734092430669874,10.024020065995463
5.47,0.0073596087333781,-0.0568964983498055,-0.0218880485358885,-0.804316383937494,0.7038114502116768,9.947931782514107
5.48,0.0070410296935014,-0.0559701685095647,-0.041512006110256,0.10055509815011,0.5276424839823969,9.813606280334092
5.49,0.0089141698008238,-0.051012912288258,-0.0591016497078589,0.8198992527369429,0.533467435977881,9.798861748805743
5.5,0.0043820506962582,-0.033698337526166,-0.0746671419206312,1.6858890565928422,0.6304421085380879,9.622121274447371
5.51,0.0074416602137197,-0.0235918887736465,-0.0786498423281363,1.4331825693509326,0.4421585687460505,9.764393177467616
5.5200000000000005,0.0093623623500859,-0.0205087328430349,-0.0819596882525137,1.1619298851822903,0.3851206432327306,9.841063088823471
5.53,0.007064939675551,-0.0132040397792679,-0.0794973086181334,1.4613021370800283,0.8308427840276509,9.74690915375528
5.54,0.0068639218035189,-0.0109941506101802,-0.073010639435356,1.2975100380625453,0.7955791790803003,9.73040546326136
5.55,0.0051645034640843,-0.0039581327434455,-0.0681606616440466,1.96177260273888,1.0062124397038186,9.499836818615355
5.5600000000000005,0.0034589676609507,0.0083692855843646,-0.0667024861636809,1.537265026380645,0.696382440624104,9.579145758098292
5.57,0.0082727723450692,0.0171708769023388,-0.066885867303913,1.4243463171242157,0.3960947012892685,9.538690144097355
5.58,0.0080291353402649,0.0305925346823966,-0.0711456920567206,1.4215479907749833,0.6387153268499229,9.546293547729462
5.59,0.008325219867209,0.0395983428082603,-0.0725227158132246,0.9803742704341206,0.7773786449419513,9.66316975372723
5.6000000000000005,0.0076018544090691,0.0517931978900927,-0.0762114982667616,0.8050172498416359,0.7578038954250242,9.615456115953824
5.61,0.0020571921238361,0.0525111322990265,-0.0731529380741766,0.0570091790234054,1.161988068545917,9.979810804368238
5.62,0.0055666825200339,0.0523815164105486,-0.0755624632898024,-0.2553072207750237,0.5343571349180586,9.89251081100605
5.63,0.0041078667408124,0.0529134616423304,-0.0755919303360632,-0.4084752909737014,0.8476806087637141,9.831490002808335
5.64,-0.0002800779420871,0.0486061873990417,-0.0706198151770285,-0.6002789692642879,1.087245794045517,10.007441151370244
5.65,-0.0023097863533165,0.0385375232736643,-0.0682899217668226,-1.247504234628912,0.8023667791426549,9.767003679311903
5.66,-0.0021908078571932,0.0210111261077621,-0.05963962260515,-1.086598559133259,0.763345475343006,10.009860331537086
5.67,-0.0055632628973125,0.0175983656777008,-0.0524844351771525,-0.4433495998963216,1.0955053475813628,9.55957201107502
5.68,-0.0079433436038384,0.008543094136441,-0.048138776010578,-0.3205406377487135,0.7451712526365293,9.960200961957002
5.69,-0.0120469218749581,0.0152527920794555,-0.04334548223645,0.4885091225779447,0.9061042352876632,9.622078281930092
5.7,-0.0029374148515014,0.0188284187986973,-0.0445241417351416,0.4133601207051409,-0.0835565585415,9.715202471429132
5.71,-0.0004077093884248,0.0258493050483897,-0.0423614952328852,0.5636973653763291,0.4253628980715715,9.696703262237053
5.72,-0.0002066571560841,0.0281294775425002,-0.0423071581485918,0.2509806517686496,0.5288906033486234,9.848201377551344
5.73,0.0003141183023049,0.0312388409008207,-0.0431878167751482,0.252427870487466,0.6632526874407683,9.777921343853464
5.74,-0.0017465189971798,0.0346002431001449,-0.0490626442793062,0.2462783467812473,0.7074907658445406,9.886765463396674
5.75,-0.0060366778760361,0.0491723305670783,-0.0573768552008322,0.5203966430944467,0.8639542427994001,9.517932144879609
5.76,-0.0058852314203973,0.0586858134204274,-0.0625045459333113,-0.0097548310825329,0.5747760593224063,9.579985987561477
5.7700000000000005,-0.0041226973882378,0.0614035105024647,-0.0644940968218497,-0.623047965298295,0.6731381455390278,9.531812401917334
5.78,-0.0015703333794481,0.0550141377740265,-0.0702203821006468,-1.4940660936880636,0.5170658102617669,9.726230912884883
5.79,-0.0017573905312467,0.0440880470967413,-0.0732638474169424,-1.8357860481739507,0.7895886655741687,9.818059367635628
5.8,-0.0040114644905929,0.0258981377666052,-0.0728662546339682,-2.169942146945543,0.9154663896840104,10.155211750545346
5.8100000000000005,-0.0056446496577255,0.0133406352533814,-0.070911080724304,-1.8010647220471108,0.9486936066443046,9.986489754192048
5.82,-0.0086873390423137,0.0076723986871712,-0.0675105537834814,-1.2590123837037954,0.914048213809968,9.984726573313797
5.83,-0.0125770764691182,0.0040783288682731,-0.0663884814444235,-1.0809234632113562,0.9103162223949118,9.92264394858633
5.84,-0.0137134857695026,0.0030938666685953,-0.0592566255095652,-0.683962357971623,0.8157377717843398,9.931461030808252
5.8500000000000005,-0.0134084689314746,0.0061346403407279,-0.0635985891881636,-0.649293966813442,0.4466669069525779,9.721007135880829
5.86,-0.0082397843812849,0.0028788658194286,-0.0663137446704558,-0.7417720107702859,0.2116046041137006,9.814106695886643
5.87,-0.0088303173246756,0.0009203876400452,-0.0665159534278563,-0.6157301520639997,0.50059387918528,9.808317515210986
5.88,-0.0096227622753046,0.00031907758258,-0.0684758286538771,-0.3607543637859934,0.5290016744800456,9.845811267897336
5.89,-0.0114087564918592,-0.002949222357269,-0.0702051605644873,-0.3736428565907806,0.6084753063371375,9.900740011301536
5.9,-0.0106582511901363,0.0005844575307612,-0.0731273527804068,0.1311776153160443,0.4540973870845779,9.738536756397409
5.91,-0.0115378079814964,0.0019579541301729,-0.0787271197500876,0.1214884687277575,0.5402281226502199,9.937154684056738
5.92,-0.0097284687935592,0.0103250494174364,-0.0798191364470175,0.5964411344218921,0.4978091331532107,9.717839941754033
5.93,-0.0104064748187481,0.0150371915312145,-0.0793235759797743,0.4665594016952062,0.6539590671627519,9.899151029083589
5.94,-0.0100482245288691,0.0177327231348732,-0.0795147355261496,0.2602498063361142,0.6027458388221928,9.863354703770652
5.95,-0.0065030430446897,0.0190898353089684,-0.0767476345959357,0.2368926613820874,0.5840531954064231,9.870804254715958
5.96,-0.0092937638693698,0.0254663998568593,-0.076690160817211,0.3622505085887653,0.8632278556844599,9.74627014873016
5.97,-0.0086787403026606,0.0237023275209396,-0.0773881610098532,-0.0563450277193605,0.5995418411634704,9.91109372724615
5.98,-0.0068234822965597,0.0227843892495216,-0.0764491196337393,-0.0501259914176846,0.6118440613017783,9.817823592923268
5.99,-0.0054001329508298,0.0214778554877354,-0.0770443241658858,-0.0835668391031668,0.6947384037981665,9.86135116336699
6.0,-0.0057374733432189,0.0237550109306761,-0.0821544762316397,-0.0626453315267667,0.6600938143643076,9.758060487661826
6.01,-0.0011079581227258,0.0211461055619406,-0.0845353986683539,-0.6005526553239361,0.2702038280656155,9.60464965780536
6.0200000000000005,0.0058719713739881,-0.0032154860960424,-0.0762231062713316,-1.3267920823603394,0.3699798875666608,10.043552454894607
6.03,0.005302071667693,-0.0135163225044016,-0.0675852309528044,-0.4143944308448573,0.9526434030194744,9.836051079551284
6.04,-0.0045926262596182,-0.0196581184606449,-0.0564961406949213,0.3578871632990812,1.3393073957744752,10.248470264723748
6.05,-0.005801471199833,-0.0016285780389782,-0.0449309546116045,1.8298368916878576,0.847580307524991,9.736285012701428
6.0600000000000005,-0.0069791445714673,0.0175532207153399,-0.0355776149395159,2.037142083711015,0.5443948625159496,9.938474867813314
6.07,-0.0028035424746232,0.041335889255137,-0.0282884716603211,1.8266786269662367,0.1501747037763904,9.881647697932683
6.08,0.0132510751343532,0.0600178566477161,-0.0261492665472677,1.892136791154444,-0.8310331213335872,9.230293117759466
6.09,0.0205644369899606,0.0686171163872507,-0.0218175846698931,0.8325540448368827,0.0386170149231468,9.784993093356366
6.1000000000000005,0.0266353418557766,0.0698581608058146,-0.0275022230657986,0.0590327684399807,-0.0339820424160442,9.787722551255056
6.11,0.0245033862990326,0.0655932714514312,-0.0323314118745974,-0.2109068713253249,0.4407737931153368,9.956678047753678
6.12,0.0267793567943035,0.0653437500961508,-0.0380801941815069,-0.1279303690651828,0.1855002453761747,9.66878482399511
6.13,0.0282229403949303,0.0632069125104631,-0.0437922786536863,-0.2493456123366309,0.1844447294053693,9.681734274826692
6.140000000000001,0.0322782311993272,0.0662444802774342,-0.0439175191882303,-0.0108004844268294,0.2270172425740546,9.505260303668152
6.15,0.0372335111277885,0.0678909376281897,-0.0470447402063063,-0.2323124642173332,0.1909509306385968,9.54569339565152
6.16,0.0360113595096711,0.0676479411495118,-0.0453787456813505,-0.494699652814252,0.6766176873319482,9.66564716035082
6.17,0.0375126250487321,0.0621734820280336,-0.0445281575980833,-0.9373036516968318,0.5196731868022587,9.759280547005496
6.18,0.0402939697345881,0.0544114410150662,-0.0400770727160624,-1.089943607697232,0.6442390148825706,9.761456465465493
6.19,0.0360353275028339,0.0453837511948575,-0.0365280482533625,-1.2009446580376733,0.9911366657846438,9.923916410391929
6.2,0.0381735412536043,0.0406341682004366,-0.0322173658374003,-0.9213961941074053,0.7846500920686691,9.687950891900222
6.21,0.0377632596084632,0.0366198091872419,-0.0295517194631746,-0.8864637904920323,0.8511349059850334,9.70275410635228
6.22,0.0424951162502533,0.0336781984135218,-0.0300604339304617,-0.848477965096918,0.5913647517345161,9.541909261275004
6.23,0.0416822000406653,0.0316192990889242,-0.031633571869438,-0.7808449460614695,0.903314222542974,9.636268734347418
6.24,0.0350605603605289,0.0258171102129663,-0.0328036557498625,-0.9033547715675704,1.1635476864336676,9.80566342136205
6.25,0.0316283326133345,0.0238803487560966,-0.0384097259107283,-0.7527827882449828,0.7546935475501457,9.766992241949062
6.26,0.034006721046365,0.0213764607978887,-0.0359015438321283,-0.5938879789648687,0.579884761006326,9.727352445932077
6.2700000000000005,0.0333789489019681,0.0274156836970894,-0.0351809572044066,-0.2078117133121271,0.5455286343776513,9.639586237075232
6.28,0.0345494151582774,0.0251087858845348,-0.0314834873738936,-0.5475195842352636,0.5858551675311889,9.814880498074448
6.29,0.0354707373841946,0.027141817080965,-0.031614088601177,-0.3026848900878108,0.4764647083332351,9.727816572264672
6.3,0.0347474355900174,0.0269269478677833,-0.0305130455258539,-0.3675254298146802,0.6382658791129106,9.816114221264256
6.3100000000000005,0.0330449936097321,0.0252272703382956,-0.0301186713936976,-0.4042099537696009,0.6516951568695009,9.889120515132667
6.32,0.035387591777621,0.0204437020628341,-0.0311484906438044,-0.5261315215237446,0.4411635915354961,9.932354872007275
6.33,0.0354211982121444,0.0230288189258647,-0.0348599452140978,-0.1792587283220768,0.5678117934329152,9.766037595951756
6.34,0.0366099011722086,0.0244030202040122,-0.0386651951435259,-0.1681149038523676,0.534560078760322,9.805482710044393
6.3500000000000005,0.0392973334161961,0.0242627999579397,-0.0415096368256262,-0.3461590667308233,0.5477709533031389,9.733005225907686
6.36,0.0385116944941587,0.0219355903972675,-0.0445466052356413,-0.4170749886294335,0.7050500014855939,9.850429636344716
6.37,0.0390858722280496,0.0196026121076734,-0.0456459644797495,-0.4663436761256786,0.8155988366075477,9.716172516349022
6.38,0.0367442450088839,0.0136647502032167,-0.0482847924891165,-0.6079395934324847,0.900972330281493,9.883344455508476
6.390000000000001,0.0365684033275309,0.0110562474529034,-0.0477216589811495,-0.3662401041605442,0.9684825780055468,9.74893044808699
6.4,0.0319854221685024,0.0147586113294005,-0.0463640626135519,-0.0383855255874036,1.171676493060272,9.69813570392719
6.41,0.0298965550041224,0.0168781599931403,-0.0444503549101999,-0.1578772631684116,1.0861645747001292,9.66863437310946
6.42,0.0262649957357711,0.0165527257598032,-0.0419371772173098,-0.3022654245964692,1.23128794173788,9.765621653269596
6.43,0.0204974935207774,0.0215884815122457,-0.0407042849424532,-0.1744530956205597,1.2970072072106584,9.607937407408766
6.44,0.0197033960587934,0.017256587048745,-0.0375323976936987,-0.6485303882906311,1.1623560012065657,9.764933312060451
6.45,0.0141696667436124,0.013609472184097,-0.0384258303406885,-0.7814391569980849,1.2231237379561335,9.726886770456764
6.46,0.0131343974448359,0.0079747648321522,-0.041522727495735,-0.9382651868418868,0.9773255135220912,9.69112454775613
6.47,0.0106843249404904,0.0063321474529068,-0.0455192375543764,-0.8018677440924588,0.986194180281675,9.674868548518193
6.48,0.0075839090867267,0.0025325666386483,-0.0465368900063685,-0.8543678557919031,1.0559535184987208,9.792739118662505
6.49,0.0018984957292615,-0.0009389827980743,-0.0465819324913672,-0.7427142846911542,1.2665307998595718,9.90540450265361
6.5,-0.0008484808666603,0.0026928523516522,-0.0478731218341044,-0.4708477266359721,1.0793344117655228,9.747468048243316
6.51,-0.0098465474425781,0.0033000833894161,-0.0496433835092238,-0.6578211553804467,1.325948354315473,9.938320421539544
6.5200000000000005,-0.0124984149054417,0.0008456204105235,-0.0483015525701693,-0.7595695315359691,1.1180607727325595,9.866313485004454
6.53,-0.0190371847223398,-0.0003371780074388,-0.0488513756158999,-0.7765622400912932,1.179182955889607,9.842656966419824
6.54,-0.0219725472443004,-0.0040193768147149,-0.0479204739990881,-0.8629676295029993,1.0466438332209365,9.80501866005986
6.55,-0.0223167614793906,-0.010610316389389,-0.0475133705499819,-0.9794802417589408,0.9521263836869996,9.802028030351783
6.5600000000000005,-0.0280481668112559,-0.0114473382043522,-0.0470803986850432,-0.6061470039841383,1.2774478596919745,9.788805388218554
6.57,-0.032228144056078,-0.0162236073179071,-0.0466745581093481,-0.7633727151758324,1.20324462969589,9.880487681461409
6.58,-0.039361035529732,-0.0148543836892772,-0.0434590886893919,-0.293658223348225,1.30049545263086,9.873218677819722
6.59,-0.0383875423994927,-0.0163597904734136,-0.0403012793126753,-0.3931664525309261,0.8451608694094558,9.886477261436555
6.6000000000000005,-0.0376218436222188,-0.0117276367558917,-0.0341177705290964,0.012329286472097,0.9619218566830234,9.808167707075846
6.61,-0.0411668432624183,-0.0108924286273678,-0.032730882203882,-0.2293365423454533,1.0187304430825637,9.977794765200835
6.62,-0.0391957204627431,-0.011239971561245,-0.0303865719202212,-0.1786259371420227,0.8584169115993788,9.924548435759862
6.63,-0.0406957565010434,-0.0072277778199617,-0.0286255601409128,0.1140513378836235,1.0146875928337673,9.851608676087965
6.640000000000001,-0.0451746975689846,-0.0007868787288311,-0.0318221274378946,0.2455703241838827,0.9680440167198734,9.84224064864815
6.65,-0.0445705712107027,0.0049205945057596,-0.0357306051614931,0.1817562261958432,0.6694659506652836,9.754311524168138
6.66,-0.0442745341347412,0.0107501875267275,-0.0351889330509356,0.3397629146519419,0.5743783371085595,9.77996760070975
6.67,-0.0374441230236892,0.0114222806179717,-0.0376471627119234,-0.071596352672457,0.0508696028869651,9.776224931485068
6.68,-0.0350695540991744,0.0163469754073659,-0.0320258300367048,0.1295239752575733,0.3405520317603737,9.75698630379637
6.69,-0.0297698890296548,0.0100161212412107,-0.0281788400921276,-0.7398812526415806,0.1338483413158411,9.943157906730244
6.7,-0.0205030531427252,0.0039556554468726,-0.0232534605625322,-0.7973276202146518,-0.1074303476628312,9.782583402164724
6.71,-0.0187943668328042,-0.0030479102273253,-0.0212337888392857,-0.9520388673865736,0.270268082413852,9.857449917471104
6.72,-0.0167761748140731,-0.0090773018882839,-0.0172881401690891,-0.8241554229851137,0.3109756999924667,9.788754760417278
6.73,-0.0105836462176124,-0.0062521268076503,-0.0207127809140137,-0.4841937409874123,0.0311381875496627,9.48507148244864
6.74,-0.0058598907292091,-0.0049655624507596,-0.0197554427745989,-0.5433520766923733,0.2168091836422045,9.595102748532703
6.75,0.0008774427950293,-0.001995393874355,-0.027090496531432,-0.690551042101339,-0.0921941487357348,9.548321897990562
6.76,0.006662478771208,-0.0047437978474867,-0.0286551426711729,-0.9086729459546272,0.2092493482212101,9.80247284471037
6.7700000000000005,0.0121968515998603,-0.0074026231975605,-0.0359604704740694,-0.9861912086166436,0.1442857239528516,9.837256515775914
6.78,0.0141432758257644,-0.0098939953266213,-0.0382988910737684,-0.8580254656894725,0.4473286877255581,9.895553854176722
6.79,0.0114248100325847,-0.0093958888522311,-0.0412357460323027,-0.5877244624284386,0.6222174289269288,9.890558108613952
6.8,0.0131453054396289,-0.0075977220499261,-0.0371371145907095,-0.2894256436611692,0.5085677120959717,9.79879575493071
6.8100000000000005,0.0136289175716772,-0.0063948780802883,-0.0363929096224955,-0.2596519550573602,0.493182272486009,9.81311745320408
6.82,0.0147938040309362,-0.0015906702471821,-0.0336529846850088,0.086913102011139,0.594474379453024,9.69455726662902
6.83,0.014882370774364,0.0040891580444575,-0.0345987464848211,0.1605309693181271,0.5790126818395211,9.680425886930218
6.84,0.0133997193782599,0.0075336902335458,-0.0332017998758009,0.1560479824757769,0.7682286598013972,9.77265478574921
6.8500000000000005,0.0112310733331347,0.0134861246811059,-0.0315224017563513,0.3243568955043571,0.8030614464111213,9.75296779276914
6.86,0.0157099055700281,0.0199806242019036,-0.030865003502672,0.3805008622214687,0.4685454134000256,9.70445076235699
6.87,0.0189602767120938,0.0300046830777401,-0.0313402872148207,0.4909461865301262,0.4717079459347146,9.643629548702872
6.88,0.0184083042269574,0.0341962776740376,-0.0284048050257614,0.2757655290543351,0.8225425913330642,9.882903070706504
6.890000000000001,0.0180380162690747,0.0396949839859287,-0.0247627079102448,0.3382375003539515,0.8515683276541655,9.84840974000775
6.9,0.0146455894141852,0.0448187318097613,-0.0220277580979517,0.2047408067757792,1.098723320164262,9.85934057825808
6.91,0.0118100187152555,0.0458205107259343,-0.0201912384095839,-0.091056836670455,1.182070194164362,9.936018526569043
6.92,0.0079212409895253,0.0445178408951426,-0.0197033892932585,-0.2802430183068636,1.2261268653164392,9.9830620451422
6.93,0.0013465775241617,0.0438655549197422,-0.0221642452839068,-0.3398418404632735,1.2726495755698373,9.963041980706702
6.94,-0.001243443351883,0.0420083716238099,-0.0234583273145607,-0.37691799209816,1.1632927366725956,9.82680751148029
6.95,-0.0048149927816273,0.0409661525807396,-0.0252099122467688,-0.3284367921478212,1.178523595817094,9.809434951659696
6.96,-0.0087252638633208,0.0453895928830867,-0.0259494997176579,-0.088463279007006,1.224940890078965,9.562664679239392
6.97,-0.0138466703727369,0.0444654428033416,-0.0310821171465567,-0.4202570944392808,1.1679236421813488,9.71229738414995
6.98,-0.0205861814853219,0.0440986365619462,-0.0352511789265326,-0.4251744743564637,1.216972733063292,9.668649140343735
6.99,-0.0288903851681634,0.0457865249337837,-0.0339674438896826,-0.2839208510410202,1.4249475650745114,9.65956366505551
7.0,-0.0346824855283639,0.04592885290623,-0.0317907195153883,-0.448491330713741,1.2893162165411898,9.677311982540973
7.01,-0.0378071810257645,0.0460140718060184,-0.0324245925608328,-0.5050436827840178,1.0325749060548493,9.71142043618397
7.0200000000000005,-0.0446630438900259,0.0455567407016201,-0.029410169607704,-0.5277396829623557,1.2146416187378006,9.873132491281574
7.03,-0.0415874964658622,0.0455914834696044,-0.0245992086443356,-0.48253539645328,0.7280157450923783,9.769691138228165
7.04,-0.0448527474830501,0.0486038339472817,-0.0221965156111172,-0.4170292849589067,0.8781209029626782,9.836059477942529
7.05,-0.0439285101816893,0.0457098409061677,-0.0213973383966139,-0.8185138852199534,0.6144402295055353,9.913958438618945
7.0600000000000005,-0.0459293077173217,0.0471120795687015,-0.0186481840524128,-0.6377941488579344,0.7402323263835674,9.787337178159149
7.07,-0.045291574778116,0.0483301580563269,-0.0148979231330803,-0.6802853224545518,0.6329186087374268,9.698669342011655
7.08,-0.043319945393876,0.0465994418443249,-0.0077523488166979,-0.8066704099670878,0.616067928115175,9.725529084883204
7.09,-0.0425848845650681,0.0432459262923167,-0.0073165038216165,-0.9760831292613276,0.4725978340157727,9.771381630490833
7.1000000000000005,-0.0381010303658466,0.0412150887338322,-0.0055563525843671,-0.8389234113673936,0.3033067528897184,9.722617251011354
7.11,-0.0315320532302317,0.0378839255032744,-0.005626154280012,-0.8896918969752015,0.1164675961141847,9.756992388429977
7.12,-0.0287024985685781,0.0346608192960917,-0.0045338190707615,-0.7895621145089343,0.360033360087033,9.816246535992631
7.13,-0.0249161189951826,0.0353243296227805,-0.0083431956905177,-0.5772686724164559,0.1985057470422292,9.75670582827664
7.140000000000001,-0.0248057608593187,0.0338691868215578,-0.0079926598432711,-0.565399592553505,0.4735504501412519,9.858275845921534
7.15,-0.0195283674620925,0.0352687439619581,-0.0095351237419298,-0.4777897744609408,0.1403606163114595,9.681988622174572
7.16,-0.016574567947168,0.0303275230229428,-0.012397656365042,-0.8335698657817593,0.2045987188501619,9.814215339678285
7.17,-0.0112091592809709,0.0272784169535571,-0.0143669873091629,-0.7216452374242712,0.1467123391038814,9.689848358662958
7.18,-0.0079099679180432,0.0189423380194246,-0.0159917614969662,-1.0403627346929996,0.2706333997265802,9.783968470440556
7.19,-0.0104179400110728,0.0135127729083322,-0.0220695763441971,-0.906684654796588,0.5335676951762721,9.855143147238609
7.2,-0.0090845881113002,0.0094061458753003,-0.0183643448713472,-0.7200270589346908,0.5939783666229518,9.76049827313816
7.21,-0.0094895228325606,0.0088257184952351,-0.0184269409242323,-0.5989430677457624,0.5743231468900674,9.77195348882657
7.22,-0.0092172033786407,0.0074965496092019,-0.0162133697035959,-0.6526508134847127,0.6847660400506612,9.793019767999136
7.23,-0.0150815906119538,0.0056871451827321,-0.0150637190404585,-0.7541158257789505,1.0453154520964774,9.900816334632648
7.24,-0.0108411265293385,0.0054629973360219,-0.0139509226742437,-0.7643897418091279,0.6093325304722197,9.674256326888662
7.25,-0.0124065173583435,0.0007614437619669,-0.0170090656343153,-1.138748169343976,0.7887981442601865,9.827755734050324
7.26,-0.0150495196108299,-0.0020254413731831,-0.0119177328038266,-0.933746202822731,0.9972311194668112,9.785016821446218
7.2700000000000005,-0.0178225426163008,-0.008771070901219,-0.0130033885675719,-1.2019410982803331,0.8594939703446575,9.804354488121856
7.28,-0.020172317524603,-0.0110186565323366,-0.0173694967839172,-0.956789489705294,0.7254501085986721,9.724688537790277
7.29,-0.0193696833492941,-0.0130835353174682,-0.0132804710033587,-0.8016184840252293,0.8311283777786995,9.672887518120453
7.3,-0.0217206759405695,-0.010601090057521,-0.0142933941993168,-0.6858178243073643,0.7737270997702369,9.630773981404229
7.3100000000000005,-0.0246166939401419,-0.0142338844261158,-0.013025781287556,-0.9320897669512755,0.808731637070664,9.836200650836226
7.32,-0.0203498498303827,-0.0152787555650941,-0.0122500808525136,-0.8603416503400919,0.3563752501273705,9.679219919973251
7.33,-0.0195119404932237,-0.0209995270534471,-0.0120297653216174,-1.1326888154902974,0.4582235828764083,9.861353877176132
7.34,-0.0213844338528013,-0.0257602779350835,-0.0117023039224795,-1.081185165661601,0.5207789526069855,9.859431884198582
7.3500000000000005,-0.0151851116212516,-0.032274382331635,-0.0079463405150226,-1.07837173169617,0.167453441176601,9.83914541277041
7.36,-0.0125512315530397,-0.039710892968471,-0.0094382214906862,-1.1638286410096854,0.1885900901210583,9.912599417872093
7.37,-0.0053145729188416,-0.0416557845002463,-0.014004484898155,-0.6433757301779701,0.1322007136009165,9.828531479050104
7.38,-0.0038217556422953,-0.0457253919691041,-0.0122085606294921,-0.6614669347372509,0.3401621795005694,9.953698301445367
7.390000000000001,0.0014017578461262,-0.0419176545858423,-0.0097543300676396,-0.223222907503108,0.2614666694641238,9.651283726415462
7.4,0.0030309045332589,-0.0411930477720893,-0.0109123691532066,-0.3766831009140828,0.3956165448116972,9.790394109526432
7.41,0.0016906684774949,-0.0371544343136267,-0.0119758752721599,-0.2215414118054039,0.6336444961223586,9.706354015396393
7.42,0.0001828269346965,-0.0355212226191943,-0.0111862925428203,-0.2663124500951285,0.7971432853262416,9.767827027343063
7.43,-0.000174547130937,-0.03789688961963,-0.0096845246467045,-0.4446886530825183,0.7817470972053421,9.848146752437705
7.44,-0.0049510998104284,-0.0356993125693777,-0.0084109810727885,-0.189275438104616,1.0469367916850276,9.772961087576675
7.45,-0.0085581495121143,-0.0360938229330358,-0.0096361387136629,-0.319203490931971,0.9802590448862732,9.804116908331295
7.46,-0.0104123856910984,-0.0324308001943465,-0.0079441435250691,-0.1030345193942349,0.9964824339062064,9.624869428453456
7.47,-0.0163466801355825,-0.0309774628494503,-0.0071685762691548,-0.2037280011693955,1.215810558364024,9.705584186217717
7.48,-0.0178435289641072,-0.0319631935356107,-0.0053739889140478,-0.3330995528308559,0.9626400883413928,9.612101051192882
7.49,-0.0230519712645706,-0.031845311231959,-0.0087620282161286,-0.3861030325410449,0.8867551026303246,9.685383268063347
7.5,-0.0216340582006669,-0.0320416786969029,-0.0066005728754452,-0.3725126480344328,0.6562108952951434,9.5896817947697
7.51,-0.0213554871721947,-0.0339243446796364,-0.008985653667455,-0.5602209125252434,0.552137814945064,9.676072567613506
7.5200000000000005,-0.0213695082761911,-0.0384708491845844,-0.0098443694028309,-0.6577130481177702,0.5878601779947988,9.768306784089113
7.53,-0.020707861049439,-0.0399800407598525,-0.0095876670989445,-0.5960432130440712,0.4731472461147428,9.779318363107262
7.54,-0.0135017489936172,-0.0402968724788337,-0.0058314862276664,-0.5046148970028748,0.1986018801731644,9.679364279179564
7.55,-0.01140087212039,-0.0407762409848663,-0.0072862870606831,-0.6439927973829911,0.1789712361680386,9.770669271587115
7.5600000000000005,-0.0061519339291832,-0.0425196591907334,-0.0064499752211621,-0.7017666492509178,0.111106743508456,9.728102552926062
7.57,-0.0044452364053337,-0.0447175088827333,-0.004416198617523,-0.6838135960378757,0.3163863481014299,9.778601095898948
7.58,-0.0023826198233221,-0.0460567899751803,-0.005490769314324,-0.7252523423462136,0.160506980367235,9.724445606619192
7.59,0.0004956001866751,-0.0466107553566901,-0.0023968123446456,-0.6366834775523266,0.2372352373052717,9.700192645468956
7.6000000000000005,0.0045396066782837,-0.0450863483848391,-0.002717982659792,-0.6022775493515146,0.0917377545644747,9.63757360339376
7.61,0.0112120029949863,-0.0477156256705388,-0.0025456698226979,-0.8413251843316708,0.0177094145904951,9.682007592041078
7.62,0.0138311457184048,-0.0473945434001635,-0.0013401474884948,-0.6371761179228868,0.2702056569307791,9.711080455124907
7.63,0.0122137027640332,-0.0512032248887097,-0.003850484880363,-0.9031241178781212,0.4403483338898645,9.876125113090303
7.640000000000001,0.0202880333047521,-0.0541521693400535,-0.0050362061324766,-0.7724658679051908,0.0247425692897107,9.76749186485258
7.65,0.0230969114084941,-0.0527126761874998,-0.0042066854971698,-0.4719692222912036,0.3932864028378751,9.736454976755098
7.66,0.0250119794900938,-0.0543604713128386,-0.0065265262115052,-0.5922880722361994,0.3750052174522882,9.868746444843884
7.67,0.0209810274664092,-0.0537363282462737,-0.0067356202366999,-0.3737204360692897,0.7830052018573577,9.894180615775008
7.68,0.0243727121611216,-0.0480192577860955,-0.0060457970562628,-0.0331696147047369,0.4649436424625273,9.644248075154584
7.69,0.0208554857957908,-0.0434381137265636,-0.0075149220961383,-0.0995988747426504,0.7811127156594371,9.726693019815718
7.7,0.0185347203344344,-0.0452141669358823,-0.0088718134525469,-0.3825397111441823,0.7473727136409741,9.887506828038513
7.71,0.0148832632262241,-0.0423307572308484,-0.0061393335077217,-0.0915825428670745,0.9370608973957368,9.824414328257845
7.72,0.0146606406800005,-0.0412291261504031,-0.0059850911225429,-0.2036662236514368,0.7100477126649755,9.845643263336742
7.73,0.0173091046531334,-0.0379080302719563,-0.0052885572972944,-0.0101482345831195,0.6451641367343575,9.783064113344436
7.74,0.0143445450361464,-0.0362758617990494,-0.0072525778400949,-0.1177053892500235,0.831135576828708,9.93038491223044
7.75,0.0164760225133311,-0.0325956772473768,-0.0072156667324951,0.0418330567343812,0.5661487729653305,9.842319988903483
7.76,0.0181990734221047,-0.0262170704385748,-0.0056676698464206,0.0709503720613676,0.482207540754853,9.86687469484986
7.7700000000000005,0.0197888659941251,-0.0271913749192904,-0.0076988787937215,-0.327812739537741,0.4243878473725866,10.028330102193047
7.78,0.0220988207043464,-0.0226231533300168,-0.005078011340206,0.052788805641169,0.5875891236789442,9.841834050952414
7.79,0.0168021939755958,-0.0178342936678857,-0.0118421075481227,-0.0499343944778406,0.6770456166741119,9.926527245674906
7.8,0.019036209069638,-0.0169364890525033,-0.012785036264663,-0.1147151982983854,0.4144901187311598,9.886202750190018
7.8100000000000005,0.0211446836170359,-0.0131833782789881,-0.012986133954232,-0.0229711719444209,0.3644524326375054,9.75812117855073
7.82,0.0214475841002303,-0.0113995231471123,-0.0160074207547358,-0.1565277014626581,0.3721773072034191,9.812766300882004
7.83,0.0237990087285543,-0.0075281481974307,-0.0193072456482103,-0.0956020608929494,0.3657930292969502,9.672740274463129
7.84,0.0231411206756012,-0.0138743472764049,-0.017273198029702,-0.5072235099660797,0.6978380439966925,9.976989369953746
7.8500000000000005,0.0162488498175981,-0.0133540216733863,-0.017528447470372,-0.2067955284477659,0.9684861064314064,9.916870928348914
7.86,0.0188617369049246,-0.0141075627361411,-0.0132001295301369,-0.1732072134132583,0.5971350171171205,9.777794997591196
7.87,0.0186859637519058,-0.0186750717883381,-0.0123601073014787,-0.3617778509915705,0.6423973376787091,9.889931258639328
7.88,0.0195327268442109,-0.0190075163102573,-0.0105732485267571,-0.1038770162655383,0.5933065965856342,9.752265890683368
7.890000000000001,0.0229264730733655,-0.0166441999031007,-0.0076183445367268,0.0640705917603377,0.5341285535464068,9.617394618136084
7.9,0.0251274098898275,-0.0095939066185479,-0.0033198829355887,0.3236220559703612,0.6601175686612047,9.503238701914988
7.91,0.0248647872187927,-0.0071561527812473,-0.0030052514362386,-0.0290152671877159,0.6694829021490033,9.630738875052476
7.92,0.0249117211557594,-0.0060790650606412,-0.0031223540741256,-0.2020225044767924,0.6593113656060622,9.644538550307631
7.930000000000001,0.0256716964097827,-0.00439984466978,-0.0054725018876842,-0.259984331391482,0.593634104678294,9.58440021800564
7.94,0.022112030198339,-0.0084392320211165,-0.0072982675942829,-0.5496519067323554,0.8127918908064794,9.84819119181272
7.95,0.021446055589345,-0.0060556757087313,-0.0079786955925873,-0.2430933316718285,0.7055101342639648,9.637212115646346
7.96,0.0237181826335654,-0.0109119408830625,-0.0081584659951976,-0.5778760453916455,0.5798998075416911,9.819884146768397
7.97,0.0190540130263864,-0.0074087843267494,-0.0089379578444412,-0.1909993333968751,0.90689221021941,9.723507994317917
7.98,0.019036925816138,-0.0097770049658805,-0.0080310973885706,-0.4181755901916996,0.7404287330639293,9.818742433866053
7.99,0.0197555844245417,-0.0076027704381018,-0.0087042564141801,-0.2361644240733143,0.7121137517871883,9.72479165197964
8.0,0.0172025198393268,-0.0054181729182822,-0.0084269644308141,-0.205442109879223,0.9218231005526796,9.757297633901375
8.01,0.016820021611735,-0.001787569847634,-0.009195294379001,-0.176685485903015,0.804178245613381,9.712117707727216
8.02,0.0150232422999552,-0.0028069364082671,-0.0093097716185501,-0.3915857647908016,0.8472781337862806,9.831531064833175
8.03,0.0123403671753941,-0.000269514718644,-0.0138042272615483,-0.2848633409680797,0.813873590154514,9.721684135944678
8.040000000000001,0.0119860408197261,0.0021968798384498,-0.0097034975501946,-0.2107897229322071,0.895306362564204,9.653742363053633
8.05,0.0068961944354979,-0.000280785479128,-0.0103199967730096,-0.5656072542106394,1.073721469931973,9.838257046418686
8.06,0.0035399856276628,-0.0010644819007822,-0.0101687732699564,-0.5067004172274144,0.9109030261200212,9.734957875927064
8.07,0.0044374576950993,-0.0029227383137935,-0.0084342790383151,-0.5518546036006101,0.775287365576754,9.697282925153326
8.08,0.0044099652845529,-0.0044139810572064,-0.0085784058633497,-0.593646058023618,0.7507138769425487,9.696798199968663
8.09,-0.0005283101736496,-0.0123904490768707,-0.0103465525049022,-0.9892342754623876,0.9549847620446742,9.977289895549468
8.1,-0.0027138995217422,-0.0129807308496119,-0.0068416121962717,-0.5671645172513635,0.9050138429695136,9.7700492645718
8.11,-0.0018739128490906,-0.0154408432785194,-0.0047681910532764,-0.7481214343390766,0.6730233664537382,9.829773438095298
8.120000000000001,-0.0027729944917097,-0.0207929618542291,-0.0060624137136391,-0.9500171321950754,0.6425979871232722,9.99725956513198
8.13,0.0006903615338663,-0.0228429780525087,-0.0047332143026641,-0.7551089085938992,0.5291349679228079,9.832758217252731
8.14,-0.0034577272822094,-0.0263258095260078,-0.0042152769479206,-0.8562905917736008,0.8360750981493605,10.051918401031395
8.15,-0.0015263065048332,-0.0309167757961989,-0.0059909938450208,-0.9440441278033584,0.4620945646456165,9.973383267333167
8.16,-0.0006115852493633,-0.0337137362261601,-0.0083691442000917,-0.7955835012287125,0.5005043829403861,9.973987357115444
8.17,-6.5409409449645e-05,-0.0337681612680942,-0.0094616498413733,-0.5965258132767975,0.5896836799012077,9.88146629572386
8.18,-0.0008642850911264,-0.0369442937423982,-0.0083513261365941,-0.6686738100852335,0.7297658669988637,9.983612001164529
8.19,-0.0042631620948492,-0.0395590802968329,-0.0070932257536104,-0.6470137017031313,0.8537259884624713,9.975638669817029
8.2,0.0011732408307387,-0.0401533726080361,-0.0104166159021905,-0.5966481394328513,0.3796727391545989,9.755700970217864
8.21,0.0018026988280318,-0.0444976927250854,-0.0087893914046934,-0.6414175446011302,0.7300946083345612,9.918017216717292
8.22,-0.0005101539564511,-0.0509186539243832,-0.0092731492209485,-0.5939860790411734,0.7942678468893797,9.912088489505756
8.23,-0.0021854124635821,-0.0522128055930708,-0.0107943072530678,-0.4576292591619948,0.8034305007821385,9.901805587905624
8.24,-0.000802513253257,-0.0494385856887298,-0.0132976539048603,-0.1161049252897696,0.5117028944545517,9.698158180951198
8.25,0.005213033636485,-0.050768654824684,-0.0119538569438508,-0.1662270710554708,0.34807751403786,9.773871407105672
8.26,0.0060171645100202,-0.053032701595039,-0.0126321894663623,-0.2492105798426088,0.5186318778924942,9.866490941551776
8.27,0.0088908039159997,-0.050687288450562,-0.011906990929251,0.0003201582515662,0.4001686829542084,9.743071208928688
8.28,0.0081453545623441,-0.0506351028368874,-0.0100742961826971,-0.102477845223963,0.5843653259210057,9.849471372656344
8.290000000000001,0.0095384904372267,-0.0479169932278582,-0.0096733329433253,0.002302905407275,0.391274358927524,9.740708721333013
8.3,0.0145011421362803,-0.050263980002281,-0.0121739405754259,-0.2733702536723434,0.1447860416057028,9.865388428930164
8.31,0.0198333071270528,-0.0504615887779462,-0.0139171696814945,-0.1353902705023461,0.1410975062585946,9.833933341101906
8.32,0.0205559793136382,-0.0495321492825428,-0.0144906632217816,-0.034182099173591,0.4027825692606659,9.93005125573657
8.33,0.0231431818959749,-0.044485175000149,-0.0173744067165306,-0.0498778970971521,0.3622409991780583,9.832262705369851
8.34,0.0237388519022859,-0.0409049869034261,-0.0127509219187549,0.6644173727623015,0.7347579157085694,9.54251251687758
8.35,0.0332674163238794,-0.045166466477272,-0.0175252120557478,-0.6713649136507628,-0.2344166719111228,9.791777177704972
8.36,0.0344591446566548,-0.046764679908185,-0.0134253177407435,-0.3738304431604597,0.5134995092479503,9.788561625485483
8.370000000000001,0.0364999118773387,-0.0499647584638608,-0.007330278082495,-0.4721016304682234,0.712853044534385,9.742745665528226
8.38,0.0331902769449366,-0.0522639158356549,-0.0080075246828845,-0.5773202752807104,0.8611866483887858,9.744269185600256
8.39,0.0282202307165772,-0.0520875253526152,-0.0054011886555007,-0.4422753236933671,1.1089687402959456,9.713775631433071
8.4,0.0256371859909072,-0.05870142750403,-0.0049285992595604,-0.8488010168408902,0.9971737277624302,9.879966964019978
8.41,0.0248169574581049,-0.0637269580519319,-0.0063915421801856,-0.7893880051391697,0.857000762822118,9.885199824833393
8.42,0.0226350688441612,-0.0654607027708087,-0.003045899475669,-0.5388866822785362,1.0441297099791678,9.865465725293436
8.43,0.0227066621855372,-0.0678349790996594,-0.0009853829710981,-0.5466473973728647,0.9386397445257928,9.890453355004029
8.44,0.0199577180526304,-0.0712438058312685,-0.0039034231181493,-0.6231570837613707,1.0209981792980407,9.939846427576768
8.45,0.0176127832430707,-0.0703384622031058,-0.0027884907636097,-0.2724268481786346,0.9777844565526138,9.825878845360508
8.46,0.0150224325940981,-0.0718017780072359,-0.0011509758501551,-0.3134492233229983,0.992499940696881,9.877063077349804
8.47,0.0109738840180442,-0.071123502794038,0.001113859148486,-0.048631130513991,1.0291326954291202,9.827493535116988
8.48,0.0121954435589162,-0.0660588854353567,0.0034591176931508,0.2836177999600115,0.7469192558195566,9.672722489658762
8.49,0.0113222778402423,-0.0644614869976846,0.0006099862198107,0.1394436428281099,0.6544493138561803,9.805146460992765
8.5,0.013473475347154,-0.0580510203701245,-0.0008008739992282,0.4557304606128589,0.4900171990729852,9.666827942045328
8.51,0.0160266155083749,-0.0546724807682254,-0.0043779180000773,0.3268137405329339,0.3482896285572867,9.756943711164656
8.52,0.0239976734571433,-0.0463549443622574,-0.0055235984350792,0.6512122706648134,0.0668544139387363,9.55933355390908
8.53,0.0264573554230119,-0.0419329288440135,-0.005806446223264,0.4820178024299786,0.3287197748305911,9.73239353198102
8.540000000000001,0.0309206426655241,-0.0391900490834479,-0.0087793051812103,0.3975527169294323,0.0945515210993297,9.795853651479442
8.55,0.0381554095293008,-0.0334933271367873,-0.0070636497426084,0.521426386038801,0.0372928602393815,9.63465924109876
8.56,0.0461417749563364,-0.0358029449511107,-0.0055521355557492,0.1220734941511549,-0.0642901879709374,9.819145079453918
8.57,0.0498555598645706,-0.0337607719328182,-0.0079974952700785,0.3284151628607997,0.1434086493572864,9.688795671667885
8.58,0.0506057490808113,-0.0328964765158455,-0.0002976371056637,0.5083672248889473,0.5867071685376131,9.708510642035124
8.59,0.0543746908933596,-0.0295469667376487,0.0009127844509431,0.5811058818828078,0.3466240516400131,9.519414465383967
8.6,0.0529663748819696,-0.0268084294825914,0.0069110918243178,0.7438144572070683,0.7513397121897368,9.569223135436252
8.61,0.0567450495633845,-0.0215596158101479,0.0054720634047635,0.7050642685709196,0.4394108350478168,9.325583764441374
8.620000000000001,0.0563457520053276,-0.0164746980577846,0.0059226503048786,0.7606503795955344,0.8611583390327063,9.354416720168905
8.63,0.0531672454488627,-0.0096562778566159,0.0051673046231963,0.7959994654881818,1.1022553131543034,9.328224204761112
8.64,0.0489442700124048,-0.0035677599312638,0.0048604932066747,0.714139313004753,1.3512766602165551,9.437847395355742
8.65,0.0420193452503141,-0.0002879434378442,0.0024196497083404,0.4775191288241389,1.5745187798428908,9.613532558428506
8.66,0.0341946878529327,0.0031887395710583,-0.0006974797311476,0.3483794206153539,1.6783364051569971,9.743699393495987
8.67,0.02219369955774,0.0084749482099423,-0.0066742879885486,0.2206305890216454,1.9072264023474927,9.787000667381182
8.68,0.0142352616961253,0.0132430779501106,-0.012537456265395,0.0246264598320002,1.809246942498069,9.74673403701478
8.69,-0.0003841607659167,0.0140424631711488,-0.0162731755140474,-0.2434505436116629,2.188625349445885,9.989292524709148
8.700000000000001,-0.0116419552796049,0.0196150484889402,-0.0173811029258421,-0.0204690010625447,2.064682833883124,9.803266020312202
8.71,-0.0226071560131492,0.0205402399409053,-0.0217672932508639,-0.4086719525649283,1.7854998804226634,9.947303433281126
8.72,-0.0285698503304069,0.0199338195009296,-0.0182592041406086,-0.3725463476511852,1.6740431722947418,9.885123010703394
8.73,-0.0309321622323476,0.0231242636026459,-0.0160136829677275,-0.2516111425835163,1.3948466631505356,9.70546073726592
8.74,-0.0358855359039337,0.0239950352030474,-0.0159516941371611,-0.4332115384938276,1.3347901329772631,9.772990105131052
8.75,-0.0459462831031314,0.0187475273386165,-0.0148578706744364,-0.6611805246370226,1.5131410355456112,10.0085697417161
8.76,-0.0466101951307957,0.0208924825381479,-0.0109392610925487,-0.2647064660139427,1.0076881831306406,9.685846568027827
8.77,-0.048517103080313,0.0190744408174381,-0.012482056542044,-0.5259893095406275,0.7839336001884822,9.829905847739898
8.78,-0.0466612585861676,0.0170205125239593,-0.0128679556387714,-0.522065802429285,0.5471174902191636,9.808849140775951
8.790000000000001,-0.0459302721921576,0.0132777926005932,-0.0152131739619425,-0.658604044407983,0.3946502078294577,9.927018017983112
8.8,-0.0460338467276015,0.0105790690989537,-0.0129813953849724,-0.5056461442877629,0.495314186628857,9.939308504360511
8.81,-0.0417031874178476,0.0042524102979598,-0.011304639427667,-0.697382615367958,0.2670902519751308,9.967105626231604
8.82,-0.0394941833442987,1.8643060477166892e-05,-0.0104445136699131,-0.632448771754809,0.4357147759881959,9.912520750902704
8.83,-0.0369630831668349,-0.0056393905118768,-0.0121372725430182,-0.7372556656381871,0.4401743681363677,9.881235124347416
8.84,-0.0349638263759248,-0.0104242325835544,-0.0110975579905561,-0.6438462863301858,0.6009093168531237,9.780873898317372
8.85,-0.0396040318609496,-0.0164955386233412,-0.0116195857140473,-0.7461808426988261,0.9253681420441392,9.86669122258967
8.86,-0.0366007482362769,-0.0232471387573958,-0.0091836314263991,-0.7356216568270411,0.7697083562494101,9.777540725212884
8.870000000000001,-0.0400528629700791,-0.0260650822968838,-0.0085891412186673,-0.5319545785143845,1.057153716350626,9.814870526878424
8.88,-0.0413640937785776,-0.0333090431468976,-0.0096875533077171,-0.7360317042787942,0.9035442330667536,9.956499172527778
8.89,-0.0368668768850993,-0.0339653901108171,-0.0068836027371934,-0.0944042590758345,0.4823454494522919,9.82477945983102
8.9,-0.039872083740009,-0.0338636529567713,-0.0045880090060881,-0.2299495115620864,1.036918341909993,9.990026143859309
8.91,-0.0403273239617876,-0.0315942687822511,-0.0051741014781645,-0.0028268761940473,0.6401752553064447,9.95711231534604
8.92,-0.0391748045279004,-0.0288985376305421,-0.0047404842066815,-0.0943567497289071,0.5465312942212346,9.901138880681785
8.93,-0.0376884790802252,-0.0309331773514074,-0.0022863868239573,-0.2620963642182821,0.5072540358536988,10.064071755524177
8.94,-0.0367427833379832,-0.0270975358568675,-0.0040894738945416,-0.095737706375718,0.4395699778904282,9.674057478334484
8.950000000000001,-0.0350868700322589,-0.0338969145517231,-0.0044045645359209,-0.7873099123292083,0.3860503657327858,9.93896107026861
8.96,-0.0293592063031289,-0.0395473973258382,-0.0021317164960554,-0.7149652530669536,0.1321802387044106,9.83592113331692
8.97,-0.021160034105045,-0.0480096444277764,-0.0049645008134893,-0.8765353592685826,-0.2591517172777361,9.822632817062392
8.98,-0.0145423184945742,-0.0466164018230568,-0.0019768491934291,-0.4779343635790072,0.1529874664570941,9.64306448939143
8.99,-0.0118689981570809,-0.0581475316591907,0.0034435492393323,-1.0754166148619484,0.5395934219216499,10.10308727808865
9.0,-0.0076044116873249,-0.0582719934674706,0.005965374727989,-0.2908192049335051,0.3966694170023363,9.80646304154982
9.01,-0.0085206822079017,-0.0561731971470382,0.0065654123586365,-0.4738934958636644,0.503822363027563,9.935994025532576
9.02,-0.0019448353850126,-0.065960590195138,0.0049463369336673,-0.9317593247188932,0.2336986638059005,10.216123924572011
9.03,-0.0015385244767514,-0.0612499967874369,-0.0012602754018506,-0.4167185142922127,0.1396417719580572,9.96321521474027
9.040000000000001,0.0112985954211151,-0.0620735387263025,-0.004163151754742,-0.8294792778042464,-0.2502501990565771,10.055446434209523
9.05,0.0162054027631145,-0.0790131024209392,-0.0099795024457625,-1.893091508036756,0.0155668448302329,10.524487637914856
9.06,0.0167253849544818,-0.083444624423799,-0.016050809210842,-1.0049081801666442,0.7206495088661781,9.92137270274687
9.07,0.0205164757415382,-0.093530234349892,-0.025607130638068,-1.6864221040022198,0.0101331388924332,10.233485017740389
9.08,0.0126022947749431,-0.1103392718170818,-0.0325334939721277,-1.8237187822344751,1.143133388867459,10.293874628475438
9.09,0.0124576435542673,-0.1211962507962219,-0.0343677822116068,-1.3431047235169566,0.5701537918889275,10.168166239467062
9.1,0.0147784424840823,-0.125715312342467,-0.0402292359235933,-1.101251908751793,0.3159542902362314,9.688895559192964
9.11,0.0136234116013175,-0.1327462942063361,-0.0354507054749182,-0.9648270465886016,1.1227778962117898,10.05515232172961
9.120000000000001,0.003000277776959,-0.139383388998506,-0.0378634716931036,-0.9587284711711692,1.6633877367300944,9.827309945339506
9.13,-0.0178879416413133,-0.1394471915948593,-0.042429355120962,-0.2128689617330457,2.4012911592423305,9.895171866926953
9.14,-0.0521391919210091,-0.1310417162680828,-0.0517330329480818,0.6999120507208777,2.986522547134642,9.624012615950353
9.15,-0.0363055515966239,-0.1204573943572303,-0.0669037486973456,-0.1129063066524048,-1.3102614933100374,9.559782477875466
9.16,-0.0009002756147278,-0.1402714638526475,-0.0655560280743292,-1.72471379485763,-1.7669401968723812,10.020040544857542
9.17,0.0274448310248573,-0.1478736928565882,-0.0596774156752279,-0.7161099675634051,-0.7648916422684288,9.835818952048994
9.18,0.013704167452112,-0.1541323064270781,-0.061300614065235,-0.53368710904802,1.5198760564985552,10.107298798121436
9.19,0.000611390351078,-0.1484762478109242,-0.0519331741693667,0.3698875164916514,1.771547464237455,9.896839294037148
9.200000000000001,-0.0136905670274798,-0.157232044167215,-0.0439335863652876,-0.4493767558562344,1.6864344421254789,10.057930510612625
9.21,-0.0332336706035112,-0.1636616639597004,-0.0476058508816412,0.2281991682478731,2.3828571487184305,9.901952955066369
9.22,-0.0560577945304785,-0.1424434395609265,-0.0564768474164656,1.8989965077143571,1.8362399226572157,9.159017944034275
9.23,-0.0384316193124583,-0.1331528764117597,-0.0715731393161467,0.6719899529285333,-1.3824974726953578,9.611284679701562
9.24,0.0070765301701699,-0.1420787300208793,-0.0773886900010756,-0.3822485355194135,-2.7835594564975774,9.734155977873082
9.25,0.0361514944987072,-0.144616484531945,-0.0675315718713454,0.0257521186609415,-1.0375718400263836,9.843850729836966
9.26,0.0378887724304258,-0.1516271186357834,-0.0568847406271151,-0.2950336980496142,0.8447267646744293,10.151667029427765
9.27,0.0257782490520508,-0.1609411364775531,-0.039465480631893,-0.390608956514426,1.9787800701756657,10.26845214030702
9.28,0.0033792580158624,-0.1728772197466966,-0.0212608940514973,-0.5651096077645648,2.2357529882866185,10.369636363687896
9.290000000000001,0.0032285721225327,-0.1952527888941544,-0.0094842502462915,-0.8899450494761382,0.5341961409230572,10.251532884042794
9.3,-0.0005406857462187,-0.1999007839969811,-0.0078926199662736,0.640744333807873,1.6949650527251288,9.463297589901286
9.31,-0.0405721833881695,-0.1846836008955259,-0.0214830088976076,2.083801978830011,3.345845826796272,9.425725586447609
9.32,-0.0501640517065656,-0.1544359529560075,-0.0442934829357317,2.8283717323813606,0.2920800494652139,9.05423811981095
9.33,-0.0127107661974594,-0.1390275164540556,-0.0687822561326674,1.702295181013821,-2.7432598483828867,9.177447806066422
9.34,0.0313486624039604,-0.1243678755744257,-0.0751530464354208,1.075985979184254,-2.983616121916405,9.231598869435825
9.35,0.0550833969706068,-0.1430342886035183,-0.0609476055565527,-0.9768260982351842,-0.3079032908597832,10.0483411674484
9.36,0.0422065830810151,-0.1564998166908128,-0.0454422730568102,-0.4198709817264675,1.801941616246552,10.344984336535695
9.370000000000001,0.017895302464721,-0.172366116101602,-0.0216922193381241,-0.3863431362013421,2.7061906077711018,10.567151319345545
9.38,0.0061138413372918,-0.1865591159717658,0.0003997300204583,-0.189696041931433,1.7669350147235774,10.321186919855606
9.39,-0.0012561010107259,-0.198282355876969,0.0120536413428136,-0.1283921510924022,1.5599961922112096,9.961776841672926
9.4,-0.0019212166123805,-0.2078483219831104,0.0156945286703058,-0.0551455723940935,1.1364982657203924,9.977263573629926
9.41,0.0025597974756655,-0.2155003692897898,0.0088798509363778,0.0421709144636865,0.4212489411156543,9.733183894694768
9.42,0.0101938871187777,-0.2177247794739117,0.0021116553666298,0.4446321372230148,1.119712542081618,9.761744777144278
9.43,0.0041041129204858,-0.2223731979669503,-0.0086109555873325,-0.0583536564095722,1.0717214659052328,10.065195520504018
9.44,-0.0049238724955687,-0.2229776875273508,-0.0179288379463604,0.1604890507975059,1.81852276412018,10.075095158922192
9.450000000000001,-0.009870356017079,-0.229299041452643,-0.0231370452407053,-1.0426867029112914,1.2934003889180965,10.594670275892646
9.46,-0.0131369876290183,-0.2317609603687546,-0.0207135483238152,0.5034389787181791,0.9105361402349584,9.891344164333718
9.47,-0.0025616114269394,-0.2301316542422644,-0.0159271146717718,0.8838411040932416,0.2578059055421744,9.31605469853032
9.48,-0.0152740132216946,-0.2230717860229958,-0.0070218789938143,1.3243188218632047,1.4780945526926073,9.390814975912436
9.49,-0.0105665756085804,-0.2159292744421211,-0.0056846282991818,1.3196954509710883,0.6548975009998974,9.15033894631209
9.5,-0.0221982943063152,-0.2110681292939675,0.0030796832556598,0.9952229396297796,0.9125403717848162,9.47123197695418
9.51,-0.0030534396064287,-0.2185544665786755,0.0117452282842942,0.5481374523187096,-0.6255995885772416,9.651592804569232
9.52,0.0112258130072587,-0.2226333086398416,0.014189833627338,0.62705610083068,-0.4663958124914227,9.60334824178454
9.53,0.0111484764103215,-0.2154249168209956,0.0182441480842181,1.3901621627932716,0.7914133210069896,9.609405003706652
9.540000000000001,0.0024606379530205,-0.2128762899678339,0.0126073805999704,1.028980601723792,0.8600658909439427,9.870969472679668
9.55,0.0092827601946381,-0.2082186904161486,0.0145065997180291,0.6683795974970951,-0.0512802072394149,9.651096481067372
9.56,0.0193077918115182,-0.2204091547749448,0.0143994380173035,0.0985962519556037,-0.172947994911725,9.914764199142166
9.57,0.0286903130644594,-0.2139105844693104,0.0148222817492433,1.1241581005069865,0.1158532528932603,9.353753834512997
9.58,0.0158822608521579,-0.2134387880885833,0.0152788784739323,0.7414424039640624,1.7244887568754934,9.74269419861738
9.59,0.0244288206306917,-0.2101697039633182,0.0162685903173633,1.0343429670484088,-0.1391626279085093,9.674608157252765
9.6,0.0227051587169837,-0.2130170373193014,0.0147522397723742,0.7150543848656573,1.1377120953519808,9.717525336653305
9.61,0.0118482202407201,-0.2070777911028203,0.0133312994998642,1.587093429950058,1.7143638559123306,9.7201227367999
9.620000000000001,0.0005339741322746,-0.1994868566896304,0.0072977359791048,1.4462361187550972,1.3436292056393846,9.66656520614672
9.63,0.0099548303373689,-0.1916603842036376,0.0042390880093672,1.480175262286133,0.0441792828331068,9.74778898334888
9.64,0.0168380066633802,-0.1903629218333583,0.0020794342248928,1.276691210210564,0.1443480478729998,9.667373597736049
9.65,0.0230707889347814,-0.1872058558766039,0.0028745411813953,1.4617047464812352,0.5529560028728787,9.740001776220296
9.66,0.01398142004559,-0.189125626394993,-0.0012572281143865,0.906637602057595,0.9903922687447472,10.102399324747983
9.67,0.0248214385416156,-0.1871012748818392,-0.0021251676685414,0.8295611189540295,-0.1069849108058522,9.930725680668594
9.68,0.0248079016732918,-0.2007533015710984,0.0013287721062307,-0.2015927885278273,0.0517780293989305,10.394852210610535
9.69,0.0239356539785228,-0.2123946125510026,-0.000435572032561,0.7350286158628091,1.5133622608145765,9.744469430750208
9.700000000000001,0.009511806158256,-0.1868906875938477,-0.0021352890494516,2.7427058438229666,0.8968235546894473,8.967120199150225
9.71,0.0143573068503769,-0.1952266227263234,-0.0027698419603756,0.5886666295070048,0.7587392595788792,9.517498124093343
9.72,0.0348092567102468,-0.1934531216569071,-0.0049312991637042,1.5647490531933432,-0.773222028610482,9.095535669129006
9.73,0.0286473921902927,-0.1788357396266833,-0.0037625610444,1.9000491646305455,1.1399382043958342,9.068508616067785
9.74,0.0364847423696518,-0.1832849075388455,0.0032113417668961,1.162611823481578,0.4278162765151399,9.912246213195804
9.75,0.0257832422647051,-0.1846037781088643,-0.0029233346308818,1.0409909867652534,1.3334144829993646,9.579933877978338
9.76,0.0202135111369288,-0.1757382427282068,0.0050418929581292,1.7279556605634776,1.0930667630846704,9.851000192405516
9.77,0.0280481958284934,-0.1935081099816336,0.0106369898107596,-0.0065718600110449,-0.0327480373479586,9.959997963343872
9.78,0.0481747579676504,-0.1898377217580018,0.0079692772974022,1.627100096880984,-0.5300712575784469,9.421116801995638
9.790000000000001,0.0372026916177798,-0.1875439704273044,0.0154660948005267,0.8069477936307786,1.053804551701403,9.657972487365518
9.8,0.0480573340526179,-0.202834485060594,0.0146205405157753,0.3203998097149398,0.3005348608673349,10.08246767273966
9.81,0.0426225430297879,-0.2075985497276018,0.0112899847713061,0.5232547467828985,0.8845761870472482,9.724681303634853
9.82,0.0353302920486986,-0.2122069319913925,0.0144935844850489,0.7411697885953147,1.462585812258539,10.003231309824333
9.83,0.0397878800337414,-0.2159460238376843,0.0106675837573357,0.5541226488150736,-0.277707222159034,9.793964964491176
9.84,0.0626094558184112,-0.2203013491781427,0.016403199957008,0.3637389272786639,-0.2566088184109385,9.526464004922232
9.85,0.065505941471541,-0.2307560855926655,0.0175610807177373,0.3040669609560289,0.7208145124017767,10.05601105386324
9.86,0.0209107184715655,-0.2272164032861607,0.0092760485981353,1.8219598652421651,4.501129674044337,9.495759386297186
9.870000000000001,0.0071582619150336,-0.2104445868093568,0.0009754802135513,2.124337334794736,1.1549092421448646,9.47106159671594
9.88,0.0219164743737951,-0.2307881791531526,-0.0018142684444091,-0.4924335356372955,-0.4522549727359057,10.087808165896972
