time,wx,wy,wz,ax,ay,az
0.0,-0.0035126171727336,0.0006198883520058,0.0069616512162979,0.3372440545020974,0.2265073763363076,10.34339178957159
0.01,0.0023383347213661,0.0063199845335673,0.00281845622234,-0.7634807953997651,-1.0123472589839466,9.789889490560574
0.02,0.0107236054609273,0.0094265347464375,0.0045428835554416,-0.8285012321832789,-1.029640490915648,9.362937548821252
0.03,-0.0021162742379718,-0.0054113734250004,0.0058824080741401,-1.8039200441467844,0.6631620904747334,9.706422659820188
0.04,0.003029709315883,-0.0005478022474688,0.0093116090400512,-0.1965560460109793,-0.7103570996895701,10.080036117822536
0.05,0.001558638307834,0.0025555924504476,0.0009825974819618,-0.8461733950483185,-0.263427815270873,10.051973236998888
0.06,0.005300047642167,0.009905557296666,0.0022480644518877,-0.2885706999708899,-0.8112582126474943,9.50892001705991
0.07,-0.0006900577014863,-0.0094261028878798,0.0107625406934316,-2.9711250689994047,0.2124533962343028,9.263702538687037
0.08,0.0042685695145424,-0.0114310744959692,0.0142821698217089,0.5648592541411283,-0.5659580861571648,10.73645034966799
0.09,0.0015014285422959,0.0256379929708553,0.0095819794340427,1.0244183241734792,0.5188986334597919,9.09440242852204
0.1,-0.0094742415031412,-0.0133722861638042,0.0039848406566675,-3.919809783856906,0.1116377091334087,9.485787874940996
0.11,-0.0120826146144359,-0.0213384715547444,-0.0040356725686792,-0.36950265165389,0.1795205094400713,10.13769090828796
0.12,-0.0111979441116412,0.0285973634126508,0.008555200952142,2.2163908904759686,-1.250768151097938,10.278546137450196
0.13,0.0030843547358196,-0.0160159293131412,-0.0006561951478575,-4.13126314174776,-0.7666087581991995,9.438526158974614
0.14,-0.0045298416403666,-0.0059764355873812,-0.0033582511124764,0.0909277022509742,-0.5568595374534773,9.29940261814908
0.15,-0.0052529201354278,0.0186341387138082,0.0118131377501781,0.4603694095932749,-0.5248707957664096,10.310022601773714
0.16,0.0151747206660775,0.0018599676387768,0.0074703996768589,-1.8799709183787827,-2.2493303733069068,10.245222175016746
0.17,0.0118318425852185,-0.0104210928359706,0.0068310020259018,-1.791154768522413,0.5866437305870874,8.501839508168135
0.18,-0.0105635986022268,0.006028665192078,0.0080901985755558,1.0297983036479983,1.5006372909215917,10.2661086761196
0.19,-0.0024886164981166,0.0117272454942164,-0.0014178937300671,-1.029711885126247,-0.7904474116897307,10.06175676993351
0.2,-0.0115240945560883,-0.0295322144191896,-0.0080918873892728,-3.6779032462593553,0.3376170082853501,9.59247861489747
0.21,-0.0184234186673116,-0.0025584573719253,-0.00737484537527,1.4303099581048586,0.5520442981132662,9.609755296301476
0.22,-0.0040590194597548,0.0171112338946886,0.0110248579411204,0.6715024436317011,-2.517976926820866,10.673532640958452
0.23,0.0126434745842337,-0.0034800302630134,0.0114545515505965,-2.3731559508737625,-0.8030831590424712,9.022377154904715
0.24,-0.0070848307064886,-0.0168142459620804,0.0191841023741658,-1.9533935284772388,0.5241065662437683,9.299307769599237
0.25,0.0011397535052716,-0.0081464640744144,0.0447958084522183,1.1217198706801867,-0.4791725130836038,10.362954609608268
0.26,0.0020991916896977,0.0203148024523575,0.0446298542200024,0.386798152781109,-0.1071308139927536,9.814812136487658
0.27,-0.0003701555766463,-0.0402104407517915,0.0416756952880318,-4.914140747701559,0.2509110569371108,9.90862878677487
0.28,-0.0063959018670055,-0.0207481339253291,0.0493651713012154,1.2685699250606075,-0.4175516439968995,8.269014482109588
0.29,0.026760004418198,-0.0162876664618233,0.079896685737222,-0.3589591582898709,-2.9862162862606216,9.49600562218983
0.3,0.0092169404292431,-0.0747145606955277,0.0924816700397427,-4.903223306996137,1.844183466837834,10.438850925400036
0.31,-0.0257158327485823,-0.0530987793704565,0.1022778051672871,3.540839246855316,2.0656284579476494,12.031194739940696
0.32,-0.0075066466804513,0.0410789173746874,0.0917502465425427,4.900258521237904,-2.4223828665914686,8.835917620930088
0.33,-0.0074561782486311,0.0006945301438567,0.0837286012946064,-5.7560041420442,0.1389372417623789,8.226531846624752
0.34,0.0073333156064332,-0.0688348208065227,0.1024399074493344,-3.83674603159872,-2.1986208016040827,10.505043923379777
0.35000000000000003,0.0182758702643734,-0.0248227090286518,0.1231780099450047,2.483843370729752,-0.7987509911689258,8.658156080941197
0.36,-0.0112688615097147,-0.0187914846930198,0.1276338594733174,-0.2633109575788858,3.473307117739182,11.096640464606152
0.37,-0.0500849714865206,-0.0153776515717891,0.0943698855815823,-1.6323163599323125,1.183983181178022,11.810997955982383
0.38,-0.0057182366055326,0.0032812066053627,0.0428897003410752,0.9979154655578888,-4.567516528142166,9.522895938049196
0.39,0.0289583430518009,0.0454354319427837,0.0230865581659968,-0.0847149328601008,-3.55759962015891,6.610600539612481
0.4,0.0232288663262337,-0.0406252488090478,0.0320674600778515,-8.097779851297908,-0.6894894610349068,9.363804255264313
0.41000000000000003,0.0276750283542518,-0.0582177341807911,0.0518030832289155,0.3867901338404353,-0.9916135942930628,10.485635936759708
0.42,0.0167963017667603,-0.0105813947363596,0.085153435426801,2.8099449517182267,2.1871893378467293,9.489303291373698
0.43,-0.0420911613900092,-0.016863543420107,0.0842378186760838,-1.65235797596436,5.68794547185678,12.116339439435428
0.44,-0.0452135767126242,-0.0281212402206443,0.0584002258954937,-0.9811487153203584,-0.8792966662024302,11.42083122109684
0.45,-0.0176608013032608,0.0177416566180272,0.0453930954216416,2.826837087803291,-1.2993902496836394,7.495403833899594
0.46,-0.0118819695885386,-0.0090392113633686,0.0281247059582169,-4.554122393080752,-2.235107151353072,8.45997649460037
0.47000000000000003,0.0053636452912574,-0.0588684488642907,0.042965573328584,-3.5751400224453627,-2.933462145959824,10.299197935480294
0.48,0.0235828175666255,-0.0238667351641829,0.0617886828957493,1.6628722946340826,-1.9116750399555875,9.07965071110016
0.49,0.0261929096267267,-0.0193074665137004,0.0748574482975895,-0.8770669301484834,-0.4402412828445789,10.046835773630576
0.5,-0.0040726753788679,-0.0162546779458056,0.0679248469649251,-0.440027066876617,3.0682549278874496,11.437827169558076
0.51,-0.0276238452275606,-0.0100002415940985,0.048508876073211,-0.8141220306636553,1.647581434171824,10.356413383213498
0.52,-0.0220412546006309,-0.0230008976007135,0.0365161943016942,-1.4734107593086432,0.1884544995897653,8.663245380104312
0.53,-0.0218990229498154,-0.0272378337925177,0.038199053215831,-1.5544478594612212,-0.548503320642297,8.439965370374924
0.54,-0.014886173871499,-0.0694804949284006,0.0506271022139485,-3.050225435259764,-1.3230449704801577,9.780204317545284
0.55,-0.0029269204951635,-0.0766872309909434,0.0416892143665249,-1.0468628686233097,-2.4527898685758447,9.91490536515609
0.56,-0.0065491947808734,-0.0597009338461788,0.0659899088321621,0.5238523927884391,-0.3510809939060215,9.99510228232568
0.5700000000000001,-0.0384487611880451,-0.0328102861464827,0.0764560746727879,1.7227731165825753,3.404114022160023,11.21454824732385
0.58,-0.0487083262392431,0.003722393675686,0.0619767280994351,0.4008341606237798,-0.3965647824381866,10.425956657876592
0.59,-0.0120664722364023,-0.0180907746055695,0.0620169128058846,-1.6021205016969202,-2.146431303757216,9.835025228109458
0.6,0.0029490709702074,-0.0019466271406544,0.0602063881932194,-0.0728510100891631,-2.356873720195148,6.907672788076705
0.61,-0.0035789552216333,-0.0472212630691349,0.0826352732954915,-2.838120523292115,-0.2767863480840422,8.975782279965067
0.62,0.0045483372884759,-0.0626230854379398,0.0914704474388058,-1.8623640366033056,-1.4287198170148043,9.581651754025742
0.63,-0.0142296146854677,-0.0719576100689717,0.1020949008642132,-0.7593178925759022,1.094397960272161,10.665590604826557
0.64,-0.0461522451636618,-0.0184434134905603,0.0907827737508709,2.796135979502558,2.179047525739535,11.841619464926753
0.65,-0.0269732102087075,-0.0065017666628954,0.0461979220388825,-0.9565842206790088,-2.8683514861045487,10.621480906608706
0.66,0.0202848147661683,0.0187906798488877,0.0357947806595261,1.4925725958140623,-3.37666992013994,7.864561672303519
0.67,0.0159813507848617,0.0101094363195633,0.0311198784737284,-2.754778349861123,0.3621801514867203,7.741913157193776
0.68,0.0014144451268509,-0.0570213598310261,0.0399805280147488,-4.725753443020982,0.3576538708721165,10.328316213402555
0.6900000000000001,0.0117089099928534,-0.0645170636291068,0.0597254494903977,0.1332792078305893,-1.4660915539650503,9.53888850262462
0.7000000000000001,0.006396014704177,-0.0264799694698045,0.069861595588773,2.367031865118924,1.1329771230486927,9.737731129823567
0.71,-0.0333072642019339,-0.0090680456192062,0.0654768171487744,0.1182628292083135,2.547728771320059,12.1501846061158
0.72,-0.0228596229880676,-0.01164183958912,0.021781132626384,-1.1900162979534217,-2.3904498202217987,11.470622569610942
0.73,0.0062828161723685,0.0126521605622417,0.0130340914009507,0.922326439469945,-2.469555583050241,7.764850840495399
0.74,-8.334906517097775e-05,0.0125476222678237,0.0282415627269442,-2.2029726311935547,0.7495857305857142,7.972528831596536
0.75,0.0083897802872321,-0.0426222673032956,0.0290808333782847,-3.799027719223475,-2.072360062753988,10.765996327963444
0.76,0.0211361908966026,-0.0381218555562844,0.0483853528974946,-0.2583528324923571,-0.4747952337609284,9.085104201389624
0.77,0.0051373746651648,-0.0480815547558104,0.0685195001541073,-1.0017928442795667,1.0017550740856318,10.37531349323814
0.78,-0.0230507912582065,-0.0413452094606491,0.072616514819711,0.0952163727849923,3.0318640404275614,10.84981364882798
0.79,-0.0444355887303531,-0.0022322019104481,0.0573501596926148,1.3157079581780808,0.2624344598141118,10.356006624597455
0.8,-0.0071788812774892,-0.0162766858902594,0.0247641457943613,-1.784199229478859,-3.6614377394504234,9.942667632152329
0.81,0.0105925462463376,0.0096933136128049,0.0175308744190628,1.1344040548162009,-1.7696680308231796,8.50430560720954
0.8200000000000001,0.0038054541943578,-0.0057143071657988,0.0351120280800755,-2.8304588144856844,-0.5922110964898473,8.799257561746348
0.8300000000000001,0.0230470359875262,-0.0283977177689955,0.0443260977743561,-1.6346304946703885,-2.7203882092792147,10.218352593993108
0.84,0.0370653349734375,-0.0199472935244095,0.0605479116319115,0.2177867177344267,-0.4825367565779245,9.124294184336406
0.85,0.0099636918217784,-0.0281069414249639,0.0788300159154828,-1.8318126954674232,1.796474002100695,10.14870901954806
0.86,-0.027211840731722,-0.0522773307524022,0.0714875730453427,-1.3672301772470528,3.1707479080364243,11.901487095228614
0.87,-0.0430894876326428,0.0030154788722887,0.0569181489525731,2.358096501629888,1.1092048868191104,8.968594480206514
0.88,-0.0275318415090072,-0.0128924114513728,0.0368172573624547,-2.1165841753604875,-1.766313451496262,10.244841720006974
0.89,0.0003095315773681,-0.0207348839007192,0.0197648118017609,-1.1694215523326972,-2.482883275161764,9.322792221059784
0.9,0.0014988461325318,-0.0092950311221783,0.0353872189997132,0.0458451738407635,-1.121865510632042,8.889961788243928
0.91,0.0128241887662254,-0.0088762868217193,0.0408013175009186,-0.9877056844209972,-1.582287767219217,9.636277946026167
0.92,0.0176236894636029,-0.0206803872503989,0.0557979988633091,-1.6344755218759388,-0.3387425282118037,10.55861043786557
0.93,0.0017596775017901,-0.0155423087329688,0.0683444487629826,-0.6042282420125458,1.4001474399228768,9.896436653114618
0.9400000000000001,-0.0230473545026631,-0.0259686993528988,0.0533071580110486,-1.2593317687546013,1.4005540052146217,10.866789029263431
0.9500000000000001,-0.021165469988203,-0.0021419348758657,0.0492210882483418,0.9474283553965964,0.5092525330573054,9.564079434460794
0.96,0.0031440418266644,0.0003827277257844,0.0370502668200428,-0.8134558614394486,-5.230796029351933,8.99795513494095
0.97,0.0043793784577203,-0.0115001317708358,0.0274875639705355,-1.440971593295686,-0.9707517197524742,9.322892977033696
0.98,0.0055998591329779,-0.0003205690172834,0.0331244441448147,0.3408373996452468,-1.216512695232952,9.540175597190816
0.99,0.0308968662893203,0.007714577104623,0.0323861139594014,-0.5179242609882508,-2.5299689093266085,9.356901832575486
1.0,0.0266582787916713,-0.0194253912058448,0.0414125668583806,-2.53558004943642,0.172386711909725,9.780766099037862
1.01,0.0078025769637174,-0.0381412438213268,0.0472371290205414,-1.799676981697645,2.590952792785133,10.083855027899547
1.02,-0.0284540596095646,-0.0324955303364231,0.0380605804501469,-0.2943121326993956,2.292453660888904,10.954742828784338
1.03,-0.0367014333567772,-0.0099878343885678,0.0362356166122849,1.286971819992314,0.9858033733159052,9.891982393424726
1.04,-0.0104127561859347,-0.0058379537524904,0.0268128319410975,-0.3518967815582882,-2.2833641463712384,9.645783512872798
1.05,0.0048468030778378,-0.0165414876603125,0.0254383413819964,-1.7516516305649676,-2.500576828835909,8.788353344797201
1.06,0.0049669400506333,-0.0106074416914325,0.0282294611214097,-0.5948065963869754,-1.0341688666818625,9.729489552069191
1.07,0.0218436723032588,-0.0080706623414066,0.0312566264300044,-0.430928215332511,-3.3954708828554065,9.132176655931902
1.08,0.0243511325156173,-0.0055795037736265,0.0358518409310276,-0.7355108049147877,-0.7784344015337794,10.01141559878845
1.09,0.0090937778332197,-0.0119509473734171,0.0368929925142224,-1.5716854844497836,1.5206577440171103,10.395791931725142
1.1,0.0012506402845765,-0.0336434015804549,0.0267297821818287,-1.6624646173407984,1.078077318768876,10.341996925380151
1.11,-0.0164469453450904,-0.009602394703475,0.0233476358233387,1.4428074982085335,1.2974466522301038,9.320798854110334
1.12,-0.0241411313397646,-0.0049330983091848,0.0380548919318612,-0.0018084892690732,0.826928474989036,9.86950790511906
1.1300000000000001,-0.0055267130997621,-0.0113886629128735,0.0393134104786808,-1.2961436909498618,-2.496606895181453,9.283132724072498
1.1400000000000001,0.0067635968278321,-0.0232510451885119,0.0344686741708214,-1.3008088338228934,-2.494637726202419,10.07837926078156
1.1500000000000001,0.0145949631752454,5.799102890180904e-05,0.0440900708316262,0.7016427466009424,-1.0479935761103878,9.141177553956204
1.16,0.0076529620162414,-0.0041582979136195,0.040786468493789,-1.227384912310163,-0.5058230834825527,10.332778287722862
1.17,0.007392555569774,-0.0075652016126425,0.0434367331443722,-0.5183856632440004,0.4096380524715993,10.167267290321911
1.18,-0.0047766627928976,-0.0069610667898107,0.0358378897188599,-1.4608721009535273,1.2154614740049725,9.274721171435552
1.19,-0.0221851053757995,-0.0389370081511859,0.0314111812739069,-2.3223620958376,1.5947557960046008,10.563152152637652
1.2,-0.0331029746731878,-0.0238827925745972,0.0381632643519337,0.829823259824023,0.6845431047928046,9.338013391545704
1.21,-0.019371051356067,-0.0162982196875578,0.0482406775234635,-0.501488305146569,-1.8646454659785188,9.141111643659658
1.22,-0.0014647479123692,-0.034432920734808,0.0427452335833008,-1.783041634702619,-2.281409517280215,10.376021557525409
1.23,-0.0028434642935023,-0.0049720970389103,0.0417524362681801,1.4072157321952217,-0.881472656996645,9.47939617188949
1.24,0.0054738509096956,0.0125948448243376,0.0478898222325737,0.2762953608775972,-1.2967011582093582,9.867901635357535
1.25,0.0092700676622657,0.0004162217686726,0.0494719083188469,-1.9007745458681893,-0.4046117337976699,10.22946582111708
1.26,0.0060162556847852,-0.0178313830867184,0.0475887517212327,-1.2580988981486136,1.1684635256498168,9.788087125447031
1.27,-0.0145433931395287,-0.0192951470427019,0.0437509092269833,-0.8856365263296869,0.9567009362309704,9.170789042048954
1.28,-0.0149801892537041,-0.028681287192334,0.0542745339451725,-0.3741794819410085,0.0876419127873876,9.871690913182654
1.29,-0.0050366938188881,-0.0184769474834384,0.0580657544313366,-0.4993288843301893,-2.4599914718530846,9.197893023862749
1.3,0.0236636210340495,-0.0400331537406378,0.0506010624347622,-1.590683587810741,-2.057630312437167,10.605611560836
1.31,0.0027308506474804,-0.0087773731545998,0.0414039018331463,1.4695456154564106,0.2810506885334489,9.871130087996065
1.32,-0.0102380819438962,0.0078359850562354,0.0443320805905755,0.1894100867411437,1.3233421299108346,10.269186633067813
1.33,-0.0057035498599276,-0.0015526676610861,0.0352169024525578,-1.4435845262542262,-0.5282589845713135,9.529200717150086
1.34,-0.0090155871727312,-0.0173513112866859,0.0397566939471657,-1.5205815486832692,0.7293617478507055,9.533123066966253
1.35,-0.02580285239759,-0.0332211819116724,0.0469430285273488,-2.299317192199623,1.843732740067088,9.83106270142128
1.36,-0.0208859014599008,-0.0423001148287084,0.0551901730476315,-0.8354339093283564,-1.354903801726942,10.054590590757655
1.37,-0.0199603095490008,-0.0053596699742466,0.0585931773065026,2.5932072234937764,-0.6505291497044565,10.116757607006088
1.3800000000000001,-0.0012141806587312,0.0101258713739569,0.0390958796022828,-0.3640635476438404,-2.0835298329768697,10.398430156356117
1.3900000000000001,0.000516380151205,0.0028141406639199,0.0237351051299269,-1.8118774326387,-1.5449426887143245,9.458386523330166
1.4000000000000001,0.0003933994191394,0.0009252586672617,0.0330990786431725,-0.7755777407995342,0.6443789400400823,8.922346778825105
1.41,-0.0092713113203184,-0.0037644397079329,0.0384271601913865,-1.5313146895966565,0.3601248293763269,9.8867672588073
1.42,-0.0201758677370258,-0.0278770182546733,0.0407185639022286,-2.120195611416171,0.3149181006854856,10.345900217838391
1.43,-0.002972092937904,-0.0153413279077052,0.045929224300235,0.4984297560006955,-1.7848952232109645,9.26933951699568
1.44,0.0098817773343205,-0.0003766226917445,0.0394560220418866,0.5184780140258028,-1.4045398821668966,9.466824071717108
1.45,0.0063051961766045,0.0090208556720942,0.0336534726200993,-0.4084874333092353,-0.1908166921646965,9.73561087467554
1.46,-0.0018377705249873,-0.0152682021057326,0.0215200344799454,-1.938877695061328,-0.0109678471805756,11.44431236502304
1.47,0.0027353755855977,0.0035537461303087,0.021129391226023,0.6959133821252441,-0.1484902601067777,8.97561557785081
1.48,-0.0164422392489476,-0.0071920429265677,0.0332303131698067,-1.3283871669477507,1.6872346540908083,9.637501368239269
1.49,-0.0308330304889875,-0.00844330041997,0.0349066267488892,-0.8843683661042846,0.1969310939440818,9.623322957334285
1.5,-0.0162998730710401,-0.0347498146674815,0.0387468981324131,-2.965336119303624,-1.784555801727189,9.96684254517486
1.51,-0.0055020151919546,-0.0465473408054113,0.0486946078716214,-0.963655974896084,-1.225721231660777,9.518978135279369
1.52,0.0079368959298053,-0.0145884224470148,0.0477322052000458,1.8419982539606023,-1.7821589574334622,9.694840109309752
1.53,0.0167648276325784,0.0122645402566764,0.0347791659413273,0.9060396899773476,-0.9458562205474372,10.11523945061747
1.54,0.0132116643860449,-0.0003754364310252,0.0149726160569484,-1.9984936878297723,-0.135804363088743,10.170767090750678
1.55,-0.0019802978696701,-0.0062058647948081,0.0234937025932963,-0.4795810917960798,1.4064156042140366,9.452273287741177
1.56,-0.0114976972697457,-0.0031641956436513,0.0290630693314965,-0.4118443673854349,0.4749793696995759,9.586279425299878
1.57,-0.0113861611955321,-0.0168335785941801,0.0305153160123522,-1.96438636003544,-1.1195789485839167,9.802072927275905
1.58,0.0154256723744956,-0.023881756691287,0.0327733653365071,-0.6602605199556653,-2.5684839708954468,9.856141850423278
1.59,0.0298009492812441,-3.2248237064480575e-05,0.0256011179415877,0.9310246929123835,-1.792612103962743,9.128344427450246
1.6,0.0285605519443147,-0.0054725763063265,0.0229814677266772,-1.3621590589057682,0.0881583234589674,9.852054544179753
1.61,-0.0034379095757507,-0.0159357364638161,0.0153095946414764,-1.0102189240376966,2.285527880327985,11.007501651443846
1.62,-0.0030767053656182,-0.0052549047006596,0.0110378610669072,0.3139194498783645,0.3383955531901985,9.88204661836433
1.6300000000000001,-0.0195566379843606,-0.0113408897668484,0.0169551121769841,-1.0268732143529016,1.6944407780433128,9.06403836254524
1.6400000000000001,-0.0304765456521633,-0.0255279967355183,0.0232319692848618,-1.887333346250368,-0.0360308384915869,9.884014090625335
1.6500000000000001,-0.0137100979592127,-0.0424192566478468,0.0239639590261872,-1.159624852027861,-1.7391751838724792,9.834861134920748
1.6600000000000001,-0.0034113624872227,-0.0126785018125448,0.030928791570514,1.4898810497348305,-1.4950129162349015,9.853838995838538
1.67,-0.0027086460624598,0.008286277149356,0.0284442166565354,0.6682259980115989,-1.219214180436164,10.263428320715946
1.68,0.0117969453749161,0.0118983906422595,0.0141378660453851,-1.0046586428435258,-1.556147191495921,9.46256020835686
1.69,0.0089493019311695,-0.0042933409035977,0.0235211784718926,-1.801526311381301,-0.0077524114473231,9.339095128463418
1.7,0.0001011269465959,-0.012239419532712,0.029100171360224,-0.9658405758982352,0.7919649737600071,10.166201721710182
1.71,-0.0117175955563676,-0.0172073099096397,0.0275759539334471,-0.5750405315890827,0.8775660797029946,9.845192677856048
1.72,-0.0106968585634116,-0.012644961867609,0.0345357815502579,-0.5932177551522908,-0.865109732129409,9.427486632622596
1.73,0.0143921898178782,-0.0149512560429648,0.0287202755688126,-0.7523063903304252,-3.0075247484511687,9.621240025987628
1.74,0.0243330993272315,0.0109119428226465,0.0224092761753495,1.3466676421495485,-0.9714498353440196,9.588223417994062
1.75,0.0263638232011054,0.0098041623605874,0.0133052496938403,-1.1073465809654564,-0.760610265777536,9.946888239701613
1.76,0.0094537132513475,-0.0090422662959402,0.0210996038047965,-1.9280737033402375,1.0583629966315906,10.309516625135055
1.77,-0.0070365008851529,-0.0190079705704119,0.0284588197945054,-0.8816085462183344,1.7569549924763657,10.076544276884398
1.78,-0.0148425112157282,-0.01171821470579,0.0251042983262236,-0.3032702712295339,0.498209202057518,9.631926302464905
1.79,-0.029017801139532,-0.0307903044126219,0.0348323221085961,-2.78773740112302,0.951319668708867,9.529807762746186
1.8,-0.0265809656389541,-0.0448974842935559,0.0490660044132168,-1.152893003988053,-0.9255087037895136,10.231112102293553
1.81,-0.0112071101593171,-0.0240586613063,0.0437997664092476,0.8567984847795503,-1.6663206815345013,9.70330835364836
1.82,0.0004219681629044,-0.009105393420514,0.034651436912864,0.238932009125981,-1.8118471361863535,9.996349228474488
1.83,0.0067692597480776,0.0021890421357116,0.0287423777161534,-0.015516348493809,-0.7651489656707834,9.860612538090054
1.84,0.0060034860018305,0.0040488388982811,0.0308243325678999,-0.2313636551506436,0.5393429427112661,9.50267961340648
1.85,-0.0053492700527205,-0.0108695776978552,0.0255831955699618,-1.047751547238359,0.928285698808337,9.810927291630282
1.86,-0.0157136166935182,-0.0094774251004915,0.0187041899888213,-0.8144923945616841,0.0626698964336789,9.820563311116937
1.87,-0.0087752634628521,-0.0130058461287937,0.02532399173364,-0.774365207259333,-1.0376354560893413,9.747769022090406
1.8800000000000001,0.0077051696053609,-0.0036220089418345,0.0183876688359673,0.0035806355420651,-2.2053607923885843,9.533315349226514
1.8900000000000001,0.034163768908039,0.0042131048627032,0.0119855060009654,-0.0925359612814695,-3.0578830578431133,9.273323369275156
1.9000000000000001,0.040142159113685,0.0099675705973561,0.0073013283079858,-0.4707719422384749,-0.2253402487676913,9.345236666505334
1.9100000000000001,0.0094123365764881,-0.0097911126200043,0.0205182592152054,-2.301424761168431,2.873430688994288,11.170483253115496
1.92,-0.0194845698228044,-0.0283976220141738,0.0249218391953404,-1.0152230043981858,2.4562156560845576,10.942912777114437
1.93,-0.0245599217480556,-0.0039585082975392,0.0266157566337283,1.2827534654966646,0.2447590471865621,9.011857094229503
1.94,-0.0256657890313097,-0.0152056618320535,0.0283932360588009,-2.045989144286231,-0.153409861629495,9.423273852084048
1.95,-0.0242099944208208,-0.0340036078568501,0.0271883281646664,-1.609029805430516,-0.9442825756547002,10.330336752162172
1.96,-0.0132391004987166,-0.0131739905697046,0.0199987116037304,1.5377427093436482,-1.5940643447276035,10.160262760694982
1.97,0.005180642051475,0.0247433016256391,0.0128460946260388,1.252392483777639,-2.303703293390096,8.954024932288833
1.98,0.0200497833249871,-0.0025873019496016,-0.0030553724383567,-2.6805644044964807,-1.36012104466906,9.569138189449236
1.99,0.004103424236553,-0.0030457653338963,-0.0007291670655463,-0.6635207145216679,1.393483375876574,9.88306009962971
2.0,0.0010614929300219,-0.0159895894279958,0.0053956607124205,-1.396541435392227,0.1697496655596369,10.19775160444056
2.0100000000000002,-0.0078932761966111,-0.0197149304971094,0.005449756584167,-0.7699546124328518,0.7036580794846474,9.623892402348751
2.02,-0.0136985668781789,-0.0127288419500139,0.0173951863078768,-0.2839141100028649,0.0487447770742987,9.307064117521596
2.0300000000000002,0.0016509453676263,-0.0166864388044184,0.0085475529311593,-0.8628698579959174,-2.087054936243278,9.98384987881
2.04,0.0099893069356194,-0.0105652776357262,0.0032834839774663,-0.2734325079637972,-1.4384875726715218,9.868535676064344
2.05,0.0176216654004808,-0.0033702612695948,0.0151968729449804,0.3346463781605164,-0.6276911461357537,9.788556319811974
2.06,0.0173784874291175,-0.0053502322881096,0.0044772644294794,-0.7568515374591126,-0.533424156803104,10.109244212827113
2.07,0.0043570435234244,-0.0118675628001775,0.0171103245346243,-0.6097230963000039,1.351661027788302,9.75360600488616
2.08,-0.016424048442519,-0.009378453473036,0.0253502885578568,-0.5552976600956607,1.108871071056253,9.832636890303377
2.09,-0.0156854502857979,-0.0184095368105966,0.0226932513295109,-1.307599009376082,-0.3046060388413982,9.82990052229754
2.1,-0.0174594533779741,-0.014438004874256,0.0329388054786618,-0.514309216573751,-0.1393176053242685,9.939755344985258
2.11,-0.0213210164491785,-0.0117090425372416,0.0249114791630204,-0.3583756601283287,-0.2209884404214129,10.267514623386743
2.12,-0.0165647871113506,-0.0027118420828265,0.0269666752545531,-0.0457724663792107,-0.9646517959434198,9.287016561302746
2.13,-0.0027238616116364,-0.0017789221744724,0.0176320365397627,-0.4618027798124725,-1.5401470619526243,9.68937718336208
2.14,0.0056270786536912,-0.0042646731331898,0.0036774141015853,-1.0265355655403057,-1.5788520082940931,9.525357100905024
2.15,0.0010342014517322,-0.0083554671100893,0.0068412638036902,-0.4999617621956987,0.6633808292121838,9.903785773481443
2.16,0.0008067426716394,-0.0106348503783899,0.006389542087018,-1.6678451028362915,-0.6419116155460408,9.325062141749116
2.17,0.005741816205954,-0.0265541156585896,0.0160732242046292,-1.2409227371082927,-0.8876614407307254,10.0173358157325
2.18,0.0166557106975381,-0.0089981458012561,0.019859149190634,0.2444692063486504,-1.5623850499413336,9.4523205733691
2.19,0.0222175712702978,-0.0217439379897551,0.0183259500889475,-0.4465878172184487,-0.5258463268157414,10.338219919452442
2.2,0.0105401753337112,0.0117426971811857,0.0222790921805794,1.9612925976210691,0.4622010482804052,9.62323460465668
2.21,0.0075264504984455,-0.0035588901927401,0.0185485194204743,-1.9647746643602189,-0.0751561516654321,9.995492359912175
2.22,-0.0021259167749074,-0.0256463093676193,0.024141994374841,-1.6587542253084355,0.5801593509439887,10.15650874582136
2.23,-0.0190718887824402,-0.0181820274171262,0.0327244522748883,-0.0982637657739713,1.7117695301990934,9.596901383019734
2.24,-0.033902208370158,-0.0159342368491594,0.0377674336312706,-0.6028860294618764,0.4824696804388184,10.149289711656094
2.25,-0.0185350022794734,-0.0194079463865169,0.0448431010125573,-0.6314642136855021,-1.0995876892392733,9.894141776210624
2.2600000000000002,-0.0141480517134454,-0.0037206136653996,0.0389024811564381,0.6202652531368735,-1.1900363551359143,9.973511175010616
2.27,-0.0024079730296874,0.0001401089338464,0.0171127143083508,-0.7402374518938547,-1.6339261995010423,9.229433345909388
2.2800000000000002,-0.0002544500143145,0.0032549149665683,0.0082475851057465,-0.4139602048192924,-0.8344835691881091,9.577605158722545
2.29,0.0009082999790779,-0.0018443644897658,0.0085467585130031,-0.8251046716007234,-0.0031069480331787,9.84676756666056
2.3000000000000003,0.0016336008096297,-0.0044193193663783,0.0061722323997314,-0.966589464531504,-0.2000250277032349,9.813110230906872
2.31,-0.0097902847372725,-0.0204482458877307,0.0057088584406669,-1.8356266278243785,0.9748132846583824,9.917404374657266
2.32,-0.0191452138429209,-0.0174154504125967,0.0117620575009282,-0.6620877236607616,-0.3766753236006075,9.469355927710687
2.33,-0.0048101765163949,-0.0123706633666412,0.0121161305113132,1.6869374846658904,-6.358637752798107,7.7001123476907
2.34,0.0103001699097751,-0.0104167774263005,0.0055960990256066,-0.5967048619793812,-2.051976847665966,9.28172208723364
2.35,0.0178328443596329,-0.0081717675843122,0.0048617339460547,0.0039900913086051,-1.003011851658958,9.77340645512704
2.36,0.0110786320958523,0.004180787712509,0.009283029544204,0.3770913910606124,0.1198000751353228,9.659223676826931
2.37,0.0002121986413692,-0.0044015849356098,0.0191511614947016,-1.3837187441362635,0.8468704166150196,9.833797179374455
2.38,-0.0152482526547323,-0.0304764252047581,0.0257404829142983,-2.2457924100085016,1.2556979117595877,10.509110550587469
2.39,-0.0261202119842867,-0.0289178056321125,0.031054007890671,-0.3517264711131317,0.5449715381122513,10.020725112867588
2.4,-0.0222389928291209,-0.0181553999956871,0.0309886364965136,0.3570481078208131,-0.7922201889173791,9.735030666271983
2.41,-0.0092714804967453,-0.0091511503409932,0.0213397900341446,-0.3500643660128211,-1.7717716193656523,9.61603626135935
2.42,-0.0016712857794762,-0.0093489016441885,0.0126207685796912,-0.6370489496740214,-1.264957230781104,9.831124469454153
2.43,0.0041818880031293,0.0117552727214308,0.0127056549070771,0.9454983114248884,-1.0984297004253274,9.441171635515182
2.44,0.0021506481496459,0.012522224510068,0.0156419724924858,-0.8074055967175888,-0.2439174075277019,9.607628202479622
2.45,0.0009523153039836,-0.0102571316328666,0.0146558928070958,-2.329863239852374,-0.2906164497807623,9.925430923989818
2.46,0.0086930400738614,-0.0239214936020937,0.0147449514596159,-1.0357942126288322,-0.8444493249610702,10.097675124226653
2.47,0.0250416095332617,-0.0245500985454997,0.0188413291005785,-0.5167349677045375,-1.245746025045648,9.042722056999626
2.48,0.0104472589642633,-0.0085460023719951,0.0206733989296849,1.0658042582323128,0.7487678515266454,9.97868703838293
2.49,0.0165030571612081,0.0002977563578869,0.0129854409722979,0.0375276585796257,-1.3097097115496892,9.731670719992303
2.5,0.0341842207681465,0.004206936301901,0.0067427480360861,-0.0933776322110164,-1.7977402819870092,9.4791865748343
2.5100000000000002,0.0155200103835229,0.0060677056004115,0.0101903826697166,-0.6730331324763217,1.299925444610509,9.762897426730571
2.52,0.0021287273784819,-0.0231890891460843,0.0208275719313319,-2.316139116526198,1.3469038601761862,10.93929110565149
2.5300000000000002,-0.0156758850257634,-0.0168722156498072,0.0196177243022616,0.1717796730822681,1.0682270402736902,10.170096504768344
2.54,-0.0171309643845875,-0.0117604497379069,0.0257651145337517,-0.2745779068114066,0.2860905682076234,9.597104111462007
2.5500000000000003,-0.0212009030154171,-0.0141017440231562,0.0135472967056925,-1.005944234158512,-0.4853343188805918,9.791127924379843
2.56,-0.0109071790809781,-0.0067009292723373,0.0072222483111913,-0.382637757326563,-1.8642996038284845,9.831828157717611
2.57,0.0016617176141572,0.0063065921821251,0.0054283901816602,0.2482280581602355,-1.2795196225532746,9.303014673716552
2.58,0.0033989236078869,0.0021450479911761,-0.0057434741640095,-0.9663397045618952,-0.8044067342192271,9.88677964699292
2.59,0.0046201424607703,0.0071433123408021,-0.0022277477429811,0.3624526264641449,-0.0024406623908666,9.59118665371125
2.6,-0.005152798312057,-0.003999462233463,0.0005404798183376,-1.610761166054885,0.8149916947234628,9.748129423667535
2.61,-0.0176404728807889,-0.0199793774675569,0.0029912030557538,-1.6176770727176275,0.9711551713640982,10.122431965962864
2.62,-0.0270549239648373,-0.0179160740493866,0.0128590418724711,-0.8200389301977175,0.127934920187614,9.487816756704296
2.63,-0.0096100017248763,-0.0069046261006652,0.0121013252763445,0.8229953792926099,-2.3257251219058923,10.224373084734864
2.64,0.0084915398651231,-0.0045475277557705,0.0032052142313118,-1.0174225569268762,-2.195085338790142,9.0337499832924
2.65,0.0159729524392656,-0.0096658304618895,0.0030207969947154,0.003890885373535,-1.494611419211411,10.362202128776731
2.66,0.0257554646251348,0.0091187259577854,0.011769020068496,0.6320328944053732,-0.4845541671661396,9.203050020086188
2.67,0.0032596779238137,0.0051861073317713,0.0195402904181178,-0.1431138470645996,1.7189415734596436,9.888595206256122
2.68,-0.0218803669356299,-0.0053875730698446,0.0219740002183611,-2.7028394911673064,1.864961803952301,9.95465214595978
2.69,-0.0216737305980056,-0.0454252145219006,0.0255236970959599,-2.3417348265171056,0.1125835198590774,11.194040112677149
2.7,-0.0334663408204115,-0.021977147363669,0.0205840646056826,0.6436599003145477,0.4219468741456436,9.101214165141789
2.71,-0.0302057295196729,-0.017318199394459,0.0200530300615723,-0.6569451877686927,-0.9774577239504094,9.205460870889222
2.72,-0.0191395617407,-0.024750152114524,0.0114403675077851,-1.2256119556156309,-1.8663542819352004,10.224837335647214
2.73,-0.0053915335835089,-0.0094233698247183,0.0075158985099192,1.085461380499572,-1.3199991199618728,9.799914724225362
2.74,0.0052815646000692,0.0179831815015767,0.0043737246422465,1.0188156431774735,-1.2640250660223882,9.0448045759029
2.75,0.0105347520559989,-0.0053844586252337,0.0007625773840486,-1.85532820119994,-0.9038141526850906,10.277017425147609
2.7600000000000002,0.0053727220862994,-0.0132899253010375,0.0045478936052318,-0.7223129459919501,0.6025246937429238,9.858681650234168
2.77,-0.0106992851016654,-0.0198483461766299,0.0051467754645641,-1.3273609235101098,0.7935557884426672,9.793039687082675
2.7800000000000002,-0.0077911051105624,-0.0170364530206437,0.005649933661371,-0.1733843567028477,-0.4482399304097088,9.721609000658608
2.79,0.0098361655108889,0.0050010653995594,0.0046827994054551,0.8636586027792267,-2.613647926957601,9.303560779106094
2.8000000000000003,0.0225965399152318,-0.0099809435738566,-0.0051937214331333,-1.6264409999925815,-1.5023452944000335,10.030272178348644
2.81,0.0235953395231456,-0.0053877704426333,-0.0029654846759144,0.4283885191479402,-0.2629406647601423,9.92010545913851
2.82,0.0056037223870599,-0.0031765579249144,0.0100718318252261,-0.5865027899945033,1.2779518462591952,10.12377982915088
2.83,-0.0082146043227836,-0.0127137353155052,0.0078015458537633,-1.3331562651172757,1.2559196689695518,10.023204228538004
2.84,-0.0175984586687272,-0.0250391616343597,0.0110749640269573,-1.4775520229344836,0.54114069463034,9.855525195507852
2.85,-0.0233116709908668,-0.0162580882787346,0.0032430252293493,-0.0098751894670045,-0.0124351840388315,9.719834734879608
2.86,-0.0199087066382465,-0.0138543068125723,-0.0010876380139593,-0.4680089948788176,-1.0209975771543989,9.627710294966349
2.87,-0.0079714007434971,-0.0116098827259306,-0.003974063252062,-0.219964460603726,-1.6454280568090764,10.016614760682817
2.88,-0.0002316505522273,-0.0035237091145437,-0.0036185322561864,0.6917382395002354,-1.0879799772647574,9.878153199038657
2.89,0.004792942647274,0.0147637042352909,-0.0011481440625716,0.5537473618735664,-0.8423965351611525,8.851271491415751
2.9,-0.0027039000537052,-0.0015366225211429,-0.0052766384789351,-1.8238782863878025,0.4985805850758992,10.395516502999186
2.91,-0.0070889139410503,-0.0095001888835015,0.0025068834191556,-1.3026927482757034,0.1872009106602879,9.68180327713984
2.92,-0.0149103615817697,-0.0177633440360105,0.0039322959026689,-3.115590018410852,2.322143450715922,11.963094615939374
2.93,-0.0110045354020582,-0.0149297819443047,0.0017680612625922,-0.3840352465296108,-0.6863168501815772,9.165766876309512
2.94,-0.0025492544801079,-0.0087912051988725,0.0082990928320582,0.0789711224135698,-1.2203328976238346,9.99222440012147
2.95,0.0054384556725775,-0.0014977231230039,0.0090169758303459,-0.0495019214853284,-1.070335639711351,9.35837734935544
2.96,0.0031483554717248,-0.005843819092357,0.0111201937077935,-0.367741903385358,-0.5678069057291406,10.287329470852022
2.97,0.0012897469935874,-0.011798884037001,0.0118229557527597,-1.0083201468243876,0.458093117555592,10.072265277536388
2.98,-0.0097337350663039,-0.0112342561370994,0.0089880005224044,-0.5652644472373494,0.6550982930608036,10.081271191018722
2.99,-0.0224030872866355,-0.0156698094442102,0.0128047047881777,-1.114527076109625,0.9635321630138742,9.464100600093744
3.0,-0.0280005283528283,-0.0238894137768192,0.0067251614062483,-1.220078898550579,-0.1152904273747834,10.020694832220514
3.0100000000000002,-0.0262663541477904,-0.0117368444631206,0.0023706979817147,0.7101255905283669,-0.847825711275354,9.88663573256223
3.02,-0.0238370193610767,6.793801676534837e-05,0.0013927747612255,0.1451866804441931,-0.4673664637159,9.427504897651325
3.0300000000000002,-0.0109213107341439,-0.0106503451798616,-0.0029046264709536,-0.7118817063721252,-2.1320609194662743,10.303662544130283
3.04,-0.004028222596325,0.0073261629610184,-0.0025844116927687,0.7707665760171482,-0.5990893598550487,9.134273919346237
3.0500000000000003,0.0003054507005068,0.0091396644045587,-0.0007762322667617,-0.6443585101160538,-1.0017306759273468,9.822573289207504
3.06,0.0049747712463009,-0.0134791664475854,-0.00570581799835,-2.3501669901735665,-0.4951533062964026,10.18382673331862
3.0700000000000003,0.0045276425203573,-0.0065251910513213,0.0033184118336434,0.2515707754178711,-0.652408382012354,9.794413064945784
3.08,0.00690783532407,-0.0007561776526829,0.0012279851478892,0.0032004764785819,-0.5949399337483312,9.545996662062208
3.09,0.0125985394261073,0.0034546041440315,0.0011774253915432,0.1429127597611476,-0.8973859954445178,9.79231070846274
3.1,0.0091530179907115,0.0134468675941472,0.0010389073985065,-0.0542308242944659,0.0920132837568704,9.694902717689027
3.11,-0.0052513301124429,-0.012347189620466,0.0043367080623652,-2.5237598623475392,1.2678017366908096,10.146776543538898
3.12,-0.0149771195847312,-0.0093893172366036,0.0046964227920766,-0.4794297400247616,0.7695155056471431,9.686649772335004
3.13,-0.0289415750189169,-0.0157597143242864,0.0041047698585684,-1.217813187117046,0.320275183327863,10.34295966474975
3.14,-0.0210939739895294,-0.0183720635663263,-0.0002888102782521,-0.629397854803961,-1.0186334940966542,9.431136644404155
3.15,-0.0217035956711881,-0.0175660986279371,0.0013610528083886,-0.3486056914232628,-0.90969415398248,9.86386993773943
3.16,-0.0046138615154313,-0.0025882334103769,0.0065577612957354,0.9547795194117448,-1.6510348813551268,9.882145020501774
3.17,0.0036045571985689,0.0035886688423567,0.0036338284379239,0.0278819624434822,-1.3086447734140056,9.5368946238176
3.18,0.0006150479514128,-0.0041372056020657,-0.0027312204939876,-1.069962095210574,0.1025665491846696,9.483120850230334
3.19,-0.0042777421256498,0.0019930571966956,-0.0007497265934575,-0.1651515545459554,-0.03568775692219,10.015852486458613
3.2,-0.0039096730121116,-0.0047459759112266,0.0014091676683533,-1.2680825875849524,-0.3341382116664079,9.869558318131531
3.21,-0.0110861121437355,-0.0137507417511472,0.0021991841029744,-0.650385833452904,0.0374235380620817,9.54099667809044
3.22,-0.0083707232728557,0.0018325189200285,0.0016534199938546,3.4959598066528894,-1.2754908459162722,7.812047660336784
3.23,-0.001687487774477,0.0071060706396313,0.0059956601588423,0.629874810787098,-1.5381530341132583,9.433180562921612
3.24,0.0022911071335413,0.0087719434743461,0.0072210091865058,-0.6746327136440615,-0.5755387028369804,9.407132236999487
3.25,-0.0034909890770055,-0.0108711085176654,0.0053914124844964,-1.749075583119492,-0.0011228535666681,10.62481866410984
3.2600000000000002,-0.0073451674297457,-0.0049066067396043,0.0075650853803749,0.0801327051260982,0.0511931090004466,9.660968882543154
3.27,-0.0142267638214364,-0.0046042066326,0.0073745130328829,-0.8545482972199464,0.4787447559683834,9.64776058151361
3.2800000000000002,-0.0267981220704342,-0.0175421194145531,0.0055533089442546,-1.8026390384180933,0.5950262209956045,10.044192807739872
3.29,-0.0194428078875939,-0.0254272076671563,0.006787946517616,-0.9297041504659488,-1.150353450804679,9.94038608104874
3.3000000000000003,-0.0296974397915071,-0.0144893485661005,0.0052197376033659,0.5013442730514175,0.7498478526893302,9.502347418607853
3.31,-0.0267252104080098,-0.0169459675338685,0.0023642394924904,-0.5259209839878947,-1.1879610769170197,10.223506810370894
3.3200000000000003,-0.0085840632333682,-0.0107888415457725,-0.0016974924830351,0.0959842051473769,-1.8967365537032583,9.595509636436862
3.33,0.000271143359517,0.0055670447933808,-0.0060884854057435,1.139211466260264,-1.6636344532985556,9.672329795066007
3.34,0.0090997230688363,0.0060718650796885,-0.0037282322765891,-1.103973410424199,-1.0357683416517205,9.143780915380333
3.35,0.0114500609930501,-0.0023968830402354,-0.0003867116639953,-0.7229432846946602,-0.6561073035268546,10.456521755675023
3.36,0.0135287442368594,0.0007134858567315,0.0025629210984702,-0.5074082423577224,-0.2621630977591464,9.308126039354589
3.37,0.0092522125096075,-0.0059628911128408,0.0017309532966832,-1.2766473923785062,-0.1146760838828742,9.95176323241297
3.38,0.0088012632210605,-0.0164527295760169,0.0039741115877773,-0.8491943872426078,-0.6714278467139464,9.873478583425292
3.39,0.018386916118838,0.0009458811929924,0.0031668972922857,0.7494215819994127,-1.0720686153236991,9.165595696977734
3.4,0.0187234386577513,-0.0096971062885089,0.003751651686653,-1.475331460968899,-0.4245175721736567,10.192378580032337
3.41,0.0038526305911696,-0.022304646637985,0.0106950067682559,-0.8952818815557192,1.2428992714130087,10.378280360023616
3.42,-0.0110888494300865,-0.0024710682099558,0.0155677255941923,0.5998164129018926,0.9444311828391728,9.786464822851626
3.43,-0.0155022560225718,-0.0083516432084116,0.0098972237436469,-1.0338201477906364,0.0449079190125026,10.060100613623495
3.44,-0.0150474681771945,-0.0145745089428566,0.0012865208089719,-1.0256228446596098,-0.6097491780555342,9.75106545319785
3.45,-0.0086426638035563,-0.0041614883273362,0.0003628904858855,0.4082386029408138,-1.2572481633628354,9.69410089908121
3.46,0.0008650086217598,0.0013989114880574,0.0022636883193995,0.1266196944244673,-1.237251334014442,9.68943556697375
3.47,-6.666156491197034e-05,0.0028286547104143,0.001541408896483,-0.2585707204630461,-0.3091667410105142,9.704590193831049
3.48,0.0012106888710728,0.006762945566101,0.0029588242294635,-0.5935677678810555,-0.408059506156214,9.617753666807031
3.49,-0.0001716768159798,-0.0086731788991332,-0.0013248726492379,-1.650066576986034,-0.4710574489939889,10.029144942830436
3.5,-0.001801170555574,-0.008527148583812,-0.0018430614610765,-0.4502965822866808,0.0094057311016829,9.586647412274164
3.5100000000000002,-0.006458895811246,-0.0050484690303044,0.001246347685847,-0.0946566427848471,-0.4256319702833059,9.772508124747633
3.52,-0.0025517844051213,0.0020839644478977,0.0017742557218666,0.2268742632092011,-0.4362262139062869,9.822879077853257
3.5300000000000002,-0.0034353546202945,0.0024505385848766,0.0073558493284876,-0.4825520144388597,-0.5920049276792174,9.911882222844262
3.54,0.0030062953987426,0.0028748625180794,0.0012929304037611,-0.4700732068927575,-1.035744683525767,9.751491943773814
3.5500000000000003,0.0053309232237155,-0.0049765857426678,0.0054204636952276,-0.967508333596575,-0.0569468900077978,9.969402487684906
3.56,-0.0075176570423458,-0.0051483340670392,0.0080929962685699,-0.5332692607690328,0.3899881879885396,9.7879248512318
3.5700000000000003,-0.0163535342014594,-0.0143235135241797,0.0070382455131407,-1.2829399419008367,0.5723727587437045,9.935997895808924
3.58,-0.0202562153273677,-0.0178505188388268,0.0096791685326393,-0.7955825850717066,0.2739367246903113,9.95234078957689
3.59,-0.0240068738512081,-0.01120861651745,0.0096327039180691,0.2764555199765223,-0.3066408926764132,10.006437924020693
3.6,-0.015049042298597,-0.0043262760812915,0.005088887712955,-0.0455115953709509,-1.311375322286099,9.555044868381176
3.61,-0.0075355187814862,-0.0006221350981666,0.0003182724002185,0.0097360080388607,-1.3660042204927514,9.661280018104405
3.62,-0.0024348212217903,0.0020798194414903,-0.0042943436884884,-0.3470408619975661,-1.250487139806894,9.531610838041452
3.63,0.0065974962245545,0.0031292981991682,0.0011654343223567,-0.5278983201599051,-0.844474958637314,9.83415791730016
3.64,0.0040791852480361,-0.0046546888250515,-0.001557006663606,-1.0808874219902722,-0.4266200747873618,9.994022892200544
3.65,0.0060543577395909,-0.0028344997589997,0.0010537227034005,-0.2731561453275189,-0.292637266926911,9.417445329423307
3.66,0.0066861748797395,-0.005462714835208,0.0015003500273819,-0.5565002073149905,-0.4788911901800345,9.862156811259345
3.67,0.0110138449744968,-0.0050700523987827,0.0015826533316071,-0.5700548015743949,-1.0376843466985757,9.687992913150495
3.68,0.0161785611627066,-0.0049929629031304,0.0025242472300674,-0.3331158478934957,-0.7975378581998825,9.631448051768697
3.69,0.0158664506619524,-0.0035545707066108,0.0023622072302173,-0.5847407825771583,-0.4204138244680615,9.950914349782378
3.7,0.0079959645900819,-0.0087943167045859,0.0060041845543678,-0.5985487759727829,0.3799658287719197,10.070673776469812
3.71,-0.0052597512100677,-0.0137213225740495,0.0095179361058767,-1.2798240324242791,1.9520257210265848,10.352073059189571
3.72,-0.0190578314568022,-0.0132468941088871,0.0088639390422399,-0.4561797365605077,1.0648202054274345,9.96145317062046
3.73,-0.0227729970584022,-0.0137068329642753,0.006077807000875,-0.5067181763280766,-0.2568181123313062,10.054279056169406
3.74,-0.0179149391114955,-0.0024762351986591,0.0033985246671731,0.6071691804767622,-1.291783807158699,9.718940263948223
3.75,-0.0116813888780678,0.0001217588081194,-0.0049220187821988,-0.3261437799688539,-1.3118392673454382,9.450421762228125
3.7600000000000002,0.0016086042167994,0.0023849416910763,-0.0030556627781693,-0.3449648240831207,-1.4808951046949688,9.705570510127878
3.77,0.0066120197768672,0.0001300913492077,0.0012909727637092,-0.6166198388469847,-0.8381216390621177,9.857449801428356
3.7800000000000002,0.0035822681918739,-0.0029432828165663,-0.0011810554889593,-0.8197712803968957,0.2148348630130988,9.583479242163223
3.79,-0.0048022477644567,-0.0070824912979976,-0.0018057990120355,-0.7248359975906403,0.2165770326315385,10.01230031161056
3.8000000000000003,-0.0107739231349962,0.0026058404337082,0.0009541460429686,0.4257807485304217,-0.1898127551172621,9.927586052475654
3.81,-0.0015731767674492,-0.0015835887811056,0.0002576452505677,-0.6045139729995901,-1.1718007957473195,9.564485914647042
3.8200000000000003,0.0024732262629807,0.00906106001239,-0.0011576564749334,0.0763605833567149,-0.8695137284539551,9.516490329343858
3.83,0.0114173242874716,0.0052436553772687,0.0001232457696828,-0.6614284006061141,-0.9416715250287072,10.13634727696966
3.84,0.0050760162739772,0.0030090240958208,0.0064285831293459,-0.7252457935891614,0.2110820987623592,9.571647810000544
3.85,-0.0027015298787221,-0.0090669748739064,0.0041378415888543,-1.604172316212175,0.5192353871353215,10.177601338673412
3.86,-0.0070199634697336,-0.0084489853527889,0.0069585624849791,-0.2842164998049221,0.0653287781171856,9.868747038258528
3.87,-0.0183148953829029,-0.0109779277127022,0.0069380356697733,-0.6861494191144597,0.6545892843627141,9.94037341298296
3.88,-0.0190623098421054,-0.0095162533741047,0.0043314463226492,-0.3305246649071607,-0.5881309650448522,9.76420649940615
3.89,-0.0128202086499954,-0.0021879158752,0.0041233329801257,0.3093124571712692,-0.911968429519777,9.813112726446414
3.9,-0.0073239376510163,0.0037618104278002,0.001025732734743,-0.1489404121400637,-1.1795587509272845,9.59772296549167
3.91,-0.0071518290776919,0.0017706176086,0.0006967917696242,-0.6590191070188085,-0.8579125831414659,9.758772753772709
3.92,0.009543075460752,-0.0002476365780889,0.0015962022124226,-0.5158161152987795,-1.4801042084123277,9.763045666927413
3.93,0.0091683203036831,-0.0012001951458665,0.0016512803966547,-0.6467539201681878,-0.5847450875460725,9.900765396698333
3.94,0.011334937004047,-0.0029437114908905,0.0029864267679299,-0.6134281693757043,-0.28473735601383,9.53192342088096
3.95,0.0098586063710607,-0.0019095224347148,0.0022049019579212,-0.2610810729043774,-0.5753744694257867,9.826636935164585
3.96,0.011217194755948,0.0057519306605632,0.0038957831683005,0.1065556275022933,-0.278224833662425,9.70368645420943
3.97,0.0112980541040391,0.0008159629063366,0.0005652428343096,-0.8382886335058556,-0.6395758560050996,9.955703149182668
3.98,0.0077270129480038,-0.0005021124850029,9.528900849589808e-05,-0.4981769860945804,0.0358913082822951,9.805045494265531
3.99,0.004646610929448,0.004931575430205,0.0053824764443929,-0.1780428740971515,0.0223821611954095,9.839964488197095
4.0,-0.0038771712863413,-0.0139456335352818,0.0026774258120353,-2.0809139303357926,0.479794523880473,10.260647176332457
4.01,-0.0144009081194744,-0.0123197911064832,-0.0004288123920191,-0.425102914953916,0.6160075922114602,9.441295873545592
4.0200000000000005,-0.0266996337979022,-0.0178851513344698,0.0100671873195465,-1.0311120478227294,0.4690449344388583,9.939164260638004
4.03,-0.0182215014233433,-0.0169445386714255,0.0087667546002562,-0.0322259840110588,-1.1243149291228969,9.835783630092331
4.04,-0.0155635267696006,0.0004097831793677,0.0095607750816638,0.8696975892462587,-0.8110313560542014,9.830445405957256
4.05,-0.0081803332953573,-0.0040222115347567,0.0016385958996038,-0.6212030281235246,-1.4272640147222184,9.917850142307255
4.0600000000000005,0.0089209266083936,-0.0043737706949303,-0.0051105855265264,-0.454063043420523,-1.9415481229945333,9.543050363206616
4.07,0.003421353208999,0.003425793542085,0.0004186705781107,0.0033497590683016,0.2598340279216683,9.543314640222764
4.08,-0.0027727410368712,-0.0024341048250396,0.0054372554412479,-0.9157150369948062,0.4500864428900782,10.101991960284089
4.09,-0.0039432119629045,-0.0035441947888001,0.0035593447508658,-0.4483509145008367,-0.4166077535762176,9.733042898236771
4.1,-0.0061061019326196,-0.0019047627828918,3.074841228270633e-05,-0.3759522049860387,-0.6041369339071168,9.754687429689923
4.11,0.002583496866138,0.0014596166268355,0.0001931718842028,-0.117266892586949,-1.1447955729665389,9.751247203722366
4.12,0.0012922972441616,0.0061668723265455,0.00313882117629,0.0484470250867151,-0.2306198655928556,9.853329189212085
4.13,-0.0021211860703008,0.0038154814525828,7.099866055840356e-05,-0.7800068085100749,-0.0560102527496458,9.62748531607768
4.14,-0.006467846112051,0.0029579006410405,0.0020357346628229,-0.9691527335631956,-0.0268900984378196,9.796442847647167
4.15,-0.0092316012744492,-0.0109020855698886,0.0060198452091212,-1.4450584167730558,-0.0141388584543425,10.4447942061894
4.16,-0.0107198945689423,-0.0127423214593651,0.0105189169524605,-0.7068796972704162,-0.2825752665093702,9.498182821825129
4.17,-0.0202444437137483,-0.0205437975226138,0.0155937681673462,-1.0252070710972971,0.1623271850658464,9.833436383113888
4.18,-0.0100371404277306,-0.0094702295404017,0.018856524559706,0.5050573551880027,-1.0680719492478126,9.396287590440188
4.19,-0.0082416939958785,-0.0038290044056959,0.0149785755901034,0.0320407592323038,-0.9882102147435288,10.205917762565877
4.2,0.0027067920925318,-0.007837949068746,0.0067407792201633,-0.5137837374742303,-1.1211912288503652,9.695163195855551
4.21,0.0031270067558323,-0.0032960992838927,-0.0021045784698431,0.0650979859338938,-0.7893404704583442,9.854818757765612
4.22,0.0045728524523158,0.007410024374233,-0.0015590762951974,0.4266240344687668,-0.1774737581867945,9.234054133017652
4.23,-0.0021177981017998,-0.0054161725342711,0.0008835792949325,-1.728186526475443,-0.4305575234463659,10.064589071570191
4.24,0.0031884370544715,-0.0059392003874765,0.0034573106794054,0.0104814977593758,-0.5414449813112192,9.949601490666362
4.25,0.01096050870557,0.0059442350525665,0.0022783941356833,0.2781584335921588,-1.2435561620711124,9.417740381239549
4.26,0.0112805802231252,-0.0004346152305846,-0.0037745297187571,-0.8998959942691896,-0.6043061703260997,9.781599883455067
4.2700000000000005,0.0088952413886243,0.0023980419180442,0.0016147692921008,-0.29691868366515,-0.0427232677489835,9.972340336217178
4.28,0.0056147754920783,-0.0034156167589564,6.759188258046014e-05,-0.7396126054366917,-0.1114354209234795,9.849262594624635
4.29,0.0032558864531167,0.000206117248213,-0.0031908661359552,-0.4526085394846249,-0.0341285109767679,9.76614730300574
4.3,-0.0053104234609777,-0.0077846735461697,0.0040313439211245,-1.0308904288492158,0.5007422895373234,10.204067314791136
4.3100000000000005,-0.0105145806914867,-0.0057571194141655,-0.0001957896048766,-0.3653525528260793,0.0152115762324132,9.738061403292962
4.32,-0.014192537667697,-0.0081323887037622,0.000994854501951,-0.5373221006252069,0.0221302806752544,9.771876849165874
4.33,-0.016584942957852,-0.0054580235824491,-0.0011718136258055,-0.3316089540703174,-0.5390604093461452,9.726391286775971
4.34,-0.0104714301101222,-0.0105246349962636,0.0007979245100072,-0.910191080557957,-1.097366674737369,9.858635170035557
4.3500000000000005,-0.0062044585969064,-0.006058768946724,0.0014158272068384,-0.1112616936651225,-1.1288275783409434,9.9409238105139
4.36,0.0073910089809986,-0.0080435512428125,0.0007796489925026,-0.1308480406985823,-1.518241622345315,9.732572059726005
4.37,0.0038926306330839,0.0069246032734734,-0.0015784969320152,0.3529232570039701,-0.2188611803495641,9.141935598842938
4.38,0.002881544197814,0.0003591415178519,0.0051642214646931,-1.0565942474950107,0.2086381417005492,10.150934493071132
4.39,-0.0015876522087049,-0.0049136704444104,-0.0001294425339069,-0.7092024626052532,-0.4538622562239047,9.94444356857219
4.4,0.0016421162269585,-0.0013868709623529,-0.0005786935099963,-0.2839697657572661,-0.5097571277010395,9.530745645940772
4.41,0.0003773980131476,-0.0037017658972668,0.0027461357647921,-0.4739467093958282,-0.4167517268696483,9.850306396157256
4.42,0.0036522835303857,-0.0066801277320174,-0.0007556952070076,-0.5399286851764808,-0.8623771750329301,9.010462068296084
4.43,0.0020656971383253,0.0271589001118996,0.0034215076128389,2.435896856587378,-0.5627850100707225,8.412498141004972
4.44,0.0073568353282735,0.0309770386851229,0.0126263881801064,-0.7384345459162315,-0.3333541392390834,9.591481861749692
4.45,-0.0103822548471654,0.0065992218221786,0.0242026383756096,-1.4341486016941565,1.0905988251240049,11.903838497152448
4.46,-0.013882555405148,-0.0028398041585566,0.0308310865192111,-1.759848845980822,0.0905914320442834,11.064752794836693
4.47,-0.0083571276645542,-0.0329740259365066,0.0174567541806395,-2.170693924831988,-0.5495560579304424,9.913882999897965
4.48,-0.0212634224282146,-0.0036750983233564,0.011871125618964,1.2425936262460429,0.2532088047835395,8.671637382746164
4.49,-0.0116326396955089,0.0064264609605461,3.872309465849502e-05,-0.2732466845729637,-1.498500374678218,9.968046185160432
4.5,-0.0040856706673921,-0.0128907278022507,-0.0097825703443591,-1.6347281607037456,-1.3015115257753205,10.400021994536356
4.51,0.0009823676987738,-0.000434686213562,-0.0011318250791732,1.1124459950278676,-0.5654568850977609,8.994923393239922
4.5200000000000005,0.0003099335786984,0.0141132864554324,-0.0019024465465549,0.0186957022106745,-0.8961005335330715,9.621791918207697
4.53,0.0086731591057013,-0.0056617257461823,-0.0018595013999943,-1.4297395908347614,-0.648410046267185,10.308089341156018
4.54,0.0010006260290264,-0.0022712365871311,0.0023654251825432,-0.0080436588653688,0.6092676754236596,9.699810278024474
4.55,0.0004850447202038,-0.001537731763406,-0.0009393116226051,-0.2929564716626731,-0.1516901870006536,9.54882545401046
4.5600000000000005,0.0004079300849901,-0.0001482282807536,0.0018241179176043,-0.1709509613907643,-0.4091040873387819,10.021259105833424
4.57,0.0041775063734705,0.0023630512515143,-0.0008610657415915,-0.0577603401235392,-0.7641762890534977,9.683453165564318
4.58,0.0047047198683531,0.0052832266904333,-0.0028544745174799,-0.4502869192288352,-0.5702442979226334,9.579433938569496
4.59,-0.0022641948199076,-0.0017646663642088,0.0037188207032527,-1.035803036907384,0.5430868543894707,10.21122375790188
4.6000000000000005,-0.0171221329724618,-0.007077343508098,0.0045544049470122,-0.8020665279850981,1.062265092431231,10.20775050246979
4.61,-0.0179923505989627,-0.0074067075801512,-9.727866850836473e-05,-0.6382989794754489,-0.6681299875804884,9.488625013131331
4.62,-0.0155701767761192,-0.0099823058634325,-0.0043308152118329,-0.7410331397175983,-0.7352556186142553,9.75286656294642
4.63,-0.0147872454609306,-0.0156323258530034,-0.0022654053056244,-0.8614349479959726,-0.6112540686324548,9.910604127658496
4.64,-0.0122051280404686,-0.0087775250129306,0.0025829752674694,0.3293298870149204,-0.988777729244516,9.767069678574416
4.65,-0.0058509527847901,-0.0002592122068577,0.004516702215224,0.1178398304387996,-0.9302987800798598,9.49418255179408
4.66,0.0015754291713317,-0.0050085891997838,-0.0009035888826106,-0.2004507551919341,-0.5761247702982027,9.648212939164443
4.67,-0.0099355958407951,0.013107483041476,-0.0062968082958464,0.4957818043052972,0.1837443810520941,9.593671521206565
4.68,-0.0134707071815189,-0.0065821128185453,-0.0043861823388938,-2.172993765231129,0.1846487894054084,10.230272104916937
4.69,-0.0141009393405153,-0.0172417043888017,0.0022795150988172,-1.103342016038175,-0.549867531831515,9.910979999589784
4.7,-0.002418420965758,-0.0117450625008221,-0.0004120826953653,-0.1566976623086489,-1.8445998228448637,9.30307852732769
4.71,0.0102099629272581,-0.0097113529694633,0.0015787991695474,-0.0059120371774953,-1.530948116852653,9.701368787761847
4.72,0.0164769698038822,-0.0077440785193211,0.0013075188734005,-0.1206973854368395,-0.918914655531586,9.76838886763194
4.73,0.0164005716709148,0.0006337303554802,0.0054411008721585,0.2541428667964469,-0.3804366664141998,9.895768292649205
4.74,0.0052821690239101,0.0009629792612826,0.0064057945972676,-0.5849161147181446,0.7090075134820629,10.17826667689364
4.75,0.0038292738421974,-0.0096283331804417,0.0058243121719356,-1.3850198183919666,-0.0638016938458018,9.702788726795784
4.76,-0.012914994888996,-0.0176483110899347,0.0005177767678473,-1.44359928724053,1.321121917451265,9.89863577494155
4.7700000000000005,-0.0224892277088703,-0.0252954000791837,0.0009310362046021,-0.6465937600927018,0.4023470387695809,9.919008988680169
4.78,-0.0292349730794749,-0.003908013217341,0.0011370167020145,1.3029192109778405,-0.4401695296610778,9.825018123611311
4.79,-0.0093533699211673,-0.0035006001984141,0.0059388261987264,-0.392897164432524,-1.9733821037736483,9.768779191400576
4.8,-0.0058733523117882,0.0021305138463081,0.0015151473461087,0.4324868103852016,-1.2338003419432657,9.762021986998604
4.8100000000000005,0.006774750588075,0.0066657833394349,0.0019897894934187,-0.4644293306785492,-1.534142228014235,9.397973783419769
4.82,0.0102582880888359,0.0047670423861655,-0.0014320664805923,-0.4998304028306078,-0.640357087491424,9.919123861684431
4.83,0.0061780415721209,0.001726689199982,0.0002244710165909,-0.6004306517849782,0.3731045110395603,10.014317319386896
4.84,-0.0014301556341851,0.0011723795749778,0.0007869968656818,-0.8071767651992973,0.1957249630661861,9.547528946651935
4.8500000000000005,0.0003431203113885,-0.0084522771315991,-0.0005570304812495,-1.1265565027531916,-0.8909032316078247,10.316393643361788
4.86,0.0069626056289755,-0.0081851287777837,-0.0011192458215732,-0.1885040663103794,-1.0616642659193505,9.435463140558763
4.87,0.010345932073318,0.0033590467986862,-0.0012902670306716,0.5375033246633595,-0.8421066588166496,9.640521775189454
4.88,0.0170685808144405,0.0043693479999623,0.0009746991098295,-0.4811313513912987,-0.9259959861967356,9.80696937583738
4.89,0.0062447098256574,-0.005289898392745,0.0008152088092542,-1.33108730595315,0.95526557561895,10.155017178304636
4.9,-0.0126518107941065,-0.0123031157910107,0.0028224429814513,-1.0762161971651103,1.42909486535354,9.9380825381927
4.91,-0.0273158779004273,-0.0140011140817971,0.0004715215016772,-0.8399087509401663,0.6975036403008789,9.703949059054777
4.92,-0.0261414326838224,-0.0199496759343254,-0.0017387898871306,-0.8080063885594622,-0.7045973405698529,9.713999128014937
4.93,-0.0261102178139472,-0.015987719723002,0.000637608344587,0.1817291803419697,-0.71414291532746,10.156845246730976
4.94,-0.0090502027129209,-0.0008020701732714,-0.0012076028389488,1.0034997452943404,-1.8010798262079015,9.587535907499175
4.95,-0.0065974553388824,0.0048347406650307,0.0005218005761348,0.0437147417513771,-0.9998650981923052,9.761907460145792
4.96,0.0013027308988265,0.0039991627167912,-0.001905235159174,-0.5880055595337391,-1.187092808253365,9.600830595579174
4.97,0.006286384375051,-0.002554699923143,-0.0037545970873538,-1.3596938887706638,-0.6666205392799807,9.632532708480928
4.98,-0.0015731766520584,-0.0058825490290998,0.0024961801944668,-0.3767407716427782,0.0919210220410603,10.217944723360096
4.99,-0.0040624182140727,-0.0029343681100626,0.0028035098920013,-0.0430356928435691,-0.2313472582544589,9.595600155252312
5.0,0.0016805220548331,0.0025812767878398,-0.0012406969209764,-0.0160042207330946,-0.8276874982091432,9.730011896015744
5.01,0.0013079390294912,0.0019152188066689,-0.0007120856782053,-0.6384633655878649,-0.7491232504427634,9.87370935484199
5.0200000000000005,0.0083115096690165,-0.0003530708002956,-0.0026704244548086,-0.4930062758672189,-1.1048526972055277,9.67943778524927
5.03,0.0142768226899961,0.0013723340692793,0.0038314136444027,-0.3071410783407652,-0.6421099446968405,9.49101527438873
5.04,0.0028384590942681,-0.0097214503719906,0.0032138822833444,-1.80546738982318,0.6351441644295315,10.146660036151705
5.05,-0.0155937459656795,-0.0376298794269445,0.0071007125778491,-2.6276109482391363,1.3719972715133644,10.002724195103005
5.0600000000000005,-0.0267600813458848,-0.0273400537564016,0.0137666185154016,0.5711301321302987,0.4977558842179851,9.646980602080871
5.07,-0.0135119398495375,-0.0180797348181578,0.0130922804354126,0.4868070876951396,-1.5390274269348398,9.77048458455099
5.08,-0.0095818394858211,-0.0065445096633612,0.0119937733514602,0.8080316401812705,-0.9722613366891516,10.301128856231134
5.09,-0.0094238247652744,-0.0033908103759256,0.0037363051204379,0.004264300152261,-0.602596272923529,9.73499799975415
5.1000000000000005,-0.0003956170141168,0.0063292150673985,-0.0048528564395014,0.0281663511045682,-1.6302173729743117,9.147165107436624
5.11,0.0058572777702627,0.0015546027544199,-0.0013211943907295,-0.8839653668158212,-0.7565684825971547,9.878784132957092
5.12,0.0015418986458783,-0.0023315670421068,0.0045678048162157,-0.3973603581337433,-0.2908381889607067,10.160924567125964
5.13,0.0053051546602214,0.0019670754428765,-0.0009870038367439,-0.3806566598655154,-0.5276632672581513,9.286497937044633
5.14,0.0024922400821826,-0.0002160207049756,0.0009281515493425,-0.720557021635522,-0.3163933125372757,10.141102756078114
5.15,0.0027392159234333,-0.0076882030229173,-0.0004121365374517,-0.5951125505605308,-0.5082459350806491,9.928889132019696
5.16,0.0074945494562147,0.0029281293155264,-0.0017871611518417,0.3393416935747002,-0.9185396124225276,9.495348332232329
5.17,0.0070203221395611,-0.0001589864856117,0.0001138036430715,-0.5183637356540985,-0.6085411198058817,10.049954417813163
5.18,0.009024854931151,0.0043348300013882,0.0028408147162194,-0.4770628405288042,-0.2752395697554372,9.262320001973572
5.19,-0.0015558578657508,-0.0163782885065012,0.0046200096374745,-2.2486698640580225,0.7106173099185946,10.6594048781861
5.2,-0.0143170312605895,-0.0242847667401951,0.0091707241488988,-1.0227252991975833,0.8200837001700626,9.737519934944876
5.21,-0.0254712807195916,-0.016507541310484,0.0057164501166339,0.1284997811895395,0.2612900083027885,9.471916835832731
5.22,-0.0178475253558945,-0.0119414308986785,0.0067796842893953,0.2778004241231588,-1.1776982373000624,9.666639745181776
5.23,-0.0118956543617395,-0.0048580224027865,0.0140709859086568,0.3792421609303584,-1.1537275184096352,10.006870089514244
5.24,-0.0092346262165106,-0.0031784216443131,0.0153498752741511,-0.040710597625565,-0.5151922959069094,9.943439966457646
5.25,-0.0061893043981126,0.0051030171319566,0.0103672100929911,-0.0147578538760107,-0.9264711816582936,9.365908723934034
5.26,-3.429956028148448e-05,-0.0006592137292757,0.006969116698056,-1.0091631300477966,-1.549318456433916,9.917892016443432
5.2700000000000005,0.00558347407234,-0.0072258822927693,0.0057666092878575,-0.7491475701193199,-0.6607242990799741,9.768494833459757
5.28,-0.0032774908398442,0.0006277688962384,-0.0008867560419817,-0.3504147005463969,0.0639471613347889,9.819009729984325
5.29,-0.0017914570781512,0.0037946146482801,0.001687811524644,0.017621262548364,-0.5239955711898591,9.86347989664622
5.3,5.179200769533129e-05,0.0001606083994011,0.0032039604382957,-0.8768490216386801,-0.5445100444122588,9.648922815926303
5.3100000000000005,0.0028695667072144,-0.0010508323467149,0.002881009201556,-0.0209970306957901,-0.8455657455356995,9.802425744264731
5.32,0.0053290477411448,0.0051256765071951,0.0016202844679723,-0.4418790560467803,-0.5679827809251096,9.71328841201661
5.33,-0.0058552329279039,-0.0133261807496093,0.0069168979069586,-1.934753523114063,0.944730262376716,10.450037043739451
5.34,-0.0175982686949513,-0.0173118459844382,0.0051125349244471,-0.6674195356109761,0.3285966786339754,9.5092862093038
5.3500000000000005,-0.0232505412713404,-0.01118189207182,0.0109951524762804,-0.327064441750185,-0.035942061977394,9.404144982539558
5.36,-0.0112806254227321,-0.0221588658946403,0.014866235735863,-1.0367238791172484,-1.3032955062573242,9.997361029333383
5.37,-0.0038885498828746,-0.0112519627636481,0.0160824070452149,0.5578498568633072,-1.686388844225192,9.992443792496037
5.38,0.0036923560953515,-0.0116249019479103,0.016818338143676,0.0281596525152302,-0.6034489710727984,9.762903778199592
5.39,-0.0019375818241469,0.0026982976472642,0.005308321281373,0.868828484038609,-0.4418779468114364,9.488286071770746
5.4,-0.0031471377444082,0.0074468982323394,-0.0027166220126305,-0.1189989133912252,-0.4488517801008466,9.939923774279409
5.41,0.00485142861231,0.0088580603536384,0.0020900702337171,-0.6507708342850319,-1.1814499132468832,9.606475133623762
5.42,0.0092607215943773,-0.0044046680494812,0.0032680733828242,-1.401682518518232,-0.9019115404538376,9.96640705861774
5.43,0.0192016358393327,-0.0048937646031511,0.0042211698135729,-0.3564144216680425,-1.5443525756833052,9.489347412395777
5.44,0.028718630556933,0.0002770193482713,0.0016540366458143,0.357952005914998,-1.2133107272516783,9.67061601613453
5.45,0.0298489921635822,-0.0020159532609457,0.0050015785498912,-0.7441063391748695,-0.7175831781596829,9.586535491889627
5.46,0.0290218201675176,-0.0072215620902022,0.0057113474002476,-0.804245545800631,0.5996081886741216,8.928968559834022
5.47,-0.0037598573733576,0.0004949381996917,0.0106842397479708,0.0065149189355449,1.51989501099878,11.084748901101792
5.48,-0.0038968872043183,-0.0184886455956868,0.0110088429181273,-2.2700820450445973,1.034346772045143,10.103986484978767
5.49,-0.0207711949760053,-0.0314725154309683,0.0082473448245223,-1.243329201049601,-0.0053044815457184,10.520848031500872
5.5,-0.0223991907358286,-0.0149291183457277,0.0146565475268657,1.2609354655128966,0.29413488770376,9.31349645316164
5.51,-0.0185434085783662,0.0059300164906223,0.006577409408092,1.0901165241221986,-1.3165630391942449,9.572695520271438
5.5200000000000005,-0.0138997392082455,-0.0060097100641435,0.0013443014584849,-1.0149458670835698,-1.1498331648685398,9.940309673781872
5.53,-0.0169985383380349,0.0010902894425444,-0.0016834479057793,-0.1806655023462403,-0.7222073984362213,9.705953458916138
5.54,-0.0029317910196199,-0.0056389312216395,-0.0026488301111017,-1.031615799702845,-1.412611873015012,9.681031118721826
5.55,-0.0036641872459922,-0.0080219999720693,0.0002144635480731,-0.6222061986198881,-0.4197260038362164,9.90156633064358
5.5600000000000005,-0.0062904704103029,-0.007820131597228,0.0011419916525851,-0.0771363416096848,0.06388559505123,9.629293683247049
5.57,-0.0064290927349652,0.0023887029289625,0.0002646434703278,0.3710282290254236,-0.7508093334818501,9.80416940859954
5.58,-0.0034801324602205,0.0002884119910332,-0.0021399799035493,-0.5387942816524905,-0.6866784205840784,9.875452133852685
5.59,0.0031046679087451,0.001320667708475,0.0013256607461157,-0.2762589952311103,-1.1955723824273397,9.629436950680024
5.6000000000000005,0.0018644807071075,0.0053104552166371,0.0001506995875756,-0.0225775011412064,-0.1111940885771101,9.860315825989572
5.61,0.0047438189558086,0.0069238288091509,-0.00422992689997,-0.5662296975062464,-0.9275567598663114,9.79635845381584
5.62,0.0057358627698764,-0.0069163465861694,0.0024260071339453,-1.506889313675266,-0.1833362244456287,9.778419633883804
5.63,-0.0095083645625306,-0.0206176396774373,0.002792811556756,-1.7055664161498822,1.0642103124437814,10.440406747899528
5.64,-0.013867028096541,-0.0229574688271116,0.0059894915437694,-0.4412737847768815,0.1851809896310162,9.39780627315921
5.65,-0.0234576694492962,-0.013221853206995,0.0071097771404679,0.2398797850625253,0.0094062031504387,9.426169531282031
5.66,-0.014837436496636,-0.0190668098794176,0.0100475783227379,-0.7935042404603728,-0.7456552873900176,9.91145709682108
5.67,-0.0108198216760784,-0.0120704712071362,0.0097639030544455,0.8074846809466255,-1.541459163486395,10.642447309966515
5.68,-0.0020423029263299,0.0022340626354216,0.0077052182285483,0.751886611635437,-0.8879695152316156,9.351968178475904
5.69,-0.0022520022230735,0.0043943968057689,0.0051012212178106,-0.4376934000719782,-0.6595037644200598,9.241223495810324
5.7,0.0005997970858202,0.0014316723841634,-0.0024916305439178,-0.8940283202440635,-1.1734207606005589,10.153762612810883
5.71,0.0064276398386794,-0.0025193104546267,0.0031428577611591,-0.4911805473993749,-0.6870869995495453,9.991127505261792
5.72,0.0115685152693731,-0.0028569022938894,0.002223924687169,-0.3899729607352489,-1.2410518445496317,9.44918227650014
5.73,0.0183448767436592,0.0028535219167142,0.0016250073211635,-0.2478556208156556,-1.1138364581922366,9.568882899693556
5.74,0.0237624967405196,-0.0003673543558189,0.0021545909811179,-0.1770285794981803,-0.8580598225024928,9.884955589438857
5.75,0.0228949420750724,-0.0004625037153899,0.0045440612128372,-0.5815194440521941,-0.4003699503381205,9.734599114529944
5.76,0.0165976725811188,-0.0041011077357516,0.0024004015839095,-0.8841324639709225,0.3545405998782184,9.732927730856249
5.7700000000000005,0.0066787246115952,-0.0083881983648864,0.003517597983628,-0.8644153715090609,0.5421632289594275,10.200827164378625
5.78,-0.0052123748767778,-0.0187929792268047,0.0030897530494626,-1.3359946818258694,1.094406305054861,10.18587405862004
5.79,-0.0243973950802796,-0.0171831943622664,0.0030182323651756,0.3628206912003888,0.9249770201649437,9.888083519858156
5.8,-0.0238105321790247,0.0006311807925922,0.0028369457694138,0.5194068689137302,-0.6611792807227436,9.522386980070916
5.8100000000000005,-0.0124927384597453,-0.0065537295649398,0.0080950312083955,-0.6029332372209479,-1.618212779904864,10.154111698648052
5.82,-0.0036890780573164,-0.0058090993697288,0.0075645056320722,-0.4835969024748034,-1.4315554042318828,9.554461624242151
5.83,0.0056601529344046,-0.0018916096615591,0.0064495071536298,0.2225866965336595,-1.2350354250622195,9.605068058378624
5.84,0.0068846913801295,0.0010409775883923,0.000688566881618,-0.3216540180137234,-0.4951184613779128,9.763439505627687
5.8500000000000005,-0.0021330478385595,-0.0025539787202019,-0.0011293613817174,-0.605138148860544,0.6854002377914896,9.482518640567584
5.86,-0.0150367527375927,0.0062674365140522,0.0013411773369084,-0.0649320018398167,0.5522115462215144,10.040492957222147
5.87,-0.0159081249623682,-0.0117013708394395,-9.060854753910473e-06,-1.3788339406575827,-0.7762164034966227,10.129929548662052
5.88,-0.0044930802154983,0.00322613423333,0.0012832248001727,0.5403606873445419,-1.759433599476548,9.467489328535152
5.89,0.0060554726111788,-0.0018111684191278,-0.002220444311351,-0.3367377798405354,-1.186301764447523,9.99573803500274
5.9,0.0049195795744638,0.0121787666114148,-0.0014072817749906,0.543637211562219,-0.2657712953915908,9.695237624506584
5.91,0.0028182099367865,0.0001467914208725,0.0015655440045888,-1.7964328311432003,-0.1377117984483216,9.6358929552108
5.92,-0.002633377142878,-0.006853389036913,0.0007441129244766,-0.8340032015126637,0.4102698199546324,10.260088482244283
5.93,-0.014145158479591,-0.0172630969856801,0.0006173801201298,-1.454692882811626,0.220410067147152,10.052039633529848
5.94,-0.0122763677642967,-0.0168248470133184,0.0028360293480004,0.1301121346339726,-0.3642417018504077,9.5698349919579
5.95,-0.0127639434956173,-0.0075399841273217,-0.0002108967629824,-0.0392942783620496,-0.5686796563263459,9.312507774941883
5.96,-0.0157412632090549,-0.0108040736923018,0.0038124391110982,-0.216376648645511,-0.3803412944933548,10.10693262245089
5.97,-0.0015344249798818,-0.0030892604858153,0.0070548505289848,0.3675485477227277,-1.6039719298021262,10.055408766811974
5.98,7.629172072396596e-05,0.0009861514210069,0.0054719253210719,0.1396138400853407,-0.7023600339694166,9.5000526518492
5.99,-0.0031266217620971,0.0013512085653534,0.000960620306469,-0.7624913226259633,-0.5155684352668226,9.669514733102762
6.0,0.0061348267151026,0.0007086736503384,0.0037138907472039,-0.7207633144743207,-1.5022104366968598,9.905376452359308
6.01,0.0174154468179671,-0.009857209697895,0.0051154802320893,-0.7996443000329407,-1.294445148218253,9.874763218576582
6.0200000000000005,0.0188479764556541,0.0038353840458649,0.0062989397673304,0.8860207686631907,-0.8562397038517845,9.352301425782288
6.03,0.0209711107431495,0.0059122511283857,0.0019338242244343,-0.4187882665441613,-0.5391540551139734,9.782356103455331
6.04,0.016077229531316,0.0041359419622845,0.0019301338587324,-0.217193378577484,0.4076423406165275,9.732902910334504
6.05,-0.0029203272658078,0.0074830499825804,-0.0033483355538551,-0.7537261493435382,1.3361320232289595,10.017031860149324
6.0600000000000005,-0.006457842300053,-0.0093299265410947,-0.0024636207846556,-1.7449399623731283,-0.3266158016567819,10.235071154436044
6.07,-0.0117416579193521,-0.0158857362317527,-0.0043245557928089,-0.8168424754460119,0.0033931910554777,9.786823494279904
6.08,-0.0190261868498742,-0.014699182615292,0.0012287414982351,-0.3177455831649522,0.1629104708072408,10.027915318064084
6.09,-0.0227718773036759,-0.0103120979155608,-0.0014630397082869,0.3458073444351071,-0.0444915224693195,9.915153903039208
6.1000000000000005,-0.0125147478249311,-0.0022101896230647,-0.002966477465779,-0.0450600046438183,-1.6385836040303223,9.252748713296512
6.11,-0.0111024754775472,-0.0056799408754547,0.0006076847756416,-0.5325249621719265,-0.4892932281760228,9.825069738577971
6.12,-0.0050701015881913,-0.0094152776412413,3.239365181842549e-05,-0.4727391269117887,-1.4054945407413322,10.195332960204654
6.13,0.0057011409695454,0.0059814185856535,0.002893305220678,1.044930617490598,-1.2322876204420796,9.258685981793828
6.140000000000001,0.0026474921143432,0.0069436399281022,0.0007072615233851,-0.5925572038441478,-0.1030382789573885,9.716212057999236
6.15,0.0002686020500825,-0.0024094789303248,-0.0025024329544608,-1.3256914887624824,-0.4110024360519715,10.072031295011078
6.16,0.0012222208509935,-0.0080633605452628,-8.174414975611763e-05,-0.7814140048274035,-0.5025694136165995,9.990936252278974
6.17,0.0018187361691571,-0.0058069115130214,0.0012772946036788,0.433814434888269,-0.3639019981640968,9.599140020328049
6.18,0.0033047257354001,0.0108123267760971,0.0003220754268481,0.5373201312856188,-0.6576507498456129,9.478924548059265
6.19,0.0021968068083709,0.0021748692425501,0.0007992651779572,-0.9324100341050786,-0.4904862804586293,9.74812615830372
6.2,-0.0004015784173096,-0.0011425003395947,0.0017104919068883,-0.5244778957744571,0.0209407895961938,9.78166068633261
6.21,-0.0041101136895277,-0.0028021197325391,-0.0005134828853984,-0.6557001497721321,-0.1738092116488507,10.005005469325836
6.22,-0.0095166654095833,-0.0097493641613392,0.0012842597905914,-0.9616509572125947,0.2253642695989471,10.005820652662656
6.23,-0.0132563270947024,-0.0103955266184603,-0.0013818856561188,-0.070790184233858,-0.3902671076389573,9.69652403239918
6.24,-0.0100977968636272,0.0046920336660158,-0.0023630302631859,0.605378734338438,-0.9285692984874856,9.47275969055852
6.25,-0.0055565948233695,-0.0034019127712593,0.0035120964283491,-0.9488054325523432,-0.8880134666462929,10.067292025072538
6.26,0.0027317928316553,-0.002078308754823,-0.0029602511087064,-0.2470861592613832,-1.379873182714774,9.759070619770382
6.2700000000000005,0.0082545287923146,0.0020161262504238,0.000963230745438,0.0092041140516095,-0.9405123884078186,9.447662247857313
6.28,0.0081751258344397,0.0035171488777823,0.0017167900922145,-0.2184721996911325,-0.3850651571729307,9.980932432214852
6.29,0.0101391189387818,0.0001695646878743,-0.0019187677418444,-0.7003653541832382,-0.7011488519422182,9.75795703531226
6.3,0.0056278344926903,0.0034299475079286,-0.0022143692941967,-0.0392572383766493,-0.0050089729535489,9.63374568299204
6.3100000000000005,0.0026308177534532,0.0021033396982323,0.0013062854530657,-0.5958537603441799,0.0331607053472039,10.053229997087628
6.32,-0.0020302530356311,-0.0069688611911734,0.0003016308736191,-1.2309007733840436,-0.2788665221004472,10.105705158263447
6.33,0.0016183859969129,-0.0089272249775582,-0.0053302849875394,-0.3409301261669646,-1.0079200437152025,9.57476422020917
6.34,0.0076216077922403,0.0033319245783484,0.0003653336287611,0.6164593236480693,-0.7298554169156903,9.488006302068609
6.3500000000000005,0.0041954813743796,0.0037633176075551,0.0063607544405754,-0.1973160721390494,-0.270140907212402,10.15650034024556
6.36,0.0040736319654477,0.002116088676303,-0.0038866772548858,-0.5783556627181229,-0.1221994634313553,9.641970086581225
6.37,-0.0116690820409131,-0.0035162863230611,0.0012266691890913,-1.367708944020391,1.0756343496553034,9.80974436953357
6.38,-0.0164873017013301,-0.0144079904245972,0.0001458686427581,-0.8063924701674187,-0.0175109057641887,10.1607041480605
6.390000000000001,-0.0201493299530913,-0.0070746842331833,-0.0004766727680903,0.020538283478984,-0.6958664464419491,9.702950108212123
6.4,-0.0101030000185888,-0.0069442440085595,-0.0008285904069994,-0.1608764519792436,-2.861248140109749,9.242175231332642
6.41,-0.0067721147412604,-0.0110973075381246,-0.0035610561491553,-1.3438260620684337,-0.6523316548140933,8.759529680568873
6.42,-0.0091512103648233,-0.0123347100021002,0.006304910010695,-0.517078253303984,-0.3798065092817576,10.665229962820993
6.43,0.001070905174626,-0.0260169598186828,0.0044707637979085,-0.987540721626752,-1.3925075689988966,10.10968058051691
6.44,0.0046403201678823,-0.0036131392422451,-0.0026922688586269,1.9658940019691264,-0.9702889911006796,9.65808968640782
6.45,0.0081759810672422,0.0030611621716474,0.0051823389483983,0.0048592586363472,-0.5873512328044057,9.603550384793564
6.46,0.0034671517991734,0.0006665782416313,-0.0070822834269706,-0.6159884801626727,-0.0783137418232306,9.766046468746586
6.47,0.0056858686959516,0.002113377450721,-0.0024828465422247,-0.6219459658877845,-0.5725774794042784,9.918535114967233
6.48,-0.0004738796904664,-0.0028334011249889,0.0040127209620918,-0.2912065490850279,0.0259785041367095,9.921540125148429
6.49,0.0025332678546676,0.0044394650274276,-0.002645059185997,-0.1704705693901992,-0.6439988636730587,9.624605602517995
6.5,-0.0040579706811022,-0.00425125402782,0.0034811043413724,-0.8186447560458566,0.0305571690731515,10.000304756874929
6.51,-0.002352575659156,0.00330805019945,-0.0030325692379478,0.041179838964327,-0.6952215315029775,9.738441357131872
6.5200000000000005,-0.0055819981307174,-0.0091600300245952,-0.0016621690475945,-1.361670354107316,0.0955540183339643,10.148230716496698
6.53,-0.0091061116200138,-0.005107776157223,0.0023026617244254,0.0663761422388929,-0.2676833547822099,9.633818618554878
6.54,-0.0047076218507862,-0.0080655998132797,-0.0002865638699945,-0.7312667078163119,-1.0672935604245934,9.60476575904046
6.55,-0.0068009007143496,-0.0059369512083702,0.0043617380550499,0.0470558419109649,-0.3445469240253911,10.001464581919713
6.5600000000000005,0.0002577997810239,-0.0007189295322715,0.0005355356450677,0.0528001349357062,-1.1457083969589286,9.71396370190882
6.57,0.0053774482465309,0.0061270081251669,0.0029555797344441,0.2400365720077262,-1.0870460005297786,9.646474650712271
6.58,0.0084250737979534,0.0050676344553797,0.0011248528724904,-0.6173108802784613,-0.6568485982921554,9.682962191262003
6.59,0.0104017686032451,-0.0033154653426343,-0.0020900500705097,-1.130346309611608,-0.7719804873465284,10.028751551448636
6.6000000000000005,0.0065844299179969,-0.0034198044389852,0.001327259535938,-0.1624884946612412,0.183607041122603,9.747198249345296
6.61,0.0035528468864838,-0.0006142255210581,-0.004148987051994,-0.135954856066494,-0.3739731504013915,9.835762382405498
6.62,0.0041905877635798,-0.0023875251079339,0.0005708851138847,-0.7210382919252207,-0.2220881471731707,9.842724772290088
6.63,-0.0047243378235331,-0.0053845389306389,0.0001696801162693,-0.3436550248848863,-0.0099853173513876,10.023555144600376
6.640000000000001,-0.0002075045206866,0.0018034518853974,0.0006431598856947,-0.0444999649560347,-0.8860548864741232,9.39035357524426
6.65,8.643744102159644e-05,-0.0019344974209748,0.0005426171236108,-0.3665244704622083,-0.3826469612087584,10.003616247759302
6.66,-0.0018216598511024,0.0048406784122526,-0.0011412412160639,-0.0881501672863623,-0.4031434520291051,9.735143133571995
6.67,0.0018619363534563,-0.0068053027025544,-0.0005828271852437,-1.227131656564773,-0.6379843847050988,10.014128151284456
6.68,-0.0042650563762924,-0.0014182210001407,-0.0016095034544919,0.1207962637213135,0.0865929451986049,9.60494743395601
6.69,-0.0101268683549002,-0.0039852525070756,-0.005075407610238,-0.5451396253738484,-0.1218442259981433,10.00194799951987
6.7,-0.0103536844571182,0.0012565481548303,-0.0014199431053925,0.009902315165617,-0.3240105359920113,9.514101522451371
6.71,-0.0121779637115537,0.0015843991281909,0.0014955013292278,-0.4477687911747041,-0.6767255902584145,10.0069184051827
6.72,-0.0026773122856813,-0.0065900334811384,-0.002808627835438,-0.8633768869234755,-1.393726540521077,9.878782259796028
6.73,0.0085894174874628,0.000612832169726,-0.0015528939431165,0.2672492506254826,-1.6501741685264733,9.58610135279161
6.74,0.009382147730186,0.0039060407229165,-0.0003226467989948,-0.051592601845398,-0.1796377284500756,9.630795630346572
6.75,0.0073786804986672,0.0039269189182882,0.0009462733113109,-0.496080206404892,-0.2099811088990579,9.828661130289078
6.76,-0.0015262368774698,-0.0004685961552993,-0.0013826105743278,-0.6802975526042899,0.2326325918871824,10.14121170430808
6.7700000000000005,0.0001840403596965,-0.002140137930377,0.0016728672897811,-0.4512299649053697,-0.4447414058336293,9.617423291885595
6.78,-0.0076200722205863,-0.0037584031499059,-0.0026171844685081,-0.5408987942850639,-0.2257283488663051,9.953503596596311
6.79,-0.0025618273120752,0.0011150254950097,-0.001274226861969,0.0053078771238338,-0.6675365666665126,9.65908543653086
6.8,-0.0034890885095904,-0.0003311198746831,0.0018211266259099,-0.3833419673288171,-0.5941085381508061,10.015190620844256
6.8100000000000005,-0.0053070396656334,-0.0082488572812352,0.001641942723691,-0.542198302685953,-0.226384059050736,9.904344165196925
6.82,-0.0102158379008243,-0.0038720584004613,0.0019579005428026,-0.2244368886784176,-0.1016913176999338,9.720676136790823
6.83,-0.0065803000208983,-0.0065304228951462,0.0011083025718476,-0.3234033063445294,-1.0329821460697697,9.877886921504532
6.84,-0.0046119292874458,0.0011972965835815,0.0013156071189227,0.558774713180184,-0.4542397812000108,9.547836314836164
6.8500000000000005,-0.0033162244319046,0.0112016299826792,-0.0011143954936046,0.2022276475556949,-0.7828949851144431,9.66756933487149
6.86,-0.0019300697456228,0.00549448845804,-0.0011233062715832,-1.221561025297406,-0.7665444387938193,9.940828961015132
6.87,0.006138200353356,-0.0045265233632849,0.0016722797416518,-0.95023283386087,-1.20274299504617,9.838841820784229
6.88,0.0045810162927432,-0.0039461852417405,-0.0025608846218888,-0.3158440971147547,-0.3532236729956484,9.935459902427516
6.890000000000001,0.0084400305279556,-0.0014837107149818,0.0039315035799886,0.0745976715399268,-0.3934025250984728,9.613102541178108
6.9,-0.0006515907988818,-1.2610734818225332e-05,-0.0028008100809161,-0.3183555127406335,0.0182883934873793,9.872716216041145
6.91,-0.0015169325068642,0.0022542534731425,-0.0027654126053307,-0.1363287775847038,-0.152014620084733,9.701246770564511
6.92,-0.0066979836427403,0.0002526369400205,0.0035404563648994,-0.7288676522120247,-0.1475499079278528,9.908022529704745
6.93,0.0016786420001838,-0.0020011916956398,-0.0042901960434023,-0.456520982774618,-1.256808970458314,9.96884047232318
6.94,0.0031657638752433,-0.0005375296312683,-0.0025948271387819,-0.2324650791875093,-0.7024841741365807,9.468370303583006
6.95,-0.000706710477496,0.0022877161806003,0.0064114523819084,0.0849614531690298,0.0420280607631953,9.924102638906591
6.96,-0.002272755133689,-0.0030573013169249,-0.0024901716271047,-1.0853473570160594,-0.132103600456183,9.914301352778274
6.97,-0.007163702147725,-0.0020507559326282,-0.000653639715128,-0.2441008963708797,-0.2461029489360414,9.800893377667496
6.98,-0.0131398265753306,-0.0052995436180247,0.0024101625429834,-0.548420303556678,-0.1322305313694546,9.93047449533296
6.99,-0.0038310813452456,-0.0035736517586254,-0.0019387813983116,-0.2826185525519498,-1.572889692696546,9.80197959838404
7.0,0.003641125835931,-0.0042292562474602,-0.0003138229250539,-0.235318344626035,-1.1092980118115034,9.64782031247976
7.01,0.012063663854666,0.0024970573660002,-0.0027035141130541,0.1550460889428005,-1.002648334557151,9.666605081454774
7.0200000000000005,0.0043183985450963,0.0017252218559794,0.002631721855178,-0.7238441191240007,0.3377773925393246,9.774802932560728
7.03,0.0018351365517333,-0.0054653158533086,-0.0010934736812119,-0.3061196660695416,-0.1264346932064251,9.987417460509889
7.04,-0.0074856066108307,0.0105087288931715,-0.0022639275295291,0.32389457881708,0.3110064971868865,9.42967129816367
7.05,-0.0070381999980113,0.0021934362635262,-0.0006901009939242,-0.9372803569543507,-0.7710693102977215,10.304497887323526
7.0600000000000005,-0.0042777150250766,-0.0089216736427019,-0.0008997780270506,-1.360060877614924,-0.8279296892507254,9.80190558683249
7.07,-0.000498806876445,-0.0053714580024622,-1.9508285876794625e-05,0.4930126769848576,-0.6543041872867363,9.699052280534668
7.08,-0.0030767497998715,0.0076294171546487,0.00022611362223,0.3902110560492841,-0.1725512402388273,9.614997405320704
7.09,-0.003198478920106,-0.0040761782370449,0.0023844268406178,-1.6632642420255133,-0.2680039482317056,10.079672071048394
7.1000000000000005,-0.0147767208133025,-0.0144932065576076,-0.0006085221422467,-0.9417144673943488,0.3092857750763743,9.983424649255005
7.11,-0.013123803288424,-0.0038512112434258,0.0023590846220399,0.4198126557624886,-0.4733955612034435,9.497108905487028
7.12,-0.0133458162443157,-0.0117142032531369,-0.0008668228285018,-1.111649844300061,-0.4910473083296283,9.527382382935569
7.13,-0.0196292666244831,-0.0168129856428113,0.0016323837452005,-1.2837262386963224,0.1096237310441254,9.3841957229072
7.140000000000001,-0.0175102764278252,-0.0260780908478956,0.0033564184094216,-0.8462537294966505,-0.9389140332166344,10.116545275325675
7.15,-0.012452130784346,-0.0192445054849675,0.0063925884431596,0.4564749802090672,-0.9610589907102208,9.768188617760202
7.16,0.0077539594200476,-0.0182449155010186,0.0083048959030206,-0.2913847259559569,-2.8096149230292564,10.009065306186798
7.17,0.0164743624971048,-0.0135089457053558,0.0031433199299867,0.8295028770758481,-1.3201220227591013,9.991656963300972
7.18,0.0262101206669771,0.0065890753063345,-0.0018020800081644,0.855561675636872,-1.0172423134808626,9.274462656781417
7.19,0.0191277310474321,0.007272879181669,0.0007251918549086,-0.1295547511502459,0.3203218537105674,10.05807331897802
7.2,0.0109552958851554,0.0021619685206194,-0.0031234644585852,-1.3143316677602268,0.3068304592539093,9.746506053986495
7.21,0.0031616728620606,-0.0085424011884432,-0.0032106420723353,-1.030937492134146,0.245264269259589,10.139371122952696
7.22,-0.0044032676159458,-0.0031068770801265,0.0017760524759437,0.3458511462517992,-0.0364021103086669,9.88924043830566
7.23,-0.0013981022717442,0.0013791509667285,-0.0012935677542914,-0.0208744414425105,-0.361972191682761,9.630981420867034
7.24,-0.008538760443037,-0.0021904024375532,-0.0021640802034739,-0.9504568268039386,-0.1016807506621394,10.064817869404818
7.25,-0.0102399977947951,-0.0079121735118321,-0.0017172183608268,-0.7755978812301896,0.0345943299484625,9.61843380031484
7.26,-0.0135924626472101,-0.0055517392889307,-0.0004516205400791,0.1614885079193437,-0.7085035976307485,9.943662707253084
7.2700000000000005,-0.0111724737703019,-0.0035409585342359,-0.0025486677651856,-0.4155258065577621,-0.5244460794066769,9.604806517500975
7.28,-0.0082868903596538,-0.0051535266018078,0.0032844434725488,-0.0095442839587306,-0.8083817634547946,10.042260148967117
7.29,-0.0057414281328994,0.0019520578899225,-0.0004323014756296,0.0551106265522367,-0.8731072285106612,9.500636195790078
7.3,0.0024199304815917,0.0007815788995397,-0.0035932421916727,-0.667136687405995,-1.239598804570688,9.714788712157944
7.3100000000000005,0.0011317540963024,-0.0015921623766118,0.00223799103409,-0.2665851725167299,-0.341630719185992,10.054129791074429
7.32,0.0048313185516479,0.0018433577603588,-0.0021209597354386,-0.1906775872361406,-0.7422218166597648,9.479663590371436
7.33,-0.0001173132816306,-0.0003329623966531,-0.002351559395865,-0.2806396341370959,0.0158843532560712,9.896442945447264
7.34,-0.0029381113154251,0.0041410975965622,0.0020945486147324,-0.3043871693211253,-0.1821956568907931,9.78348534864766
7.3500000000000005,-0.0026386196834657,-0.0002253437042133,0.0004613801798682,-0.3446892723168229,-0.6791939888712365,10.112128074741772
7.36,0.0064529240282317,0.0051346462632502,-0.0018706341972206,-0.1644164565857753,-1.46343684000317,9.333504961140283
7.37,0.0081874331512391,0.0025060869626445,0.0007411518134544,-0.4039383148227917,-0.6433316454471891,9.915490555582608
7.38,0.0001836956136717,-0.0040333505426198,0.0021161174634839,-1.1373002828893486,0.7901040962611249,9.880220275586224
7.390000000000001,-0.0150650760152712,-0.014829952145347,0.000287974628773,-0.9962648662726086,0.5714336798696973,10.056392221642769
7.4,-0.0247641968956656,-0.0036884068993414,-0.0017844675341252,0.1683846701472186,-0.0312515629036196,9.594470670093049
7.41,-0.021153300980988,-0.0071860344273481,-7.813352854965525e-05,-0.4824675351552621,-1.3187785199053177,10.027754667437216
7.42,-0.0113997509486133,-0.001079980124788,0.0007626323029767,0.3368096633462044,-1.5414763122740986,9.533908755812227
7.43,0.0032435972334174,0.0006269882899154,-0.0035183568717543,-0.2021138301327634,-6.143764934930245,8.168920628809726
7.44,0.004916242112225,0.0044830390865657,0.0028903680621083,2.1195803522782657,0.1001732970186938,8.658408211524808
7.45,0.0135444134121091,0.0039954442995257,0.0010294413194428,-0.6161838260413685,-1.504726536911435,9.670275776919436
7.46,0.0089489096930103,-0.0045872700344786,-0.0010111598996077,-0.8189179550331531,0.017246917964147,10.042510199754911
7.47,0.0063695152612656,0.0031978624934662,0.0015639994060988,0.1185921720868305,-0.2594560538215267,9.757515484364426
7.48,0.0052482082624241,0.0020474612356391,0.0005486455600844,-0.2565626871122328,-0.3114885887378721,9.98080628472032
7.49,0.0033110236666471,0.0058629247287067,0.0015152490930999,-0.3625341730400176,-0.5522259071766195,9.57218799473459
7.5,0.0047423061336217,-0.0025942380817092,-0.0002192149287652,-0.8261100818006998,-0.5996551017223526,9.945673481353458
7.51,0.0074729450181483,0.0013799209618926,-0.0010402109939236,-0.0213896896409344,-0.6473136298600208,9.770802500970674
7.5200000000000005,0.000863155502009,0.0008363749529413,0.0009401082178014,-0.5308718243199249,0.1791462351621209,9.895155844129423
7.53,-0.0026784911726272,-0.0024415259352903,-0.0014947230694447,-0.7282319144373559,0.2491901341449374,9.726291886667935
7.54,-0.0155341058056376,-0.0060899543601435,0.0007826013723756,-0.6817414738738222,0.4039366211236956,10.177179208207049
7.55,-0.0192686440052081,-0.0089474612320373,0.002518069068938,-0.2111133984404977,-0.2958490914832783,9.925083960586608
7.5600000000000005,-0.0063948087410277,-0.0008255179621179,-0.0020099959103022,0.2121156484231982,-1.9686625550852552,9.379381459813931
7.57,-0.0019039976384156,0.0013839806273149,-0.0004963721031886,-0.2108085087132149,-0.9034454466642704,9.837649473764008
7.58,0.0035464872470919,-0.0032953327400226,-0.0023545526666198,-0.6469029729240308,-0.5490134394341674,9.739239974525416
7.59,-0.0012233760337377,0.002346241681308,-8.803610686255889e-05,-0.1965256717985918,-0.3841984842765472,9.675439742343515
7.6000000000000005,0.0037193632690184,-0.0057398563664383,0.0003965896001686,-0.3940422481389967,-0.5296092717960571,10.054060425576363
7.61,0.0032043789157207,0.0104007108028361,-0.0003820822340999,0.524345760787659,-0.9283864467296444,9.394994279525337
7.62,0.0064965622002519,-0.0017549845886108,0.0027103201253707,-1.0908676105041788,-0.5237464147563418,9.947468482992988
7.63,0.0068048617654691,0.0067954523927244,0.000860069657247,0.290090192678891,-0.2720455908734426,9.69314685352836
7.640000000000001,-0.0012058729820204,0.0034399685657652,-0.000989219103903,-0.6831204827460553,-0.2855668368415591,9.996174426918056
7.65,0.0030648179529921,0.0001148068491816,0.0003232457064227,-0.4091796226687583,-0.7200076451275002,9.760120154201765
7.66,0.0065237472873554,0.0004332907461318,-0.0012779379495982,-0.4802118793250046,-0.7205390770042571,9.662744475791229
7.67,0.0001777264279244,0.000339046762832,0.0014214035589616,-0.40446237249701,0.0220905159392571,10.07487980293165
7.68,-0.0053606758065468,-0.0067159116416119,6.579245095098121e-05,-1.100019990428183,0.415629428337708,10.01714873868841
7.69,-0.0165805073965572,-0.0098969407232782,0.0008733339317045,-0.4690620918641109,0.1871677668902395,9.759837123044422
7.7,-0.012561288390407,-0.0020165737204825,1.303222998545598e-06,0.4613004457440551,-1.0111562658986657,9.823104530245397
7.71,-0.0050917187894986,-0.0012401455135878,-0.0028045619139079,-0.2923180098651428,-1.401988949009231,9.640206144918263
7.72,-0.0023260401212249,0.0023194115428666,0.0025915546110268,-0.2556264677937515,-0.486640314921596,9.655088241325554
7.73,0.004955766747142,-0.0013969184158214,0.0014523133403058,-0.5031490584674597,-1.196955237179697,9.93340907721588
7.74,-0.0003974702814963,-0.0006157396820838,-0.0003946761018228,-0.1324650076737474,-0.1921207329634551,9.657636479554968
7.75,0.0081549779458104,0.0061952684017949,-0.000175378099047,-0.1026135997494362,-1.0088264851518678,9.588036323889582
7.76,0.009334459903384,0.0005417171908118,-0.0006361570441727,-0.5985013646127503,-0.8856245820273755,10.051479477821498
7.7700000000000005,0.0094979998567509,0.0031080498551332,0.0027409475995595,-0.0857571380118945,0.0568892904386273,9.649882979733308
7.78,0.0014078086075219,0.0021282991574965,-0.0022945617558066,-0.5148882644647734,-0.3100376841401362,9.886778342754248
7.79,0.0040136322948832,-0.0002860311706782,0.0006886417512218,-0.5099961913387031,-0.3610241925289388,9.973785729544272
7.8,0.0018536991153774,-0.0001660451853256,0.0034941419260944,-0.4843373532948632,-0.6541624312085538,9.75618321785283
7.8100000000000005,0.0001465372876522,-0.0074951993528299,-0.003649101057053,-0.6415874951290681,-0.2207249982858244,9.865083373653343
7.82,0.0017322585011975,0.003603894257768,0.0002203877637298,0.4260629268065937,-0.2698661141228574,9.636293863491147
7.83,-0.0151026960634565,-0.0042240237570621,4.874162263193829e-05,-1.296832058821255,0.6993663217530832,10.193783426531324
7.84,-0.0120564917837744,-0.010520207969557,-0.0001060624955785,-0.6352778456368701,-0.401182080842374,9.844918836131676
7.8500000000000005,-0.0192269436931852,-0.0066202312937311,-0.0009471190161634,-0.0002604637863033,-0.4780995275439927,9.624376829319614
7.86,-0.0069793088745301,-0.0023208225754032,-0.0006819336441908,0.2766408840306524,-1.2397747516042403,9.778544678389368
7.87,-0.004579897407544,0.0013836068183109,-0.0019402347271893,-0.4623673187349553,-1.2558893074014803,9.734855452810605
7.88,0.0047408394772633,-0.0063459798078405,0.0019641104853148,-0.6137070976835398,-0.6968292641790673,9.734532694095856
7.890000000000001,0.0038206051400641,0.0050940466524184,-0.0019220043206219,0.4053215266137637,-0.5904042288766329,9.831774275931624
7.9,0.0036108916096997,0.0047215338298835,0.0042559474939848,-0.4204205383184198,-0.2804219803295444,9.66301854363387
7.91,0.0047192142253845,-0.0033847315893908,0.0016871044179792,-0.7893445144866398,-0.5662787960158995,9.962812916718857
7.92,0.0064846195035231,0.0003062340287378,-0.0041825682157282,-0.1577711849911189,-0.7606499308641727,9.690226130859006
7.930000000000001,0.0045089882326308,0.0046667721173695,0.0015409800224374,0.1114832000476375,-0.4919452829389691,9.865892995118667
7.94,0.0048216300079644,0.0021924179012777,-0.0004237173008364,-0.580820814762823,-0.5568646256265405,9.710998597894108
7.95,0.0100072996264324,0.0022433868811122,-0.0023883315035705,-0.1802762027656712,-0.8664565797047817,9.62314418412271
7.96,0.0079199930571724,0.0030726926628179,0.0019186185207586,-0.5576085935644317,-0.3807579817901479,10.004211191505725
7.97,0.001601164108702,-0.0080983600390408,0.0003524569372898,-1.3062111432539412,0.6688994928015873,10.111554931603504
7.98,-0.016481403783363,-0.0097896837646694,-0.0005089275538553,-0.5665077332828682,1.1545725358720609,9.874869266489425
7.99,-0.0251471871998445,-0.0034399988064495,0.0006744621176408,0.3606396866869061,0.0971063416023984,9.648096264890835
8.0,-0.0208921789594979,-0.0014426834682875,0.0007024279592228,-0.0924755812077001,-1.170703993725834,9.970302113338
8.01,-0.010106327291941,-0.0035635335254662,0.0018990141805629,-0.5342816916136102,-1.825063842374004,9.622719006757409
8.02,0.0060386903075119,0.0028782251887253,-0.0007034874753658,0.1884984327686994,-1.9161679555602185,9.640430245701983
8.03,0.0111635617301218,0.0040051595924171,0.000517285542483,-0.1310501270436155,-0.8714546740527294,9.64922725545042
8.040000000000001,0.0106152210555635,0.0072747937439146,0.0013208288699756,-0.1532422182179376,-0.3744018722780653,9.764666170279266
8.05,0.0107574647355854,0.0023653127337683,-0.0034033334115151,-1.043411592015183,-0.4065599112857517,9.81200556629324
8.06,0.0048779066817284,-0.0025871692163704,0.0004118899822428,-0.4263108296331958,0.0196725432475573,9.97778205310642
8.07,0.0002999018055932,0.0052195539816037,0.0003568129876298,0.3320735593819363,-0.1124876771678525,9.838501026254413
8.08,0.000330061617763,0.0011038579964932,0.000968397373836,-0.7620445727317122,-0.2564058816552635,9.78457676423831
8.09,-0.0020857952826899,0.0002816497489428,-0.0028671654173736,-0.5625632084799614,-0.8892453212514609,9.860017937203128
8.1,0.0017107404163531,-0.0053483381099119,-0.0002076880074669,-0.6118955255309446,-0.2694648534471485,9.72356387205975
8.11,0.0008389254640952,0.0062518333536588,-0.0009836218552295,0.5247652973381807,-0.6613777124778479,9.870992373187464
8.120000000000001,-0.0014129873344151,-0.0013533582524026,0.0002475780027821,-1.1498337894208026,-0.1241493298010696,9.84820382400574
8.13,-0.0057495999908373,-0.0084135265313496,-0.0018754693911973,-0.7785344369733418,-0.1043619197893555,9.97937195996187
8.14,-0.0125679666294601,-0.0066828273715518,-0.0011271035065506,-0.2653813980682447,0.0831297020773347,9.567728113416416
8.15,-0.0158715811690275,-0.0027865682861613,0.0029551501619066,0.2489839351150721,-0.2354261371558211,10.09845492213839
8.16,-0.0083681246623217,-0.0007073645572171,-0.002119431900755,-0.4564582007503812,-1.3550776899674817,9.650495174775592
8.17,-0.0070959100284913,-0.0016063468827813,-0.0015160417416696,-0.3077883848816125,-0.7006024524692874,9.75864662242913
8.18,0.0038925270411181,-0.0001891385540236,0.0013010301161925,-0.2636851077370848,-1.5451592424003422,9.556175239552267
8.19,0.000511501432938,-0.0039476428501832,-4.412296690089898e-05,-0.3449761747535336,-0.4272407139450349,10.093241021252023
8.2,0.0120539490583215,0.0039652040257372,0.0014493073802809,0.1766569946982098,-0.9749281152517828,9.515297805662872
8.21,0.0062386711677308,0.0043475081527883,-0.0018025405471776,-0.7394230909756095,-0.3055356043394268,9.695577307215272
8.22,0.0025022759225803,0.0006959412133468,0.0019574872684101,-0.2612132883375712,0.2236992182262914,9.946534547230806
8.23,0.0021837724874508,0.0013836208081953,0.0005392583669531,-0.2050274133774723,-0.4784232403327177,9.969970502714656
8.24,0.0012889103100596,0.0037338987278012,-0.0034300507278744,-0.3697384197826009,-0.8263371326718553,9.495579482650449
8.25,0.0032048400816828,0.0048999406300735,0.0009479313856358,-0.4029417785208704,-0.5833515645326316,9.788471008672854
8.26,0.0057332428290538,-0.0031820440025073,3.260584784628553e-05,-0.7049949239345036,-0.6440894613548013,10.189228430134914
8.27,-0.0024076472305963,-0.0032200882461828,-8.435668420089679e-05,-0.6978468858777336,0.7605168186740371,9.697619711688477
8.28,-0.0175564757221423,-0.0148069429817133,-0.0009016626746956,-1.0967933179572114,0.6814641400846053,10.12502190039682
8.290000000000001,-0.0228483102936486,-0.0056449147340669,0.0017657159595187,0.6842655764105984,-0.2239107092649601,9.867215269418192
8.3,-0.0123184202478351,0.0005516642328773,0.0006815535860737,0.1632898623212645,-1.6947631182018337,9.65296405011393
8.31,-0.0013690484446027,0.0002615494023677,-0.0007619796553258,-0.5951671706461386,-1.6444826234757526,9.425403363501372
8.32,0.006443295510596,0.0028681321226566,0.0009508099581948,-0.1092183846373469,-1.354860626153182,9.706240087126591
8.33,0.0115149114558521,-0.0029774583017106,0.0048322738847132,-0.4045488016481658,-0.6060350744467129,10.099054666031304
8.34,0.0145560985124598,0.007643760677838,-0.0005343097028885,0.1522872126453131,-0.746319970640736,9.351048116415653
8.35,0.0050488878578694,-4.030234367475783e-06,0.0003235527081783,-1.0837326081970704,0.5175909973202226,10.144887920136789
8.36,0.0011410302998252,-0.0004507088481869,0.0034751843894268,-0.159315193509898,-0.1296980835047116,9.760960902596802
8.370000000000001,-0.005250404024379,0.0015583048559148,-0.0032825511181358,-0.1432737018261265,-0.3250394985424681,9.9546724717582
8.38,0.0011075561463252,0.0048045438843758,-0.001181473885626,-0.2599416098987084,-0.9155643290201788,9.47579196815236
8.39,0.003530061549193,-0.0010284989338847,-0.0010041905799512,-0.8578042416746559,-0.7839159424322208,10.133570395227505
8.4,0.0064317238965026,-0.0008429852813763,-0.001580427796543,-0.2495326220867345,-0.6742171648475698,9.693654724593172
8.41,0.0030692477536222,0.0013564550813979,-0.0007806036620963,-0.0861997875894046,-0.3470929042909491,9.777320003667882
8.42,0.0045318054608919,0.0021003987365397,-0.0011527725029368,-0.4185704908531384,-0.2615604827011509,9.774869725958933
8.43,-0.0066556021892471,-0.0047448451216101,0.0010143371299277,-0.9755329387992276,0.3787941657953741,10.039560428600227
8.44,-0.010571222874601,-0.0092383572479281,0.0017628796166177,-0.5191483470462993,0.0708263515249687,9.81493742749414
8.45,-0.0112194331474836,-0.0024012601087377,-0.0015160431386534,0.3155994305250055,-0.833789881515978,9.85393345905259
8.46,-0.0027898753899896,0.0010304910680719,0.0043487018673117,-0.2774128072299209,-1.4480008652066318,9.71242081989922
8.47,0.0025578665778538,-0.0069416599849425,-0.0001241479650702,-0.7320436568933901,-0.9813671571123672,9.725033038111834
8.48,0.0072404424851696,0.0028518221230632,-0.0017421242547784,0.1928484754807558,-0.6629278834467308,9.669821912690448
8.49,0.0022310857427736,-0.0007997696147149,0.0016691478202487,-0.3850672232044545,-0.1713789741223542,9.975757415448465
8.5,0.0034920688485315,-0.0002908691456542,-0.0027911690296237,-0.5459362125243694,-0.4058634944359057,9.514295737740635
8.51,0.0008635213942435,0.0004858307247612,-0.000460979808085,-0.1096876195572592,-0.5062822104526162,9.981241977899108
8.52,0.0031463646341136,0.0026304936250727,8.400859664151175e-05,-0.1510297863545576,-0.879103150065245,9.910105275667028
8.53,0.0096325060846642,0.0048760469106817,0.0002721897734231,-0.3166803198294023,-0.9130746569669396,9.54832093982377
8.540000000000001,0.0069692814203666,0.0002112577581035,0.0017909927526857,-0.7277971243414675,0.0713919868857145,9.833916187355042
8.55,-0.0010531073431798,-0.0024977595358567,-0.0029368045972291,-0.6021917074119908,0.0016230025336795,9.899316114691151
8.56,-0.0097334121131341,-0.0041336050955442,0.0034118283773209,-0.3251157476550975,0.2641218591332541,10.000964636853652
8.57,-0.0112324841618607,-0.0015519260950411,0.0013752912753629,-0.3260023339146305,-0.3181326941527028,9.934011289309783
8.58,-0.0097054913388404,-0.008591980762266,-0.0034557021455471,-0.7988664369893476,-0.8543203051480516,9.939278145832686
8.59,-0.0025294460370565,-0.0026155092277868,-0.0012730896006901,0.1860643972408626,-1.0000159459839268,9.309200015911175
8.6,-0.0006467173020008,0.0006884704022507,-0.0011684279190008,-0.2022957393217557,-0.7483393122628782,9.82022350644259
8.61,-0.0015422645752236,-0.0007811602192734,0.0010809227940994,-0.3259460341649592,-0.3201397115214515,9.922769692163522
8.620000000000001,-0.0009838124786376,-0.0002100676018704,-0.0034170052269105,-0.3343138816176949,-0.9166083723595726,9.755559445382444
8.63,0.0072404926011352,0.0037953589933811,0.0021958914120118,0.1751440602894855,-1.059762511135362,9.58888087774206
8.64,0.0078704299610533,0.0034128604299838,0.0027135601966078,-0.646748981246605,-0.6503113096785837,9.957639169696543
8.65,0.0108167612973613,-0.0012139888975998,-0.0007351730484147,-0.6756093042164976,-0.5145255841552403,9.783068086009452
8.66,0.0019360503232983,-0.0023371979948369,-0.0003141939406846,-0.114264408894418,0.3838982429752183,9.855568794901991
8.67,-0.0042598945201871,0.0010382711613228,-0.0015386407496039,-0.5399103359609089,0.0716223069094915,9.809555708994974
8.68,-0.007478093684498,-0.0059667958402823,-0.0035183713072542,-0.7884527445802679,-0.521549895766292,9.990878185921884
8.69,-0.0020533784434033,0.0005655316240382,0.0008786393853738,0.2088715560083276,-1.0246689995391536,9.629523632100192
8.700000000000001,0.0047736126002819,-0.0026162137189361,-0.0012574166059125,-0.4176293628713015,-1.1243525305478623,9.881540721471556
8.71,0.0061053785052961,0.0043146884572159,0.0007534589211359,0.135719441765922,-0.4927639967026704,9.68188742043647
8.72,0.0022996234081699,0.0004258581766887,-6.497271820945935e-05,-1.0520754529869685,0.1988052154476582,9.62831713158072
8.73,-0.0070720588499183,-0.0086284904667059,-0.0001898116198931,-0.9134914608030056,0.2683101344641916,10.348471112983706
8.74,-0.0110320260417522,-0.0076122566825717,-0.0028992217732225,0.1489748424993208,-0.2176200148630922,9.775191361964312
8.75,-0.0070512168075677,0.0068236868524509,0.002420843648761,0.4688710691864597,-1.1370083782253877,9.393406383908395
8.76,-0.0033605416345463,-0.0050362118212114,0.000183520093597,-1.2232067769682402,-1.0428427368463804,10.049326540649364
8.77,0.0069789570690917,-0.0024731875694554,-0.0049853547708694,-0.1230644592103812,-1.2020743572885055,9.753207452477405
8.78,0.000676140898507,0.0055179167396218,0.0042254946427788,0.067890440673833,-0.0899063710039898,9.48457969287768
8.790000000000001,0.0002540642074035,0.0011053560600191,-0.0008774240733687,-1.388031396154148,-0.7322780596197924,10.541879344154108
8.8,-0.0004526411443005,0.0001181267606616,-0.0027609802083675,-0.7871982735387848,-0.5633748753321148,9.543403290015563
8.81,-0.000608336313481,-0.0029388161377729,0.0029849222163106,-0.1984300065973839,-0.6347420512401925,10.064342205898924
8.82,0.0061146273881436,0.0059248064462109,0.001526101445816,0.320831592199706,-0.981576797381428,9.534607804196948
8.83,0.0122949311998091,0.0076138042749504,-0.00194595397912,-0.2617078731383114,-1.287801952583922,9.75711021818593
8.84,0.0041801534856989,0.0015505230692642,0.0008760321478261,-0.9578200832685568,0.5703895371416962,9.958994278658713
8.85,-0.0013485315616487,-0.0065683836901589,-0.0010060153901208,-0.9990871646746574,0.1513638989226166,9.852478881866682
8.86,-0.0157032136900334,0.0006515060695391,-0.0003668115124669,0.3447275630463518,0.4319590393645149,10.022079464903506
8.870000000000001,-0.0067233948139253,-0.0002607232645318,0.0010388622293616,-0.5840309331493498,-1.0551300209720549,9.63124048345381
8.88,-0.0066745550878819,-0.007896546702356,-0.0039887371705476,-0.7139167291865429,-0.9337216381776176,9.9249456505686
8.89,-0.0026348868263048,0.000169544527911,3.9342395066783856e-05,0.1004445317674124,-0.7800553020524221,9.596461868065573
8.9,-0.0010408745606917,-0.0020503402059786,0.0038543788949395,-0.0780794365930178,-0.4897312425252528,9.933064063496673
8.91,0.0033780874901776,0.0093788417831739,0.0001015448768525,0.0124485537420704,-0.8787221893507597,9.39535350878695
8.92,0.004845164335261,-0.0051047197884726,-0.0016928428550813,-1.02316824453593,-0.8491480276297622,10.029643360371374
8.93,0.0047731862441747,0.0029277965969049,0.0001674817875395,0.4115177994619677,-0.4006782889814743,9.521744911008502
8.94,0.0061102262513782,0.0030063814184167,0.0012362118694368,-0.3427566122889339,-0.5886079744387885,9.896341701492306
8.950000000000001,0.0053964585117448,0.0004705264550853,0.0025356838712836,-0.4594772226735951,-0.0714238624859673,9.777170638517196
8.96,-0.0024639075867365,0.0018153835905908,-0.0007090553873781,-0.5656571561157913,-0.0239448561152924,9.75352980781409
8.97,-0.0021625148384102,-0.0044140453482543,0.0021538183326269,-0.4648309066998229,-0.4903760242610773,10.111131552780249
8.98,-0.0056739754978311,-0.0011067643491938,0.0001257154916315,-0.3235411822045416,-0.5781431872636622,9.60246552932554
8.99,0.0008180920753085,-0.0021956360883918,-0.0006479841423784,-0.0951560809871454,-0.9328359884149,9.977547150079864
9.0,0.0036671973086984,0.0026915599657216,-0.0025471348082278,-0.1314839004710544,-0.9203400965050434,9.633837562110198
9.01,0.0009473512970956,-0.0002767483169104,0.0018788818968828,-0.6932167078328518,0.0102801325669031,9.706672221645697
9.02,-0.0040978050535706,-0.0029064353952301,0.0009959884453933,-0.5599589110749469,-0.2107977344288534,9.910939110233786
9.03,-0.0019147609677837,-0.0035166045627856,-0.0041654365369681,-0.3074976618341599,-0.5326120808260941,9.998452692822047
9.040000000000001,-0.0039670266065572,0.0030465850187772,-0.0005172836128254,0.1839084701276665,-0.414532964739785,9.638927725953003
9.05,-0.0061456083130204,0.001132137884998,-0.0008908869232614,-0.7139398868731365,-0.2598226743483156,9.57428912027295
9.06,-0.0041260912260864,-0.0053468949144862,0.0016025034245471,-0.6769654497286324,-0.8486304175002725,10.223382268191116
9.07,-0.0004567087457985,-0.0015958728554099,0.0010738404351654,0.1430986564316258,-0.9551780911045296,9.633052656285686
9.08,0.0048447264160652,0.0042703667302654,7.506757978306813e-05,0.0621992274716649,-0.8459080432405712,9.523713303058384
9.09,0.0024162068081393,0.0022780759656686,-0.0010216437978301,-0.6423702959413011,-0.2622939525805909,9.942832416696444
9.1,0.000540177895495,-0.0020145906277392,-0.0002445404999521,-0.5110309161224134,-0.3238668001291667,9.967570518828222
9.11,0.0015072647401708,0.0010896901160119,-0.0008890205528218,-0.2381301302242599,-0.5033515282274678,9.492765391718766
9.120000000000001,-0.0022299447845718,-0.0013067994574716,0.0015223826747755,-0.5335551215191664,-0.1169102471187208,10.056941265313265
9.13,-0.0012174202799418,0.0014014580188304,-0.0034963720710579,-0.2792464785849963,-0.7930986005470508,9.59978179189446
9.14,-0.0015177011612359,0.0008806902764504,0.0025274432963128,-0.0679541359885509,-0.3185680787917553,10.024663128050724
9.15,-5.558524062911713e-06,0.0031248154512855,0.0023534819018463,-0.3216462934987195,-0.9596322058999636,9.714646803925412
9.16,0.003841536078454,3.17103729840678e-05,0.0005083935546649,-0.5149128983628705,-0.4124695475675063,9.74852132682466
9.17,-0.004211402904952,-0.0054459822748725,0.0013979390031095,-0.9470875400781116,0.1143168479970092,9.894169362030716
9.18,-0.0126197442501797,-0.0064031369042903,0.0020430183038483,-0.2004213151210271,0.7678724028546661,9.988645984100677
9.19,-0.0121429720966262,-0.0047191223506586,-0.0015129253035043,-0.0623491184900154,-0.9714494712551072,9.984096019537162
9.200000000000001,-0.0048711812641602,-0.0022455665829293,0.0023143494734908,-0.1932715250305433,-1.1109677226243102,9.511712176082728
9.21,0.0041615297693513,0.0035030091325652,0.002414075611196,0.0679435374206397,-1.7567127235023785,9.699214505805708
9.22,0.0144112847878089,0.001169417630698,-0.001745180389807,-0.4509218544694693,-1.04492519573863,9.780187162322944
9.23,0.0129207770081961,0.0059222000399248,-0.0008025656453896,-0.2015816049041253,-0.3447908413149019,9.592714048271953
9.24,0.0069078037048361,0.0002794888479205,0.0003731931618317,-0.7229140398495517,0.6228626313690853,9.9786974707148
9.25,-0.0047597925344085,-0.0018025957141442,-0.0004457279457342,-0.6155908627627232,0.3721060382197942,10.001615077493408
9.26,-0.0147536318686033,-0.001003997089748,0.0016366833122815,-0.1555844516503061,0.1948196128280027,9.795419841599807
9.27,-0.0106792888964876,-0.0032693018392108,-0.0012614529579509,-0.5082536970133765,-1.3367428445690854,9.84458280236965
9.28,-0.0042464590071788,-0.0006366291583137,0.0018944978481526,0.0232606074629402,-0.8895583701111448,9.849358136354194
9.290000000000001,0.0060010666477087,0.0043161731742604,-0.0007862383965034,-0.1659279463232547,-1.540254151374127,9.623150819476352
9.3,0.0111926463249982,-0.0020826982110551,-0.0007828525732834,-0.671198972383148,-0.5780342847075979,9.675702772203818
9.31,0.0024292633869381,0.0045963064579276,0.001545121730342,-0.0940852601549808,0.165240860934152,9.830073641972872
9.32,0.000163929597352,-0.0008072030961239,-0.0012581812217463,-0.755372569120036,-0.0017255908257178,9.8804809203921
9.33,-0.0114474313113314,-0.0019926229689097,-0.0019358242163066,-0.5964567170828254,0.3459942157132454,9.89054950536988
9.34,-0.0115141161694861,-0.0036347177798773,0.0001443785848464,0.0166823130600787,-0.6218255739982499,10.025761441203787
9.35,-0.010606655885035,0.000204500008303,0.0009765203111241,-0.198454398298627,-0.8061795742575775,9.565091970997909
9.36,-0.0007331672874162,0.0023652240346835,0.0009505335300132,-0.2124563474648101,-1.328840263989277,9.712878660462716
9.370000000000001,0.00343510167084,-0.0015925067982822,-0.0006286186864231,-0.5687382864461216,-0.9250295908349642,9.988272729284065
9.38,0.0061213956263579,-0.0006875690890837,-0.000670343800411,-0.257688680494806,-0.4096658121153325,9.594388855734575
9.39,-0.0001218282529445,0.0047915193355168,-0.0015289994654808,-0.0431474960644715,-0.2674601097649279,9.66550343574249
9.4,0.0033002508354357,0.0012089032320901,0.0015599713195483,-0.479368019243201,-0.5416399355597286,10.02470853307241
9.41,0.0033546267771405,-0.0035196152828838,0.0012873137719366,-0.7919986090018752,-0.6508318352777529,9.780817715223314
9.42,-0.0004384631347858,-0.0008437149260662,-0.0020065819145743,-0.0905803203478232,-0.1190286959887352,9.83184787703225
9.43,3.090687270646022e-05,0.0025984473956977,0.0013315960066761,-0.1642732172594654,-0.5968421006276694,9.68779934299754
9.44,-0.0026210905767236,-0.0003955789469595,0.0021519613918285,-0.4749066179744661,-0.3052922611640753,10.008884453934389
9.450000000000001,0.000465670811213,-0.0011380232079229,0.0004952957723075,-0.4935247398916317,-0.7408127053909493,9.686120853704397
9.46,-0.0054609141929461,-0.0042072529918365,-0.0005198636091877,-0.7770668304519311,0.2680897087670899,9.88527385029967
9.47,-0.0105328624977392,-0.0040233451433807,-0.0026384174590562,-0.1421740818670364,-0.1884940096565477,9.975938672944023
9.48,-0.0142928053460383,-0.0012534941869493,-0.0011588108492646,-0.0075126680631611,-0.4559073505540729,9.7038684108822
9.49,-0.0019092107868474,0.00255112361005,0.0005470742224501,-0.0548081463165062,-1.5704149369631195,9.577359303503926
9.5,0.003640000045934,-0.0009625235181364,0.0015383649850632,-0.5576128070744069,-1.019941428926349,9.90000343650148
9.51,0.0059857996241627,0.0018038489979885,-0.0005656495224316,-0.2306142643683008,-0.9627859061030508,9.613917593492348
9.52,0.0065621100689062,0.0007059795366422,0.0006368809234486,-0.2673680915794927,-0.3841810452217416,9.959542369743914
9.53,0.0093836375767134,0.0047095700117672,0.0010161273065391,-0.118457308171072,-0.5861426424007223,9.598926407204702
9.540000000000001,0.0037949648811324,0.0008888974516065,0.0007378319104104,-0.7316756116309864,0.135732969576311,9.936626372626696
9.55,-0.0019099422228216,-0.0025823320111247,0.0011081107776048,-0.5705461726783908,0.0953002395751456,9.919044224160162
9.56,-0.0084850949537961,-0.0014464586647759,-0.0023165211779628,-0.4106902714181478,-0.3353660643082899,9.753921764525032
9.57,-0.0035777580903458,-0.0021781284696008,0.0001101210480924,-0.1138292479464648,-1.0099271631641324,9.892697934062236
9.58,-0.0044517204103873,-2.121646050581969e-05,0.0011543411063398,-0.3007568641579596,-0.6446560539444881,9.730812842228993
9.59,0.0045761224143867,0.003340547994501,0.0007847227796814,-0.1083253622263445,-1.035221482658384,9.552319924725229
9.6,0.0019573054227748,0.0016149432724816,0.0015287063550572,-0.4308789377973134,-0.3576712295606589,9.963898292778078
9.61,0.002698981890878,-0.0008571549567593,0.0009851621697093,-0.6223711418129054,-0.2979692604005565,9.77161388081316
9.620000000000001,-0.0044941908074482,-0.0016912559630752,-0.001464539836124,-0.4143226800104996,0.0251293002406889,9.90923521492705
9.63,-0.0082496399018697,-0.0028281894720274,-0.0021641994127635,-0.5124288452102074,-0.3091418927112159,9.803831816854933
9.64,-0.0055655770272112,-0.0003948493857703,0.0012094072415861,0.0400129146913809,-0.6708519436909288,9.755729790453428
9.65,0.0008288817601715,-0.0001638545236919,0.0002270906378184,-0.1901601331458689,-1.0945232948628607,9.845427339368277
9.66,0.0042725303789939,0.0010472708211752,0.0027088477043803,-0.4869130185471919,-0.8493497507313189,9.629437670028686
9.67,0.0045150521586288,0.0005987264893568,0.0011308392975847,-0.3394999291610439,-0.7374624850907302,9.862067675469593
9.68,0.0040132685114193,-0.00094952731809,0.0008458569762665,-0.2472663948700162,-0.2577005062431468,9.83349566929108
9.69,0.0034943159359727,0.0048712357081676,-0.0002039800048437,-0.1035823920525271,-0.446712766860073,9.68390772271086
9.700000000000001,-0.0033758459741172,-0.0040150781260433,-0.000258331000768,-1.1434864884895608,0.0860460348925985,9.943827865949808
9.71,-0.0020749736274831,-0.0030222839946108,0.0011941720266263,-0.1219264093469532,-0.6259103477774339,9.86230760118865
9.72,-0.0022687012690497,0.0008721215129016,0.0027792868903274,0.0684645292852305,-0.5462162590402042,9.809315489088664
9.73,0.0031721089474133,0.0028074091266461,0.0001056405424974,-0.3502396735503897,-1.0211709405609457,9.546935192133178
9.74,-7.001581786523662e-05,0.0015646676613619,0.0003276804171405,-0.4487729036302779,-0.3675698194699894,10.00769610647334
9.75,0.0040825565499571,-0.0040959050502213,-0.0012757162795965,-0.6801527208335981,-0.5388659464312301,9.851659361481609
9.76,-0.0037357029952039,-0.0018972729375886,-0.0011017352109406,-0.3312925907443109,0.0998517479977194,9.741715929053438
9.77,-0.0066350994636185,-0.0042654288439597,0.0016553453868623,-0.3723707859341902,-0.0571435542099678,9.903175831149104
9.78,-0.0069092817407731,-0.0030446322665273,0.0007754727383512,-0.2591858709477649,-0.7150708891393885,9.81333355964938
9.790000000000001,-0.0042278321695219,-0.0016595721279414,0.0013956812443579,-0.0887417795676442,-1.0611100498736956,9.721391961251632
9.8,0.004673739874246,0.0042357234050678,0.0013553717988911,-0.0536011639049727,-1.4817547109453986,9.585930299027773
9.81,0.0147994649251883,-0.0006727202787745,0.0006747639098107,-0.617727375634224,-0.9954759179808158,9.789147962010912
9.82,0.0083811732275746,0.0057269306279742,5.8333372035564016e-05,-0.0211048929027673,0.0647389694768545,9.735531868544768
