time,wx,wy,wz,ax,ay,az
0.0,-0.0003624558649174,-0.0007878534142719,-0.0001324078067768,0.1515839090608483,-0.05970317864746,9.79597081945097
0.01,-0.0015202877878396,-0.0012710299271279,-0.0003507016109865,0.0701015056657373,0.0328147696915015,9.879534054621097
0.02,-0.001120552160709,-0.0005423842320268,-0.0018751045455787,0.1979713813545115,-0.0173184009632164,9.774800008301828
0.03,0.0021219615218615,-0.0051903658507623,-0.0083921290235225,-0.0407241043529871,-0.2004451402434761,9.810623010030678
0.04,-0.0004656143271244,-0.0069871174809846,-0.0179214113624398,0.3410151895173861,0.1075677720312545,9.825717234231275
0.05,0.0002749019009438,-0.0065248675258849,-0.0255999704124037,0.6085911456472131,-0.0546509517106487,9.756366612501523
0.06,-0.0071951609256884,-0.0107878590401696,-0.021308840182573,0.0647981477323187,1.0667446474605722,9.548088374866378
0.07,-0.0196309834374616,-0.0156148195973459,-0.0204630092950169,0.2162032082019883,1.4420173986717963,9.587471372705432
0.08,-0.0085502576744284,-0.0032228754636413,-0.0090846483828131,1.4407488495462475,-1.14777793492632,10.542152635565696
0.09,0.0004258591963541,-0.0013938940628101,-0.0197985832811896,0.7086709414649558,-0.7725704513118722,10.431918302920009
0.1,-0.0029573772618663,0.016478457145251,-0.0247391023905579,1.4187832335734183,-0.5085231050542552,8.998545806119722
0.11,0.00042203988185,0.0091860855563479,-0.0338807394029204,-0.9042269258408112,-0.9300459989890926,8.587088617119573
0.12,0.0100231375064096,0.0040704739436474,-0.0534337488235537,-0.350883043790592,-1.364400767423169,10.19006443679722
0.13,0.0094846588245951,0.0058540865616238,-0.0487635721684996,0.2908568463719856,0.0721243939808925,10.715308230276891
0.14,0.0128828830150496,0.0172813607054152,-0.0406296205939356,1.5647070445907565,-0.5953227626457646,9.894993580461277
0.15,0.02018691359674,0.0232059271784635,-0.0359464724780623,-0.3293454701424044,0.6201035195524152,8.635847791041597
0.16,-0.0429257712462689,0.0236764445445641,-0.0473759425105158,0.139706570070426,3.969967948398621,9.870131459087045
0.17,0.0147778456065317,0.0128629022876531,-0.0428775017382208,-1.381259072443931,-5.045999954084065,10.40964315939635
0.18,0.0501543514590214,-0.0088692107597129,-0.0515222725690905,-1.1241865465755567,-2.175932939311489,10.286070090259782
0.19,0.0101262523392396,0.016105595892895,-0.0404191789449755,1.5167739875082404,4.566193174421717,9.699606072537998
0.2,-0.0235390431895854,0.0128859970617142,-0.0329218124271933,-0.4293822600788811,2.7838689389583293,9.59832266551684
0.21,-0.0418937033700488,0.0256264523526307,-0.0517664355458323,0.4852719263940012,-0.6195882196082156,9.020167143685134
0.22,0.0352608263045054,0.0026653716580843,-0.0704601955832545,-2.6466076456740386,-5.70673623041962,10.242583445685955
0.23,0.0597761778344561,-0.0276117405141339,-0.0856675979913775,-2.8817764152042247,-2.4011170919509173,9.531071969394462
0.24,0.0930336684451363,-0.0383618081583825,-0.0893321660579745,0.1153110415757284,0.8408132214395112,9.016678888359674
0.25,-0.0634113409793438,0.0113963860852107,-0.1221118969143931,2.5992935833099446,11.38771121527802,10.454146541259629
0.26,-0.0561936673360362,0.0092685520157569,-0.1145106208743159,-0.2086861592592554,-3.64181778164888,11.454950095750974
0.27,0.0388900284393165,-0.0036941102088023,-0.1058745411457125,-0.878221103054516,-7.402752655095925,9.20893262057782
0.28,0.0929243991818429,-0.0302972608946514,-0.0989081663312022,-2.566495984477072,-0.2372169435630472,8.831097080669288
0.29,-0.0869211917092988,-0.0061503305135708,-0.1122879860223834,3.130933195750068,13.31334929335858,10.109509637698704
0.3,-0.0825631700725898,0.0590940171979218,-0.1210709390462939,3.531034369675881,-4.463552703515655,9.187814619321962
0.31,0.0407743679081167,-0.011449870434304,-0.1338396621169154,-5.89611416766655,-10.950714292645582,11.017927250014097
0.32,0.096232068791474,-0.0300164248335928,-0.1104364496888224,0.2742557203970335,-0.0942620040777879,10.02669064191932
0.33,-0.056532392684377,0.0049072112721401,-0.0945766222895686,2.1635117069567573,13.012304616962837,9.810959577249776
0.34,-0.0905722213571555,0.0300812451108563,-0.0927210551919047,2.615813068241156,-1.5296501565246976,9.682835678872337
0.35000000000000003,0.0376538353069452,0.0230737126843967,-0.1134629500330988,-2.20901721896603,-11.03777184804042,8.46416840838429
0.36,0.1031967882583117,-0.0435581178464586,-0.1100682568968836,-2.8773935143051155,-0.2370241853879389,11.06905900842584
0.37,-0.0735342109665081,0.0159182786376831,-0.0963930961908404,3.86901469782686,14.094914382417254,9.70695609426168
0.38,-0.0831104261606694,0.0295251163227405,-0.0916363922180239,1.5156514122059737,-2.801956967504457,10.242701210544196
0.39,0.0401456649939385,0.0126313198768097,-0.1063899350585047,-2.3548159085771934,-10.122132298852716,8.817407339552872
0.4,0.0758786310181301,-0.0379485103704571,-0.0987200168193881,-2.132775738453752,0.8663265240507281,10.811856472701274
0.41000000000000003,-0.0552001310479312,0.0115617017989045,-0.0950211462797228,3.4836882010594743,10.930314747864648,9.25896508475688
0.42,-0.0758558777497419,0.0267022819485055,-0.0981272784294192,1.1157617402999285,-2.1570348185064385,10.320371803229047
0.43,0.0513372854337154,0.0031746954954877,-0.1136477616848055,-2.5203957679266065,-10.266609432579786,9.146357601435476
0.44,0.0775636758328407,-0.0348223987427516,-0.1090973344863955,-1.088259690193073,2.022198600698896,10.204900328279235
0.45,-0.0571839240757018,0.0247384329566611,-0.1159374666632716,4.111782033875481,10.181018060230956,8.981811756008021
0.46,-0.0692263850027671,0.0310422329358608,-0.1170449954690043,0.2527437608102736,-2.605901052270105,10.957141754903375
0.47000000000000003,0.058684633524304,-0.0090882067880552,-0.1170920160831515,-2.6534775550331915,-9.61185271400968,9.852484632895791
0.48,0.0564220507170264,-0.0140752980301385,-0.1100752082885806,0.1103177738828879,4.035694438785356,9.46594256902662
0.49,-0.0646609841394961,0.0121425863556321,-0.1076770526589457,2.5982563402787795,7.997599120531721,9.653175616914492
0.5,-0.0447850458287603,0.0436399816103415,-0.1131166842998568,1.429877913098666,-4.031623316800728,9.64015107926354
0.51,0.0819843271412125,-0.025767133893848,-0.112447771173865,-4.82163200630062,-8.409354568543778,10.47272397776954
0.52,0.0272180023771795,-0.0196442672894098,-0.1064277691067759,1.279197376762485,7.67805250608209,9.169589689841027
0.53,-0.0895320146594999,0.0295769497354982,-0.1044352081836764,2.6908144900904905,6.448505661251946,10.324012455531811
0.54,-0.0140045521227906,0.0083834632816065,-0.0920113650383059,-0.9730034464968323,-6.90826495649967,10.367338105754298
0.55,0.077954217166378,-0.016769993891261,-0.1079601002158228,-1.8818655293359332,-5.72140367162088,9.115716699286606
0.56,0.0119729952689774,-0.0109616246331374,-0.1031652716220919,0.3336484719109793,7.191215814967412,9.553712721492737
0.5700000000000001,-0.074454522119162,0.0161203284907635,-0.097224268061072,2.154821748991311,4.99609397026252,10.109762585825433
0.58,-0.0205766411648797,0.0181668516526071,-0.1003330451668803,-0.2352786567360791,-6.4690690842433725,10.042065372225252
0.59,0.0748971245692773,-0.0279372963493661,-0.1009793681325022,-3.01510903536005,-4.786098852483962,10.066072118646415
0.6,0.0069463000416626,-0.0055560126434839,-0.0829481956781451,2.136364572628275,6.99753967090117,8.971161511614703
0.61,-0.0907447972980662,0.0293812663311174,-0.0861484063090388,1.712977565417111,5.511389134025966,10.153998390772784
0.62,-0.0035998418584563,-0.00208496367445,-0.0970705923856799,-1.58750991888224,-8.99686476820448,10.315024670451958
0.63,0.0639386236886589,-0.0136445777150564,-0.1119704050244395,-1.2283073256249368,-2.678322596733993,8.862845826789593
0.64,0.0008308519529297,-0.0128349462287258,-0.1037387577117983,0.3824817513675951,6.225123963663862,10.571867913301269
0.65,-0.0843356060726112,0.009489591012939,-0.0904305231989924,1.8178034372174945,4.89641662934618,10.063629167607363
0.66,-0.0183034462887347,0.0145123683910265,-0.1037234393180911,0.5797066319706078,-7.746780353746569,9.593349378518797
0.67,0.0679692266973527,-0.0203222029648927,-0.1106382561148707,-2.6588566577267283,-3.799536634968261,9.17623289640228
0.68,0.0093547744965863,-0.0042413876276293,-0.0986930755199496,1.4079231227697284,6.273392707022701,9.84160179785416
0.6900000000000001,-0.0904333494469732,0.0046087092618544,-0.0898282555164401,0.8150574401729127,5.818331476584467,10.70944270304701
0.7000000000000001,-0.0215671069302495,0.0099252728816792,-0.101072902721316,0.9664369459470892,-7.706371597182032,9.423602629443012
0.71,0.0670932482932364,-0.0123730038992048,-0.1043127802433077,-1.7959369233789078,-5.015284894180351,9.483749722015684
0.72,0.0133885869934922,-0.0092209384722432,-0.098789076250941,0.5579496245239457,6.148763419504332,9.975589039505577
0.73,-0.0899455919919745,0.0166892062676211,-0.0876418081344668,2.0759687948361747,6.664243311798296,10.080524175064587
0.74,-0.031335301133961,0.0241960992808452,-0.1044905361951892,0.5635530408603723,-7.125134362164944,9.28192797224525
0.75,0.070117242285387,-0.0140663796653238,-0.1111799282254283,-2.968002993814919,-5.964735388978962,10.04406073452593
0.76,0.0228927939101171,-0.0150014690255235,-0.0976331633748118,0.3229258865222426,5.683874111571411,10.053034535061476
0.77,-0.0733878561856058,0.0119701111282739,-0.0806307372869555,1.9846291136334688,6.828889380236812,9.884384618994291
0.78,-0.0430123223996936,0.0186201841612237,-0.0907676396192614,0.7804264478016942,-5.212267142764947,9.597933359674103
0.79,0.0620630907615077,-0.0058720038340849,-0.1065550622762744,-2.3902001247911504,-6.542033639419134,9.426349017302297
0.8,0.031323374789284,-0.0231756825867779,-0.1069600683869425,-0.849567620001064,4.299329753642197,10.23666668461567
0.81,-0.0586342515772054,0.0069433003602034,-0.0818605673731867,2.3768044435830173,6.627897875988167,10.115949046783632
0.8200000000000001,-0.0525750656450813,0.0148910575151755,-0.0939514962257449,1.2443293488532143,-4.107817938356092,9.61416856621722
0.8300000000000001,0.0484325138370472,0.0055446001286609,-0.1107528683961932,-1.1533732407570223,-4.991905822203165,9.27379088932074
0.84,0.0367741604649044,-0.0121390159822704,-0.103285307926089,-0.8054916263204803,2.8171270873754177,10.178914454028384
0.85,-0.064569645567229,0.0114247930066841,-0.0808998522581164,1.7515669022919966,6.960604998373415,10.325707125216416
0.86,-0.034314529241997,0.0016720251057189,-0.0959957716287676,0.1174394001901536,-4.904354745990809,9.9635909009116
0.87,0.0529904448481642,0.0009267421367198,-0.1191354793728892,-0.6878955260514371,-5.695708095702184,8.478896356783334
0.88,0.0256699605711242,-0.0086827043455305,-0.1054771718801562,-0.0491830357507985,4.407235453397487,10.712319551406232
0.89,-0.0741965527805106,0.015955999169662,-0.0969615605892245,2.242476719552116,6.004076949765775,10.15358468476183
0.9,-0.0158072688392686,0.0295591652571056,-0.1152326491893832,0.9504279965386676,-6.655870384893846,9.214774808624847
0.91,0.0749489903555543,-0.003532437739824,-0.1245798272313181,-2.8089709585348146,-4.860063794399011,9.669338074208593
0.92,0.0135885101462572,-0.0098704762985423,-0.1145526868523661,-0.2023955607376132,6.497472341602608,10.400337219450844
0.93,-0.0675125366426505,0.0146646208099457,-0.1038069677771632,2.3073220919659136,4.687578376818731,10.206735087488612
0.9400000000000001,0.0023498039751832,0.0168428493230073,-0.110800209385306,-0.0220260100229447,-6.927996394384063,9.076358004670736
0.9500000000000001,0.0611353828389065,-0.0034864984924225,-0.1126147386850421,-1.504554249647165,-2.331883670865881,9.481269086060127
0.96,-0.0080532091597395,0.0017683053038914,-0.0948442322434489,0.1791710833127427,6.695185501050034,10.423827748800374
0.97,-0.0577682437460511,0.0066526229128558,-0.0909988162340228,1.1269717307972846,1.3528587926910962,10.46318656741203
0.98,0.0279164389573877,0.0096377633508953,-0.1027701002778117,-0.1170112959486817,-7.09756269928444,8.812947564090921
0.99,0.0523622147735632,-0.0071784236913254,-0.1067241904558245,-1.2949527316108176,0.2750237465566578,9.574235465884865
1.0,-0.0341225385996535,0.0071532529162637,-0.0962326181353633,1.1394011147993146,6.914416541007298,10.575758583014569
1.01,-0.044266055523233,0.0107904159764145,-0.1031754416646067,0.5658953296935529,-2.352927522828653,10.455435547506712
1.02,0.0520361998092659,0.0082298771696022,-0.1154259023489062,-1.9362209872337757,-28.4997163268398,2.046144606639505
1.03,0.0445685067399377,-0.0035705810451285,-0.1131781143368785,-2.96606913331446,4.242628537828431,11.347739832429257
1.04,-0.0430464517108274,0.0039037106625634,-0.1030554351629321,1.192792445795686,8.129549744322812,11.214243874213482
1.05,-0.0213583318240821,0.0062179022492045,-0.1034673330606524,0.1047541371452191,-3.594344451661143,9.89690889594326
1.06,0.0585242901282264,-0.0078912090420283,-0.1187202361644808,-1.2933775440984108,-4.659990262086609,8.730187487370713
1.07,0.0131196375068702,1.382170202845918e-05,-0.1055864718975131,0.866388120423795,5.63725310384567,10.333863944568307
1.08,-0.0540092026591152,0.0025697659434218,-0.0985795882762972,0.7893163442855791,2.568194279316018,10.991313923396325
1.09,0.0219854402028394,0.014348031674204,-0.1000902679981295,0.6862712847877058,-6.835183099038101,8.759919767494038
1.1,0.0715512588646221,-0.0040909937331291,-0.1073223379673068,-1.3520092437025288,-0.6050496370542755,9.390012958892587
1.11,-0.0303100268575138,0.008798582196911,-0.1025939536513392,0.9001415907981745,7.508871814733835,10.52248447574821
1.12,-0.0420280445686929,0.014312562820451,-0.10239188645497,0.7763729207395061,-1.5053205698523575,10.272575157511891
1.1300000000000001,0.0544486794094715,-0.0016836357736923,-0.1111748767317835,-1.529510278392131,-8.78896880999197,8.458764346998027
1.1400000000000001,0.0511645609233023,-0.0019034959005083,-0.1051030782283846,-0.0319787540126896,2.5537951676751764,9.582298982060642
1.1500000000000001,-0.039640893483001,0.0016914700256072,-0.099855082971007,0.483391745624534,8.503753426345684,11.601799912787143
1.16,-0.0223545241147344,0.0045779090040244,-0.0952646163524691,0.7230859468170419,-3.4637783279458603,10.085297906876068
1.17,0.069309864905762,-0.0018315800319532,-0.0936731797875468,-0.5222353804238726,-5.917829869066613,8.607697136105974
1.18,0.0268088301572714,-0.0030344946368169,-0.1005803969921176,-0.2428592707688386,5.614306188850764,9.854835200593037
1.19,-0.048119512521899,0.0058580790205623,-0.1090675694169108,0.7771011326427699,3.5360673914040297,10.60298594138806
1.2,-0.0065972848626068,0.0093806388422287,-0.1163606670917574,0.1821482505985074,-4.79285296836454,9.5873720703524
1.21,0.0749751281670517,-0.0095906176767072,-0.1079054427565638,-1.209685347365026,-3.935656230637056,9.377167983273225
1.22,-0.000470985943593,-0.0078389093129366,-0.1059903604210917,0.076286600763523,7.105203051729491,10.161193683569332
1.23,-0.0473394984976103,0.0136912485353417,-0.1028094169916216,1.9705135940044265,1.7308581453260292,10.22354529181729
1.24,0.0187149886862807,0.0061272186061722,-0.1134186339797083,-1.171858279090897,-6.585279171100369,9.246276323927368
1.25,0.0660737903800632,-0.0198839871956323,-0.1122695234836642,-1.488972953905825,-0.5086918215396604,9.49309621107739
1.26,-0.023822020160668,-0.0038870413016877,-0.1058162030996386,1.340030418166112,6.9307019742997005,10.537374020007336
1.27,-0.0441086568483146,0.0130575572892223,-0.1026499596656863,1.283922797892964,-0.4852138634719045,9.982366678142371
1.28,0.0429332874204884,-0.0023861727568448,-0.120689439517409,-1.3349895347635228,-7.458304308977282,9.106218002023647
1.29,0.0462194186184591,-0.0109871116003672,-0.1109108430565898,-0.4000449863659043,2.383214388303794,9.35346933239883
1.3,-0.0453403316097774,0.0020740235888382,-0.0976667580427233,1.380643340639086,6.215102429542661,10.925351244311186
1.31,-0.018691754192756,0.0083483818921477,-0.1035833013476435,0.5283429109670383,-4.59640963859101,9.811922604628451
1.32,0.058373091625277,-0.0050286016158269,-0.1060818386496607,-0.9872256285971088,-3.9933074256644696,9.06195965177271
1.33,0.017577137636244,-9.82691858249443e-05,-0.0921930548967425,0.6322436170952844,4.700263639468822,10.015790976205087
1.34,-0.0483508208612276,0.0063628314934825,-0.0811821771086756,0.7129365396860843,3.382278888779597,10.452081574954263
1.35,0.0129138703602171,-0.0004103690355466,-0.0876107541145388,-0.107833855318275,-5.826749911397658,9.391325843848024
1.36,0.0582380231357583,-0.0104032056462153,-0.0977114764274661,-1.1523089269835842,-1.0678070712089285,8.724716813492424
1.37,-0.0162164874788331,-0.0012668112672483,-0.0944044617237155,1.129534381814452,6.457356265045578,11.290020735976285
1.3800000000000001,-0.061290462322268,0.0015279917745494,-0.1020664376439158,0.4456535416879124,0.3683253323732986,10.339499668409426
1.3900000000000001,0.0330874683919403,0.0073294549559455,-0.1078787100733821,0.6536205045827753,-7.758318203015864,8.50682818617943
1.4000000000000001,0.0743545432213068,-0.0137981549703556,-0.1134042692603175,-1.453959506522322,0.0390558706817861,9.402020957915475
1.41,-0.0400791968128115,0.0047156879321705,-0.1210560527862612,1.542315171199689,8.452857494217108,10.467053199305289
1.42,-0.0637412691105791,0.0232006082703662,-0.1287001324118678,1.7302530239064244,-0.9337823804107498,10.194325938560295
1.43,0.0372021449585496,0.0086203869964495,-0.1274888617219035,-1.6953886980740949,-8.988591835513946,9.459499498252288
1.44,0.0691826904816902,-0.0185031926461764,-0.1134240431012217,-1.017542120616036,1.730811217632786,10.020933854941298
1.45,-0.0424560267793046,0.0095392214967781,-0.1084962812484805,2.256309367464509,7.405362238785442,9.687062408284234
1.46,-0.0371100567935912,0.022327236199428,-0.1042931852163378,0.4564460736630834,-2.1866806662628098,9.862595344244006
1.47,0.057174002454667,-0.0063646682889029,-0.0999116552294795,-2.0538599419409134,-6.809616294911301,9.780237205070325
1.48,0.019339013817493,-0.0120818669347226,-0.090172397834212,0.2116689804399203,5.632524799510995,9.82080423774315
1.49,-0.0334313330388123,0.0168681422279314,-0.098188335937411,2.043012851921283,1.8181384130815268,9.847457501472825
1.5,-0.0036456558701085,0.0118380521151592,-0.0851587307871882,-0.978930782416975,-2.936643559428352,9.848341455429775
1.51,0.0299905131495888,-0.0093868398021934,-0.0853684348286692,-0.2000191827670663,-0.8649946802447688,10.039777792196949
1.52,-0.0010063917954282,0.0090402990493034,-0.1043044877471034,0.4362397370254318,1.9618582625087129,9.129235964239792
1.53,-0.0120295279190452,0.0020341303039185,-0.1070993048371379,-0.3012210755647366,0.7319013538958428,10.423248291702354
1.54,-0.02179165910037,-0.0030405983861412,-0.1091578853549067,0.5608864743413428,-0.4227899307456126,10.032857898149723
1.55,0.0475490997753592,0.0092739551686007,-0.1099284094990794,0.4993583931365467,-5.095789557160916,8.801197726013925
1.56,0.0268078396307238,-0.0102048279336685,-0.1316839707316462,-1.6409639295580696,3.330282032768036,10.229805471379898
1.57,-0.031699705665745,0.0053795731972359,-0.1429758769692485,1.5600531515103138,2.785857507119576,10.178588371998153
1.58,-0.0200149371930247,0.0107799480019383,-0.1259427172364298,0.1899552566725031,-2.3212413568673083,9.965003702406106
1.59,0.0300446575875247,-0.0055779869076949,-0.1049520475091044,0.0622805539664803,-1.9632228835743857,9.84019393572532
1.6,0.0045075782170253,0.0158951654113099,-0.1004583490313593,0.9686596615529756,1.359552039550863,9.221770525329116
1.61,0.0071868337454931,0.0154676563436569,-0.1036443514050547,-0.5409176620346434,1.7215300067127273,9.352846808087987
1.62,-0.0276612679586352,0.0013540768937461,-0.1178386909188334,-0.7619964668452388,1.71126916164943,10.504186344751886
1.6300000000000001,-2.542433075433777e-06,0.0088050282103399,-0.103681075316817,0.1124756221951032,-2.9587485945141085,9.899625970274627
1.6400000000000001,0.0469427289961176,-0.0224301192810818,-0.1087588099063937,-2.1524031495241367,-0.8701999440924728,10.086746333174096
1.6500000000000001,-0.0153377456683637,-0.0040164258268162,-0.127306873840243,1.622742780820514,3.993389676048496,9.294662555834348
1.6600000000000001,-0.0347421294667064,0.0200083759320052,-0.1192838427843157,0.9085381038005228,0.4279607016290267,9.76817370332992
1.67,0.0218233924728831,-0.0139310897897509,-0.0829199058236186,-1.3954895632080253,-3.697043234257116,10.90357038299699
1.68,-0.0033028234091121,0.0021682096622176,-0.0810487968148295,1.3579535090939352,3.0779789385233283,8.930346729723345
1.69,-0.0033961201812366,0.0109937231817559,-0.0901223299326006,-0.0740507309734874,-0.3880896776344403,9.875048887594875
1.7,-0.0062461334460779,-0.0076280955586572,-0.0811208588303629,-1.0876672678474095,-0.0961725129815922,10.134923485007937
1.71,-0.0348943370441228,0.0072478462334538,-0.0817358521045748,1.6620123705716443,1.6267546763243692,9.659071021636509
1.72,0.0302093472880295,-0.0049530597098811,-0.1113445488037173,-0.8272831478392036,-4.600061202730895,9.736955036746885
1.73,0.0287208726818791,-0.0009384950816817,-0.1321314526022975,-0.0025468984191041,0.2822048089585708,9.347529032952284
1.74,-0.0414371578511074,-0.0010534467362019,-0.1204867837251727,0.2026792278720199,5.599786093683768,10.417170380848654
1.75,-0.0192636771365885,-0.0009224491815778,-0.1184284788788859,1.4705435378615503,-2.5863591279300286,10.05212628797404
1.76,0.0182815901954544,0.0258115764217852,-0.1090476689161364,0.9875059847798884,-3.934627746668014,9.146239298952135
1.77,0.0478791297773584,-0.0100349602487875,-0.0841797990025584,-1.630747352868748,1.572133358651807,10.6950368235623
1.78,-0.0274975544966436,0.0097803424207707,-0.1070191291393344,1.1765288058795456,4.947494477429238,8.868401692829208
1.79,-0.0363153351174308,0.0132364421952471,-0.1206226078094546,-0.7852467661892906,-1.30153401868838,10.123739381501174
1.8,0.0314745328548753,-0.010799552558395,-0.0836708423914019,-0.4040392824590514,-3.7917955720227536,10.268362381702396
1.81,0.0176193049624127,0.0003152706290753,-0.0875853848876063,0.569482875790466,2.8289266793681858,9.17161019072579
1.82,-0.0259559265905981,0.0040386054690144,-0.111997659248263,-0.1983355751454968,1.9000285402225856,10.55222085012447
1.83,-0.00491022863057,-0.000213316113145,-0.0992739525856082,0.0927564800764299,-1.796272055733179,9.606074657203951
1.84,0.0108466620885769,-0.0021721636054877,-0.0868981954874102,-0.190307115387695,-0.6809215041022253,9.500428524944494
1.85,0.0060619315655813,-0.0155864429379108,-0.0980232608737055,-0.5724183422805901,1.0527346951854069,10.34571969370458
1.86,-0.0071131829567476,0.0051201091062191,-0.1136675727786128,1.1171102842966096,0.233339021118598,9.26155603067813
1.87,-0.0069674030665148,-0.0020625159203727,-0.0883669209899012,-0.5107600634147447,-0.2575997261922174,10.233729256325082
1.8800000000000001,-0.0034147053581244,0.0028975208557629,-0.0729160336078707,1.0209258474894958,0.1376687845945096,9.929874051810822
1.8900000000000001,0.0080565111829087,-0.0026204619665432,-0.0896632996620242,-0.3333124599904163,-1.0767385905864966,9.56141538589698
1.9000000000000001,0.019969400435784,0.0031931502338361,-0.0907894698204104,-0.141053121625127,-0.5743494809758302,8.971154252657556
1.9100000000000001,0.0012044349447041,-0.0077662807983493,-0.0830520865739886,-1.0429215133261651,2.688324725384561,10.706352633022384
1.92,-0.0523154562008809,-0.0066997832644269,-0.0850833607138697,0.5659047057363337,3.21563526396354,10.058052895457925
1.93,-0.0084139972414015,0.0050157612044538,-0.0965705094160143,0.4398421010405533,-4.981791989330149,9.380635378409336
1.94,0.0651699749488442,-0.0197331861174152,-0.106572444480807,-1.860020249092344,-4.126835090313933,9.597524830501564
1.95,0.0144565340602804,-0.0114781565510824,-0.108932907623202,0.3168079736302423,5.641613936207638,9.470541440181078
1.96,-0.0715937866865916,0.0037377412133975,-0.1037557003320757,0.6439707138747199,5.400729760943448,10.624623082018624
1.97,-0.0340227199571786,-0.0095005686225464,-0.102722848695666,-0.1659337143550695,-5.296844386760097,10.63178354797886
1.98,0.0515298342707827,-0.0051570940943789,-0.0920114395441119,0.1270564799827992,-5.567572318602708,8.559667559707579
1.99,0.0202964650166323,-0.0104663484839452,-0.0759755176724497,-0.0494967702090249,4.736649105814007,9.905499249960302
2.0,-0.060065501940762,0.0130416899131131,-0.0695623037637774,1.2966320193699787,5.226958006989601,10.083386530428331
2.0100000000000002,-0.0390679915624491,-0.0055921997475793,-0.0749808130086962,-0.5889906583236462,-4.047402489932786,10.282657286869831
2.02,0.0522528591661286,-0.0072874371515147,-0.0899352607549731,-0.706281023444049,-6.246836395893245,8.298596285651763
2.0300000000000002,0.0372058113597555,-0.0211304993671478,-0.0878373560728137,-0.2723158316142526,3.8255046238199664,10.406646338173667
2.04,-0.0560529098067902,0.0018118381018432,-0.0733584788860385,1.4809012079252497,6.538846936385372,10.689797194927683
2.05,-0.0570525155047177,0.0026700822637622,-0.0849156257928912,0.3242156480362657,-2.05570652640412,9.752711313327035
2.06,0.0235479982310339,-0.0045716518976274,-0.0958593962015215,-0.3210467020271741,-6.826725506846987,9.344779042567849
2.07,0.0578689793260927,-0.0125885634287523,-0.0837940228404109,0.0117634019523078,0.4507434685079153,9.563793370722356
2.08,-0.0270429881632212,0.0115758981606104,-0.0728162256301943,1.344755793309247,6.491931761210177,9.756533806265594
2.09,-0.0611103867762267,0.0020034596679242,-0.0770404887618128,-0.4250710278197024,-0.4271078089491604,10.006378568762244
2.1,0.0213939309469712,-0.0199669618018248,-0.0727121261180941,-2.3376584043788675,-12.026661809344766,8.764169128641765
2.11,0.0579531911417471,-0.0244331898331928,-0.0666165677131716,0.105515660373857,-5.049814578235169,7.8802618056415055
2.12,-0.0188004141276874,0.0121096004645674,-0.0669718486489359,2.1887358889451285,6.332564123612148,9.495720206074688
2.13,-0.05641804413715,-0.0009952370353146,-0.0830391523660723,-0.9940049145343852,0.6903787213145101,10.72736921685442
2.14,0.0032041519761361,-0.0094554171081519,-0.0878582400502268,-0.2725384148858845,-5.760871791723986,9.856165757936624
2.15,0.035322634014076,-0.0147155032476124,-0.0671481740893427,0.3701470800441048,-0.8455648852792057,9.922527367475936
2.16,-0.0093182290867682,0.0160891083144207,-0.0503669110359255,2.279599178175604,4.023477767286061,8.969621799455625
2.17,-0.042290856975392,0.0201642145962866,-0.0634356093825404,-0.0498126621840651,0.5163717037885577,10.012095133547772
2.18,0.0432411482027805,-0.0174770241008998,-0.0863027450861041,-2.485453628730984,-6.9020241434450496,9.681196881708338
2.19,0.0809648616936058,-0.0248233082249403,-0.0965306935133044,-0.2031377536236489,-0.0659777362855409,8.968235498600754
2.2,-0.0319993529537856,-0.0045087070825246,-0.1161794913233821,0.9511884243315794,8.898649759321952,10.496428522234485
2.21,-0.0628333862671149,0.0008158190444591,-0.1168614727677409,1.197993914382962,-0.1909984060386157,11.116521886971176
2.22,0.0057104760498374,0.0184526325472746,-0.0990848493994776,0.8598039319676754,-6.101152318401853,8.961678082224596
2.23,0.0434768247830433,-0.0075801620861965,-0.0596470673801009,-1.325201238674077,-0.7760891636380485,10.105383469519806
2.24,-0.0049838151985834,0.0059200998935273,-0.0145704298512641,1.1783988440962905,4.606673021512984,9.064729973932932
2.25,-0.0472474687573091,0.019243121554529,-0.0170751520664994,0.5942671570162537,2.8389873188536185,9.57889156427984
2.2600000000000002,-0.0059909740904394,-0.000704194138995,-0.0489512336672846,-2.5517657646332004,-4.928376255656822,10.219540489997335
2.27,0.0346112775271729,-0.0241172931390365,-0.064774046582133,-1.019878273633483,-1.4667136078384495,10.59072647630362
2.2800000000000002,-0.0105190720167981,0.0084654102907559,-0.0679544088663165,2.409875921342464,4.210957041984741,9.325073133297463
2.29,-0.0552288668724961,0.0251991168561161,-0.0717157450737063,0.323179988771813,3.095245497425287,9.75845658896846
2.3000000000000003,-0.0182592758588393,0.0083220247482609,-0.1251524192513529,-1.0667895939120975,-4.164189965059105,9.81598352377585
2.31,0.0233919195410778,0.000418130967819,-0.1651561212958399,-1.4359161390033173,-2.4571208372262148,9.351207172083717
2.32,0.0126482085868597,-0.0224661593360514,-0.1566059840144221,-1.0268238946014874,2.273064590561637,10.281455521306851
2.33,-0.0692414979291021,-0.0014639528409223,-0.1424712193430964,1.8589214064187076,5.265645425504535,10.23408260073512
2.34,-0.042596677330007,0.0117779902077723,-0.140595088642985,1.4159692308617828,-4.549457459675305,10.179022512410407
2.35,0.0435716370615276,0.0008750422443535,-0.1192960244835917,-0.8557220210766697,-5.9852356772795,9.330501370728664
2.36,0.009792141321889,-0.0042599032552964,-0.1006598276318614,0.7239049957299961,4.640800474411182,9.273645183089304
2.37,-0.0438978623985485,0.021895967406554,-0.1030010682763163,1.4920870939310928,2.0716824284363917,9.736177410499034
2.38,0.0121263618653907,0.0019788908394457,-0.0916805518092219,-1.6596482478218948,-4.23365486833175,10.100679846856933
2.39,0.0223600687937447,-0.0180765923410977,-0.0829905671299998,-0.5284190082780312,1.728634944303408,10.295840242007651
2.4,-0.045031411454463,0.007517158753719,-0.0904416096629206,1.440247491965449,3.787537064573884,9.575917103870152
2.41,-0.0126540079873758,0.0158508671480443,-0.0927904126466815,0.2581410892958072,-2.846425552549088,9.528749422349266
2.42,0.0402050183823616,-0.0148197593045762,-0.0761684579075877,-1.9188670396841907,-2.3935952140990224,10.318291700335449
2.43,-0.0334764892227626,0.0077722414160277,-0.0966052067698542,1.9221457002679592,7.749633885325382,9.224141205506168
2.44,-0.0667942383151756,0.024857996723991,-0.1418737423838679,-0.1179109192351695,-1.219226624821281,9.811806262016503
2.45,0.0191351923426107,-0.0108035713625625,-0.135151277226359,-2.8699524894074075,-6.722926452755232,10.431160025240988
2.46,0.0275922611368371,-0.0214985109158951,-0.1259266537846629,0.1119877386128242,2.7602885558364587,9.897833753971842
2.47,-0.0527079417140933,-0.0010454062393647,-0.1262709004105631,0.9282056433002208,5.162442821144398,9.608896060592652
2.48,-0.0376900650037355,-0.0018636963968526,-0.1141528067411486,0.8113709845882127,-2.9835586549575344,10.479582568439955
2.49,0.0500559941231993,-0.0178591723729438,-0.1087273610056941,-0.9415536586675288,-4.537464775573154,8.996123831602963
2.5,-0.0026620039996245,-0.0098880683320143,-0.1105622229398791,0.9441958159277326,5.746986560473506,9.25585405094684
2.5100000000000002,-0.0703905416679472,0.0070715653677437,-0.1202822429360453,1.4100186657897698,2.4555546435580524,10.73514913823507
2.52,-0.0023277826085335,-0.0089180265314531,-0.1053917658747737,-0.3126808411204912,-6.6057690274266605,10.385460541052266
2.5300000000000002,0.0360550811082127,-0.0059689969859983,-0.0781533447326724,0.8222861370306803,-0.983685529561658,9.047450341383248
2.54,-0.0152203304790972,0.0140234601603535,-0.0563239221693579,1.7078911438334703,4.879334603401696,8.999217679814882
2.5500000000000003,-0.0387998176995312,0.0079225874571247,-0.0762526941718165,-0.965740710871074,-0.6959194214035759,10.304789902838966
2.56,0.0295550923731899,-0.0193898721891198,-0.0771177810849253,-0.8802305097540161,-4.951820644712978,10.387258047417228
2.57,0.0365665566361644,-0.0005873778754324,-0.0712524381698672,1.296317692444816,1.3340798788907131,9.18758939008465
2.58,-0.0424715440902483,0.0227305833672429,-0.0781952840508524,1.4991601934905263,6.114807202297223,9.797147192808245
2.59,-0.0471412299134174,0.0146489560046229,-0.1063590002478663,-0.9793956945566552,-2.9137159051177246,10.321417307734649
2.6,0.0507939284662368,-0.0090735836105863,-0.1027926382841174,-1.4780523312844918,-6.423459603877151,9.715024155576527
2.61,0.0417531262775109,-0.0022534124212444,-0.0985030708135668,0.1380503079794493,3.5214189173870163,9.19201220658078
2.62,-0.0564158455442647,-0.0012483315934405,-0.1025904220761363,-0.3273080127886061,6.7468456320473456,10.402376664795227
2.63,-0.0388134899975918,0.0024890061170198,-0.1031283241929118,-0.016571329955628,-3.28555897978584,10.404231615471392
2.64,0.0270716112580694,-0.0132330644946155,-0.0785040659131114,-0.7750792048545815,-3.557591944247694,10.0029602179104
2.65,0.0106678717279341,0.0057905590662966,-0.0442183342994753,3.715492226322838,6.120089194368085,8.75487620030399
2.66,-0.0711246744776291,0.0144777152731843,-0.0554478121222559,0.1614288471287893,6.014758228381671,9.639703277405015
2.67,-0.0510255507263137,-0.0015956851123523,-0.1036229011835162,-1.4913888332593686,-5.23830586841078,10.41076106983956
2.68,0.0488392733314716,-0.0206661352753939,-0.1196310025872294,-0.9867021948943124,-6.218359515581076,9.98762288560182
2.69,0.0107497855843424,-0.0101200373031574,-0.1252903891028468,1.187333848462813,4.531697055758822,9.69330805075776
2.7,-0.0878568550370571,0.023628589446014,-0.1261305612744395,2.386431457475926,4.748287786477303,9.84993886721116
2.71,-0.0273853223323596,0.0293050641474096,-0.1500234705628459,0.4836083691105802,-7.665784679513983,9.414602523522872
2.72,0.0813389388022741,-0.0017426541432297,-0.1518868607701365,-2.181103218935029,-6.350932989421192,9.466397657147247
2.73,-0.0122097466717101,0.0074433062871095,-0.1335793090285365,1.6903487646914117,8.993181851588487,10.004228166772162
2.74,-0.0586953744253071,0.0273549853072188,-0.1312405568780009,1.470631526434838,1.2674149971179496,9.828252124986053
2.75,0.0035933911549852,0.0224348989285344,-0.1156257194699351,-0.8581382101925054,-5.713710919963051,9.463212987638856
2.7600000000000002,0.0431170427405266,-0.0156430779861241,-0.0967595231951777,-1.3454056936589809,0.550960043787509,10.610166379271412
2.77,-0.0371825064445311,0.0139813619807293,-0.0997236919821803,1.926114025854687,5.11393720168868,9.482382762920142
2.7800000000000002,-0.0259223618015756,0.0279332187012224,-0.0962107581318919,0.8877326932326509,-1.85649933997458,9.743231600440035
2.79,0.0440462733274627,-0.0036208175049355,-0.0997160327853266,-2.016596888757017,-3.539623171895395,9.636503293224632
2.8000000000000003,0.0026425650493919,0.0006773717119707,-0.1073917103232447,0.1916714332580143,3.049070088885692,9.630300944382524
2.81,0.0090398665599085,0.0016626921158121,-0.1145406690658633,0.0708694932208295,0.8280387661642755,9.008283497258647
2.82,-0.0013511920053737,-0.0164376830605982,-0.1260648173512522,-1.8356010853185036,0.3959364268306666,10.571547199237664
2.83,-0.0127542132868721,-0.0221865710635975,-0.1174599332036082,0.7809650046197961,0.2932379006767944,10.890490031736505
2.84,-0.0113669378917157,0.0109400923091126,-0.0808523771585528,2.4545032761329666,-0.3607398751989969,9.408453803834028
2.85,-0.0027597900261096,-0.0004307560671463,-0.0509282303275172,-0.1119963592114692,-0.4947914115870242,10.020250664299663
2.86,0.0172324668146135,0.0032277388108163,-0.0494614009977881,0.7529885644440066,-1.6762975004933511,9.319446191335707
2.87,0.0304452429562351,0.0094207774893531,-0.0610620630206172,-0.002482269171652,0.1405491993617843,9.050484192511846
2.88,-0.003083814170653,0.0008067470244462,-0.0674910945118968,-0.2747727068673785,3.0714677683372567,10.614407376831494
2.89,-0.0462952918454262,0.0037394567861823,-0.0834609818877284,0.3347692036695764,1.1365479418666409,10.372962260112406
2.9,0.0105111338544865,0.0036883102797237,-0.107818785053641,0.0753080554518785,-5.624163335635727,9.533476140159092
2.91,0.0825029744464094,-0.0051665940495099,-0.1235825372160975,-0.7044205812113269,-3.6776091647478633,8.892903874132038
2.92,0.0012615884660717,0.0062719515085061,-0.146161968749911,0.9339799481151164,6.563602720768641,10.186837345206952
2.93,-0.0444288288314936,0.0165844992440853,-0.1559110087575022,0.6470888942340645,1.2739873213518087,10.032563003827724
2.94,0.0056285859655924,0.001714461106362,-0.1306094778002803,-0.662317190990875,-5.8711373252517465,10.4111179566158
2.95,0.0341795581149279,0.0135025693522812,-0.0913832736434046,1.5034659900690674,0.1055970934157391,9.11480734396247
2.96,0.0189591079819209,0.015569013615917,-0.0664340955437724,0.0062278884390414,0.6776081132672455,10.338574748554652
2.97,0.0175659772707917,0.0130107562136091,-0.0789642733754222,-0.1318176235946202,1.486008177368108,9.082564527562296
2.98,0.0009280228633108,0.0068734145745323,-0.1011427593649928,-0.9782068728499608,-0.2761651707209619,10.246934910490886
2.99,0.0177472171363811,0.0035964656852053,-0.0947164771379534,-0.0108587387737945,0.1537215533882517,9.655706035874395
3.0,-0.0060057214656258,0.010306881690647,-0.1103971925796572,0.3935261188549012,0.4488810587956754,10.303412964756008
3.0100000000000002,0.0264155196676071,0.0144866819709205,-0.0986645621480052,-0.0798098521306964,-1.4421117960312375,9.349886185757192
3.02,0.0240771628809898,-0.0046476145177321,-0.1274723810376231,-1.2491546677973593,0.4669699365573723,10.194915419768304
3.0300000000000002,0.0074346755979913,0.0161124656364454,-0.1394106847466532,0.6179606071756684,1.374980841811997,9.078843800658122
3.04,-0.0187406141644187,-0.0018313845167219,-0.1206568357767169,-1.0321092720004792,1.3333369277077538,10.872638860068278
3.0500000000000003,0.0134125503676506,-0.0013161349991524,-0.0983856720151011,0.6229203295862623,-1.9515710021307024,9.326559022072487
3.06,0.0134784314902641,0.0319145614858423,-0.0952874598325793,1.4237073988249946,0.9166614674204412,9.018777478351389
3.0700000000000003,0.0004891783262958,0.001252194821796,-0.0874349204124514,-2.777384460374201,0.8807063348056045,11.168019594236991
3.08,0.0262704825758854,0.0026911752390394,-0.0879424614132945,0.3129151164267836,-0.6696843118647203,9.179793579887605
3.09,-0.0001164004935185,0.0047570389942397,-0.1006628972710673,-1.415126495093649,2.888580747333439,9.28492059005036
3.1,-0.0383151882518819,-0.0113479887249132,-0.1204848465742175,-1.300707782439685,2.3725004381950368,10.758018476338025
3.11,-0.0338124719739619,-0.0109230347748493,-0.1246294629992549,-0.42664252132163,-2.016685915960541,9.808011406445146
3.12,0.0400557488953935,-0.0215263169373117,-0.1116214198292796,-0.3004611285993864,-4.236470673558392,9.2130687280506
3.13,0.020269361043671,-0.020058500756541,-0.1074773845495287,0.1146185663357109,2.805021560066828,9.766132629455765
3.14,-0.0595585839849276,-0.006265187766755,-0.0994572145165507,0.9915530067344408,5.506578585624434,10.46966764670603
3.15,-0.057147784181661,-0.0008525912615817,-0.0954266366781298,1.3343414307826154,-2.671558316059844,10.410269151352413
3.16,0.0147760650129815,0.0029999442949591,-0.0951354605378214,0.2719126350273521,-6.430011367635823,9.198425844262648
3.17,0.0406349257439946,-0.001312662343344,-0.0795312700094287,0.6727668367560781,-0.025702372048256,9.244310134280134
3.18,-0.0041165526915068,0.0167908718148662,-0.0534514104248587,1.0422562346361637,4.073155312294594,9.621104434951883
3.19,-0.0465011081386926,-0.0083470972591147,-0.0399486039997641,-1.3621733402025686,2.1062360812390226,10.706028911633949
3.2,-0.0159517038613604,-0.007319023732647,-0.05444696072951,0.4181503306641244,-3.294073187113532,9.03516598933638
3.21,0.0184827190228356,-0.0045238989681016,-0.0552410473348204,0.0497451840011646,-2.168997368718963,9.919520945394709
3.22,0.0092366008785074,0.0020606553887327,-0.0454749380470816,1.216699463168705,1.3828960509890154,10.287873069736438
3.23,-0.0072697656778063,0.0229901283464504,-0.0340168503345553,0.978273233596766,1.5946422907336717,9.328834887568446
3.24,-0.0231822145928352,0.0052390117252021,-0.0400375937344138,-1.4416871025104752,1.277341102875569,10.527892077660878
3.25,-0.0360043423152282,0.0083303837776922,-0.0567329366923873,0.4020623691738283,-0.0093029434144085,9.511243840430668
3.2600000000000002,-0.0026362518720032,0.0265646032494108,-0.0960318622411791,0.2843025528333516,-3.644653425201982,8.775361320798297
3.27,0.056249234107557,-0.0069080355321976,-0.1157356080831591,-2.766614231294596,-3.30988229523531,10.11085422343184
3.2800000000000002,0.0415456671676957,-0.0087382384268966,-0.1129275811137263,-0.7407497622008433,3.105170544046778,9.720583406960472
3.29,-0.0463582960122764,-0.0179471364517074,-0.0999251109780375,-0.6797210547842977,6.55361024091286,11.4729185645523
3.3000000000000003,-0.0562333615681788,-0.012716998500698,-0.092585596186072,1.4498979141141397,-0.3934969498719254,10.215935570158434
3.31,-0.0209915751925292,0.0146640904690468,-0.09604672614947,1.4510560032705508,-4.30394873111004,8.955045575949812
3.3200000000000003,0.0445495851888118,-0.0004607256343933,-0.0711881918133799,-0.0937831102915147,-3.6098873675614898,9.494292181605122
3.33,0.0580228787063967,-0.0028321426305829,-0.0650973198236529,-0.2184328723326458,0.3117020732263575,8.81771218590441
3.34,0.0026079734277618,-0.0020528346170053,-0.0937217948259417,-0.0276785482025296,4.364715364642944,10.331510085676143
3.35,-0.0459237605755332,0.0035066229374676,-0.099957893532664,0.5399313405118484,2.8715498164172786,10.3730934583042
3.36,-0.0221110118664299,0.0027228165957261,-0.1045526293338839,0.799885010454178,-3.735678911643856,10.41401672338937
3.37,0.0207505064489575,0.0129516769032965,-0.0950499949277941,0.3917211238710724,-2.957718178110514,9.246284483191358
3.38,0.0392688350371092,-0.0010573845280558,-0.0663237896980349,-0.1354612565917963,0.153683969641774,10.058470909556966
3.39,-0.003044004056701,0.0052695147553291,-0.0741004822076861,0.6249867657173801,3.2919408791574023,9.597740994564395
3.4,-0.0246003615373448,0.0100426599058415,-0.0902551812352244,0.0754996642678609,0.0925149535624646,9.680166329707433
3.41,0.0180636930423689,0.0045031728469902,-0.0902629223884646,0.2787307558640828,-3.417317555134189,9.702001197542549
3.42,0.0425589621650297,0.0076804620401658,-0.1080636334837977,-0.3916243533975357,-0.9439115840386004,9.25306107197622
3.43,-0.0074745513137695,-0.0116144197424021,-0.0911615369142596,-0.7827882800116989,3.9613002128089376,11.401062649953971
3.44,-0.0093728522087661,0.0084136858139136,-0.0853436914505068,2.2524485587758214,-0.9332253381538872,9.745413457310448
3.45,0.0242584634323446,0.0339641293298467,-0.1008239266695086,0.7282103481398066,-2.4767542267334246,8.456580370372984
3.46,0.0441108523759765,-0.0012431362195484,-0.1120553565444056,-2.696189115883216,-0.1938765614686794,10.50427389179293
3.47,0.0325273923574661,0.0133179470314992,-0.1250336867989604,0.9429054427235116,1.5642486024405584,8.861717793776084
3.48,-0.0386602446833388,0.004628766239324,-0.1125431982101504,-1.554992224783335,5.244500835327738,10.8735366545924
3.49,-0.0090181405718228,-0.0178105874331994,-0.1070372116984431,0.3516735130123614,-2.0748155585851333,10.463398708507968
3.5,0.0195530956747313,0.0150675836673614,-0.1279413503827159,5.66246200089308,-9.400287153864362,2.606678364116461
3.5100000000000002,0.0077903645288389,-0.0191882855678584,-0.1120811579050128,-2.2615977072522297,2.949970293994188,11.558433587414616
3.52,-0.0324066586502537,-0.0195436266039056,-0.1010300916852061,0.150514339028019,2.484761081629886,10.179064840694156
3.5300000000000002,-0.0174857443571969,-0.0089194041336829,-0.1153676537097994,1.220874204731278,-1.9189729228122936,9.57615469657622
3.54,-0.0069892758327069,0.0094154636784008,-0.1217938241781298,1.301392684848402,-0.7911473810011779,9.073025805286791
3.5500000000000003,0.0119414082720726,0.0021223114640089,-0.119155722600371,-0.6284600381744323,-1.3571663469905864,10.154767645536888
3.56,-0.0172275045253793,-0.0022187568505046,-0.0917104286374156,0.9211881924078188,-0.5043628473138384,10.140640642292196
3.5700000000000003,0.010164068881126,0.0104189953006544,-0.1046936613740031,0.780690810942154,-2.448518803049494,9.224280178141408
3.58,0.0175228788505759,-0.0064411242627097,-0.0907499593915049,-1.1393764813252798,-0.2831668960430948,10.224705649204347
3.59,-0.0018023424663777,-0.0013482426139184,-0.0592382465721671,1.208646929350759,1.712104445610004,9.764601587902384
3.6,-0.0030775856991206,0.0141363407385837,-0.0676752281607691,0.7028091407956399,-0.8301195267077269,9.790709389096069
3.61,0.0125898255359248,0.0046718767192091,-0.0863340896786753,-0.555320100940529,-0.8863418924289584,9.993376094994847
3.62,0.0165803077862292,0.0033767850137732,-0.0838347998680178,-0.475481761570117,-0.3894293947687818,9.851310442377777
3.63,0.0073693539181515,0.0087841535503672,-0.0908839357317988,0.3084453478412806,1.2356497990853703,9.347473433407156
3.64,-0.0035901579693468,0.0099367963418919,-0.0927236852468554,-0.999591262723506,1.4912801689627442,9.965287358823076
3.65,-0.0046258724025982,-0.0222101361698398,-0.1037030396284167,-1.4613346490497376,-0.4269197877391384,10.570160562671534
3.66,0.0045096986716155,0.0047271204251062,-0.1093143400968615,1.1358821595717812,-0.5322011854271053,8.781980768077604
3.67,0.0074103196843056,-0.0142591044566566,-0.0919159305514399,-0.9092741598744428,0.7354420509579503,10.56914719349447
3.68,-0.0140353712372048,-0.0092448656749439,-0.0916120213688914,0.6507608739071059,1.0762127730354685,9.592552886146844
3.69,-0.0192161538788986,-0.0001185220376263,-0.0820544463814799,0.6733176385921006,0.1274496791826793,9.572981362820324
3.7,0.0123393137896324,-0.0093880750088411,-0.0811872733058039,-0.290901663082255,-2.119456453362332,9.956347485168356
3.71,0.0082535753910278,-0.0075628747467028,-0.08994121376887,0.5003151683545463,0.4666809651655146,9.547326376731077
3.72,-0.0153221165662298,0.0048908958223822,-0.0695043754996363,0.6769487023155882,2.1095317905516677,9.754501928103952
3.73,-0.009020752909961,-0.0153619895172017,-0.0706521150888506,-0.8717734409237371,-1.1532814953412247,10.430464868881394
3.74,0.0185723680332783,-0.0093995305003461,-0.0976695669116084,0.9635907806096382,-1.1206953208939348,9.427297801386269
3.75,0.0132718061322034,-0.0006239978264887,-0.0968451601685587,0.7717194724596088,0.9063456703182186,9.476892446487858
3.7600000000000002,-0.0143403893762389,-0.0037231157082202,-0.0881963995517794,-0.0049072799990036,2.37936872819211,10.613184080209011
3.77,-0.0264421369100803,-0.0035579756672096,-0.078225496155173,1.009431317568177,-0.2162514595420719,9.9780479425235
3.7800000000000002,0.0144133572963248,0.0133342604392716,-0.0871942145051066,1.0446714380439843,-3.2956300499321856,8.738713854395332
3.79,0.0489574274728215,-0.0076955323563237,-0.0968293053330485,-1.6794910376572834,-1.3082909689635538,10.065262353937683
3.8000000000000003,0.0103899335764965,-0.0114708136191227,-0.0921792117179934,0.0483581464876912,3.836676302302144,9.909098852430311
3.81,-0.0504476258913881,0.0046984225690792,-0.087222303193957,1.0582768310660524,3.4605731679946485,10.270857353126598
3.8200000000000003,-0.0273692047999245,0.0054152021891525,-0.087857368332297,0.4667405210413207,-3.2268973437167507,9.95953436418739
3.83,0.0347218940049067,0.0076316893009882,-0.0838777748169009,0.7636680264302121,-4.7570949261229485,9.292821844619947
3.84,0.0561158729476712,0.0083432606863573,-0.0878352103056017,-0.5884401041378367,0.4916707181000315,9.271423780236912
3.85,-0.0043607014931014,-0.0115393459486853,-0.0896034938515727,-1.2466411069601864,4.43418167022075,11.13954768195617
3.86,-0.0397763486391641,-0.0039708749628,-0.0766600025118891,1.3021246272700675,1.939816790656948,9.45454544669931
3.87,-0.0095117256339818,0.0035720588236007,-0.0910761234582964,0.63349970534626,-3.9782279605864392,9.284259376524073
3.88,0.0474967917536911,0.0041184582648505,-0.0772461769403521,0.4451993282394597,-3.9089225270788326,9.712845250051236
3.89,0.0473869608251552,0.0104574627023697,-0.0663575184763972,0.865453294281291,1.7827865122546858,9.649077701647675
3.9,-0.0167907403611031,0.0181547377415584,-0.0607086857081954,-0.3394141922073103,4.920849934689668,10.094639644446202
3.91,-0.0388902397795714,0.0015943539322835,-0.057279604417235,-1.081774197749234,0.4105293238860956,10.422464164308508
3.92,0.0074988629553912,-0.0021905403240283,-0.0644867298425738,-0.1660310311082616,-4.036857723110628,9.064147825419257
3.93,0.0418016651548176,-0.0086489634938864,-0.0604865168453757,-0.5848773668738135,-1.6373191955917783,9.47403082555107
3.94,0.0113280229000498,-0.0089232643742871,-0.0541730997385088,0.2213529143875179,4.206329539265704,10.586084544003322
3.95,-0.0264555751532918,0.0066915877900013,-0.0684542236150805,0.9644636290339268,2.0213252817608143,9.96627412666028
3.96,-0.0314820446649435,0.0012662346542823,-0.0830680606187884,-0.4363546018821598,-1.405885391102245,9.936623351837984
3.97,0.0203904130019905,-0.0012994960855488,-0.0837026638211314,-0.1076104914972321,-3.4953491523685467,9.365617257025349
3.98,0.014823690642144,0.008745300858177,-0.0730449882568423,1.1297386225749673,1.1722202209080324,9.650651360182826
3.99,-0.0162588029928938,0.0183653205004491,-0.0557704744161669,-0.2296827110785069,2.121884979982525,10.131231134804208
4.0,-0.0118114980336657,-0.0059703095779017,-0.0605353479506079,-0.5242604038486781,-0.6320318912163415,10.657923536174586
4.01,0.0142375341605978,0.018126524635409,-0.0988969457568232,1.1117063299231915,-1.944450296558002,8.301882772572622
4.0200000000000005,0.0235443555813584,8.403360134656624e-05,-0.1110280630411212,-1.5495598426376078,0.076450495747232,10.487593331489403
4.03,-0.0043804073041165,-0.0047118216034302,-0.0942158875288073,-0.0042259028958259,2.3368055198851088,10.11445688565434
4.04,-0.0387349945471697,-0.0002654224478821,-0.0851616588653628,0.6720712636029297,2.2785876135897314,9.570243833213787
4.05,-0.0123571464956891,0.0072172329289175,-0.1014652949990336,0.6195222286735398,-3.1991749522784407,9.758681040742715
4.0600000000000005,0.0247853791456895,0.0046797410383971,-0.0836293575586382,-0.1859786027710135,-2.9534813822232096,9.91815099253112
4.07,0.0114811548494495,0.0162836590512918,-0.0543801103951041,1.1199898301588669,2.489621845501216,9.591330182919938
4.08,0.0219697867480375,0.012161194957849,-0.054980288189799,-0.4553515488629,-0.1652860230940649,10.473702097553232
4.09,-0.0134872484315627,0.0130832704057777,-0.0815459517063204,0.1520754617461659,3.3784606081452853,9.270251138930394
4.1,-0.0231279541398557,0.0102516097579128,-0.1206033778609339,-1.0531896269918806,-0.7901271600669747,9.856537067615246
4.11,0.0148746066053476,-0.002695944332594,-0.1141088557662074,-0.9782971608745384,-2.1519480967434754,9.566036946112687
4.12,-0.0027823090976087,0.0071743159840153,-0.0858633321942393,1.128276012756401,2.184921375143236,10.118667348111
4.13,-0.0057351502991506,0.0097531217310538,-0.0628672120393817,0.1852255545186718,0.6991081054715453,9.838194875260845
4.14,0.0149452374510225,0.0059753755491199,-0.0767976966919009,-0.6959181626033223,-0.8963967009738423,9.84906143520492
4.15,-0.0154234821409578,-0.0030209196382472,-0.0928866219939295,-0.6587763146671718,2.5240281239683697,10.052699892238234
4.16,-0.0317119773586515,0.0056006561053703,-0.1119260442675654,0.3794175555070813,0.0422734387558614,9.774138867588816
4.17,0.0048606137772754,-0.0074604275568134,-0.1246690106810633,-0.8497934622502281,-3.598635379462231,9.799576074882026
4.18,0.0289779969922502,-0.0027375562355947,-0.1190336075843875,0.5704833141060056,-0.6863217700114019,9.38874833484365
4.19,-0.00463191884406,0.0015914254920274,-0.1094502312363688,0.2330095037186657,3.7146207551554737,10.210949307101844
4.2,-0.0702575264197931,0.0098669574367845,-0.1001978469313685,1.0467421572129971,2.837031079080767,10.226111459634785
4.21,0.0054989567073789,0.0086833180172366,-0.1064367098034922,0.0984942868338281,-6.860772777382549,9.18351384824104
4.22,0.0572513472529247,-0.010697271504739,-0.124102639895827,-1.5434613025762338,-2.1844236128698835,9.598387841626764
4.23,-0.0008356126984803,-0.0016103425536908,-0.1063240495742861,0.9349953176817262,5.131147949526748,10.116684377256906
4.24,-0.0593162609221005,0.0132459560876148,-0.0850146142067019,1.6011034422721806,3.4486617804407302,10.175580416352126
4.25,-0.0172453283112933,0.0111686698362159,-0.1025747237028185,-0.0666116711721125,-5.540150347354857,9.557955607480446
4.26,0.0513284525316362,-0.0037546611327899,-0.1195234534563128,-1.3542103961910206,-3.8682371793361785,9.264855757308569
4.2700000000000005,0.0177796441603853,0.0042099908154284,-0.0949716818751399,0.9486980020208088,4.440638027810733,10.167071452887429
4.28,-0.0533878174730667,0.0154632171074729,-0.0860959169687335,0.8340149348410743,3.529552218161636,10.182390450406055
4.29,0.0045200136827674,0.0148494000890755,-0.1007935879053179,-0.1691453825441929,-5.688445159155476,9.447165344439574
4.3,0.0457005779105463,-0.0008202708941408,-0.1064560068072383,-1.5509815363001012,-1.451871916964913,9.661035218931238
4.3100000000000005,-0.0036409420522715,-6.793014786745176e-05,-0.0901078534545008,0.408323744931323,4.534734297348169,10.326865479087829
4.32,-0.0396374649525737,0.0264850055057549,-0.0985275683225695,1.5804487170943504,1.4955399020237077,9.6103595052626
4.33,-0.0025844109819271,0.0084961640597313,-0.1308363479794566,-2.421450209034964,-3.635004465616412,9.833105596523929
4.34,0.0285683212392885,-0.0174816004401471,-0.1134662953437869,-1.3033475864811035,-0.9869982757104648,9.986833507106263
4.3500000000000005,-0.0066839362799422,0.0126274004707661,-0.1125194010557238,1.759310909413947,3.750981612780092,9.39557127312183
4.36,-0.0399623584557496,-0.000278792279224,-0.1307720494689051,-1.6088157272874954,0.9867666791301082,10.7240658094936
4.37,-0.0066613137333726,0.0034059459141286,-0.1297038895310465,0.3801119100680005,-2.9574371013041,9.22204024184296
4.38,0.0133923385436695,0.0022920686440117,-0.1257215840043131,-0.8031310823722007,0.0782468168732675,9.872511853373965
4.39,-0.0407891815427544,-0.0162374173862058,-0.1207353425444666,-0.6719052102291058,3.3304283391407967,10.718933426116651
4.4,-0.0260426144398438,0.0259281982256115,-0.1315520209492747,2.649121505971322,-1.6863175493881235,8.562368194085167
4.41,0.0032782547420565,0.0005509894329949,-0.1437298310221736,-2.690052294216855,-2.913257968310987,10.359996254101569
4.42,0.0179767291028275,-0.0246905942646595,-0.1216366318286959,-0.8580806493104567,0.1324408166544601,9.90718595934733
4.43,0.0073825175431572,-0.0109874782218602,-0.1396624845685069,0.7069745992554037,1.4868389681049012,9.56483209035381
4.44,-0.0447073484200392,-0.0149565500442179,-0.1536035192431513,-0.2045682287522194,2.7829969566468526,10.307310944459616
4.45,-0.0307588398536986,0.0085476957428592,-0.1526561481179301,2.291331325617432,-2.59468439674099,9.390810787961405
4.46,0.0413525386766021,-0.0023722954721134,-0.1502943587721888,-1.2102394081732752,-4.726100952908532,9.59122920414749
4.47,0.0054100047082801,-0.0253668870100539,-0.1370340836466853,-0.438079811810715,3.823876645974432,10.523010246966328
4.48,-0.0300129325898163,0.0043971408560969,-0.1221912977518145,2.6748214757633386,1.6199247387524311,9.383693975911322
4.49,-0.0037464842600768,0.010402370601376,-0.1283082914771144,0.4926187270619906,-3.363271688122559,9.58489663820469
4.5,0.0337921778487805,-0.0095231315668979,-0.1314217997016017,-1.1408828654902323,-1.556942915615222,9.551802055461698
4.51,0.0012030046141179,0.0019926291292957,-0.1306626898469035,1.0623178343970008,2.503142286151406,9.495956132835344
4.5200000000000005,-0.0284434482719033,0.0110815717048205,-0.1255761039675776,0.7827810224104934,1.7504497325947093,10.480781128614083
4.53,0.0153416914058775,0.0002923007316701,-0.122941824537665,-0.1873762928236211,-4.052143082791115,10.15194152091991
4.54,0.0354929616938703,-0.0006605292440453,-0.1284915310563151,-0.2359353905919809,-0.5469136877223276,9.061508507913096
4.55,0.0182562536429147,-0.0089635941431662,-0.1505264592589442,0.171214014519193,1.988684844935777,10.248401564205087
4.5600000000000005,-0.0230084547824226,0.010441828054268,-0.15698901836291,1.1075323690024583,2.295179901441988,9.625354278047691
4.57,-0.0113706545628911,0.0097977953591578,-0.1453319442690913,0.8788120575684295,-1.7240792403116094,10.219350244153569
4.58,0.0152326883565427,0.014026699085024,-0.135514716547877,0.4161848935337386,-1.4114514896524213,9.487903815305833
4.59,0.0377096127646129,0.0025108573055299,-0.1358165395678584,-0.7091921607111057,-0.3325271192251574,9.830959961188375
4.6000000000000005,-0.0049282574608134,0.0011235419811858,-0.1411891979397837,0.0535526199357882,3.027066534436763,9.782899456384357
4.61,-0.0289681731469143,0.0065345796942903,-0.1297013563336436,4.022590406950232,12.350509953100271,12.070108154131685
4.62,0.0027290919316671,0.0080363087673705,-0.1190223274053637,0.8305669521317307,-2.579576272726171,9.563729437777305
4.63,0.0301324316985613,0.0082030556291599,-0.1227620941819254,-0.0548290996805083,-1.1935883870688158,9.482212713398615
4.64,0.0140906863125746,-0.0002374097645967,-0.1168845099629466,-0.5295321974523993,1.74120783773714,9.964952933419198
4.65,-0.0051178635000906,-0.0020581658687737,-0.1162191805662219,0.027523438612978,1.4172360201141911,9.728838028502247
4.66,-0.009018535354366,-0.004861823877423,-0.1106908497633044,0.1688753263315955,-0.3129098561588322,10.023183881679856
4.67,0.0088172202749218,0.005041854624465,-0.0891446498455111,1.1657768920407725,-1.2760856217049854,9.848232355490527
4.68,0.014902106134518,0.0112042422577031,-0.0791170549811427,0.6585863138633434,0.1866956398130105,9.38209314122518
4.69,0.0061841447888087,0.0144390600533295,-0.0633723763050143,-0.0804485669540088,0.1029865618344151,10.222904862022476
4.7,0.0149730999910538,0.0013515411136369,-0.0615408038021628,-0.1859928899143591,0.3304544123600076,9.805643786668726
4.71,0.0142926841077039,0.0066131211648682,-0.0587878627003733,-0.0718076991336321,-0.7759356664796345,9.313528780439407
4.72,0.0048048509950388,-0.0098008478540599,-0.0609151412965361,-0.6675470162610877,1.1065642717852024,10.584634912781782
4.73,0.0261030721351159,0.002547990468211,-0.0661987913073603,1.2828965866253523,-1.1443919494945898,9.293631018623437
4.74,0.0003400480962975,0.0066667991011094,-0.0629835379542414,0.0575898634694502,0.8947277026562211,9.69162623805565
4.75,0.0121863331516829,0.0041975884515104,-0.0669489008606974,0.6273898661496052,0.0858643006413656,10.39943914401276
4.76,0.0206670736797981,0.0126897636282078,-0.0700884563149516,0.3884984542560064,-1.2580431662832114,9.480913142270856
4.7700000000000005,-0.0109424550648015,0.0218324157225176,-0.0822090235771243,0.2604296980131657,2.186161184700163,9.60449116554816
4.78,0.0290898138068,-6.68402594549107e-05,-0.0855063003720347,-1.210542779957545,-2.747166150300857,10.458104003009728
4.79,0.0083572219068985,0.0059146102239932,-0.0867445719660822,0.4523232849966416,1.2428870592136867,9.28961157241318
4.8,0.0065306767269725,0.0048452505523659,-0.0922169861616198,-0.1542705442760364,0.6853083414371252,9.93522239064418
4.8100000000000005,0.005372280260126,0.0014181354690686,-0.0965078053297106,-0.3199478654790685,-1.1973988311028576,10.289627543326306
4.82,0.0092763378289974,0.0132123879054532,-0.090959015232474,1.0636942002570628,0.8122462412399728,9.282862348354174
4.83,0.0127802416654952,0.0124765825202347,-0.0934049290837351,-0.792431653348492,-0.8896092877923533,9.854417519460265
4.84,0.0065092020612326,0.0135305482937769,-0.0845610005082194,-0.2567692752233897,0.4553425230659851,10.175389211669389
4.8500000000000005,0.0133452062732475,0.0194508517927738,-0.0865139764966075,0.2899031747742618,0.7021646902743701,9.50302996831899
4.86,0.0005591597645318,0.014897043492092,-0.0881228921236102,-1.8127272323902532,-0.2905777464359022,10.05436897262008
4.87,0.0106538250095297,-0.0105121970048727,-0.0961544019402567,-0.8965126238852946,0.7509986719629568,9.988716064304873
4.88,0.0129624142539526,-0.017821494497817,-0.101948651415259,-1.6751354559420693,-1.0702012913034036,8.691699328263107
4.89,0.0022315584225876,-0.0452097659778827,-0.1011712429346148,-1.3588914809105497,0.2773281661460024,10.591856802330524
4.9,0.0224995143541001,-0.0224743232454482,-0.0851513249100749,2.77399989722256,0.0826184519017911,9.520860278621427
4.91,-0.016483947734914,0.0132152159614294,-0.0759402540744845,2.410378341542098,1.3313794374304029,10.577158316342535
4.92,0.0023861959663257,0.0250544434945701,-0.0700235617579524,0.6932425485301169,-0.6435707111080243,10.315358041746942
4.93,0.0422526362147324,0.0129395662316911,-0.0709041086257998,-1.282168996914996,-2.73671340265692,8.858081501399575
4.94,-0.0103513928230261,0.0112158102582008,-0.1001352769555155,-1.2961207401398018,3.6896128510433774,9.446201466554657
4.95,0.0032080604068097,-0.0138935640466105,-0.1120499772252146,-1.503422883136311,-0.3644572630548819,10.702152940587965
4.96,-0.0099616900502798,-0.0039340421328415,-0.1280797672690455,0.1379805166917627,-0.3300749521141018,9.269719198592744
4.97,-0.0033054400255389,-0.000878010629623,-0.1328170848311488,0.3957855675898644,-0.2166811788221304,10.348789344145109
4.98,0.0427501424737658,-0.0212018146507574,-0.1412086588563029,-1.2595784886941477,-2.714119831473848,9.530420203566772
4.99,0.0019574574182419,-0.012670780871594,-0.1520924222888056,-0.2583027787603332,3.402000524172605,8.453335513411236
5.0,-0.0107639923152725,-0.0234136223899757,-0.1342607242287699,0.3299035205076769,1.193265855343604,11.312629546388644
5.01,-0.0116551655953996,-0.0012945207510561,-0.0943220359505717,2.0994347097427704,-0.8223961545803792,10.113794176698514
5.0200000000000005,-0.0095904914674874,0.0422380061190662,-0.0616303933085505,3.190950326143321,0.2757768272657797,9.645039385912137
5.03,0.0303662696564138,0.0132586011476017,-0.0499035519780222,-3.153469828552804,-2.5124485728433754,9.827264126545757
5.04,0.0085749070294667,-0.0129044405274723,-0.0558453117729727,-1.609804219264907,2.0046502645745035,9.414477266978365
5.05,-0.0142143540458067,-0.0010577267430617,-0.0799461183370654,-0.5272301902890492,2.404259795667132,8.68956354517101
5.0600000000000005,-0.0225137685820475,0.0015753136578439,-0.1048872423590724,-0.3901317740601144,0.2329750628262623,11.160944363574227
5.07,-0.005971756775746,0.0075665088771207,-0.1195335936965052,0.0514251505762856,-1.373040021558208,10.5369680771071
5.08,-0.0033458130740554,0.007011993345854,-0.1100765940965716,-0.7939052943420557,0.5076245063843909,9.936961711272122
5.09,-0.0072336056220534,-0.0142349177528163,-0.1280885738553111,-0.879108170338809,0.7077029137766836,10.181743901677311
5.1000000000000005,-0.0377518159573346,0.0109752225624997,-0.1579458666266505,0.9398521374961862,1.9128183229971,8.303252495812451
5.11,-0.0257125149824471,-0.0062180968967985,-0.1456437510670725,-0.394583213979069,-2.127344975886837,10.54890998068264
5.12,-0.0042952381937922,0.0019088672193372,-0.1480387700022761,0.8849979330897852,-0.5617530634497373,9.237382602578464
5.13,-0.0237324818484908,0.0118957240487829,-0.1329126757802073,0.1969522825364748,1.653198882471861,9.753601412969212
5.14,-0.0278564557718657,-0.0002889402093568,-0.1043458533705775,0.3071308943212421,0.1311977878812355,10.506190779986056
5.15,-0.006204832693011,0.020152374523676,-0.1008251634658877,0.866964597596466,-2.2643859358039062,9.734447965091237
5.16,0.0019622326070303,-0.0148011225750408,-0.0720015642465655,-2.5090840616294137,1.1168866967919668,9.697203279511806
5.17,-0.0407821792539002,-0.003128940836818,-0.0739751038374011,1.2672870945985977,2.9989379287828077,9.125678200615493
5.18,-0.0327395240790576,0.0196006649867367,-0.1000968617619578,0.4844065584110597,-1.7189687833188534,10.158798810568191
5.19,0.0241572111942947,-0.010691946476197,-0.0965591696323458,-1.684694282783664,-3.855628913199364,10.834479493389992
5.2,-0.0140370157631017,-0.0107202482755673,-0.0908413482131068,0.0391426856810227,4.383288074448092,9.424984053426291
5.21,-0.062299166908495,0.0086534261247297,-0.0932843116344515,1.4787847670145486,2.1878557378047634,9.555252665088863
5.22,-0.0178993317348977,0.0219886191731325,-0.1317463618935649,0.4296551432063689,-3.579311160569008,9.646712490932742
5.23,0.0177042792351854,0.0043757348344167,-0.135285104555041,-1.784581999313351,-2.99288885809233,10.118457099040894
5.24,-0.0149178192175166,-0.0210710647020739,-0.103345694881827,-0.954692470735045,4.500636444529666,9.70849360870327
5.25,-0.060103134562778,0.0129434911609838,-0.1050943759502474,2.951181268155127,1.1004290015524985,10.043487549151592
5.26,0.0142942489163594,0.0118072580419264,-0.1079141599358622,-0.161874063504306,-5.297190922361117,9.720100904989874
5.2700000000000005,0.0196297779726851,0.0055948169796895,-0.1205095676006381,-0.618036460358786,1.9894736479639137,9.453972849118154
5.28,-0.0433809527692736,-0.0088095004166875,-0.1085630831541125,-0.8319025519119646,4.026717677700723,10.09306364968636
5.29,-0.0438851670367322,0.0122300004749501,-0.0950519842328135,1.8642752086229,-0.8499824731585063,9.320544648237767
5.3,0.0160045218959612,-0.0017501249065569,-0.0820961770834033,-0.8090267609125035,-4.90535726763946,10.645967263862437
5.3100000000000005,0.0172050736853119,-0.0040904080215436,-0.0677569610299174,0.7064714931273418,1.9466683918956016,9.692044901387115
5.32,-0.0253572036664731,0.01602601894055,-0.0867795077385012,0.522932946788751,2.5340959723685343,9.015001113722231
5.33,-0.0176753916299659,0.0037886138970011,-0.0807997984112803,-1.00260613767982,-0.4023378328586314,9.87838038527468
5.34,-0.024671044042403,-0.0058344204317252,-0.0789140192092959,-0.0130918732282427,-0.5227957447601392,10.338855293738495
5.3500000000000005,0.0135665137148722,-0.0009249030027404,-0.0829599973978106,0.1284259166896457,-2.680667814351525,9.704299399780115
5.36,0.0366198675062349,-0.0139630367998011,-0.1070077521027629,-0.7138193527983852,0.4703057848972763,9.913603555381249
5.37,-0.047918414281303,0.0088091292657601,-0.1268720579566065,1.4191918891633022,5.692771495641758,9.443411766078876
5.38,-0.0573046977193696,0.0134065642781811,-0.1311533254803721,0.2463579122133538,-1.5185382150109283,9.8687425561257
5.39,0.0158091178301268,-0.0082366749620323,-0.1119538945378367,-0.4932172219846252,-6.012777001290336,10.24974978692013
5.4,0.0169096077473172,0.0078899192048482,-0.0734745738328997,0.9577464181953596,1.0522237083861403,9.094519339280868
5.41,-0.0093819453214896,-0.0050439906060369,-0.0539289628387991,-0.5350776766136459,2.5276723677096475,10.425708272962837
5.42,-0.029532841834004,0.0052661950803567,-0.0598602657438818,0.7089705012723403,-0.527740523669716,9.698395443586614
5.43,0.0190986623866638,0.0003366593508108,-0.0666857389034335,-0.6127389047196352,-3.719453355404141,9.7858263531437
5.44,0.031065686458013,-0.0039641530507459,-0.0866016549290721,-0.4247998670136653,1.1260919339790492,9.58191708452607
5.45,-0.0375922060341313,0.0124317118412273,-0.1073079508961741,0.6548952994903878,3.89956055595521,10.106021694343012
5.46,-0.0266255282686344,0.0129275919821796,-0.1218942803563181,-0.5975303344450748,-1.864631692097832,10.052562197581114
5.47,0.0195793264943846,-0.0105979835196332,-0.1277364296139781,-1.554399827378368,-2.5977132075298948,9.836396206651736
5.48,-0.0133667466620255,0.0057867294854481,-0.1315008354605738,0.9039799302153352,2.847323864942312,9.662269793959382
5.49,-0.0223313403002707,0.0075852651429881,-0.1375476223649089,-0.1707827129565403,0.600882963785269,10.145398980070578
5.5,-0.0194863552705998,0.0014731737657115,-0.1405724686802928,-0.4058916734304599,-0.8763220257181825,9.713391489761468
5.51,0.0010059282370034,0.0044576916138929,-0.1289120567263667,0.2020865537503018,-0.9042689590744314,9.529234119543242
5.5200000000000005,-0.0041673882510141,-0.0031207560709443,-0.1338137787999217,0.255148198500547,1.1810711624454446,9.983998881014069
5.53,-0.0086932052767624,0.0005743303698141,-0.1327332956017558,0.2209897462714857,0.3704601817514026,9.709941785953232
5.54,-0.0067764097404377,-0.009791622170906,-0.1308078122557704,0.0026601047297922,0.7026112105425877,9.983078750908172
5.55,-0.0273429573207336,-0.0061723895830549,-0.1314235878409449,0.4809834628702237,0.9193679628468177,9.833878382561611
5.5600000000000005,-0.0146019179138197,-0.0043797858959767,-0.0974140641511981,1.2364262372139048,-1.371560265724126,9.634229258147712
5.57,0.0005786053552949,0.0086957735072714,-0.0671272528590266,1.604411070063274,-1.191798047611793,9.440904371239217
5.58,0.0097729266267009,0.0054344589858159,-0.0469185625435416,0.1389427119250445,-1.1650541642999517,9.726267969520038
5.59,0.0215563308469303,0.0082631432246399,-0.0354323228122298,0.0045338764202818,-0.0673518569249326,9.673689020658314
5.6000000000000005,0.0004867422232576,-0.0029828474437803,-0.0501228821696345,-2.2375260804320574,2.8702459308337325,11.67959828282812
5.61,-0.0101827017278891,0.0113266511307334,-0.0556226027430598,0.5977774536347185,-0.3258524464805094,9.514588333954212
5.62,0.0466525021127332,-0.0039190158865147,-0.0740861249388758,-0.9486414304315556,-3.4850464474798764,9.731040791697358
5.63,0.0334862069387789,-0.0145198512176477,-0.0993787524522845,-0.9228606344472576,2.216333007778924,9.47161055709483
5.64,0.0108078264743316,-0.0234325976553525,-0.1171974790515009,-0.7325637683702394,1.6960642010355176,9.98187572781484
5.65,-0.0094666503570039,-0.0235261487914084,-0.1340313804568354,0.0557804665998658,1.6480084114699858,10.480769792333485
5.66,-0.0260738535252275,-0.0117261719269204,-0.1076956865610186,1.921655686080356,0.2788756595555524,10.327677042003032
5.67,0.000320210363891,0.0268396753544174,-0.0628937659086291,3.096752497265559,-1.6170099241457756,9.234640791505017
5.68,0.0110415965661845,0.0033374764198986,-0.0262376283527915,-0.747942858456383,0.4255914528032683,9.625439830499644
5.69,0.0073028985697403,-0.0063470826800343,-0.0299952821107213,-1.3746132624182223,0.3014714268595571,9.50942819370692
5.7,0.005252673652944,-0.0253899357986226,-0.0517972250701491,-1.0903079329010752,-0.3114112433535836,9.819448634970898
5.71,0.0454745280476921,-0.022161855709466,-0.0678355125011508,0.3008834437097427,-1.8096981178546772,10.271598749263546
5.72,0.0198480267205692,-0.0241702202610156,-0.0985084873856608,-1.1699770891550618,3.510052910655304,9.815374219108294
5.73,-0.0413501328600829,-0.0131170952316411,-0.1145108443917338,1.175472273371012,3.1757044690580774,10.774352944799489
5.74,-0.0157482158285277,0.0086108317480058,-0.0934964892686907,2.027014477827979,-2.407053962703976,10.1105341204039
5.75,0.0059107105949678,0.0197843014257399,-0.0687766400398318,0.783113346443629,-1.3505894794347904,9.177957512943214
5.76,0.0075166248654833,0.0089681972517471,-0.0571570609928671,-1.4906452365663356,0.323541342696498,9.202140221487609
5.7700000000000005,0.0177502876651788,-0.0184987321184472,-0.0764148188056056,-1.6215950442704,-0.8760590372334832,10.219401307870289
5.78,0.0166395345385318,-0.0170639031858923,-0.0934933823765818,-0.6980508924477686,0.8584348226605966,9.197716355820964
5.79,-0.0089721327672736,-0.0218481035027296,-0.0989374992670123,-0.1696792679502789,1.8581365297389685,10.803775187752096
5.8,-0.0336372754251921,0.0073757434417393,-0.0985053283394877,1.6075881303168489,0.666658556735174,10.219136650885808
5.8100000000000005,-0.0091440963110906,0.0091946506911748,-0.0796638009370867,0.2605937783726776,-1.7903081371773415,9.47021783329253
5.82,0.0255268506610481,-0.0012787466893936,-0.0692460042656962,-1.5151947698125676,-2.9346027340048217,9.250910856048275
5.83,0.0242204617186586,-0.0383247751103237,-0.0883973193587367,-2.510664402103486,1.7316289865671954,9.55461523379576
5.84,-0.0218887585389024,-0.0101553185925598,-0.1075920117320124,1.879126616075555,2.7861657130087742,9.726810992170918
5.8500000000000005,-0.0301652812705606,-0.0078339394097386,-0.0969236594857279,0.0823325035971466,-1.3416611990271752,11.37063250783214
5.86,0.0116850644624794,0.004252570077848,-0.0650644925655428,1.8298208694792408,-2.2022792450891555,9.694472012735751
5.87,-0.0138065401383803,0.0112791822474728,-0.0619000670732562,-0.1213955405255689,2.0864046579625546,8.678765557550337
5.88,0.0264790597786273,-0.0050533043647805,-0.0836841565789286,-1.6056587471520414,-3.026741425119668,9.572941786472953
5.89,0.0105006266284391,-0.0215644492048813,-0.112950931233317,-1.4326977674524228,1.8823111490452529,10.173304964132264
5.9,-0.0417779764896953,-0.008344208336089,-0.1215565455378596,0.8910122371006511,3.634421823244253,10.139020403166258
5.91,-0.0285114562731505,0.0114449298208105,-0.1224901330889765,1.5502034124220574,-2.84346031520012,10.518400440075164
5.92,0.0193148085097296,0.0027469499886725,-0.1039412346901003,-0.2376907601162947,-3.058139483176059,9.567195829394649
5.93,0.0239145962815036,0.0081827064951263,-0.0962770682992045,-0.1090213469287115,1.0879394511999263,8.818674269647783
5.94,-0.0016123271694978,-0.0041108653282921,-0.1239164200843875,-1.4409057595760817,2.4818135471762166,9.995570249322329
5.95,-0.0428574972974102,-0.0088211312466084,-0.1261977804125849,-0.1670813699973845,2.0982829650964305,10.365372218798443
5.96,-0.0262563453363879,0.0040989953528549,-0.1015776050509516,0.8304563167389433,-2.499065354119445,10.079719562611288
5.97,0.0305259433221157,-0.0072003402423201,-0.0853051048935954,-0.1116087107521428,-3.384815401112089,9.675058255349718
5.98,0.0308097201650056,-0.00055474144791,-0.1076756817521159,0.0042142091895625,1.5279660022789867,9.02018195701237
5.99,-0.0187770230720275,0.0058080680271233,-0.1273194355191294,-0.3405036930687717,3.713794132209545,10.221539195948113
6.0,-0.065548316734517,0.0030592324149694,-0.1278680664719645,0.2664234301433131,2.2189729921866097,10.546734770666172
6.01,-0.0355261221705369,0.0150091348538948,-0.1165652153314654,0.613160112786933,-3.9341307613634258,9.41597445775428
6.0200000000000005,0.063804958422042,-0.0101394058617853,-0.1022792709292475,-1.4823058430296518,-6.529336938814855,9.672775688378458
6.03,0.0239287114757653,-0.0051801647176023,-0.1156839904607836,0.1467665089595019,5.949005207509531,9.381103629147855
6.04,-0.0519918387082522,0.0137837724009533,-0.1182889965595309,1.2396174330790188,4.668428866849543,10.40033030617044
6.05,-0.0705832313813923,0.0249724219995914,-0.127520034951121,0.2307994202914932,-0.3446497060021337,9.671899934346412
6.0600000000000005,-0.0053987522433782,0.0102227178175809,-0.1246509802760188,-0.5738474190402485,-5.647933758291597,10.48152637409266
6.07,0.068717411918046,-0.0195372841762724,-0.1098774624289576,-2.369682759456909,-3.730977097303114,9.230103617648991
6.08,-0.0156302810344415,0.0017596339092245,-0.1245377612532679,1.3516881579460704,6.773639528311176,9.63440175717746
6.09,-0.0732482898766399,0.0196271039117562,-0.127694378537089,1.2501232879643938,3.3000726944659458,10.03631777311627
6.1000000000000005,-0.0444887004598752,0.0245414360406906,-0.1256723952712123,0.2391207666608615,-4.903401333378417,9.908438397855742
6.11,0.0714557517786772,-0.0160404856737268,-0.1194263425888125,-2.7574268615738102,-7.200474544363975,9.65021054809209
6.12,0.0312886053052857,-0.0184554679246821,-0.1233483803690974,0.4702716432055896,5.565203681820568,9.678680444116296
6.13,-0.0531854864081078,0.0269304546699163,-0.1176606667460505,3.092516325951249,5.340877089676308,10.017300478891338
6.140000000000001,-0.0636007515804036,0.0233588403486697,-0.1093798157991473,-0.5504111008539482,-1.1779163188858115,9.980512430864993
6.15,0.0159579845731642,0.0014330984808227,-0.0979539630235735,-1.2501351640568326,-6.23076737936451,9.883267210600568
6.16,0.0430244228119478,-0.0276141952292431,-0.0933059183181826,-1.4946208916766022,-0.2418286723710546,9.707308915947625
6.17,-0.0094429976075601,0.0105364910816209,-0.11565161768809,2.9738595695903305,3.8523728365228265,9.368238501114533
6.18,-0.0395036167916985,0.0354808536374969,-0.1122454655589167,1.121157056761248,1.3741706812608336,9.801938943983046
6.19,-0.0009982914383506,0.0108154259750539,-0.1105162379564349,-1.6203428341200052,-3.905095462132836,10.111362076140145
6.2,0.0182750320704564,-0.0065710659803498,-0.0895902616204325,-0.9907885024288658,-0.190691792127902,9.875330217768449
6.21,-0.0040368948626409,-0.0060017923303644,-0.0727328387321536,1.1404437261754363,1.635825803187937,10.141063275535538
6.22,-0.0146703450758498,0.0346146777817088,-0.0767473084153239,2.228981111406017,0.3270257117638727,8.771168532408886
6.23,0.0143143064260238,0.0021251259311004,-0.06843412194863,-2.301775269536088,-1.9696393704379185,10.531786741811068
6.24,0.0207881629188141,-0.0057642126556233,-0.0658029717625681,0.0636954241936079,0.0103507701966915,9.479196647932056
6.25,0.0428816411230443,0.0070161011438514,-0.0953796980203692,0.5025109612558959,-0.0785074244115508,9.6784767689734
6.26,-0.0066534109019528,0.0007383775439011,-0.128360996884257,-0.8048320590780287,3.8973031240220912,10.167481748507903
6.2700000000000005,-0.0394898062082711,3.281693534837739e-05,-0.1340628517092768,-0.1597977447742957,1.6566769737386575,10.055006017141212
6.28,-0.0103210499230267,-0.0156123883550686,-0.1200230893911425,-0.186659511513378,-2.783049238296948,10.208049281191755
6.29,0.0020319315774656,0.0045197376494222,-0.1042799306334559,2.2292914355640856,-0.9120037606890746,9.286565300721268
6.3,0.0172535359017347,0.0141919369047456,-0.0985741270007197,0.6803243648720898,-0.9052139550335488,10.005522015196805
6.3100000000000005,0.0211264849530746,0.010198412698934,-0.1256264698924128,-0.0598102225261065,-0.528437060789526,9.375250245463931
6.32,-0.009723602467199,0.0225303725833684,-0.123049403470904,0.1214456429204761,2.4476488850352656,9.58844577729694
6.33,-0.0233788972983731,-0.0016234495050992,-0.0956188765586917,-0.9688735014326406,0.029255075992909,10.946400418323815
6.34,0.0108945587639629,0.0042633112517296,-0.1127982986392085,0.679884360439654,-2.282616084568481,9.126015420355412
6.3500000000000005,0.0176600417473783,0.0140767613206422,-0.1204115105094019,-0.1203465302444408,-0.6436953227579931,9.516530973725022
6.36,-0.0137840799358475,0.006555574744574,-0.0999185842694346,-0.2534885040938179,2.5835514485291395,10.294502714693076
6.37,-0.0194939385184924,0.019881544182754,-0.0983065542997424,0.7951876466314586,-1.0103306889653374,9.760437523131692
6.38,0.0297320284476523,0.008805653800045,-0.1065226149977748,-1.2476521801050775,-2.6021420185104427,9.76799214888383
6.390000000000001,0.0074757024921165,0.0105699481055978,-0.1212656972230975,-0.5391352749548811,2.0602255041909747,9.76478236194689
6.4,-0.0336579473092322,0.0060653990670893,-0.1112660122336451,-0.7358276468123378,3.0203022266606863,10.047234823636632
6.41,-0.0251058704193796,0.0086489846229304,-0.1128431213320796,-0.2215724555719008,-1.375777674210003,9.486585820632516
6.42,0.0083773304562475,-0.0022946690535886,-0.1159907830180232,-0.7524857243050839,-2.415203363992469,10.297639306028326
6.43,0.008235639163433,0.0032741921243513,-0.1175214824499194,-0.082597299410319,1.5644927259477677,9.626931306215376
6.44,-0.0311990915072646,0.0115707564759535,-0.1097268712939326,0.359188182371083,3.1644069582282865,10.003543798831592
6.45,-0.0462435249962291,0.0078699600863065,-0.1098538217367236,-0.284493805193101,-0.1781404598504892,9.720050041941546
6.46,0.0071088430914151,0.0050534688059124,-0.112361947935969,-0.4096816208385391,-3.708868290879234,9.623030679998404
6.47,0.0220837777325706,-0.0064006280332975,-0.1133264106930796,-0.7099052977192565,0.6122589272621708,9.705912007991186
6.48,-0.0505727010822988,0.0097746783521884,-0.0934488204540316,0.9963865220750568,5.622066445912344,10.101336071337204
6.49,-0.0591940195363177,0.0035281916134073,-0.0900135738076274,0.011630290116123,-1.4885722732038196,10.036097807496631
6.5,0.0294943940779672,-0.0003329841693361,-0.102691794675738,-0.1507337385386846,-6.751597415648575,9.364764337121008
6.51,0.0291457461381265,0.0010269629790136,-0.1042738807620112,0.1747564805685668,1.999970013423759,9.785016329594995
6.5200000000000005,-0.0440055904563851,0.0036882592126193,-0.0829734307946269,0.1554248356105474,5.370193330600944,10.431801018633262
6.53,-0.0538022621649795,0.007952325754792,-0.0877502811373774,0.935990251462502,-1.0426869800284613,9.445812887670009
6.54,0.0087538895567915,0.0169188603762672,-0.1010254127205912,0.0072328325766144,-5.863851390212431,9.291321459635844
6.55,0.0434182058734226,-0.0154506203082383,-0.1042888862313334,-1.7365800384258812,-0.2934927102742684,10.168504736000934
6.5600000000000005,-0.0102882960400667,0.0148466264308169,-0.0856839445652072,1.8628698830177643,4.353341868460469,9.908769261773925
6.57,-0.056967884526581,0.0013290964916848,-0.068214158457667,-0.762781125528946,2.538327698619281,10.449920173008888
6.58,0.0046433218826247,0.0005750689080302,-0.085167403263003,0.2599524304089208,-5.963968225730262,8.731278728963101
6.59,0.0588703942530828,-0.0101634806061323,-0.110643926006705,-1.419589398438183,-2.424331760536147,9.391115521606608
6.6000000000000005,-0.0064728565891976,-0.0058307106464986,-0.1021860492648188,0.4396003136513227,5.875648474272212,10.848709809093473
6.61,-0.0589538532651484,-0.0079028288995316,-0.0923782912315432,0.2520094322742439,1.980052224291643,10.618959265081816
6.62,-0.0122508064984881,0.0073216251584893,-0.0961715233744685,1.5393860043988292,-4.8114363093535735,8.764432378637158
6.63,0.0456470478390048,-0.0087252225550827,-0.0874853757442538,-1.0613068847409377,-3.974930490894651,9.704178004154132
6.640000000000001,0.0426756730100673,-0.0096276992441658,-0.0768895027460162,0.5341362296722979,2.246310666303684,9.529060479839876
6.65,-0.0280822500587123,0.0126159098411705,-0.1025716168107096,0.972614966624116,4.63687271953521,10.067569182517037
6.66,-0.0331211471790809,0.0001863956563648,-0.100968743604571,-0.245013202369681,-1.2378347236051652,10.26103070759469
6.67,0.0077775850749943,0.006023109628463,-0.1019462076248232,0.4038467971002616,-3.3455015731464504,9.340993396620902
6.68,0.0180199859687791,-0.0017746035631675,-0.0847256583394114,-0.4036535971592234,0.3764232461674535,10.173611038455851
6.69,-0.0194469914977962,0.0118164500672939,-0.0736552727641169,1.4629173261483148,2.5354821040899607,9.88141330715976
6.7,0.013665174219301,0.019462779158728,-0.0799322453559939,0.069878047132869,-3.797283400248314,9.05076735187782
6.71,0.0816184606784601,-0.0208104070172331,-0.0936480787815157,-3.021628408000293,-2.951378131292968,9.177904576083469
6.72,0.0215938142502605,-0.0168302500762942,-0.1169427511514727,0.1665442127047052,5.39197991929792,10.160787824088422
6.73,-0.0535634100761215,-0.0066049295091146,-0.1048175943316523,1.0648288154762322,4.827164301970896,11.364290096265364
6.74,-0.0239778513363566,0.0018866541690928,-0.0891528231324259,1.3607751138089088,-3.4866904769648275,9.74500185791114
6.75,0.0236049051517299,0.0230351261002904,-0.0725490925134722,0.9123557846812252,-3.436383933227303,8.71879794367199
6.76,0.0127427529021187,-0.0021751801337185,-0.0476679791928832,-1.1870125258897228,2.163705552367839,10.762439808542712
6.7700000000000005,-0.0061750064901403,0.0209801396950791,-0.047000023466498,1.8547996513672225,0.4915438534328826,9.18900593132722
6.78,0.0099128500117377,0.0220735718520597,-0.061678304267079,-1.08400673849552,-1.589832100760447,9.21093709440042
6.79,0.0407958104537915,-0.0183843138661457,-0.0869198096217219,-2.817074268479322,-0.8208827697203235,10.487918995978664
6.8,0.0152926763126536,-0.0026714048524277,-0.1089870509923998,0.6138081029456085,2.573369286215885,9.377331785865929
6.8100000000000005,-0.0421667592996723,0.001610453625826,-0.1148002621950213,0.4735923450052566,3.558907958513807,10.51641701327235
6.82,-0.0210783586449697,0.0037920144388682,-0.0998280150116984,0.4519969880293966,-2.550365918316808,10.048507557282395
6.83,0.0296036221565102,0.0022093205776844,-0.0820495438994471,0.4397408102935722,-3.811529075016887,9.203772726791511
6.84,0.0506697120633031,0.0008752990326508,-0.0841084075392787,-0.6530466641825352,0.5329622490719008,9.589091190520096
6.8500000000000005,-0.0017337527469742,0.0072415285913737,-0.1025245812954012,0.5695683453448454,3.887514893786778,10.363343515695838
6.86,-0.0549055152376072,0.0167147560208658,-0.0999317792476718,-0.0650058245918327,2.5237047298052544,9.78849617955786
6.87,0.0049901326443199,-0.0065214300748286,-0.0905775455059115,-0.980513886316514,-5.713882478103148,10.090126608739572
6.88,0.0578084542669101,-0.0166992845293096,-0.091841566306502,-0.4373844783245478,-2.0241838641923344,9.100843259145764
6.890000000000001,0.0165741094097715,0.0179264901972737,-0.0986492437542979,1.8618935722604015,3.658950179394601,9.677243519548355
6.9,-0.0492974360137588,0.0148844873499929,-0.0858257738174502,-0.7134314566045389,4.936331201026169,11.044924134855677
6.91,-0.0272397129493467,0.0065327402622169,-0.0827705738367144,0.4308059651786265,-3.410665619217344,9.916298269161183
6.92,0.0522386229375207,0.0032535324805641,-0.0860541043104235,-1.1141112961915065,-5.500559734353239,8.276752396857635
6.93,0.0516268318502975,-0.0158117346867044,-0.0979086560429637,-1.349111007396949,1.8499480895276836,10.542659083478917
6.94,-0.0104597665128647,0.0145020552496471,-0.0997833189786975,1.6949388507501637,5.375205775584639,9.97361326771822
6.95,-0.0687001520431466,0.0063559443809751,-0.0945778739871089,-0.9216648852340088,2.0640913462254527,10.629400943292213
6.96,-0.0047079525230068,0.0031852080895892,-0.0830001336754862,0.1715672414954717,-5.360303496953969,9.226089597005464
6.97,0.0820094969063693,-0.0179860361616012,-0.0825556320370738,-1.442143051570021,-4.709262172824154,9.30452470863418
6.98,0.0243500611687867,0.0064761791732946,-0.0901689258636538,1.6189606314380134,5.964186189205997,9.592638318632776
6.99,-0.0689019671204175,0.0124238764288537,-0.0849528488935534,-0.4056062886191924,5.467630228237381,11.203847312238342
7.0,-0.0031311465931149,-0.00970414454431,-0.0877320048631732,-0.8092661264207096,-6.4954480890069535,9.746163527033705
7.01,0.0679352740416715,-0.0005324203529279,-0.1124344867886607,0.1859932002484572,-3.8397322553334177,8.197660977866116
7.0200000000000005,0.0134809632973788,-0.0128362602842848,-0.1065745008410517,-0.9524096439557396,5.491038093785014,10.44811614019914
7.03,-0.0560167972028236,-0.0036678989872897,-0.0952579778851573,1.3371803515775706,3.391483096808188,11.07821885264326
7.04,-0.0074314688347149,0.0043687451480938,-0.1069391471566264,0.7935200689469655,-5.1882561676699535,9.224367422932502
7.05,0.0513870033038924,0.0087352036253086,-0.1166633096756045,0.1695921387036311,-2.9334997990871847,8.83795823606082
7.0600000000000005,0.0323310562982726,0.0042764443700096,-0.113288122159392,-0.5214971617503781,2.0027188503188484,10.154791370843965
7.07,-0.0476965178156459,-0.0078673412484589,-0.0888524380744998,-0.7302573766203749,5.89880012406019,10.805399856389707
7.08,-0.0095440817165357,-0.0030685539921074,-0.0793394995154444,1.294312990411846,-4.74002526649168,9.751984239572913
7.09,0.0586626950465307,0.0162730721794921,-0.1062899333657328,0.6241199485303145,-4.146241784943631,7.752728934879453
7.1000000000000005,0.0219019385057085,-0.000650691019656,-0.0930008170427386,-1.313657486961794,4.0898263574596285,10.765631988420532
7.11,-0.0404713253921201,-0.0090225704532383,-0.075486029428393,-0.1913184938630294,3.541466785369668,10.87247430081338
7.12,-0.0075198619737533,0.001529540989584,-0.0760064152301852,1.0371879168421878,-3.831476595557272,9.902546956612175
7.13,0.0593250294048163,-0.0062246037729305,-0.0955103737534587,-0.3956331482944045,-4.140229692116851,8.582492143578289
7.140000000000001,0.0495169318966091,0.0150118490171944,-0.1028855619253222,0.4794312508618386,1.8412125773415309,9.077970751228635
7.15,-0.0422993635989907,-0.0156633653344854,-0.1074195382417742,-1.878399029444226,6.731378373384504,11.779581720229883
7.16,-0.0475766290210513,0.0013936315658313,-0.0979613390983645,2.0312686154624755,-2.2106483608205,10.051066683826749
7.17,0.0427193377873672,0.0266280311878729,-0.1114344177068774,1.2063448632095248,-6.698630480223121,7.812023576346432
7.18,0.0613780995231844,0.0010566678279595,-0.1153888431610171,-2.5548529959288864,0.7861345990434675,9.99929690451359
7.19,-0.0177341627666581,-0.0211203912937558,-0.1011516181053225,-0.917712123327988,5.701683279890136,11.357887386600831
7.2,-0.0399848839886319,0.0062515685618222,-0.0917314839781825,2.2861462590632966,0.3583029533587614,9.816148413348962
7.21,0.0125775969523278,0.0135659630365464,-0.1042094332398478,0.5381865493937925,-4.776325129650914,8.568900578896942
7.22,0.0651528114327892,0.004548481382563,-0.1064877388300006,-1.3423587480441967,-1.835126226218101,9.225514791545928
7.23,0.0084392967973513,-0.0180362862498288,-0.1227067661704127,-1.1756332775738008,4.630222957884707,11.276367971121692
7.24,-0.0499042058177388,0.0086078176904576,-0.1187448156298701,1.4421932360278036,3.3322142304772124,10.028962647399984
7.25,-0.0136351769840401,0.0159168934523196,-0.119996148091704,0.9148097323939692,-3.9919870082790223,9.368044354753746
7.26,0.0528112071313811,0.0047989432062741,-0.1258438629330699,-1.8752635734368124,-3.7773779695256144,9.172784004042436
7.2700000000000005,0.022941530298876,-0.017212196789021,-0.1187879619421069,-0.8731224025062908,3.7645807697172735,10.654430577590444
7.28,-0.0517207360060943,0.0199924127123029,-0.1127834943355624,1.811492952870032,4.715012158249203,9.652229832719096
7.29,-0.0132040241480959,0.0040428051132089,-0.1157224578084056,-0.7176089741038312,-4.186860294869473,10.028628122124992
7.3,0.0257615071728459,0.0090709239800324,-0.1141833839239184,-0.6812560428947882,-2.190851677082342,8.75724311390197
7.3100000000000005,0.0119439401774785,-0.0159920555636223,-0.096038575214297,-1.3353906355979828,2.515916261417193,10.97051580079343
7.32,-0.0192429051012156,0.0012524411826567,-0.0882652354659144,1.1633551780769846,1.8029314420741955,9.598873613362764
7.33,-0.0101633542892128,0.0028493600897672,-0.1108868745388095,-0.0844072113598715,-1.0571390679667458,9.585825427194065
7.34,0.010383197276759,0.0064449195216532,-0.1060377908171717,-0.2042049538003401,-1.36513815426915,9.46710597015544
7.3500000000000005,0.0020542666569325,-0.0122771822742489,-0.1016491529764239,-1.3446286205508655,1.6196102305046467,10.587912580222856
7.36,-0.0264115504913534,-0.0049327252856581,-0.1043138009728495,0.7979918784953349,1.6331533809102792,10.101608084349635
7.37,-0.0115063922053388,0.0151268041444828,-0.1086026531876628,1.0565862000355428,-1.7642298410415662,8.82050704956378
7.38,0.0178736647353924,0.0133970090980698,-0.117154668015391,-0.6017751938627379,-1.383032490715796,9.647990940870605
7.390000000000001,-0.0164321277580051,-0.0195217707767108,-0.1065071475924555,-2.155833660819209,2.4286939941860246,10.827940704820485
7.4,-0.0182058127095414,3.2378299972555903e-05,-0.0919507471145693,1.812483975891164,-0.2059573731296463,9.2238527371066
7.41,0.0062560028256787,0.0093572054833465,-0.1151942190946642,-0.0871719818353033,-1.3249615087429598,9.387153411161998
7.42,-0.0191205779480528,-0.011305356790857,-0.1018265140475337,-1.279633263940534,1.657111335265663,10.69642806348988
7.43,-0.0115634683005417,-0.0073383966361379,-0.0899104354204241,0.7931663071886487,-1.0184975210148055,9.802281856154211
7.44,0.0068388355564562,0.0086975875719234,-0.1072044176281993,0.6284549855126306,-0.8583562918305733,8.96941561228072
7.45,-0.0105422324275249,-0.005467399470078,-0.0925151509465281,-1.1256769943050895,1.2681645340268826,10.670140741836594
7.46,-0.0138353034556784,-0.0128053066902007,-0.0896897119702403,0.0277344377910698,0.1549400964422759,9.940327296997513
7.47,-0.0019867773933486,0.0076873669375812,-0.0940157574833933,1.152439980530998,-1.0176029732646492,9.09958462616169
7.48,-0.0002374330688129,0.0028157098047922,-0.0901111689628665,-0.6235929959492952,0.6420179185288097,9.918330174341746
7.49,-0.0217059260754682,-0.0097561895734962,-0.0950248119653765,-0.4806499839357689,0.7612550705717351,10.299503532876734
7.5,-0.0110830102158782,0.0070722470802134,-0.0848500159801547,1.035473336452443,-0.7368256982467754,9.518949760220815
7.51,0.0113706441598754,-0.0030372894078675,-0.0785124329151217,-0.9467751200213074,-1.3139770173513352,9.887678630805832
7.5200000000000005,-0.0053241522021171,-0.0131813000066634,-0.0996569049777094,-0.2078752107092747,1.3971219070272012,9.904455314986924
7.53,-0.0180722106686188,0.0105266054771639,-0.0825313282431666,1.2050986622977458,0.5445292058496137,9.44891813133554
7.54,-0.0166272723498962,-0.0037598265963192,-0.0741203529061381,-0.7103125689066175,-0.1680683777293777,10.425974930035824
7.55,0.0156533233240867,-0.0155799289619142,-0.0910846618236605,-0.2998097928510376,-2.322818775665974,9.562210192287496
7.5600000000000005,0.0053962325615713,0.0031421407437789,-0.1001514447154109,0.636118463034056,0.9357614513637346,8.957770370474915
7.57,-0.0253706692111529,-0.0069558278003418,-0.0889180329860751,-0.5701825852201646,2.7779118788883057,11.07479550508292
7.58,-0.0239949120070643,-0.0111848733479908,-0.0760930878342692,0.7361966553538437,-1.2145450630514525,9.965289297040762
7.59,0.0161726966837312,0.0086724135452606,-0.098654861492068,0.6862490698938583,-2.604584546709394,8.603711461400293
7.6000000000000005,0.012460368354021,-0.0067027452764237,-0.1086597693385188,-1.0222240706389365,0.7199598500021505,10.274398335035537
7.61,-0.0403873160361449,-0.0035331361147039,-0.0814382163108889,0.1321367320203803,4.196632600689095,10.2644303007756
7.62,-0.0283283914400801,-0.0111460365887126,-0.0798071799100939,0.7089309540969632,-2.726271758392385,10.499577883879248
7.63,0.030689969767799,0.0096267848296182,-0.0952830937923495,0.9704220357308332,-3.739755227137986,7.819125946078024
7.640000000000001,0.0303522680879592,0.0083695077709868,-0.0988400233210627,-0.3808189999399886,1.261958014881564,9.898595457103683
7.65,-0.0488183710645401,-0.0146221500249947,-0.0847146836341921,-1.4073415380336414,5.457955804489497,11.37023548017573
7.66,-0.0327022095450015,-0.0120480899879044,-0.0719995525898043,1.3744356233692523,-2.99880742068854,10.1339509041006
7.67,0.0307918610944272,0.0106870902632639,-0.078828546148688,1.4846714920190138,-4.73557364097668,8.100150989971496
7.68,0.0552144464325938,0.0053075704528554,-0.0921562639297549,-0.7879183096572332,0.5281186107001975,9.332810465350978
7.69,-0.0319786215771336,-0.0101754842862709,-0.0972510677994792,-1.1083632714619691,6.116786221059558,11.17456312162394
7.7,-0.0464649226563769,-0.0104057940961912,-0.0846456689061228,0.6155027277700519,-0.8866673952973932,10.502688338020176
7.71,0.0184699735392402,0.0099916781151092,-0.0948270884574954,1.7235213209876228,-4.5105385341493065,8.109325708033687
7.72,0.0348482232378722,0.0100951170084996,-0.0908458781661097,-0.5060593276711665,-0.4915031050350287,9.863717460170577
7.73,-0.0110655026808281,-0.0159415811957011,-0.0900717106880251,-1.3057535452012174,4.064712198868657,11.198905138803692
7.74,-0.0168098176389065,0.008352602052008,-0.0907662314595286,1.489737052637639,-0.4424886169009969,9.231632853588732
7.75,-0.0107530035843135,0.0197342582233371,-0.1021872860611979,0.7749272266579708,-0.5736002130717854,9.130255463090691
7.76,0.0181141934812641,-0.0019663332655284,-0.1068340567173068,-2.0572152593851047,-1.782494695691456,10.438713102645416
7.7700000000000005,0.0141810989846844,-0.0173882791177631,-0.1065978435100619,-0.4746986038466829,0.6821484982244073,9.805958185422888
7.78,-0.0224097791144725,0.0205834817203799,-0.1028949794591967,1.810899950087822,2.889100254012411,9.36936423247538
7.79,-0.0171938929410012,-0.0071898251137917,-0.1005515110911433,-1.9648693709987564,-0.927201929238522,11.03222841172756
7.8,-0.0017539212843954,-0.003225306225247,-0.0952498642028872,0.6351400949284949,-1.306928595188218,9.097859345225586
7.8100000000000005,0.0111484663677589,-0.001427137348494,-0.096481199306399,-0.2879102521977437,-0.7287710076623989,9.50258249253354
7.82,-0.004362182696558,-0.0013858337731941,-0.1123944399179522,-0.5794690398914835,2.351727938185652,10.363240070142094
7.83,-0.0344064653042359,-0.0125087424881903,-0.1085440394701068,0.0496790568370202,0.5234771081648396,10.597703013444828
7.84,0.0109079850382884,0.0108080451730562,-0.1101149794878069,0.7642013776870804,-3.2387925355142597,8.05931979308497
7.8500000000000005,0.0126771933118801,-0.0105724165412935,-0.1276398700894419,-1.6291902340671467,0.8873968519797583,10.992389079862598
7.86,-0.0354179187194932,-0.0069511843445701,-0.1009692204417292,0.6533020695724902,3.1249062461323205,9.968023797813805
7.87,-0.0077002446966737,0.0124003683385631,-0.0970902172149722,1.4261309949065066,-2.447342599168353,9.109972461635
7.88,-0.0012208802733123,-0.0042088932082812,-0.1203752112807337,-1.2911150403262135,0.0672686698166658,9.972583700769045
7.890000000000001,-0.0117374609723724,-0.0132315497706614,-0.0946169820846621,0.2408725327694227,2.284368183446749,10.750941523931878
7.9,0.0070038756441827,0.0097698522863208,-0.0969383296789233,1.894413773158476,-1.5177246944405245,8.703119994422705
7.91,-0.0011961244560282,-0.0029301114612633,-0.1180483577074114,-1.867261045639114,0.7518954809015812,10.445894449632425
7.92,-0.0102509224569743,-0.0194004849992413,-0.0963522223056857,0.0805545260910478,0.4267681070596716,10.379883747335128
7.930000000000001,-0.0031884440843744,0.0163420941433638,-0.1036136103095118,2.3541824723130267,-0.5431054005330401,8.54093014010188
7.94,-0.0088732642612685,0.0019299232175864,-0.1287791681708399,-1.6505121753985554,0.5038163400240264,10.404771853501233
7.95,-0.0002037449586275,-0.0094927684612642,-0.1183270094217364,0.0347408000378687,-0.912369652927982,9.921247791426548
7.96,0.0085718585063305,0.0145856826396193,-0.1268915784777705,2.3839388423757244,-1.0655972248461285,8.0543929947913
7.97,-0.0024802300700669,-0.0143701555288839,-0.1291465563000743,-2.118609384367669,1.2461353590186186,11.071739713793626
7.98,-0.0110575731094267,-0.0142964091598209,-0.1085045811952654,0.8318712490339402,0.2645945394834429,9.597579383293722
7.99,0.0110421901915896,0.0074085449058242,-0.1171560538233821,0.9512154931141398,-1.86002803777732,8.813872718675594
8.0,-0.0083974590439607,-0.0082347489600158,-0.117761786025912,-0.9147658330329492,2.387014743733252,10.54966041470418
8.01,-0.0229569447613284,0.0088751098584796,-0.110060523194224,1.4803697372992797,-0.0713459275483467,9.467642444519662
8.02,0.0083945883819867,0.0090918736314761,-0.1207335171522204,-0.6509742337154971,-2.846261094424541,9.636683501597824
8.03,0.0075632324923718,-0.0114083554523031,-0.1058426675619189,-1.2619510766983004,1.4366707273113402,10.669582070216114
8.040000000000001,-0.0174265921685624,-0.0068763961037113,-0.0850265425862376,1.325984907898032,1.5734085426430042,9.978849660636042
8.05,0.0121505496894865,0.0091813091918716,-0.1050726351560656,0.1575684911596768,-3.558972285628166,8.663066181064234
8.06,0.0215523335110687,-0.0078438930524998,-0.1125668687047068,-1.2588201650867723,1.273809412381458,10.144344525170265
8.07,-0.0163700669265544,-0.0150681255242325,-0.112827512365729,-0.3327748105348988,1.9685138169841208,10.536849643439052
8.08,-0.0028468363683438,0.0025694095033741,-0.1189358038128916,0.9077822764383788,-2.1253773337654405,8.964189483508116
8.09,0.0094985957313067,-0.0056013491729286,-0.1280747902812068,-0.8277944292381153,0.5598444868075098,10.335490803227326
8.1,-0.0110507857501087,-0.0139003688735663,-0.1142834377707545,-0.2797242267762612,1.1070282956876596,10.249644304114623
8.11,-0.0043809126573879,0.0121763419134487,-0.1205892888130251,1.5638502551995408,-1.0768597866159737,8.65439466144483
8.120000000000001,0.0190279313088626,-0.0098706937638709,-0.13492312554732,-2.1698878987618757,-0.1402545872215288,10.098316138134114
8.13,-0.0129012473415958,-0.0272355449396108,-0.1255662692011897,-0.8585845560122721,1.554275658073324,10.689673598352186
8.14,-0.0091930684184645,-0.0040017465459179,-0.1247479868353907,1.7984534146393722,-0.0650770046465817,9.056888250706193
8.15,-0.0001098268422783,-0.0085707891311552,-0.1306018782080714,-0.6633513333568526,-0.6368959667000185,10.022785695176012
8.16,-0.010041716727629,-0.0127115506245391,-0.122053506714255,-0.0807269703642531,0.271364243624842,10.134970693146435
8.17,0.0124880271523388,-0.0029854972242313,-0.1239187372149531,0.8993861662849633,-1.1473485005509827,9.344830502768662
8.18,-0.0165784880710017,-0.0071714377761527,-0.1224270117701594,-0.7689251824681441,1.968467280709469,10.264189900774596
8.19,-0.015398561604019,-0.0125752210771289,-0.1170492124976222,0.1111031287619981,-0.7512583368487552,9.949982508798804
8.2,0.0071746153899386,0.0027834894141014,-0.1348207396687571,1.052080593401107,-1.4875318166255915,8.907181318710046
8.21,-0.0068282559845749,-0.0034809723937955,-0.1265100938500468,-0.8564032084743145,0.7483440398491332,10.337721426854278
8.22,-0.0087789841517797,-0.0171966328803556,-0.1035469648660723,-0.3339739486092575,0.5345721824638379,10.178099008356964
8.23,0.0095844231126125,0.0023133255231882,-0.1130369705380503,1.5548269718777044,-1.9055756984642052,9.21406350917432
8.24,0.0014455359974267,-0.0011976228369203,-0.105014587682635,-0.6086220707845078,1.3928864586293963,9.875919000219342
8.25,-0.011430968332771,-0.0079550715273213,-0.0989036512793604,-0.4870930709962032,0.935174377147748,10.2666462384787
8.26,-0.0205914838275216,0.001737262250348,-0.1065054339589182,1.3217976200972976,-0.1118000722017554,9.808231672503885
8.27,0.0034250651435887,0.0085466073985411,-0.1223514107288424,-0.1686814034855734,-1.786055017621005,8.916014625905333
8.28,0.01359617764601,-0.0165090777005291,-0.1235435110749308,-1.1690103407182697,-0.6981636638201779,10.336208542643806
8.290000000000001,-0.0003195207255183,-0.0143730918432609,-0.1108847734750811,1.4410145076390717,4.16525145211986,10.839530334684266
8.3,-0.0202899158727336,0.0016930990356052,-0.1084761646808688,1.396190366856744,0.6130420150663114,9.42895272731532
8.31,0.0046015822490844,0.0153473598597222,-0.1199595880927149,0.445097119709183,-2.894049575287971,9.061979088721188
8.32,0.0253731485891864,-0.0060719062079772,-0.1084624556125704,-1.2170278154630607,-0.1030984649290605,10.49632235040816
8.33,-0.0127403575704162,-0.0062043250003771,-0.0939591852249209,0.5173557887718129,2.944329494505723,9.888263732399142
8.34,-0.0133058100099916,0.0162343505270445,-0.1063434285344187,1.2765934492269726,-1.126469376450417,9.07943403427549
8.35,0.0056207410321346,0.0073064752604728,-0.1270480704726283,-1.0445947724296758,-0.8870256871895665,10.284392255013636
8.36,-0.0097701157387173,-0.0016003667463007,-0.1273057860554759,-0.0025279542873313,1.2822024038079023,9.976059243963828
8.370000000000001,-0.0065818068698498,0.0199559166141608,-0.1230440465034548,0.9588684287219114,-1.118318215744734,9.544236667743256
8.38,0.0072533913624426,-0.0053085484774731,-0.1199429583968226,-1.770165710617229,0.2157650642278736,10.505527507368631
8.39,-0.01994637645037,0.0035721824742362,-0.1086975810350482,1.1934666121067394,2.051561913053264,9.443091360239558
8.4,-0.0143358817517258,0.0134655071528636,-0.1056159314931933,-0.0734903482311663,-1.5201542082117814,9.367706794201272
8.41,0.0182684062908108,-0.0064388489259809,-0.1105112535180155,-0.664430211825055,-1.3449517177870745,10.052644999533149
8.42,-0.0152354656040798,0.0084840437846485,-0.101289520901591,0.6561315732203994,2.4675334224627568,9.604439991347284
8.43,-0.0141701188570385,-6.528763691615594e-05,-0.0954311144770686,-0.6245920423310838,-0.8368861660596486,10.29693310166532
8.44,0.0128655674226141,-0.008523208819702,-0.0980813754023615,0.1180963106308804,-1.2067227538813687,9.712230995097368
8.45,-0.0176058487948821,0.0083334305271145,-0.0987026867689196,0.5276768488842446,2.0748453661409134,9.514897257989867
8.46,0.0063947933188281,-0.0019289357611999,-0.1077877235831324,-0.7477340898435475,-2.0813224542490114,10.06382667939905
8.47,0.0107169909897753,-0.0087415132730041,-0.1156365824164454,-0.3003503809569875,-0.0682688968602281,9.84229097211067
8.48,-0.0221129644636415,-0.0019853040379645,-0.1032598418416087,0.3959903940433161,2.5398905296434324,9.665966856725817
8.49,0.0050799552827627,-0.0041782469187836,-0.1129861948312823,-0.1621902312676401,-2.837914946290904,9.83545685319291
8.5,0.0178403285940876,-0.0131328814755917,-0.1112665263237063,-0.4008805554654273,-0.7401144174453633,9.781652422166488
8.51,-0.0158501885076764,-0.004960886066163,-0.1068073836387698,0.542898155588324,2.5857349025755973,9.514971216884655
8.52,-0.0021037322950531,0.000578347420369,-0.1101529848994319,0.2653651527734731,-1.530804224941899,10.119115291141364
8.53,0.0169577063429378,-0.015791158773766,-0.0965910208643977,-0.5196344737461286,-1.7376340717855556,10.031558051189831
8.540000000000001,0.0041866337481045,0.0009788765916672,-0.0992513251723353,0.8646780968570291,1.88261654965564,8.80142357774878
8.55,0.0057976661366445,-0.0100258313331445,-0.1144956154049937,-1.050587746947003,-0.7760800983398976,10.601734231890774
8.56,0.0009793603182366,-0.0178425592849518,-0.1083096665562693,-0.1035841744356384,0.08512259483783,10.409359869370649
8.57,-0.0138029131713946,0.0009515743981348,-0.1008935448946063,1.574483895047735,1.5883304833396883,9.183995626605938
8.58,-0.000643434230911,0.0002337082753288,-0.1109434169949595,-0.1924012099713455,-1.9602849443303516,9.93807996761665
8.59,0.0147987782759213,-0.0054865714871771,-0.1035222438396517,-0.5464156897108953,-0.735309627663438,10.18951282605446
8.6,0.0021417532466488,-0.0083324591065242,-0.0963381854118411,0.4035051010427277,1.9358859753051163,9.456509689179876
8.61,-0.023297572381088,0.0068120357367176,-0.1032535088481013,0.6004925168248781,0.7915277832711949,9.473484655170248
8.620000000000001,0.0015313536095884,0.0006591986598405,-0.095674599450976,-0.5042831190751558,-1.3193611637901037,10.4938876077338
8.63,0.0173399741487176,-0.0027811728982102,-0.0935264555038516,0.5949352566686061,-0.9780631212298442,9.746705318534914
8.64,-0.0170031304362124,0.0013457488842703,-0.0922188264550273,-0.7710886673262297,2.786272196703408,8.987465918344716
8.65,0.0041185553408642,-0.0161717722257886,-0.1031434041680399,-0.4378130167849005,-1.8738756499933176,10.596900796932829
8.66,0.0045577091003536,-0.0018729286263314,-0.1062763286055628,0.7751973605531047,-0.215135430295492,9.5769364734049
8.67,-0.0239294301486856,0.0040435678109081,-0.0995755595387522,0.5470648359712079,1.4333915619912645,9.890486098716655
8.68,-0.0147193618517889,-0.0028116046509696,-0.103160167974383,-1.220937810871191,-2.882850285189998,10.074488923451336
8.69,0.0191728809638756,-0.0009234772302486,-0.0996897322358195,0.6052293155299652,-4.403180640521794,9.162048374847553
8.700000000000001,0.006395521021366,-0.0050401359044927,-0.0982004729332034,-0.1885099038890703,2.583863956341804,9.257982991047172
8.71,-0.0058974737465909,-0.0106119054792304,-0.1098647889913622,-0.4575039174586771,-0.7133531275060329,9.651608239952726
8.72,0.0133012046465803,-0.0172649072885369,-0.1145985749782626,-0.0744525470735712,-1.0997678228064054,10.273757143566202
8.73,0.0018220907828579,-0.00527661223918,-0.1127223101677004,1.8174176908197492,2.636046182654804,9.327257268779618
8.74,-0.03254111132059,0.0069387632792399,-0.111286106449515,0.83289955518615,0.095364017502408,10.403084771844023
8.75,0.0252148979152847,0.0045859957134637,-0.0954612520755831,-0.0587286929700061,-3.595250992972072,10.02718527581766
8.76,0.0298291601188896,-0.0018419290839348,-0.0914014530600611,-0.0774032059704495,0.968540225581352,9.439173961380392
8.77,-0.0130808351731541,0.0036375609108532,-0.0919202071847025,-0.5660095394741541,2.560083302408054,9.240290517718126
8.78,0.0064410720722561,-0.0134873749590875,-0.1025777039350573,-0.7732175853761568,-1.4362354702808184,10.57213860370226
8.790000000000001,0.0064082064670289,-0.0067576157703624,-0.1034673256100718,0.362751989056261,0.5073050611089579,9.315951459119836
8.8,-0.0275577675514648,0.0067182644630299,-0.0931024951161448,0.9236064287055404,1.4081245296030087,10.371300316196926
8.81,0.0065979346257674,6.545484760068387e-05,-0.0841802236856524,-0.510975131124885,-2.789752204053778,10.315623232218217
8.82,0.0296639615952615,0.0011637814611225,-0.0781144750536982,0.2619004425503001,0.2895810806077818,8.556168610662988
8.83,-0.0149783575395197,0.0022781725328148,-0.0945027944864337,-0.5686997816466343,2.879051902506858,9.584149456333488
8.84,-0.0177675750298903,-0.0077329404340135,-0.1012614396633212,-0.978038374554558,-0.5352575431396199,10.87560052864332
8.85,0.017228184384877,-0.0058188171629928,-0.1034002405823771,0.6504809636648471,-1.9728286511419,9.726806882397582
8.86,-0.0123620701450622,-0.0020032825784149,-0.0985570577205721,-0.4575169306969974,2.097823276840439,9.586098694802653
8.870000000000001,0.002289122532978,-0.010987982544638,-0.1006119203986231,-0.1399817614552363,-1.4819157234088989,10.171041518481086
8.88,0.0179189496662105,-0.0035631983875566,-0.1031861854018275,0.507557281414006,-0.851479675371323,9.28567138746364
8.89,-0.0112625578152165,-0.003889574233381,-0.1086211827816073,-0.4605172697143701,2.6496162074339447,9.747630065106131
8.9,-0.0190538125092791,-0.0024764328089725,-0.1109299090923373,0.1549141044307014,-0.1387760191601227,10.400601963021602
8.91,0.0085303469345183,-0.0013093220003299,-0.1022429866017405,0.4004566723618114,-2.1187645340301784,9.831009976854435
8.92,-0.0025508903359329,0.0032247894350333,-0.1004911613883082,0.2204501514259084,1.8171353620371136,9.217236116809737
8.93,-0.0181516863775918,0.0036450948930389,-0.1088246953906123,-0.0801595793308184,0.5359954697279268,10.127719779696688
8.94,0.0096617910292774,-0.0058178644746678,-0.1047828671754901,-0.8456336813341121,-2.775762283158253,9.664218468593026
8.950000000000001,0.0171140381848789,-0.0158041847677766,-0.1159875196637217,-0.4187479991741244,0.6403122040282075,9.17162639471568
8.96,-0.0089466741130497,-0.0158893227888276,-0.1238649961771075,-0.3286968431475075,0.8985116967831485,10.34482661266066
8.97,-0.0153685593235499,-0.010365306149299,-0.102130982023627,0.9431892398860232,-0.2942958542462696,10.894911856698446
8.98,0.0029368620445768,0.0050671248939686,-0.0861557823838297,1.8807554054506888,-0.5433539574333285,9.256768064269098
8.99,9.625036220211316e-06,0.0176991737313977,-0.0933648971141879,0.268982344560882,-0.866720907883987,9.078201973903512
9.0,0.0123640201839659,-0.0084365738680987,-0.0921805602730815,-1.8878524759811977,-0.55144011087007,10.345020553258806
9.01,0.0230959480494597,-0.0210016473525453,-0.111862982553393,-0.973702273048108,0.0452414795395026,9.097734156880476
9.02,-0.0205940010946078,-0.0028621775514768,-0.1276807886780802,0.9415073641197296,2.334007784626652,10.289926767604095
9.03,-0.0082753954641115,-0.0046446616954204,-0.1124293756903712,0.2623251844548726,-1.1066184653403226,10.707513846943952
9.040000000000001,0.004801617545519,0.0106921128363344,-0.1103530702413622,1.4031503972468091,-0.2808505694113282,9.178845024886243
9.05,0.0072844917994662,0.0105411315464219,-0.1181158003629748,-1.0884032685533245,-0.1372330503832572,9.431854780103883
9.06,0.0117253434845446,-0.016900431861391,-0.1211983961285655,-1.7793463652403991,0.4645443518835666,10.243036347915142
9.07,-0.0311994531035988,-0.0136072308175035,-0.1303578269900386,-0.344516371086926,2.93848123530804,9.578906774689964
9.08,-0.0135878620788074,-0.0009269440498605,-0.119422654551417,1.3338894483132506,-1.6478451504092666,10.24018442280193
9.09,-0.0005066094904051,0.0011189564733667,-0.114202300948054,-0.0629386375348145,-0.707135846444856,9.672422315132732
9.1,-0.0142041182959016,0.0047147079247957,-0.1107101989211146,-0.0165767102471194,1.5658199904040673,9.656349937379582
9.11,-0.0053402741141318,0.0023564368880138,-0.1126609844388072,-0.6621803659909634,-0.4441636278611337,10.194757034609744
9.120000000000001,-0.0202316308209723,-0.0106250686452473,-0.1123379049123828,-0.6849612120471154,1.2230535405801093,9.748415441692217
9.13,-0.0197233001120179,0.000626013252084,-0.1244930875720088,0.5620866026095649,0.2105191604469905,9.232128110092995
9.14,-0.0088469368380595,0.0058413044091872,-0.1316199553431574,-0.4084600183952065,-0.8338930011524183,10.189270933993807
9.15,-0.0249627697333341,-0.014231136131641,-0.1280792457284037,-0.7697978592121082,1.204934996497954,10.0583391895596
9.16,-0.0128233100162131,0.0143309165920408,-0.1284806383074824,1.5046836272185893,-1.0916984377247665,9.541031261118698
9.17,-0.0093839010282254,-0.0226189751915668,-0.1146119636715952,-2.4069598757142394,-0.2980119954936506,10.69321955412223
9.18,-0.0040355508403166,-0.0073645910623021,-0.11732328210488,1.7244125057035622,0.441583263767809,8.642884003213187
9.19,-0.0290438094320048,0.0134987182026158,-0.1163770658196513,0.5414800800286648,0.6240097881564959,10.100030765521732
9.200000000000001,-0.0153607255867358,-0.0192836790427379,-0.1154982698382441,-1.3606968699346478,-0.979256938258412,10.069692905840116
9.21,-0.0158253035972516,0.0185647476163269,-0.1252289218129222,2.372076238228785,-0.4197839975801869,9.04908515371764
9.22,-0.0069033519112035,-0.0132598854707677,-0.1149978143395487,-2.233401985638253,-0.8510940770970242,10.9781379279314
9.23,-0.0057984646505059,-0.0187569460489894,-0.1135436472715441,0.854621737664303,-0.2254144808777519,9.358215257634036
9.24,-0.0242346631846709,0.0115812178767186,-0.1140651134075228,1.6104372881170892,0.6489802478789356,9.5582220303629
9.25,0.0101163551409259,-0.0172237196170553,-0.1112087470711772,-1.462252874841058,-2.936561627872548,10.084195356613847
9.26,0.023360149521757,-0.0140422399924313,-0.1314916563452784,0.4679447572062581,-0.5166201468290121,8.718016827836001
9.27,-0.0254902501511664,-0.00798884832346,-0.1325557333649699,0.1348368758772566,2.9919720547843194,10.897058968001485
9.28,-0.0176388832410762,-0.0125608623026326,-0.112981635075957,0.5848085357639794,-0.9967453792054042,10.552515897792262
9.290000000000001,0.0083746564012353,0.0016518523169858,-0.1161556569160525,1.507402539390171,-1.8723624930205125,8.933198058256627
9.3,0.006777367075347,0.0044084278575334,-0.116659658891112,-0.3899024081752004,-0.3839722991649117,9.529066045492248
9.31,0.0152839383878226,-0.020123119832809,-0.1181006235302989,-1.7261345687576992,0.5050181701066433,9.911404484661611
9.32,-0.0198786900880568,-0.0082477313295384,-0.1305048865498606,0.9424922252928128,2.470866295537224,10.028287900990602
9.33,-0.0329341190704666,0.0086438303999384,-0.106328154844195,1.286518140966254,-0.0702936520138527,10.302872120238936
9.34,0.0281084806823706,-0.0034294650919733,-0.1012989160837237,-0.6366737723700143,-4.120488077953033,9.563553906033036
9.35,0.0047106214539233,-0.0065721785836276,-0.1103205112041537,-1.0797676475797016,3.1726328319115447,9.04959744350761
9.36,-0.0134910080790235,-0.0094169735735394,-0.11352499846831,-0.6157552493058217,0.5878689166417985,10.508317503311115
9.370000000000001,-0.0117439110112125,-0.0140470325979196,-0.1040588793577258,0.0003540816207756,-0.1040069926785964,9.984721874177628
9.38,-0.0201345807346221,-0.0010565616232017,-0.1063359779538218,1.0367945665036529,-0.1728798934163244,9.768188488692594
9.39,0.0149671339356716,-0.0060176479597195,-0.1066620153607432,-1.13180395144682,-2.7139139308621227,9.52866932660299
9.4,0.0300021211098012,-0.0437648943232919,-0.1224137497366969,-2.040802311607091,-0.4050437548360297,9.472310921439648
9.41,-0.0110647368938174,-0.0212964755188249,-0.136479596537501,1.124379299242261,2.627459833460672,9.512264027278912
9.42,-0.0226210202533422,-0.012250976073831,-0.1234093633712832,1.1445447461582574,-0.3890593684758552,11.491839036967177
9.43,0.0062638614979798,-0.0140470779449358,-0.1061580133856837,1.4630989794346791,-1.9438457657477357,9.820856244549402
9.44,-0.0096913546853309,0.0236562317655911,-0.1022264984668795,1.6137860665868609,0.8767556967823279,8.28933592679047
9.450000000000001,0.0221743802645469,-0.0189399586628328,-0.1148806018055979,-3.040294424200902,-1.8401072363757447,10.26139136110416
9.46,0.014880934601311,-0.0218706527185852,-0.1284766596974436,0.4940708171949606,1.1285314308629304,9.517832254057376
9.47,-0.0376252034339228,0.0007403815200357,-0.1249906671465937,1.0454445235103578,3.0719137746809797,10.049929050461802
9.48,0.0021954301151829,-0.0029271195516776,-0.1191632029832903,0.478206636806595,-3.156126676127044,10.661450736732254
9.49,0.0187890735994262,0.0110162697670464,-0.1218057525576655,0.8309376880073589,-1.2117389937667795,9.03942017284417
9.5,0.0219714841167895,-0.0090848829962158,-0.1060165715636317,-2.1161450896203893,1.251240355562967,9.096282951893432
9.51,0.0206889839447515,-0.0455594845055705,-0.1232467991532389,-2.2499407704404715,-0.5437377258814667,9.89406803477776
9.52,-0.016860938223806,-0.0182120678790727,-0.1296945763053004,1.547248795412681,2.239843722749233,10.179393658237505
9.53,-0.0065752535656229,-0.0007710859542946,-0.09169862691775,2.212797240852303,-0.7565311349062527,11.149444089670984
9.540000000000001,0.0145658234144097,0.0079828096182565,-0.0695595470489565,0.9063550680065586,-1.650059595445101,9.61284261061838
9.55,-0.0008940093131328,0.0105024189789947,-0.0614586723269526,-0.4665267298842681,1.9566606424914383,8.386910276804379
9.56,-0.0061242063656582,0.002126779275612,-0.0750538212479655,-1.1059316199137963,0.9390545938172408,9.70479610143233
9.57,0.0045708410779658,-0.0112976552157923,-0.0883877826155726,-0.8302397862572999,-0.96370688698151,10.4450908947544
9.58,-0.0096005817225132,-0.0053781017628688,-0.0915052918018405,0.0337810739443385,0.6154916829973957,10.079330317245956
9.59,0.0139422862895313,-0.0282054741090266,-0.1043340292991702,-1.9573127893930695,-0.7477338847930431,9.74825505399141
9.6,0.0013791600197345,-0.012678331706948,-0.1309846294344966,1.302563265387539,0.3957045780998449,9.839257814958222
9.61,-0.0443209745801348,0.0026789813076371,-0.1239439201773707,0.6299541260585839,3.304416168571255,9.739353564121645
9.620000000000001,-0.0084081350612413,-0.0088362124738567,-0.1256574047030512,-0.3384984183677568,-3.86906844075548,9.82764320948879
9.63,0.0469148258875993,-0.0179606818304332,-0.1202221093000475,-0.6438871172855543,-3.0133064951190454,10.176983302821832
9.64,-0.0104746757434369,-0.0129911487801739,-0.09247286145106,0.5214514994443493,5.892419199983733,9.66114672738078
9.65,-0.0479876409571633,0.0016414020940629,-0.0995652479352061,1.3336932791825185,2.149842314517269,9.226007870537783
9.66,-0.0321570943719013,0.0114806522000028,-0.1152956438483302,0.2011298184639041,-3.2746426427478226,10.265799171476296
9.67,0.0388784965677117,-0.0141343792588946,-0.1075615686596934,-0.9422385721828884,-4.410469244461358,10.670977665606248
9.68,0.0105075280843537,-0.0125733269407475,-0.1006695953430239,-0.6979878237022321,4.181201521116395,8.588654373961512
9.69,-0.0394702215283118,-0.0087027465023211,-0.100996951502711,1.0895930822746118,2.869372879350516,10.292763651203645
9.700000000000001,-0.0510871687960049,0.0229363995577062,-0.1118103143991534,1.5298229246279262,0.5318219165721408,9.205891755679325
9.71,-0.0033870763251659,0.0016873007709745,-0.1173411709488932,-0.8560553265220409,-5.882774384485722,11.355671418686626
9.72,0.0405056732273336,-0.0252370345688696,-0.1032435921253268,-1.8039815430370996,-0.8414368135044079,8.96922247547828
9.73,-0.0028762843539282,-0.018038057849954,-0.1044726920546595,0.8945189199685698,3.8679961070827455,9.342866134104446
9.74,-0.0390171686159511,0.0131061755937903,-0.0955775183857981,2.166625000975363,1.839416924288665,9.685740289897277
9.75,-0.0391211456098464,0.0160708218733717,-0.1011251610936228,0.4117902110636121,-1.7649534982268522,10.791118673846384
9.76,0.0237713610793141,-0.0052848609265247,-0.0918404040159289,-1.2988366930853723,-5.204619616574023,10.1750594395905
9.77,0.0233753060655255,-0.0267524945916441,-0.0908481505931918,-1.4448072946625286,1.8384108582163297,9.068735474818553
9.78,-0.0131389161461864,-0.0016375007792283,-0.1017428142251078,2.014252344497298,2.833695408252704,9.360771496898698
9.790000000000001,-0.0390421955444238,0.02309463714852,-0.103542054933459,1.4250166280322745,1.385275370543872,9.352023482859469
9.8,-0.0300280950552227,0.0116176777519619,-0.1205587786854807,-1.1938409430089971,-4.1747448192562056,11.493089433885118
9.81,0.0439400762067183,-0.0147499365217489,-0.1114075062097613,-1.410766498633325,-2.860809412692751,10.19969929198378
9.82,0.0048463419502139,-0.0189519237106484,-0.0950322178424899,-0.2108818745419798,3.758223245548069,9.338543764370062
9.83,-0.0109841959275731,0.0046034881484008,-0.0985801321686808,2.399458157651704,1.7449170298259733,8.71223971605943
9.84,-0.0532524126553321,0.0302684207705285,-0.1214082342804972,0.2742799681611139,1.5062622692251824,9.563830011216858
