time,wx,wy,wz,ax,ay,az
0.0,0.0029626962745046,0.0037518507381005,0.0109700233128615,1.1240814488750752,0.50048862768513,9.620446988008124
0.01,0.004488994960365,0.0022655338083726,0.0179109562572785,0.5288823383095058,0.461390026554664,9.741700988937884
0.02,0.0081091593827439,-0.0042098262640288,0.0223656993743726,0.4199775348967182,0.5320018233895001,9.843165805527644
0.03,0.0016623712866599,0.0025495205539481,0.0162809051957675,0.8928903436687938,1.1612215358452376,9.94668197528545
0.04,0.0059913130220362,0.0107814820336906,0.0040759137750365,0.9626890436472684,-0.1828367887948913,9.711162466402255
0.05,0.0144159686548181,0.0042515003014123,-0.0034056279423884,-0.6258510712359289,0.5373225069338254,9.297751752599074
0.06,-0.0078396326845774,-0.0127787210269962,0.0035909171833419,-0.8754077410375969,2.6765693427239245,10.919671745539029
0.07,-0.0050662000760802,-0.0097385666534709,0.0159175608691522,0.9651364801164776,0.6996973118185764,9.966397930899756
0.08,0.0002892237766734,0.0081779751344347,0.0135299990338035,1.507838051659859,-0.0404815959036457,9.560550153769489
0.09,0.0109781271626846,0.0036177848400853,0.0111877944704839,-0.2998921467686718,0.218135047493204,9.275826139524584
0.1,-0.0023398431879147,-0.0084813898927632,0.0110533878591605,-0.4589348537089016,1.7303179455036708,9.934097328334444
0.11,-0.0077817817542061,-0.0110110743521475,0.0088887958240457,0.3632135955243845,0.6805741988622386,10.435699967541767
0.12,0.0023451930258334,0.0007035446310961,0.0085616943810829,1.547054903483366,-0.3224683831430215,9.66749693902854
0.13,0.0080153998361323,0.0100206927875484,0.0107122276362725,0.5108234070550602,0.6577547885645092,8.893831230989832
0.14,-0.0101775009575443,-0.0136759056571278,0.0141051913064667,-0.8957805293634344,1.7592902996173254,10.349590732030189
0.15,-0.0074756434315082,-0.0083861948799284,0.0134764265653439,1.112641186912836,0.368273860776012,10.280382241060302
0.16,0.0069991828463366,0.0078040548190107,0.0097592778888293,1.624433203551657,-0.4745599732986376,9.54284460420701
0.17,0.0111559920484702,0.0120526150798889,0.0070055586670287,0.0750097289182011,0.64303757066055,8.793750250419746
0.18,-0.0117741505006854,-0.0184516072594006,0.0099736348178931,-1.3337337953252684,1.9802239909450403,10.638155125527664
0.19,-0.0093808612115343,-0.0155760232501677,0.0116803747054883,1.0757469918593825,0.2725600721432459,10.436005255318422
0.2,0.0030269824764857,0.0110225637798198,0.0087985362310656,2.295568069258439,-0.5165924477209018,9.27071744839053
0.21,0.0128694372250295,0.010736770724797,0.0126876457047411,-0.2888746822652743,0.4269190826860496,8.794424363744582
0.22,-0.0081279999144489,-0.0147246988914513,0.0190909307834454,-1.0987229096876858,2.220567590345284,10.422183969892997
0.23,-0.0164116999074325,-0.0087091574892734,0.0291949611541577,0.8943447461469649,1.1634157914411478,10.508993451172008
0.24,0.0036169360044254,0.0111007722271954,0.0313832581427642,1.7280928068414114,-1.0353684805112988,9.278997283293323
0.25,0.0114686871758379,0.0107061600226887,0.0294012584176608,-0.667983368724966,0.8179592946535225,8.797562441858956
0.26,-0.0170000175605996,-0.0191434075351349,0.032609126382763,-1.5456628451967138,2.5219538939473427,10.705495001210023
0.27,-0.0168002782490434,-0.0136868224993527,0.0309736438479968,0.9312806221245856,0.2184356275322648,10.324496380929435
0.28,0.0036485430296129,0.0085440208288698,0.0321962748107262,1.901461496843955,-0.8383702905926027,9.279261119030924
0.29,0.0087056427915378,0.0027451677416518,0.0380109537777253,-0.5391415704228072,0.6256863119151037,9.164127957722608
0.3,-0.0161550790804698,-0.0145053145632851,0.0493815940257855,-0.2736267887358665,2.4012940845678967,10.534019692066208
0.31,-0.0315901376738318,-0.0345218338962699,0.0352226112422295,-0.7564109758896334,2.250958010967898,9.817098191771002
0.32,-0.0788168040186195,-0.095989390702339,0.0095444152516075,-4.039359357074451,3.4851081094002843,9.855635761838483
0.33,-0.0717870143654429,-0.0774458753201522,-0.0161183822515658,3.735409017091072,-1.0723623629766263,11.950931008142083
0.34,0.0039680425003415,0.0069841597410097,-0.0024330258916369,6.364990452435404,-5.042981090132357,8.78074643841061
0.35000000000000003,0.0503991893851928,0.0582792653837269,0.0394565191504308,3.990911361337667,-1.268854724221197,7.206230582241464
0.36,0.0222576535827296,0.0470422101501534,0.0614165578421899,-1.0119825374101212,2.8441385119734144,8.796704332608513
0.37,-0.0230067452745248,-0.0301034771270899,0.0389127497014352,-5.083239140415455,4.07276136615043,11.576334417462608
0.38,-0.0769743729970898,-0.0816859548983537,0.0052734346513398,-2.931275429426677,2.94317573758508,11.736469709895296
0.39,-0.0360220107223967,-0.0298010162293841,0.0011696653359332,4.981627910797118,-2.7518238171673635,10.5535569461524
0.4,0.0252751618391838,0.0032347809794808,0.0361315448221513,-2.517533427199738,-6.545139175571975,4.854176281036001
0.41000000000000003,0.0585910841965671,-0.0161526854567744,0.1014818314847298,0.1735886393973412,-3.903369925540313,7.735232598493114
0.42,0.2071548179597457,-0.0043849583217593,0.1491780270275422,0.150454002043663,-13.551740821528618,5.695410291999636
0.43,0.2755123739914781,-0.0433063040278477,0.1543099124368974,-0.3928225598636246,-3.2359802104613,8.256186153282872
0.44,0.0932893845457267,0.0595486340301753,0.0881733958062478,5.580032597586757,13.335096693254371,12.421029038618864
0.45,-0.0297516027711963,0.1094378869453642,0.0771231566008874,6.107317493835742,13.069727930816509,14.433281939619004
0.46,-0.0727689021535142,0.2728138061017947,0.1158606622752496,8.114844480907909,4.62901019791066,6.32858682729805
0.47000000000000003,0.0798823589772377,0.0385215922444584,0.1098794479307481,-19.334437933284413,-12.62523333554208,10.667170044698327
0.48,0.1226988209408397,-0.1727485892224816,0.0788753617939301,-9.292452202045352,4.093869228255248,13.808923276582568
0.49,-0.0693100763496305,-0.0437330420780399,0.0764736745890923,13.273456656098748,16.589736162882176,13.21806389565925
0.5,-0.0942763557446218,0.0104478388042951,0.0853286076721497,3.12485993033088,2.233257215590472,8.070427825874585
0.51,-0.0042308568772756,-0.0348958661236053,0.0423573058482953,-0.8880630135398169,-5.799074840583963,9.241000728114088
0.52,0.0385087723564928,-0.0182075194686639,-0.0041077790397456,2.593687382052117,-2.003510384561252,9.194165655739637
0.53,-0.0242588777468609,0.0348270870683693,0.0291263841476985,3.878876127355325,5.15740668520089,9.128894066170169
0.54,-0.0332614463237497,0.0118051928864409,0.032165217065508,-0.9543182347753972,-1.3369357356825784,11.16563585605194
0.55,0.039270299001247,-0.0220711613027545,0.004091250329534,-2.58666276887187,-5.133859065376539,9.08319248059249
0.56,0.0007585521824814,-0.001223907550161,0.020358846375043,2.903463849183066,3.465149458959036,10.007783428126013
0.5700000000000001,-0.0093758834143891,0.025533102824387,0.0324754778680154,0.3772281502292348,1.543958710199082,9.330433392661494
0.58,-0.0020209348231113,-0.0111353366122252,0.0347328957554646,-1.4342725811006651,-0.6901953870917632,11.153200941937913
0.59,0.0267063229058253,-0.002905081473859,0.0303424045827933,0.8368722418263991,-0.9425738082479552,9.441639941122276
0.6,0.0268584106583719,0.0304435171562759,0.0353016060230084,2.434543638243107,1.355902113759463,8.514791691596452
0.61,-0.0089377684172841,0.0115308823504411,0.0347743321594544,-1.839071518211112,3.5281024673344343,9.57660329809864
0.62,-0.0158568803702355,-0.0307996757955182,0.0138649603736349,-2.027687808866003,0.089745768304708,11.184114154955315
0.63,0.0087991517222662,-0.0209275035332422,0.0298834748950549,2.4742611143355515,-0.1471752588702942,10.380807271589507
0.64,0.0134935640794863,0.0405313778299206,0.0370701838669129,3.994301583182489,0.4575908403486982,8.267488140639614
0.65,0.019707911874237,0.0289017048353749,0.0441118654248067,-0.951405067014158,0.3221868409475178,9.770956739809163
0.66,-0.0043064878030423,-0.0463590874868968,0.0262172937777587,-5.304917108828972,1.8714004379882816,10.446624343249065
0.67,-0.02856772047483,-0.0463691244683852,0.0322610520210811,2.2319342564228477,1.9466437041385665,11.037408247302375
0.68,0.0007515406153171,0.0277705036614223,0.0430708554026433,5.302561879656639,-1.299321521173727,8.43035077604901
0.6900000000000001,0.0337890576196442,0.0362310794998554,0.0378869500395604,-0.013804509029332,-1.5149849200244694,9.118693983398554
0.7000000000000001,0.0190550893182016,-0.0248376453235987,0.0434845451649972,-3.316104737768073,2.0824430828277083,10.69244497606934
0.71,-0.0140449844209101,-0.0379809950522465,0.0466583807405778,-0.2682443861691444,2.616339714179878,9.95130179387725
0.72,-0.0130893174150586,-0.0143377475269986,0.0438534904655763,4.525050811059391,1.8219211292992796,9.660162085779548
0.73,0.0117030472992854,0.0811570309650334,0.0803323079284974,6.788441624305996,-0.0254483911835718,6.913155710170149
0.74,-0.0043229806266858,0.1028140306439392,0.1456473458942719,2.253277207072133,6.082961206537007,7.41351916208964
0.75,-0.0660935506473327,0.0748325705484077,0.1816527385649033,-1.33096080837167,5.8838037093576405,10.15243637140783
0.76,-0.023311929722035,-0.0429820989340408,0.2020449776586839,-10.88829821334823,-8.025430767316598,10.696564518832057
0.77,0.0825324340661069,-0.1750276943017521,0.1885822702583619,-4.680039987844047,-10.281512535115777,12.5301329737613
0.78,0.0578597843645067,-0.1315451879324042,0.1838289190468141,2.987636463114596,1.7455714426653317,6.407872961222635
0.79,-0.0262184680760413,-0.0079577826803239,0.1357612599071809,10.670120154348444,4.162514103394605,14.230688485781576
0.8,0.0429583833724047,0.0879781576932849,0.0416026812431165,3.196172565994749,-5.411233507524968,9.748916376069603
0.81,0.0743928645618631,0.0342209758971623,-0.0630416806402853,-4.073908945001167,-2.4647813128248406,10.415394647973812
0.8200000000000001,0.0310474670833522,0.0377834379450762,-0.0617795820894888,-1.5569683378708234,4.469274103656201,6.5365609295878215
0.8300000000000001,-0.0007656759510701,-0.0266812826212044,0.00871126618355,-1.383497416894213,6.842969756926927,11.273273530243769
0.84,-0.0197789007805391,0.0381123914924223,0.0485822920140572,4.464817498659255,4.153173315982294,9.503775392078044
0.85,0.0013531813784382,-0.007844012259583,0.0495646845933743,-3.840403369730369,-0.1212395312841502,12.401452854350616
0.86,0.0087347132114044,-0.0337995048604918,0.0389108609792539,-0.5905332542815367,1.1533156400778808,9.65368249545196
0.87,-0.0099946674489737,0.0035267510785448,0.0307480775204249,1.900912502336474,1.603934487955807,7.652828706799304
0.88,-0.0236236976518197,-0.0176192579763017,0.0197553791490146,-1.1272761030374705,0.4860615892372572,10.29741030348684
0.89,-0.0106859369687955,-0.0203407326096977,0.0071343899157592,0.172634752803635,-2.488152676039851,10.882752724877424
0.9,0.0065693009763756,-0.0186437146449358,0.0267787285533496,1.1524446128527452,-0.7585445496308909,10.14647202695355
0.91,0.0020694718844566,0.0080988612118013,0.0479518723127194,2.671621813802365,0.3113451335784669,9.412465308251884
0.92,0.0352416896055839,0.0124642304391741,0.0429624271032163,0.7745135367624205,-1.4209238279775855,8.614370856758136
0.93,0.0042373631400384,-0.019280426961661,0.0317113425967046,-2.174862810694141,3.923150636450976,9.892939776856863
0.9400000000000001,-0.0274639843648894,-0.0293907068102249,0.0142006807413646,1.1032598327947354,2.561073883674452,10.999561405672647
0.9500000000000001,0.0008222750486749,0.0181559393706913,0.0155431766447373,3.558014213215186,-1.2370957177650577,9.10110442478466
0.96,0.0417399038776949,0.0319621153564733,0.021123758369381,1.287895251953198,-1.4830567265153691,8.751560056441923
0.97,0.0121155192048185,0.0003166169708201,0.0216204811271973,-2.7664344229332887,3.0998539427716723,9.896968503084947
0.98,-0.0337460182907083,-0.0621829918011996,0.0295504823711463,-3.0484986151799136,3.160255208292278,11.59142502636292
0.99,-0.0224968364314069,-0.0183289823925784,0.0374549989041634,4.329263507282128,-0.4100855110766854,9.832600591925052
1.0,0.0293529340992505,0.0226698040476975,0.0402818050619908,2.458568438623713,-2.702640151721054,8.398689750421237
1.01,0.0189546085095002,0.0244545574488707,0.0501555640634843,2.032994870007417,2.3730634301912223,8.447935816040058
1.02,0.0095155857141143,0.0657118076701569,0.1052014220890351,3.522389249813965,4.356556875805218,7.857808898665756
1.03,-0.0429999465147941,0.0409207591740872,0.1574998487171479,-0.694633881086655,6.769469794252793,10.226690978672666
1.04,-0.0846745800132155,0.0370555481433283,0.1706701357302018,1.1833413109849389,4.004387427958414,11.276937925118531
1.05,0.0193447060789308,-0.0282170807648843,0.1605024028953858,-5.083969416978481,-11.188437074777962,9.32741191526834
1.06,0.0386206468228821,-0.1207929410472753,0.1535177071031876,-3.529890111529972,-2.699592774259959,11.57641518996367
1.07,0.0640525377656471,-0.032689176857248,0.177200062983925,7.447982257085917,-6.01410218807657,7.589164152087474
1.08,0.1181418654344226,0.0272034199271197,0.1736290146049806,5.796896589530806,-2.518580505601729,8.085225306238335
1.09,0.05925808466812,0.1220220122077796,0.0882493842777558,3.9732606799792975,3.5159522414753828,10.750244400874696
1.1,0.0133706672490837,0.0403442561721104,0.0002532201737859,-8.360313582655522,2.35870008046166,12.139561886774464
1.11,0.0565469226329798,-0.0113213330220487,-0.045573589539831,-2.269854283384617,-0.8503080260883175,10.728457177980966
1.12,0.0217459252737223,0.0344382478608909,-0.0488978784146956,2.4444874380615804,4.772221151907446,8.123896810255058
1.1300000000000001,0.0161385244396916,0.0396323530902488,0.0131491635379144,0.6673763446591465,4.958711350220898,9.52464451071672
1.1400000000000001,-0.0137247885062645,-0.0126220211315094,0.0502248358365842,-3.3949290923976325,4.812759839720518,11.001211671714174
1.1500000000000001,-0.0180817661953068,-0.0209852349074115,0.0635452296969243,0.7931204782451828,1.4240270199238485,11.040303949083835
1.16,-0.0014192619967525,-0.002930349489213,0.0416173216339894,0.3542398372489571,-0.3901060430534145,8.11596275852206
1.17,-0.0107129845473859,-0.0248624621060826,0.0164952202153154,-1.7605195937321376,-0.0696994023905316,10.273375630713492
1.18,-0.028975659867767,-0.0380905656574901,-0.0027780920814028,-0.1307330588845913,0.5952450503714827,10.478256442521715
1.19,-0.0250857793850921,-0.0210211410772797,0.0092749398586102,2.229994774070975,-2.20017909472357,10.594852322853995
1.2,0.028596605643457,0.0014347758543052,0.0465340081986733,2.985615983446843,-2.665456307210344,8.617821086722884
1.21,0.0404207803368112,0.0341089333251367,0.0603924941655942,2.617687967691294,0.218165569165555,8.790113840779131
1.22,0.0100871336141633,0.0004724034614296,0.0568071257707425,-1.9496059008740765,3.726260337086735,10.4262560229686
1.23,-0.0182798592260542,-0.0410703224791669,0.0349050376948663,-1.8983148122200055,2.1301496558068,10.826269829579417
1.24,0.0095983118784877,0.0030492292359134,0.017881381177599,4.128448375082489,-0.5738190893354432,8.969605696124331
1.25,0.026526608440496,0.0472613765811775,0.0154046917718597,2.5128367281197708,0.0615562523539212,8.551884521070289
1.26,0.0148431021346734,0.009838281576908,0.0184213620063611,-2.96974894158501,1.6283097302370926,10.369659984923
1.27,-0.0144363028843402,-0.0457020290379741,0.0297077380505153,-2.6719536400881685,2.8554188390114983,11.233802094263424
1.28,-0.020000471907209,-0.0207848994745527,0.0418356757995435,2.871256324439708,0.5569029764473219,9.654422486626707
1.29,0.0137847669564782,0.0290518443938386,0.0489163872238942,3.1490085621332646,-2.101867965835008,8.710616917770121
1.3,0.0291091912392298,0.0075442139556173,0.0482141923543759,-0.0009367396705935,0.9774021566712536,9.406013269484037
1.31,0.0191299695583958,0.0600803453661957,0.1041791055735894,4.5340645599776215,3.3591134322155805,7.863293714707103
1.32,-0.0308203884428379,0.0265663296895554,0.1374160785612412,-1.5148916417016216,7.0224336858285525,10.3557555468706
1.33,-0.0649422348229553,0.0158865098612785,0.1479844291147538,0.6550435771853698,2.685595111702654,11.339219579461355
1.34,-0.027745215327745,-0.0057190250980423,0.113635144048626,-1.0153441010312982,-2.8708231689783963,11.279924412932946
1.35,0.022135660984431,-0.0699859930355242,0.0995948452886887,-4.771552130365283,-6.436658110057425,7.8630561540222335
1.36,0.0111934908215153,-0.0648095076844064,0.0986627553042718,2.354029911782802,-1.2051416279255294,8.469242940856214
1.37,0.0373252454603796,-0.0510832411582684,0.0858797643718072,-1.2318833080304354,-4.400597144908244,6.040651698846586
1.3800000000000001,0.0999742384084772,-0.0665116180044148,0.0728317786392518,2.729977601230208,-5.462820486817484,11.50309467592997
1.3900000000000001,0.0998585213072444,0.1055644877605973,-0.0013526449061236,9.95666786452832,0.6792297525659041,10.847352682628438
1.4000000000000001,0.0796191434453979,0.1260967366120853,-0.062607989794319,-0.5950528606010502,1.4348255695129466,12.323861183691456
1.41,0.084133402564841,0.0850964494352206,-0.0501899804535559,-2.958040487610863,1.963201119655546,8.959695908340809
1.42,0.0329232540992192,-0.0137988366926401,0.0101447970059462,-6.23587365034664,6.162279602470703,10.09042012632034
1.43,0.0021887473711637,-0.0319389874585165,0.0651628587779351,2.246441120265876,6.962726517900891,9.756083583721756
1.44,-0.0253908263014903,0.0223697635979607,0.085049821847374,2.8585468478864318,4.14441610487375,10.435387206539318
1.45,-0.0039016700445575,-0.0096859727088197,0.0641687389847585,-1.7734829617085834,0.1857097347765599,11.249562309624618
1.46,0.0171607635376824,0.0077387010762942,0.0200075906154462,0.4616356101169612,-2.225221791923935,8.308171008773272
1.47,0.0081527897548989,-0.0058788076575408,0.022080886029894,-1.0686372967322837,0.7565236353379369,9.3957726397111
1.48,-0.021681558355187,-0.0359365163961332,0.0155814083677479,-2.0593225768774253,1.6651709044541558,9.544714367228808
1.49,-0.0345089535562699,-0.0525301221871464,0.0100284636405059,-0.0020349682265238,0.196475319411277,11.243403886703852
1.5,0.0021046964551812,-0.0051834233010219,0.0204433657613345,5.080687938913229,-2.7153884329851703,9.982130885902484
1.51,0.0444966659857951,0.0394116452862944,0.0421015274164029,2.5199739876051943,-2.204973039050088,8.114108375289904
1.52,0.0241732805016275,0.0039638150386449,0.0674735818442651,-1.1334000432438684,2.84218310588132,10.71310292063987
1.53,0.0275674265353602,-0.0074612748246734,0.0634859566029855,-0.1723824869485258,0.1351313754179903,9.839497783978167
1.54,0.0158569696310547,-0.0034756024422614,0.0667119685944863,1.0334522284930368,2.2503636532525984,9.615374410222111
1.55,0.0300765648406129,9.4817607941597e-08,0.0513414878782578,1.0796398679862824,0.9018795170022156,9.282533573771216
1.56,-0.0037644132385966,0.0382655359689896,0.0517798800405808,4.30321091763867,5.218944423943832,8.356899483956518
1.57,-0.0332565428366728,0.0816198534861153,0.0930540625390359,2.6064430462848893,4.280917641149245,7.388130994938193
1.58,-0.0316591758196649,0.0473042492829216,0.1176034722861596,-1.810508903702503,2.184015228028328,11.248453593147092
1.59,-0.0329776051608356,0.0019331943721155,0.0787505422171899,-2.0209805940243397,-0.2229367967913691,12.313676645411968
1.6,-0.0113522914977692,0.0097467487376707,0.0154495526489564,0.3124805649484571,-3.404944926528956,10.76806186590255
1.61,-0.0276526450149887,-0.0129547255826585,0.0113227375236102,-1.520137252127934,-0.6823141159861827,9.88722107965996
1.62,-0.0077315584133871,-0.0264190816469797,0.0162339097273298,-0.0564042478436734,-1.3374476621741938,8.184612445802582
1.6300000000000001,-0.019484276182078,-0.0183068759764287,0.0059461191680976,0.654493995261398,0.1387911344967538,9.760275761705952
1.6400000000000001,0.002231163654003,0.007759982226961,0.0170744507026621,2.734111199274628,-1.3008241015406203,10.537357490127333
1.6500000000000001,0.0382587041759356,0.0409880970818113,0.0226851579186269,1.8830220014074568,-0.7411244649018469,9.16613311633042
1.6600000000000001,0.0233749875508547,0.037842329326243,0.0368103485938855,0.099947276206745,1.9019900210746448,9.72817262005918
1.67,0.0143430773472743,-0.0008566441427275,0.0408216145273991,-2.6381550993902176,2.198007397882792,9.65127168255238
1.68,-0.0215660324609705,-0.0348781313134558,0.0506818544503995,-0.916765452160228,3.691370826265592,10.869220598573955
1.69,-0.024294945855945,0.0052887302735058,0.0492701407906361,3.538068357503384,1.1135424898745423,9.882808808486308
1.7,0.0153909905100203,0.0243460340113861,0.0339000661310502,1.1640042338353958,-2.322049964414463,9.065540755391208
1.71,0.0240412215151032,0.0121262787034291,0.0383590337273427,-0.7405765648170342,0.6872276385406382,9.315291793286791
1.72,-0.0186301764393546,-0.0262442156385084,0.0378782626625844,-2.481657914440373,3.594492241535841,10.081875669957128
1.73,-0.0309231449667924,-0.0352117819666545,0.0342452217277833,1.0930493042317873,1.1956431653348647,10.72071436682852
1.74,-0.0101842006353907,0.006232458256045,0.0294734750327416,3.0083761064696484,-1.8806860579494369,9.407837640081809
1.75,0.0216360116425781,0.0094714302199419,0.0385417331394502,0.5047855210548643,-0.766162512695494,9.441392726460808
1.76,0.0135317051286923,0.0160901226745116,0.0553714622196504,1.3293916037761198,1.3398343964063244,9.501742194501013
1.77,-0.0063180415360428,0.0024689707081466,0.0552150857087918,-1.2604314815517117,2.0629815314199385,9.635162773071944
1.78,-0.0190939090866625,-0.0272484843530179,0.0548875879880734,0.9413463783734348,2.291229013889035,10.244114441715764
1.79,0.011815087528532,0.0803567867521656,0.1106277395424195,8.888135210347693,1.1279337807128187,6.536459035952504
1.8,0.0851583755300428,0.0246103664419557,0.2047605205711671,-5.449842745935552,-5.775476175759482,2.234867713211367
1.81,0.048112838208156,-0.0431912297385866,0.2425820220646211,-2.693399409280071,3.31240263045734,9.271178904004856
1.82,0.1430613336571993,-0.0778278701626803,0.2866921265062638,1.3206276121437417,-6.92560562799332,11.283026729477678
1.83,0.1064730456507893,0.0397815038301133,0.2613484997686692,13.478193994505334,5.855529805410231,13.112236794133104
1.84,0.0634364845045272,0.2235702107305696,0.1257403705653497,8.958798652680333,-0.2477603637521334,12.497607539082251
1.85,0.0640919906972131,0.1518272904021194,-0.0112087262409976,-10.09430409487052,-1.8406291950619704,12.448634388779006
1.86,0.0713133735727405,0.0265950377141572,-0.0767800744238547,-10.457090013663082,-1.2557262881235156,9.627495418876524
1.87,0.0076279831916033,-0.029479053944869,-0.0512135188642195,-4.489041152982904,6.160621634376415,7.538119059971661
1.8800000000000001,-0.0099079459267007,-0.0359659931782497,0.0316737544175931,2.4384549697656634,5.348043779049972,11.272875680938132
1.8900000000000001,-0.0180683834216098,0.0261693500278116,0.0677180651959725,4.724691089066872,3.152103589365474,11.238220029511272
1.9000000000000001,0.0115918705240762,0.0124213277751457,0.0478302006062814,-1.103002340990031,-1.3963124874437056,11.111793541801749
1.9100000000000001,0.0277540394200506,-0.0278381368219635,0.0298747670289822,-1.994915161040118,0.481455506014809,8.40939543136795
1.92,-0.0132979230345846,0.0034136061780174,0.0257980179426022,2.87436064221054,1.6155079818712268,8.732506426291023
1.93,-6.075207245779241e-05,-0.0013133668082179,0.0247685153421708,0.2351685689990182,0.5401682973443469,8.828801750793422
1.94,-0.0201698282762847,-0.0197261593826124,-0.0029857430222681,-0.6561853216469533,0.1545688039465269,11.925338985896452
1.95,0.0057775370353635,-0.0079187945694643,0.0082433813635953,2.300775450153005,-1.0161230776279024,10.561101880973968
1.96,0.0058006941898419,0.0244385112460752,0.0321503755089589,2.4645987268408978,1.2785005348486056,8.671614289309504
1.97,0.0085924578519428,0.0200841646601243,0.0377353195485421,0.0892445503495738,0.3250154692828676,9.34206080100177
1.98,0.0020086785668132,-0.0125808987425753,0.012732790635223,-2.8813893169203477,1.3628240606094293,9.296280503339489
1.99,-0.0083512068148537,-0.0178537915288902,0.0004432686523296,0.8980463079260098,1.733630291414125,10.450762911004547
2.0,-0.0103254371914611,0.0127595082795742,0.0090282404248365,1.648372129356655,0.607445714306682,10.027599089323298
2.0100000000000002,0.0124186838954996,0.0008051830786818,0.0262282293674298,-0.0287169067951607,-0.1290499826275071,10.075100812993565
2.02,0.0134075949957069,0.0088042461455455,0.0379539382097073,0.7443065579464878,0.2506326905802138,9.639406737084254
2.0300000000000002,0.0291449238302264,0.0055867188192487,0.0297257274773665,-0.0483323824138553,0.1900051063358028,8.859422999830093
2.04,-0.021507552051204,-0.0162283919449192,0.0158827405807324,-1.6356421846002678,3.370422070679313,9.851259816447032
2.05,-0.0083119305155175,-0.0296481406033803,0.0141887765762158,0.7955089613889893,-0.4079265536513213,11.117622611508066
2.06,-5.650544926972784e-06,0.0043671485942635,0.0311629295733519,2.832000377730767,0.670041015763784,9.80954481516
2.07,0.0225740918264867,0.0256412806298158,0.0446643781301328,1.816595042090254,-0.9032134466556696,9.131024131783937
2.08,0.0473440482942807,0.0206441991119066,0.0390878569719144,-0.5829747400039311,-0.1433005466333752,8.720740953339481
2.09,-0.0074083210296852,-0.0385267287447005,0.0274493012961694,-3.203048158407936,5.402580717905727,10.254260145855064
2.1,-0.0460827604122285,-0.0032248334622828,0.0460709397134133,5.495867525550945,3.764293979718165,9.430435350386384
2.11,-0.0293760141132494,0.0598635612180339,0.076592109018261,3.950020651847308,2.6673116346278545,7.938651701684762
2.12,-0.0693862567537309,0.0370195800562419,0.0956821430858918,-1.6875706424195605,4.151411178351511,9.683850715854344
2.13,-0.0601143954844882,0.0099140171252564,0.064803748243744,-1.9853306128539228,-0.2194953724746894,11.38325085970999
2.14,-0.0314186569258405,-0.0527900647437945,0.0051576442469605,-3.086312891247832,-3.6810738101008416,13.489347627573506
2.15,0.0127076995174628,-0.0136410032203542,0.0058637907181629,4.745698001971464,-4.137849865436747,8.465844925672068
2.16,-0.0190915268069941,0.064019332376018,0.0558626789984055,4.3328216674225954,2.0631235062665825,6.005431161652254
2.17,0.0026305467337584,-0.001651736079017,0.069601624124939,-4.10646996256677,-2.283030334736168,11.421779330884457
2.18,-0.0015496996702493,-0.0457885296105587,0.0352878820535489,-2.106277659383731,0.6569995810054948,10.016762890708222
2.19,-0.0054957306207425,-0.0546060228214242,0.0469487410423108,1.507930401293889,1.4315727482991745,10.211426260272354
2.2,0.017944791692171,-0.0146602492380193,0.083832575791771,3.102645117924793,-2.5565453927757944,7.050999654500284
2.21,0.0669503247758931,0.0111431208187566,0.1322194476064988,3.191003620339449,-3.517789346281351,8.851831029590658
2.22,0.143152790151179,0.0426722215437591,0.1213549662765809,1.2982065496258006,-3.623670519911484,9.720183162452656
2.23,0.0676192896667415,0.0169052665858228,0.1144240562257119,-4.472708527209815,15.29408156436874,15.480396190324129
2.24,-0.035821568557102,0.0182336783484582,0.0431072365876981,-1.7613117334819035,6.520625852708726,12.81281677327795
2.25,0.0348585477776675,-0.0045909584176017,0.0032709182391637,-1.7730273784222583,-3.470843790654159,10.527324079654022
2.2600000000000002,0.066733559526909,0.0216418870309376,-0.0120443125802329,2.2124743954084223,1.1104463027200502,7.378045232528727
2.27,-0.0053137329502031,0.0390984136362123,0.0280172516044923,0.7815951524687097,7.524804271270824,8.492013564896672
2.2800000000000002,-0.0100521525013956,-0.0227589118555365,0.0403418641921826,-3.045691500183841,1.8074036527751431,11.855469317872185
2.29,-0.023432826769192,-0.0113192802789938,0.041658817642624,1.3590403689300652,1.279821595586585,10.586601878718213
2.3000000000000003,0.0016027791706238,-0.0207731633633005,0.018754233458335,-0.1955931267599641,-2.45075117200414,10.528319282617602
2.31,0.0263908292307803,0.009994397226732,0.0401879314717599,2.7749326915740937,-1.1238124120315067,8.0482005476094
2.32,0.0226478336616288,0.0306627169654553,0.0511275705334493,1.4749233793944525,1.2968175448879955,8.925190309631715
2.33,-0.0085068413207748,-0.0360064163106118,0.0288366403815099,-4.8935123668881175,2.217701168436561,11.01036621726219
2.34,-0.0157759883060708,-0.0529781690210931,0.0214562610176154,1.2786125634191756,1.4010105378066589,11.172123179370992
2.35,0.0046376430581535,0.0267701748082107,0.0255154416349479,5.630181939949566,-0.5403301134282914,8.429424350808754
2.36,0.034626124474629,0.0468683017163852,0.0379150648054429,1.169279345165353,-0.7500553916328737,8.539917180557964
2.37,0.0153257521595893,-0.0166660847323804,0.0343204278883286,-4.685779229588806,2.4027145794869984,10.528788480348576
2.38,-0.0224786892638153,-0.0679461871597473,0.0322997503367015,-1.3482044756103673,3.451822832929359,11.567483711696063
2.39,-0.0112480203886842,0.0089567714042495,0.0539920356509038,7.8343016556786065,0.326572806897746,8.26964181936271
2.4,0.0400013702319311,0.0896217479262722,0.0844274673995324,5.276590920564838,1.176592993421805,6.793607472780975
2.41,-0.0671806835280008,0.0285197363212196,0.0924428020057031,-5.642912701234373,9.28219187998019,10.129924151123468
2.42,-0.0963207317097404,-0.0134257397898362,0.0891164679464646,-1.6516136049794268,1.935683896494076,11.963349408031148
2.43,-0.0402860032381951,-0.0427512020547957,0.0468478266534158,-0.5962652836290221,-3.9788227523636768,11.982003854683096
2.44,-0.0229951241860204,-0.028014790644929,0.002653113825968,1.485447953512527,-2.4279723976715317,10.656032467970345
2.45,-0.0283792201348802,0.0144538714115984,0.037959887498314,16.721187424021597,6.8612792663054005,2.7096011634123998
2.46,-0.0155440953385573,-0.0028523217662922,0.0653731737670251,-0.3260831752032669,-1.6610307609332744,9.38668189890015
2.47,-0.0224347464341591,-0.0108277274382594,0.0526597451803037,-0.5368982839584409,1.347857069684602,9.034585051247635
2.48,-0.0180020688994352,-0.0309245643946443,0.022230491825635,-0.3022118202495331,-0.4024686228131362,11.387261187623134
2.49,0.0102128138589597,0.0165694059920471,0.0221414965030499,3.2854856944721105,-0.2726252413415375,8.895854887995792
2.5,0.0028531351610328,0.0210720107357949,0.0449946809944459,-0.0444578226171505,0.6714310888772556,8.782556349002444
2.5100000000000002,0.0312546115287426,-0.0238655468764578,0.0551381659147092,-3.1915556695816987,-1.447403059939537,9.00913141852007
2.52,0.0179819483995165,-0.032458040538545,0.0781091664370843,-0.4572113155753274,-0.5214123166023432,8.679490796812846
2.5300000000000002,0.1010234334598374,-0.0147819444943366,0.1004516769584962,2.3239850584639425,-7.590228845195689,8.433968191374415
2.54,0.1684429920934242,0.0329986224445643,0.0809939120349236,3.810153694171324,-5.222380381026175,8.313603865733013
2.5500000000000003,0.1293098865554617,0.1074453904783336,0.0225227892783233,2.8110310127352816,6.176078140794051,10.903326611144577
2.56,0.0055883937434683,0.0621213252064272,-0.0319853622081926,-6.0895436598437085,8.226440306468168,13.126436172955016
2.57,0.0113154769412853,-0.0485241959299552,-0.0034375359851173,-5.196415774239312,0.4511681608552428,10.824243145663509
2.58,0.0495981333851776,-0.0149568250106637,0.0142344411846944,5.41257253874654,1.1400137346089856,8.529411000489835
2.59,0.0350382516441496,0.0081992018472862,0.0682671729859658,3.229581474491952,5.614862852953218,10.161162981088705
2.6,-0.012399644874793,0.0154062377135127,0.09426969926923,1.910514715327718,5.7597292568653735,9.67476989733605
2.61,-0.0034028872937612,-0.005264004769175,0.0820689414080926,-1.0165921246974716,-0.2325691639959361,10.113424283259867
2.62,0.0046483480480233,-0.0268910542524739,0.0528875243303128,-0.9573902564563456,-0.503435182906421,9.941334869503468
2.63,-0.0169906571716755,-0.0011181178713335,0.0329570684966393,2.743991043847056,2.635401275198761,8.380308390354296
2.64,-0.0324491229083675,0.0294849096398379,0.0628592398402043,2.7027628866302846,1.8670417482719803,7.854330674678332
2.65,-0.0249241688429672,0.041451597677384,0.1055072013673135,0.6397405801966868,0.5265511275127555,10.947866054376645
2.66,-0.0015174634087005,-0.016049696328451,0.0880986739334412,-3.6408775899045858,-0.5429037029041199,12.38698301431912
2.67,-0.0087557937482882,-0.0261324474907994,0.0511482384440251,-0.3626389548432028,-0.7052091233157743,11.002359219400706
2.68,0.0053894012050026,-0.0032949967130872,0.0417067509528943,2.030465247166348,-1.0801792838804318,7.697309271633125
2.69,0.0074993972083043,0.0112851536657844,0.0353491891559907,1.1677830489780745,-1.0555403384634847,8.36322193862027
2.7,0.0047722007977547,-0.005614520552907,0.0340824265417405,-0.4456030764636839,0.5907974360370877,10.672555055071516
2.71,-0.0041010098864859,-0.0247686175365116,0.0116803253453918,-0.4702464174037304,2.0445340129589646,10.710958384001216
2.72,-0.0048696695906314,0.0100903988242149,0.002455728621012,3.864079318261701,-0.1072343069309453,9.479113103450535
2.73,0.0333193953615913,0.0432537980838637,0.0156216051813908,1.7362146166790091,-0.0838494629452872,7.978939858092847
2.74,-0.0030886065992484,-0.0055100933526912,0.0288051523652621,-2.8589029564591817,3.7999972978915033,11.335190034737456
2.75,-0.0285527955269706,-0.0356789270801482,0.0321914896753379,-1.5013876286975003,2.6788642863873857,10.41324368945965
2.7600000000000002,-0.0356654112602088,-0.031119587372196,0.0263289351400681,1.233169059971369,0.4509657592119507,10.330354453248464
2.77,0.0251756376151045,0.0296702839859544,0.0340943511959859,4.394922477873215,-3.3906152656647013,8.151868009274088
2.7800000000000002,0.0202622971213916,0.0286818322224894,0.0397373166319676,-1.1403812881827926,1.4622717715426805,9.17553377241659
2.79,-0.0036154115468957,-0.0324887979664286,0.0337772358593293,-3.2587853405877616,1.7822514594327752,11.366539968476404
2.8000000000000003,-0.0215597036026609,-0.0459546039963427,0.033944311403925,-0.5897516197520509,2.2200583981983755,10.06701201292934
2.81,0.0055106407295936,-0.01398133783171,0.0342428934213467,4.65735129096444,-1.37570720212796,9.658213726358031
2.82,0.0777541236041464,0.0551333526671808,0.0733445424970933,4.804457773627849,-1.1078330582162337,7.317520423165046
2.83,-0.0389026944669729,0.0132339515435726,0.0794522080954858,-2.903528699047586,10.868695821184332,10.275904833430095
2.84,-0.0295072859184691,-0.0047046972540071,0.1022501428064652,0.1626256232408717,-0.3663606597398007,9.727035884229196
2.85,-0.0581708954996274,0.0024669592909224,0.1044332746800729,1.6846821390401232,4.405663648935488,11.246285328979114
2.86,-0.0539143086238382,-0.0127495708904432,0.0456196803983994,-0.2355838077861322,-2.2259498090407384,11.933633274534452
2.87,-0.0349443254035786,-0.0255191907776142,0.0435970265802689,-0.2769955351446779,-2.456245523050496,9.858589362414454
2.88,-0.0336950467215548,0.0057973476192834,0.0762201983866044,3.787982076998879,0.225966457733903,8.911111194899767
2.89,-0.0110724450096143,0.0199673898192618,0.0763725702103921,1.0773677298338762,-0.692377898915993,7.956090011328352
2.9,-0.0536171614110808,-0.0195548996855457,0.0683616090950318,-2.73562329217996,3.5637411722433288,10.405280839715417
2.91,-0.0409023423840539,-0.0269160339874828,0.0356342334684678,0.0484264142219642,-0.6185396207488078,10.96949898821746
2.92,0.0003751524807504,-0.0078325973057669,0.054211727195675,-0.750261317899808,-5.723476101735628,6.525661462981448
2.93,0.0939527674305084,-0.0295789960677835,0.0777352292475053,-0.3894088735394634,-6.150391076844048,8.136756155925545
2.94,0.1460239845117426,0.0449641208866105,0.1019875172910043,4.922093080858016,-5.7968033875219565,6.257703216567577
2.95,0.1982024925710026,0.0595584007409182,0.084337956124241,0.9342729872269778,-3.1460650756725155,8.085420469233535
2.96,0.1229140986914778,0.0853088342856484,0.0082551062491484,-0.3592413013560508,5.747795250743246,13.076030722386356
2.97,0.0402192557762936,0.0668714230034058,-0.0785413544240645,-3.6893157852423575,6.550891560935409,14.6823519658516
2.98,0.0742776712055991,0.0285789936321237,-0.0780641074839285,-1.3536928975990523,-1.6011920722808417,10.467308049556587
2.99,0.0680374583189889,0.0487831113586796,-0.0123233507934263,1.9666729775565308,4.461705873331032,7.624512746891343
3.0,0.0457718124004486,-0.0090348394311959,0.0698224742349931,-1.2412838884973358,6.8798794328579,10.807609822860636
3.0100000000000002,-0.0050346720633599,-0.025776316627741,0.1131069723901101,1.2801494085942744,7.104201894333967,10.481596584604851
3.02,-0.024762965061785,-0.0130332433088349,0.1122800995048829,2.0059899535816217,2.691312801887821,10.037144423042292
3.0300000000000002,0.0069561551663369,-0.0032094297387436,0.0822535071906396,1.3257690282740329,-0.7607001923645346,9.053115253223652
3.04,-0.0144461367545426,-0.0067314454797724,0.0395176623400994,-0.5132709020321257,0.7912106481977933,9.255916464018588
3.0500000000000003,-0.0358710765573612,-0.0257037105906054,0.0239476830151625,-1.5325860033431198,0.7191606720423556,10.041669815591352
3.06,-0.03397501993407,-0.0605537180703865,0.0201995548245259,-1.156426612075389,-0.8018044448831139,10.92201321578926
3.0700000000000003,0.0006938249788839,-0.0149359609091603,0.0195577487733909,4.4838247365341015,-2.551563430413272,9.80007297822269
3.08,0.0261025957364729,0.0290722339291393,0.0426411394414254,3.093655772992128,-0.8636231867533615,8.98634340650992
3.09,0.0245035941464834,0.0188534100826852,0.0571243044373341,-0.2501778171821529,1.4200368201749292,9.58587137570553
3.1,0.0118536590026933,-0.0055617083444957,0.0400428686675378,-1.7274072672285403,1.215516354150645,10.091502439117928
3.11,0.0253319540332074,-0.0129637519913692,0.0394961078104325,0.8232396657750208,-0.1317182610554663,9.669337277674837
3.12,0.0306888529854453,0.0346091506577437,0.0454072494444199,3.482996365833089,2.1611870082329587,8.397960512973206
3.13,0.008901422272168,0.0165674318335839,0.0535217885312386,-0.8840559209328193,3.022148216086803,10.413978168037206
3.14,-0.0264264475536379,-0.020500071517009,0.0358892966446229,-0.969502922595846,4.801003729314996,9.819702501473335
3.15,-0.0503142800594124,-0.0019528435909901,0.0592912275728532,1.741615941365211,2.3687850261665666,9.208385967986356
3.16,-0.0312378697521619,0.007313175227734,0.0686042372521706,2.6844358932823105,0.4088786933611155,9.239704720742456
3.17,-0.0475562944655142,0.0301669068753174,0.0430101368960687,0.6905269358512568,2.972438242491808,8.798582213167233
3.18,-0.0781022766253839,-0.0517487688188712,0.0012180496391602,-5.961678208906634,-0.9997528373931966,13.54878839625491
3.19,-0.0179321496311855,-0.0552264433171449,-0.0113078841555169,1.5614824476524,-4.345489008502928,10.46301896755021
3.2,-0.0224222259444995,-0.0058346612133443,0.0008306636277348,3.230211317020919,-0.5249307524055348,7.847876612786501
3.21,-0.0045261107667493,-0.0025367656212818,0.0301210273441621,0.2140591524953363,0.3265212556736754,8.38205498519154
3.22,-0.0227669560855765,-0.0145490092745989,0.0374424111482449,-0.4992428557096278,2.0979789333606025,10.69642802053563
3.23,-0.0149521493256949,0.0058546238678259,0.0318413962063142,1.2871640839363852,-0.4947462233760386,10.992263768758374
3.24,0.0107150476150479,-0.0053271945627272,0.0304858748254128,-0.5905401113482583,-0.6653814261831669,9.716670420762732
3.25,0.0234208744725918,0.0333825758154468,0.043352949285204,3.138057149849975,-0.341650695636308,7.999182133881772
3.2600000000000002,0.0263651437411705,0.0280988442105198,0.0492296915885754,-0.7446191429163261,1.7840361118066963,9.350819805560096
3.27,-0.0232981603753333,-0.036918596615577,0.0342903349932977,-3.8724807350373305,3.740727613220063,11.408389571515013
3.2800000000000002,-0.0276834230176059,-0.038354677860005,0.0190534450498172,1.3441010103405644,0.8714565753076235,10.836028031838492
3.29,0.010195237385468,0.0108116885296957,0.0281057514634677,4.455542258778459,-1.6986008045369207,8.68947127712518
3.3000000000000003,0.0240281567228924,0.0367690153198505,0.0405667450663396,0.9999760160995956,0.2139840578459033,8.414728398406101
3.31,-0.0029781130301175,-0.0136495310553662,0.048685411774809,-2.825288671953447,2.7023231674948285,11.220770389881014
3.3200000000000003,-0.0287590605711129,-0.0323781788620108,0.0401574474212476,-0.3174414357394021,2.4976442117584794,10.334828880499026
3.33,-0.0388068332423262,-0.0310602667349478,0.0366419840988465,0.6657257987210888,0.7800235588949315,9.427946535986033
3.34,-0.0028187893484251,0.0016612006182599,0.0443462830421277,3.6940067562157592,-0.947577784223746,9.226780964918609
3.35,0.0159428343913933,0.027906332666909,0.0503225576516934,2.306506342843928,0.9406338463600914,8.22424890752987
3.36,0.0323295488779356,0.0178328465940983,0.1221908394631692,-0.8227138511172146,-1.6057690706566996,5.618132522443144
3.37,0.0363605620405665,0.0362846597233556,0.1865561146673509,3.3968208491092677,0.9401967928388004,7.406977470666227
3.38,0.0818020817648772,0.0642658790479001,0.2279122461017915,1.36596859828526,-4.718079328320648,7.618905114892269
3.39,0.1541943572680896,0.0256798401986002,0.1659859110054322,0.1109632396530885,-1.6126478556016104,15.001992748813164
3.4,0.0375578672646991,0.1230804809614547,0.0100465722766467,2.699382046570208,6.069666506813925,12.618790988006475
3.41,0.0142780611244138,0.0572767386172336,-0.0751979063811949,-7.211600224340164,0.0114879354342316,12.157452295724196
3.42,0.0353014032129267,-0.0566754586096907,-0.0563797402742556,-6.196890378884362,-0.3649319867243216,9.57497034527509
3.43,0.0104067147110866,-0.0074559158972627,-0.0013948128639957,5.792591528459507,4.321380053963169,8.133020434795904
3.44,-0.0013173203980718,0.0474865113945161,0.061116563939745,4.932665424449441,3.268809198046266,9.540909907620762
3.45,0.0172629282124412,0.014588095527302,0.0723433483776399,-1.6515848618467015,0.9882385427401388,11.718194478721834
3.46,-0.0053562741537381,-0.0122236806416439,0.0429969493684121,-0.8382354944635094,1.4040487621713202,10.352270020969591
3.47,0.0083683612262077,-0.0129349315939083,0.0187274504837342,0.3139988050803112,-0.3335660171045204,8.555108759547707
3.48,-0.0232054182830054,-0.0232531251434525,0.0159304755192943,-0.5588983745425289,2.7021650791529948,8.947087248468621
3.49,-0.0195125200021679,-0.0089813656947682,0.0197523821529694,2.387361065366429,0.5289504115053292,10.581628233444428
3.5,0.0078427703252651,0.0168736311230842,-0.0018082991323671,1.1963902995531213,-1.765978811647375,9.807652094171992
3.5100000000000002,0.0096313733095498,-0.0044759578949431,0.0232575990644046,-0.8926192411142548,1.268037398265085,10.528636270155308
3.52,-0.0036686228862769,-0.0047656987696414,0.0444298524793931,0.3930370265385381,1.696759206580446,9.241006074609226
3.5300000000000002,-0.0207064516718633,-0.0137654867814515,0.0383858222898789,-0.7189354129659457,2.2409215994215907,9.788936795653443
3.54,0.0143160224583535,-0.0128015345860859,0.0157850448426553,0.9911398690814752,-2.35581299815229,9.457110632766687
3.5500000000000003,0.0232197957283578,0.0350172401154178,0.0137186523911305,2.669876645405003,0.86191724103701,8.609488342670883
3.56,-0.0065491201848032,-0.004968088862361,0.0275801521179028,-2.5299113323504474,2.718110413671494,11.547068430626329
3.5700000000000003,0.0022685350677065,-0.0239147640979416,0.0438828159508057,0.3517597014186443,-0.0525553223183509,10.250559122232431
3.58,-0.0015659110628945,-0.0052275984532727,0.0516561482486077,1.7877157202837126,1.249265721824363,9.770673359541211
3.59,0.0162684818664802,-0.0006321595593656,0.0437330704566785,0.5672087828653041,-0.3355637827780652,8.848530856362862
3.6,0.0084958004789526,0.0064189036565121,0.0370084818836995,0.6400864631949094,1.662418741546074,8.973043302222765
3.61,-0.000961973692064,-0.0174352448690887,0.0184889108326979,-0.9923238159219756,1.870107905681734,10.29563370625872
3.62,-0.0066721983742056,0.0042271014326121,0.0395410646137544,3.7955248312683207,1.735933413648209,9.904851721141284
3.63,-0.0101559606754966,0.037669964299008,0.0726780210074731,2.317094775059677,3.234378800168673,8.854194419895633
3.64,-0.018353122773382,-0.0150514013876191,0.0731921557721444,-3.119534407454853,0.8563225117394281,10.44656895696946
3.65,-0.0008750327621051,0.01201739592497,0.0710093740758248,3.329309304002831,1.6058095073692624,8.7269863910878
3.66,-0.0547394649673994,0.0366937603298308,0.026596302950079,0.6668074459676506,2.423268106634473,10.601959174796434
3.67,-0.0169828103125728,-0.0290202808336917,0.0084145770792611,-3.708975247918575,-4.480789699594628,11.854395509449231
3.68,-0.0082933418074663,-0.0171794356002199,0.0126361733686872,1.20676594616596,-0.8769230207174783,9.21602339547782
3.69,0.0109485536487731,0.0261915533885874,0.0633228708442994,4.317221632588117,-1.0632297886746336,9.07799084307837
3.7,0.0336125733661308,0.0539634347752477,0.0719483632978745,1.462094366978719,1.0276591874073115,8.335809531365244
3.71,-0.018279503298671,-0.0179676068666833,0.0307188805577107,-5.8722985104173,4.171008708950237,11.016731737259606
3.72,-0.0302474777687512,-0.0598249743414116,0.0022743425483577,-0.9500508347511544,1.781235484585849,10.778739641320126
3.73,-0.0158203404628571,0.0101136770443788,0.0066071304877051,5.4958983300393545,-0.4911476338663294,8.91646078994485
3.74,0.0258676413916764,0.0537475820793525,0.0345876466867276,2.837433309430026,-0.9927429532496432,8.2636661383265
3.75,0.0015837844342881,0.0094776829947091,0.0408175167080708,-4.133567567353718,1.9346529787916509,10.653424254546795
3.7600000000000002,-0.0214081656743931,-0.059505969178406,0.0424305860337563,-3.055005159049508,2.456034836214981,11.622701689462613
3.77,-0.0409097697113511,-0.0398905979933007,0.0299555890646525,1.8091725166782044,2.0325648895557737,9.532449803556162
3.7800000000000002,-0.0018057378037641,0.0164453834000918,0.0309261836495944,5.181937368835207,-2.512940240697956,9.012520671850906
3.79,0.0309838760546461,0.0350975407240343,0.0396072332200356,0.2943162764287658,-0.6123522475814208,8.186099485326901
3.8000000000000003,-0.0017437866973766,-0.0112350265078201,0.0488454800483533,-2.353536787327951,3.096479287686973,11.252433618271452
3.81,-0.0160410225156958,-0.0275977538823587,0.0552797008690186,-0.1017473387486167,1.5452342368709102,10.54262675596554
3.8200000000000003,0.0295353440423482,-0.0093331320513862,0.0744636644062348,3.404373814780252,-1.498098455628745,8.772695890917646
3.83,0.0114925182595449,0.0256463753606708,0.0943136502441712,2.3950325565187605,6.179412449189657,8.656956768685486
3.84,-0.0631361656836673,0.0088770372992344,0.1103146661457368,-0.141366288198381,5.466243798523895,10.85829356033432
3.85,-0.038965160522766,0.0358420853421335,0.119982263856823,1.8349954651222604,-0.6032535503236583,8.852033991364996
3.86,0.0112833354331321,-0.0384579028352212,0.0998187650379487,-5.502831405823114,-5.683938585490657,8.658448015110425
3.87,0.0250594202552673,-0.0189597341098278,0.0982327003416367,4.5752948328359295,-2.813681116423916,11.439217834666646
3.88,0.0945730590360476,0.0430571647153629,0.0980898503598519,3.9492975033570623,-6.020594607221564,6.802908827980416
3.89,0.0795423017140044,0.119140859461705,0.0415239062544652,3.1155217752526463,-0.2347471970518947,9.110738152659708
3.9,0.0864597139624098,0.0619876528724099,-0.0541349175933054,-7.887421164210479,-0.3836033416005202,9.919820305762968
3.91,0.0096794571940566,-0.0366518640028137,-0.0700673546257666,-7.288194908754887,4.822797436567455,12.647871230680806
3.92,0.0210247742719185,-0.0490946983746743,-0.0532013933721235,2.313705591771557,2.396483401441019,10.34081230271948
3.93,0.0324815487098943,0.0443038993163481,-0.0080061463254741,7.669689272249857,1.813704203336585,8.900073390245126
3.94,0.0236667818485337,0.0316156750047077,0.0400704879698106,-0.373701251268101,4.505735834214136,10.284130982238173
3.95,-0.0034337328120274,-0.0132053202673009,0.0800956178840943,-1.5046518100749848,3.6364418655360295,10.796914502291088
3.96,-0.0064722855585479,-0.0255178206861212,0.0875224907335587,0.8996335546650565,1.4239636342189048,9.98450375136967
3.97,0.0116026543411822,0.0208320954558855,0.0670351673302003,3.7888797412821527,-1.8669644543769688,8.102637455855854
3.98,0.0215843950280478,0.0273419121403685,0.0466099109885045,0.076817631477458,0.6559269630731035,8.528809645513988
3.99,-0.0305204722663609,-0.0136342699152985,0.0187621739146062,-2.948112849178118,2.001640431402956,11.31363657400646
4.0,0.0042246528807806,-0.0276906647249678,0.0048228864011117,0.8639337668475532,-2.371280978746604,10.722985802530092
4.01,0.0103450218889886,0.0140103964034319,0.0169292416807958,3.2812503183839574,0.7234610314078405,9.021616649731548
4.0200000000000005,0.0199116436540522,0.0270300450242356,0.0262410164263793,1.1630373649451915,-0.1633980011829958,9.430328576235432
4.03,0.030308440242776,0.0195429022148072,0.0366428558167764,0.054873185276397,1.2948428227313762,8.614739932525822
4.04,-0.0049902346724529,-0.0088544987190459,0.0267104495701142,-2.096647447481153,3.5971568741529887,10.500608425557312
4.05,-0.0203405870112401,-0.0208508212515554,0.0251120429870435,0.4190640369951767,1.2900066857182646,11.133122194314303
4.0600000000000005,0.0125943259398267,0.0102079249900253,0.0388283942279168,2.6198501735041475,-0.40272245209039,9.199683747119764
4.07,-0.0005538873201117,0.0077469502903721,0.0460913356777974,-0.4400853754361661,1.4517890941322558,9.99438071706518
4.08,0.0054981258496272,-0.0223167903917565,0.0313265480485507,-0.1564068469499315,1.6647407258706526,9.067395881099443
4.09,-0.0275228467820507,0.0243209979435687,0.0543274272617646,3.6565231530883473,5.097178366536241,6.837381782778215
4.1,-0.0807433047091018,0.0178521508853237,0.0543797079858132,-0.2814237463308296,5.351776953808578,11.247141955840377
4.11,-0.0935020777178014,-0.0059426024550131,0.0517471831676312,-1.149906298429291,1.3516099053432908,10.806837447875262
4.12,-0.0462319362627725,-0.0325832763817544,0.0205851056066104,-0.847485225745716,-4.173187340418084,11.505605085419916
4.13,-0.0201549655206403,-0.0298207982570782,0.0087990228471108,1.3390717375162324,-2.3300767838367,10.922083712493892
4.14,0.0205517749379057,0.0439704094744251,0.0562217485544034,7.091267848388257,-1.9550965883671296,8.057869437100315
4.15,-0.0220010737008268,0.0788262062023004,0.0757170830306359,0.1121965961218606,3.3625574822086266,7.384940968709014
4.16,-0.0324557708444996,-0.0652175577004857,0.0449353855487653,-7.20105211646356,0.5024872330809002,11.07798865412823
4.17,-0.0352154728758865,-0.069607149088102,0.0100562887650677,1.3302017520523008,-0.1337770044844505,10.40570525090165
4.18,0.0020744878291304,0.0443082778009689,0.0100926969584771,8.42782530625687,-2.169893407361895,8.279295611337634
4.19,0.0369713412351186,0.0618468471383181,0.0302560300019332,-0.2986823369674147,0.2519076623436603,8.002507168713839
4.2,-0.0029672564919112,-0.0043907171033001,0.0329564910766431,-5.137936392498475,3.106157115224285,11.430581686742732
4.21,-0.0323602762967584,-0.0681972234417371,0.0331479411956616,-2.994130103875381,3.431442752479525,10.761261726178155
4.22,-0.0315056035967779,-0.0112787202509656,0.0213695940014668,5.487839027859181,-0.5532573717254338,9.800420631410734
4.23,0.029522187025085,0.0549779694809269,0.0330926429864713,4.066144838498023,-3.0718690737559,7.457911996665418
4.24,0.0126594644493585,0.0165456749346723,0.0395347018179246,-2.7647876984941484,1.9809702317549471,10.199956491604556
4.25,-0.0198970118739518,-0.0296871155302143,0.0518078644213029,-2.505252743402747,3.131593070383884,11.202857346290203
4.26,-0.0358958094887889,-0.0436792235483075,0.0482902739581414,0.1786369844324085,1.8092926718990756,10.679243028119844
4.2700000000000005,-0.0024585028247848,-0.0010444235676676,0.0496444095310517,5.356769546518436,-2.946212971484222,8.149281049282836
4.28,0.0255856825558923,0.0351444427054621,0.0549511116382428,2.586265203777444,0.8060104538411647,8.1741173705363
4.29,0.0035536212086767,0.015573592147467,0.0721249420580216,-0.1828612426064054,3.640021372657833,9.888887409491316
4.3,-0.0799767086229845,-0.0096214709448939,0.0840913419064828,-0.7366910636724114,8.852735514059633,10.130304817879829
4.3100000000000005,-0.074917960737934,-0.0086321759486472,0.108536898010666,2.7363697734777417,-0.5854916151126703,11.082508651465345
4.32,0.0370177157322395,0.0119263032329191,0.1384013582405396,-0.7130219934699354,-8.318406156658993,4.237355956248551
4.33,0.0518583152342163,-0.0485728523959004,0.0799647409853288,-2.0384268543029256,-3.2708971513043545,11.888119090987724
4.34,0.1536042491331684,0.0508740607403136,0.1136898164090463,8.500951340440846,-10.471445185324844,6.78044737184492
4.3500000000000005,0.1956700403056634,0.1437605085137799,0.1085209239658662,6.861635922314736,-0.8457929602341422,6.405904732429205
4.36,0.0874379400962599,0.2043703368385036,0.0666468058165856,-0.5515612145962783,6.714743575723646,11.307333293473944
4.37,0.0881527108417089,0.0642488638726199,-0.0163263968738964,-13.795961816419815,0.453601852903773,13.848505558184288
4.38,0.0235696026929337,-0.0704020967061902,-0.0546628247562102,-9.237271535603137,5.416416984021921,14.582211009943066
4.39,0.0245057449667433,-0.0532442303964326,-0.0360077295067957,3.7142655627351697,3.135486929381763,9.454049974059211
4.4,0.0385384923371252,0.0591504563765357,0.0016855303597049,8.20371522977281,1.985921271321976,6.646441281505515
4.41,0.0200340858027927,0.0729168375918354,0.0339081462857076,1.7410055886917133,3.278581673317704,9.203424570653754
4.42,0.0205307822915424,0.024555753554412,0.0489525374409505,-3.0946454896343107,1.7382263871211605,10.721986757649187
4.43,-0.0106832254027106,-0.0556206119491165,0.0580551799771138,-2.8648089288673657,2.4710435478165897,12.149078688988505
4.44,-0.0160090706269698,-0.0093752923429371,0.0630566280719586,4.812745833471108,-0.1585074248408857,8.903773679429754
4.45,0.00774285095829,0.0076092762638547,0.0449698854622193,2.0327214488113707,0.0121460198363788,8.870770923807225
4.46,-0.0171711381087531,-0.0109695613494971,0.019285901301796,-1.8393264288038709,1.3233519830862204,8.899154358608662
4.47,-0.0085035011584584,-0.0352946474361606,0.0134383662056871,-0.0670184842215919,0.7330819094698503,11.162828473606048
4.48,-0.0138380504015005,0.002481487751966,0.01165474657088,2.700188556443247,1.2329222961105435,10.171218715779794
4.49,-0.0007354284886695,0.0141746336761731,0.0223768715199777,1.0989515153726008,-0.5650848330247621,10.07155130929483
4.5,-0.0006412572095223,-0.0032806385669489,0.0436777387198754,-0.9202946946702,1.2509415205465957,9.264135613529302
4.51,6.991208202056115e-05,-0.034284109890055,0.0357903864619084,-1.9572145030417556,1.489988750561256,9.746115209048847
4.5200000000000005,-0.0251350167447057,-0.0055040735780368,0.0242083937314101,3.1986402760194936,1.524788077484164,9.81121855783226
4.53,0.0395535882048005,0.0511173511039709,0.0213087972637959,3.232983732275476,-3.2656751426831945,8.41636332515619
4.54,0.0097830592131687,0.0121953887753129,0.0265981153038092,-3.63955795831396,2.980296604367026,10.841935598291478
4.55,-0.0044542592189161,-0.0407963949983714,0.0390799928840943,-2.154562031789328,1.050691388695262,10.776936387467469
4.5600000000000005,-0.0079908113649729,-0.0268623136493529,0.0357145544525929,1.6335570086617248,1.9289832843716583,9.294034554838356
4.57,0.0022755720743286,0.0074342001202657,0.0284810446587153,6.753711399852728,-2.6231108712162,7.355781812021638
4.58,0.0423225874311293,0.0362784915622299,0.0398842532572099,2.5583535455227824,-0.6875519372403158,8.34742693727811
4.59,0.002562393309964,0.0362286906824029,0.0344082143542119,-0.0754941135182415,3.827222284750544,9.0810559441774
4.6000000000000005,-0.0120012914213424,-0.0146939960137123,0.0699613679584809,-2.4580313423072715,4.483383708609695,9.855214281934868
4.61,-0.1112118116507654,-0.0670053695881769,0.0733778242406197,-1.4649185378144136,8.997494155384013,10.62799658227398
4.62,-0.105045944305739,-0.0296798722735038,0.0613562900957414,3.7549139879835063,-0.6249635522618707,10.870851126192314
4.63,0.0192684874448954,0.0142973587052439,0.0630938474473306,5.985206881862173,-8.89722369620173,9.6117487440622
4.64,0.0158297549769077,0.0953259674990351,0.0497554716107198,4.644005283720697,2.9121994683624,7.50555720195263
4.65,-0.0636842999983362,0.0351079028655889,0.0454815838870355,-5.6143209430424506,2.0065657276443467,12.034582017976213
4.66,-0.0310490326308143,-0.0777314448300885,0.0389293384191342,-5.822775648974882,-2.0239899171280795,11.037425413614924
4.67,-0.0216812431504095,-0.0571519664140158,0.0041757240810194,2.1285699879839504,-1.4396048082709998,8.389208133705297
4.68,0.0019045161205987,0.0216647074929719,0.0223313130822726,6.07720293163514,-0.0304839062593383,9.374139829454574
4.69,0.0096867487103772,0.0380318059713362,0.0326127045240947,-0.3604717159044525,1.4961692263713366,9.82166054601667
4.7,-0.0174049419422593,-0.0022113028330739,0.0362668026623078,-2.754945577896795,2.931974251268002,9.972704685979965
4.71,-0.0306974841119075,-0.0455645828994329,0.037776245587761,-3.643048531821731,1.783960336440212,10.625258447481428
4.72,-0.016358894781203,-0.0101384897693852,0.0382809330162354,3.626389949582314,0.2347242609291634,9.694966656052648
4.73,0.0117318016564823,0.0507085533259745,0.0488366920885392,3.478671402498092,-1.6828238796921842,8.479346803368518
4.74,0.0233308569089096,0.0367599386623358,0.0383826744195767,-2.0739238382847995,0.2757922098419632,9.13652763480304
4.75,-0.009814448723319,-0.0239831701393623,0.0346175384160825,-4.114277631449565,2.307032784582254,11.475139186588844
4.76,-0.013186828051693,-0.0595251624097079,0.0283643220004388,-0.8365004613814319,1.3814102721313986,9.84582378397169
4.7700000000000005,-0.0493990394964169,-0.0146127535383277,0.0237140756484815,4.2678679971853954,2.685219873727509,10.157942430600446
4.78,0.0268241665920023,0.0189620810958939,0.0187199253973313,3.014354984389812,-4.6973843881690645,9.30870599238909
4.79,0.0369821470464146,0.0510891699098935,0.0401764426764794,1.9457511607630436,1.5561723997102468,8.039620584675173
4.8,-0.0154916485518953,0.0061645926660816,0.0430150878068753,-3.9054944314765376,4.141479948837472,10.774109821839229
4.8100000000000005,-0.0263086425224456,-0.0704037489810344,0.038872881644661,-3.2863377108716865,1.0595565166677965,11.622382115492409
4.82,-0.0279757011334132,-0.0294972589212284,0.0371050153312035,3.938547812790615,1.0552244408807812,9.34389407996126
4.83,0.0345359924625119,0.0294993254503771,0.0560336102184602,5.0458723636002665,-3.88953733288637,9.271605860979438
4.84,0.0835403650119637,0.0742949909928557,0.0786874059972115,3.710091347870237,-0.0439801671079307,6.75818225819549
4.8500000000000005,-0.0106272937817198,0.0275162019146959,0.1065830875572511,-3.5397124871052803,11.981189709306964,10.071663616539048
4.86,-0.0901217811557918,-0.0164000658951824,0.1368959088262864,0.3078794588415738,4.537631421703779,11.888690044060455
4.87,0.0147515179252693,0.0076609013084866,0.1611677397426911,0.3766275947569151,-7.238269724763056,5.956011954434048
4.88,0.049199369394952,-0.0761745299255631,0.1280775506433793,-2.3535111435572325,-2.3419974719797967,11.814201816116734
4.89,0.068147339856521,0.0205644716356314,0.1533014316496201,9.749289892924818,-4.264673205473314,8.178023683864572
4.9,0.1035214534176269,0.1464853585460484,0.1688397217926331,8.767356955352064,1.0619221050073129,6.883026209032232
4.91,0.0319659441819794,0.1615782270148346,0.0892031480011292,-3.3722319221605,2.679348051559682,12.153704618459717
4.92,-0.0315088487325031,0.0752128803510433,0.0052599805325963,-8.255716562777579,4.624449521454128,11.233886932602145
4.93,-0.0034789276446611,-0.017475877701402,0.0080909192015179,-8.613259225120832,-3.0277581239091336,11.86258626029758
4.94,0.0236105497262349,-0.0951600927991359,-0.0043842533218911,-1.6163766462631406,1.3180220412327457,11.200792363964435
4.95,-0.002291310440601,0.0555207418138291,0.0041054879233934,10.682880562600214,3.980876668666153,6.577804392279274
4.96,-0.011450081238337,0.018848870405053,0.0413314801093884,-3.0879407305384485,0.5578971694222542,10.791545611157453
4.97,0.0213401836146306,-0.0316175744708628,0.0428481463727303,-1.6945189720856308,-0.4611682399272014,10.929426716749152
4.98,-0.0061253585522149,0.0225518286793024,0.0192835059401341,5.088665272283529,1.5659007211121372,8.691221501727501
4.99,0.0161884124441868,0.0189825252058005,0.0015521092259087,-1.62791637944349,-1.3638826519499974,8.1447679431854
5.0,0.0003761179834053,-0.0571699941672265,-0.0032182844902626,-2.870922935690992,2.389256650713705,11.7529835250958
5.01,-0.026891214509755,0.0236232229444349,0.01398325603574,6.339999200304405,2.687638455236452,9.789031629283494
5.0200000000000005,0.0047665653534223,0.016851679137595,0.0252866287168809,-0.608475172217125,-1.473359343222735,10.124456494642851
5.03,0.0178608932582441,0.0138584468550354,0.043122838103468,0.573075202270334,0.7670983853178472,9.175589628061855
5.04,0.0135902631388352,0.0086550189514956,0.0347598594066449,-0.2631375317040645,0.7166974416933659,9.50256246757054
5.05,0.0021440638593756,0.0160752173722212,0.0294064570602723,0.2201543718858822,2.486655292362965,8.661140675706392
5.0600000000000005,-0.0220115539323211,-0.0085425196248414,0.02010081414252,-1.8076609055805637,0.5538530526372518,11.238473190503033
5.07,0.0208110387235217,-0.0158238686531942,0.0287437204655953,1.0362338597700615,-1.3013927842781892,10.337485446273485
5.08,0.0011422795469845,0.0151854589284282,0.0374725450214692,1.7053111851211629,2.209169476169237,9.56387890110997
5.09,0.0114371024498798,0.0053859420128018,0.0441943768796273,-0.284522437357485,-0.4668130919424427,9.72191851230497
5.1000000000000005,0.0081576901648521,-0.0086076191097505,0.0592086192604848,-0.1270812053823909,2.756028511639846,8.395267486698062
5.11,-0.0061573278376067,-0.0045572842290082,0.0656379525002786,1.3232497970262371,3.2379587722381378,10.015675240864349
5.12,-0.0485097193924257,0.0190131970645244,0.0752998281654664,2.930209289595647,3.9808155332636153,10.99156702680656
5.13,-0.028645529728834,0.0213851756365871,0.0855606634554215,-0.3518502478003601,0.1548461686042088,8.777623938125103
5.14,-0.0156372354026802,-0.0311464643492007,0.0880707342562028,-1.3616608972352016,-0.3419669843545138,10.156433120918516
5.15,-0.0366569108827057,-0.0063366981522235,0.057545619868929,3.0091256732346414,2.484538488653829,9.929468902234143
5.16,-0.0373928647912688,0.0261250013216258,0.0304889426019736,2.011735256820563,-1.9875104627221167,10.384110030060397
5.17,-0.0178048556346728,0.0055301644676743,0.0454604987439462,-1.2335409677826117,-1.8787728953381555,9.884799622086234
5.18,-0.0082654389917476,0.00285367766666,0.0436040524777718,0.2700870747486067,-0.3980719131076542,9.608301920213986
5.19,-0.0165934923672665,-0.0114581381585653,0.0404712472495385,-0.9246357767359574,1.7608989899791825,9.347095053736584
5.2,-0.0338807468222919,-0.0229942755979737,0.0468723502394505,0.0751536705347265,2.484619381777041,9.849728289112804
5.21,-0.0003725259386715,-0.0136358960979726,0.0574613240000554,0.9082324119060003,-2.349042983246941,8.90411336840057
5.22,0.0213770153862829,-0.0118980258496309,0.0624076601502248,1.328934755665973,1.6302958983318443,10.63425834640976
5.23,-0.0247698786316286,0.036589669564203,0.0603146169719048,2.7216375952412832,3.4497681500647417,10.082233905013544
5.24,0.0252499968656751,0.0301485332265014,0.0613787237939187,-0.091588079511024,-3.693974604243664,9.016495193784024
5.25,0.0079935915431255,0.0143994669330536,0.055639139228756,-1.2619294512273245,3.479003304016706,8.837473174874683
5.26,-0.0505808878060626,-0.0118191661362548,0.0565291297075101,0.602810938958664,4.864014830589896,10.441299271335048
5.2700000000000005,-0.0395139011740744,0.0757778664379069,0.0996326346334763,7.423698541968531,3.1158904784202406,8.571867521217632
5.28,-0.0598357228256658,0.0708106668903344,0.1399945754942246,0.3548179432386267,2.3489719037493586,9.368668784471804
5.29,-0.0237648326576222,0.0738282104965421,0.1520307947334596,0.0551008830472154,-1.5964829228155064,8.373331636314656
5.3,0.0128645073508775,-0.0565042814541489,0.1421313275036164,-9.172521350675092,-3.5535616509504195,10.966854639392473
5.3100000000000005,0.0432298277820987,-0.0668739711059438,0.1416327048477479,3.408712922835755,-5.433873721565963,11.910450804077792
5.32,0.09190080532446,0.0397491110151228,0.1093002099928208,8.163816842341452,-3.4282640215603783,6.906444700456245
5.33,0.0533315530677344,0.157417238755128,0.0654543180403062,5.499943758925607,2.9952575138750697,8.095284553709728
5.34,0.0356188702387191,0.1322770105690301,0.0298203498509475,-6.428967081981246,0.7659746055218123,9.993336592196632
5.3500000000000005,0.0242807590322002,-0.0529607438523196,0.0095157803420671,-9.696086654370786,1.8633582504281785,11.546972899968589
5.36,0.0083895358013692,-0.085594571179618,-0.0139667216303995,-5.524032812124236,3.1321667596827534,14.072346478122356
5.37,0.0139187942409722,0.044950329486229,0.0173786001664348,9.63775559533366,2.8689279357052038,7.47137608449369
5.38,0.0117246026446856,0.0439980835840999,0.0222094048199006,-0.5618189625196601,1.4753231050917184,9.793471658935564
5.39,0.0216386991861258,0.0313268813937803,0.0297707382973977,-0.5957827265519775,0.2963282730917809,9.80234773738254
5.4,0.0042683619150762,-0.0298730514245376,0.0319524992641755,-3.0783417453862745,1.5456144326824683,11.266528603390263
5.41,-0.0218099405134584,-0.0298673166233697,0.0353257570800134,1.253047006604728,1.6948991769470214,9.442433522594492
5.42,-0.0174272798059471,-0.0207779859581431,0.030462910273368,1.8754956161397625,0.7902081374844435,9.894319448237288
5.43,-0.0111656089155292,0.0083792538378017,0.0039387762930938,2.021802094363936,-1.1662222107632667,9.95159468225716
5.44,0.0401094032508217,0.039233143810228,0.0139782725286432,2.625739975334412,-2.150164515286223,8.8407135808305
5.45,0.0258044730316093,0.0433976190513473,0.0283835519489594,-0.8818795300864707,3.0655134375945177,8.805265713817567
5.46,-0.0198351870953056,-0.0317404804775149,0.022764130347664,-4.835084030534347,3.1260997826278003,11.321381967031916
5.47,-0.0153132245727756,-0.0521972910671932,0.0263259791222163,0.416285303544799,0.7516943474363095,10.492440926280723
5.48,-0.0065781077836884,0.0019450144568149,0.0296320923057147,4.178742237058911,0.5643097669857725,9.530037260733916
5.49,-0.0016732280711908,0.0239720645788856,0.0310686797288009,1.4955883209986145,-0.0884285764123212,9.421484793740833
5.5,0.0428640604391694,0.0298855223178642,0.0285514135298081,0.2630496794764099,-2.459279020187471,8.35771769259473
5.51,0.0044598975745094,0.0005388328068171,0.0291804399725743,-2.237379792468047,3.846078871850308,10.247837404940578
5.5200000000000005,-0.0221879035107562,-0.0485815388207808,0.027888038047845,-2.5768407422409805,2.0721647695488303,11.191070222739835
5.53,-0.0265532399253138,-0.0386547432692145,0.035641438179905,2.0953424196716703,1.3248427283619189,9.974864092153366
5.54,0.009964279011364,-0.0089597320144456,0.043687580936844,3.79526177550578,-0.8675464306329203,10.02687900740436
5.55,0.0223370126900251,0.0494313768648931,0.0758261073765107,4.926775374488155,3.120337317208944,7.161525694779429
5.5600000000000005,-0.0606739013452826,0.0298642145815604,0.1051561970648118,-2.1615597512123164,8.099028978536872,8.940311328961899
5.57,-0.0877090648728354,-0.053736799204418,0.1123347793158837,-4.090539160044209,3.3903713603147567,12.479706743490397
5.58,-0.0286294119572949,-0.0622591902127515,0.1188218955334969,2.204382523045006,-5.725183882732435,9.50123405766016
5.59,-0.0068287688340052,-0.007617654133281,0.1116112981376,6.708497095011288,1.0906358318598832,11.092332205262691
5.6000000000000005,-0.0532161089070204,0.0706972493664857,0.1079936091241189,4.642230056759322,1.2608916926279194,9.375496567039676
5.61,-0.0210813169448432,0.0580149824239453,0.1045945573982545,-1.3409503983981248,-2.167157563393685,8.233673342996287
5.62,-0.0382149639581091,-0.0236214508968272,0.0622820284601994,-6.9291148227067625,1.0967857998821278,9.988215648377766
5.63,-0.0523615233938363,-0.0529160425802402,0.0418215569493123,-1.06319896082344,0.4577880724615235,11.68648629128842
5.64,-0.0077854655206333,0.0235290256613491,0.0451443594333478,4.128568172601076,-2.659568673788744,9.06950172583678
5.65,0.0091830361997016,0.0373965495065422,0.0383186478552171,-0.7253545596953451,-0.0204915681625621,8.769214034634
5.66,-0.0100253708274111,-0.0184081396569445,0.0328055534896203,-4.98825159600143,1.7056691357347489,9.53602587997484
5.67,-0.0273389814892963,-0.0598601370891634,0.0370592240628549,-1.5737365590804666,2.0662100410516837,10.850481103600345
5.68,-0.0013287239546547,0.0140428685839533,0.0272261824843236,6.632914857316134,-1.5682046676427146,9.376495552983007
5.69,0.0482026590101222,0.0675909095034276,0.0114142390352436,1.9352107716848093,-2.0931963635329045,7.349928540498173
5.7,0.007733852151614,0.0038873037781727,0.0191209342715093,-4.629544620043591,3.443018295078175,11.231289216636808
5.71,-0.0115381122658872,-0.0420101878810607,0.0334312755998917,-1.4376133237921649,2.150928322810976,11.5194010777143
5.72,-0.012854010721426,-0.0022779651439684,0.0355283122894116,4.230475946034454,0.4446491068540369,9.471325521035794
5.73,0.0161474866387774,0.0181924804318608,0.0412897047039815,0.984118728226278,-0.5798875130268204,7.613591177318107
5.74,-0.0214423573444182,-0.0226452555337841,0.0460531179246255,-2.3646400602063453,3.804083760098965,10.811424413778584
5.75,-0.0300111338379111,-0.0255577418921172,0.0396444116172143,1.1016634954695474,0.686058875648509,11.4274012178528
5.76,-0.0089773006055404,0.0044637834975751,0.0398817349609681,2.8146751445616127,-0.8747767027480333,9.502243006789168
5.7700000000000005,0.0167794379155723,0.021520833412747,0.054502687269146,1.7509700198176987,-0.5241153709412973,8.562083174883663
5.78,-0.0077908805222322,0.010828824634741,0.0589916695293733,0.6222984485916696,3.37180680203178,8.624957457810027
5.79,-0.040354258763599,0.003861554556702,0.1173003975686379,4.703098003180922,23.65770370107552,13.261653881225094
5.8,-0.0889745778402077,0.0396912876524878,0.153403579109604,3.0199568144540025,2.0839652321614537,9.580311392227896
5.8100000000000005,0.0776411802798043,0.0017762140688357,0.208864628189499,-4.276485190467997,-11.5878902866261,4.211356815288067
5.82,0.1238217125951185,0.0323098692251581,0.1789019991096803,5.28172359618916,-5.281997500511175,9.043132999110602
5.83,0.250939129989977,0.0717532151444439,0.1678206015762635,4.08202510024319,-9.222841519325971,6.757076430028909
5.84,0.1605322179143138,0.1906166249083127,0.1434197266039201,8.215829898344888,7.471154190480724,10.132123724546185
5.8500000000000005,0.0736957966539205,0.2051303191980257,0.0701182995375939,-2.950243139097965,5.218728268777986,12.21906888920503
5.86,-0.0298165779677884,0.118768733142246,-0.0118903174611977,-9.371645319557686,5.473267245285781,16.20086682753896
5.87,0.0747551275865123,-0.0587715524149005,-0.0392754088702849,-12.958649497769736,-6.338624515849819,12.524443039031544
5.88,0.0116705096764785,-0.059227520259488,-0.0133592906954935,2.795590194811558,6.7348521494526805,8.995360472292521
5.89,0.0130540077147665,0.0559924601651501,0.0471721243497678,8.596588223242376,4.9337571247146,7.161220611371114
5.9,-0.0158561551797539,0.0177505257865053,0.060543319993908,-2.5255468951108564,2.4846072557283616,11.932006267846564
5.91,0.0011970301215729,-0.0383306364306392,0.0464395460125752,-1.510289651314771,-0.4217531824609549,10.964943155315916
5.92,-0.0195951822674017,-0.0068996229382518,-0.00027105203711,1.556017251502847,0.9677485787841208,8.022755294120955
5.93,-0.0024846208741769,-0.0187096502315813,-0.023251048437064,-0.9564546619148092,-1.7198848459914364,8.236255301004046
5.94,-0.0170950769745681,-0.0004479044304513,-0.0199652064207247,1.7015544659264694,2.1111819071100317,10.38410158083432
5.95,-0.0110920263968679,0.0032453774560217,-0.0104974910232475,0.6340113855461404,-1.3980408899084964,12.270982304464749
5.96,0.0322366507420314,-0.0044135887042774,0.0430501986679383,1.048918745665541,-0.6011560277473906,9.490136425234107
5.97,0.0106763902660266,0.0276680770641134,0.0748674635228463,1.8671147735898697,2.802525306210776,8.080688470788944
5.98,-0.0009157596670221,-0.0037454392257089,0.0600418102380582,-1.6012461253750636,1.8132334848162148,10.814116009265344
5.99,0.0040927331321134,-0.0056669367247737,0.0048433976166644,-0.5273433470140173,-0.4496576423267412,9.5187528449473
6.0,0.0130736010220269,0.0011877358086362,-0.0151240203145197,0.6340438187359904,0.1924906739316305,9.04545615318124
6.01,0.0047338953862762,0.0223303144812576,-0.0038621631997874,1.3894836624347229,1.89695899893326,9.012580236645386
6.0200000000000005,-0.0103815669613002,-0.01009495786071,0.021168679782445,-1.0605921015425328,1.178350080938612,11.629744274535057
6.03,0.0164719236744491,-0.0076437671237607,0.0431042191025563,1.6246990852123873,-1.180286366139771,10.033247971660614
6.04,0.0108396919752679,0.0084087103592339,0.0498472627636739,1.071994161280429,2.0975047788861603,8.979968232981845
6.05,0.0015008081172396,-0.0286401404165971,0.0302144650754281,-2.6305368211180458,0.959123935732501,9.47486137782543
6.0600000000000005,-0.0002663988253562,-0.0045310129837061,0.0268827125814505,3.916973013695558,1.6429442092061133,8.9728978422682
6.07,-0.0178695686497205,0.0936477465540999,0.0701867107686349,5.353938921753129,3.952484279809602,8.530472239864535
6.08,-0.0350748736790078,0.0429697047693021,0.1211458284792252,-3.626824155464386,2.0419276281873358,11.418132434068148
6.09,-0.013098297218127,-0.0248702244901254,0.104459038787777,-3.6695277783135376,-0.667069195690558,10.79551142643842
6.1000000000000005,0.0431037031760894,-0.0130831795489221,0.0554369006690331,2.650546018471364,-4.557132385537556,9.159169701077555
6.11,0.0064067827512944,0.0605398671405873,0.0430444244679757,4.471850006463162,3.956906175360029,8.382262131184417
6.12,-0.027971723968716,0.0131634608045343,0.0293646444019624,-4.091076133905648,0.6753767010289304,11.027424068200212
6.13,0.0135026727914542,-0.0248906355481239,0.0269017860677787,-0.7507096063914702,-2.852085534915541,10.471152339392074
6.140000000000001,0.008515632372657,0.0038450098379703,0.0250315320131131,3.125382199776792,1.711790769541962,9.681581551958812
6.15,-0.0163369308627852,0.0036973949196267,0.0315213676926442,-0.7132609942409113,3.505463923410321,8.51307066202403
6.16,-0.0764131763030181,-0.0607549516564792,0.0531904239591905,-3.4761277100952963,4.478803750102753,11.853800421836093
6.17,0.0003058588933688,0.007319670156454,0.032392994352872,6.962835043365533,-4.905294118887838,9.113969301795589
6.18,0.0434183640668607,0.0695489242899111,0.0209260479000159,2.4555424233100074,-1.404456252220435,7.947953154321898
6.19,-0.0013853073753103,0.016549318252424,0.0261027485516616,-5.39339991807436,4.179850713679645,10.345674605969863
6.2,-0.0126470581069878,-0.0400692922265007,0.0407851066824742,-2.383282187220533,1.0054779665037104,11.650143019234712
6.21,0.0007870498461656,-0.0094307047726128,0.039395673983986,3.218840073684428,-0.2800852241668517,9.386201441719876
6.22,0.0219606335369509,0.0375119519282976,0.0497212138411351,3.485370951523912,-0.9825916443445696,9.056709267884576
6.23,-0.00600038954709,0.0190605819380907,0.0719077650842019,-1.9247135838195388,2.408929162584427,8.552460770949173
6.24,0.0046447506292183,-0.0498095430924287,0.1004741628107377,-3.280592786021704,2.8269826054049627,13.318241071312416
6.25,-0.0238941621790365,-0.0017994955403893,0.1115585331258126,5.205132717131589,2.08860415234375,10.185374819661712
6.26,0.0088124609133733,0.0543075001078246,0.1261715431150742,4.349795318716703,-0.8715823638614554,7.872539439617498
6.2700000000000005,-0.0077704614450922,0.0293187750255059,0.1123556856450387,-1.2217975589205292,1.8254556002070643,9.396652986383485
6.28,-0.0344446217783504,0.0444348556655417,0.1113322515425034,1.5098594701951502,0.6541834579171322,8.571981893484224
6.29,0.0677696641787314,0.0479999689456474,0.1510531444486924,-0.1771648931685491,-6.465468574809034,7.001675357947915
6.3,0.0936010667631893,-0.0001974289229976,0.1317447562155076,-3.6158292166446206,-4.238490185101596,8.681353420457109
6.3100000000000005,0.1149496610369256,-0.0361909376123076,0.1243649412330933,-0.4531490124047913,1.278008041488585,9.021565024397365
6.32,0.0373160049860762,0.1011956515136509,0.0899607453879662,9.258972361245275,4.925726649735064,11.667545162989612
6.33,-0.0058867107898012,0.1120190474586188,0.0262755182024785,-3.858523520144294,3.813201402719878,13.434954569520484
6.34,0.0264589973321567,-0.0584236490521741,-0.0171061466994932,-10.432541846233624,-2.6859499900257795,12.435590991180804
6.3500000000000005,0.0288254982523278,-0.0615874461412694,0.0091561077547022,2.8038891081638138,1.282992545763193,7.326246410848138
6.36,0.0115704716189256,0.0376556646832367,0.0506461996969529,9.93828588240648,5.794448795994885,6.733524675410642
6.37,-0.0103329599073424,0.0325732377097884,0.0466036487755128,0.2026791610843409,1.0832819817395318,11.88606495021882
6.38,0.0308996509504717,0.0365073691634127,0.0306957874831506,0.6902309490415085,-2.378001762349225,9.414123114602011
6.390000000000001,0.0022214433091598,-0.010879596282897,0.0313498143491097,-3.708113375270948,3.676022288941737,8.826271314300055
6.4,-0.0718099010599804,-0.0667760777219263,0.0405192215380021,-3.5366318162541424,4.452030736686233,10.505910194391724
6.41,-0.0159692622804433,-0.0405715633067598,0.0314760048326798,5.058445743435804,-2.6491795641485183,11.237801229071144
6.42,0.0135911718277163,0.0452618448421926,-0.006885401121085,4.82561899288239,-1.903796842743615,9.17952489987261
6.43,0.0277701020674615,0.0503796676528506,0.012413329297001,-0.4420895495943139,0.0400706864109806,8.212652916782918
6.44,0.0225371270696821,0.0181324792353467,0.0471695091959782,-3.0247728290063973,1.99283362802834,9.506876445915733
6.45,-0.0141526713605904,-0.0218466773736311,0.0529534321662732,-1.1699697337289716,3.4690038459988166,12.200004982893658
6.46,0.0121103353156612,0.0084445221526717,0.0324493505445071,1.8711196500931189,-1.7752020156620845,9.264413566994149
6.47,0.0283389015032143,0.0090555323833533,0.037951263451273,0.4712125830838145,0.1079538131535647,9.47404552582418
6.48,0.0333094455306711,0.0374802500206269,0.0512371387717076,3.00006199992927,0.326229692538099,9.048475161973036
6.49,0.047590688516303,0.0698070085722658,0.0503632527229138,2.6067573238962813,0.8465386414343592,8.059102407051768
6.5,0.0003302413259515,0.0311195757746988,0.1024362806615182,-3.977101012176456,6.872232279450585,9.326907527002533
6.51,-0.051032211944361,-0.0477569739254019,0.1126384128269502,-3.11229359032257,4.402637001533453,13.933322479218209
6.5200000000000005,-0.0115508019371559,0.0121899249051283,0.0889277074870416,5.41247403660646,-2.5933100283480925,9.378097955740992
6.53,0.0726942038251286,0.0605708139380767,0.0546028416988202,3.869519740497944,-5.094941303921331,7.764440075286489
6.54,-0.0195778626064202,0.0721225825427251,0.0559899311897107,-0.9578191063688192,7.787241505628879,8.693485249364167
6.55,-0.0518766854033222,-0.0496970701008309,0.0355351481971093,-7.361198115657352,-0.3828016428871874,12.7170686918016
6.5600000000000005,-0.0427409280738328,-0.082245246197472,0.0096784642350622,-1.042092982986576,0.16328150593868,9.38503680493279
6.57,-0.0181940180964143,-0.0288605696767738,-0.0078557423862866,5.18689059661734,-1.3638099241157202,10.361304375751448
6.58,0.0240066102663877,0.0618040240508721,0.016654287317092,5.217444008768902,-1.4595101992654522,8.02929464147808
6.59,0.0195047887274052,0.0498959130495523,0.0556048777338811,-1.5606144303590344,2.3577676738791715,9.825849303681329
6.6000000000000005,-0.0112626346967714,-0.0145601890766797,0.0468638826546021,-5.033498570557819,2.688921141016161,10.319456175946971
6.61,-0.0407162119052728,-0.0802910280399319,0.0349336218473264,-3.1789462954465533,2.9044180192070392,11.20098480653989
6.62,-0.0285209490245184,-0.0142424322204487,0.0189250231173583,4.984271105035832,-0.1486361612173366,9.9339214917668
6.63,0.0275632445892209,0.0684635933942731,0.029174457156355,19.74594943463151,-11.214885200900724,-2.596289650394226
6.640000000000001,0.0157062194124241,0.0178683603784998,0.0218703493860312,-5.188660187643927,1.2318543897257397,9.968188481241938
6.65,-0.0101331722248135,-0.0282811669249897,0.0461461943027326,-1.6828363935038866,2.138321751784801,11.594047482310897
6.66,-0.0049120082745035,-0.0126994195229564,0.0542484026786633,2.4598102719142942,0.9547902989072528,9.879404164270944
6.67,0.0056590615844597,0.0401800994181216,0.0522651512560197,3.999050334280496,-0.8705960220921529,9.10588149583742
6.68,0.0530556218275943,0.0433224442259786,0.0635107111570187,0.9592008006835224,-1.0130176161214064,8.739443782594034
6.69,-0.0133622471841327,0.0088640060655268,0.0813049365219422,-2.6930854695738,6.224123196311661,8.839338181674986
6.7,-0.0316849003563101,-0.062369127912182,0.1139576647815057,-2.9722872659264645,5.133029705073884,12.695238795932546
6.71,-0.0514993680545533,-0.0235213484823182,0.1225007016596146,3.2253237687126464,-1.1318712455808748,8.202241420967198
6.72,0.075280785892614,0.0039433134800685,0.1624400604900666,4.553086896383607,-3.4170143343406347,7.406416714696446
6.73,-0.0099535981937327,0.0299275338211915,0.1643472601112672,1.6210732608311025,3.948199761424471,9.768410903364726
6.74,0.0792237601594827,0.0094249703393439,0.1089105595287629,0.1669463679319556,-6.348270538420049,9.197214342280793
6.75,0.0304393693067942,0.0925398318504068,0.0247862272348948,2.900240474051793,2.655673184184548,9.52841269514982
6.76,-0.0299261871553141,0.0668147093111853,-0.0322212922933748,-5.984181821359302,1.0984179561804102,12.758159129008527
6.7700000000000005,0.0528829320041789,-0.0464247504333393,-0.0129840980830839,-7.760157972269293,-5.393563382083854,10.918284823491817
6.78,0.0179463461241281,-0.0388975439153501,0.0033975739183598,1.886048872183005,4.9267186660671625,8.358275282185812
6.79,-0.0371545718745811,-0.0458481654061247,0.0409210760530778,-0.0111607386428049,7.710218851961754,9.027893853746718
6.8,-0.0457678631787556,-0.0082541352991754,0.0195077143993922,4.348364162720976,1.1380912523628068,10.942423784977551
6.8100000000000005,0.0297692108623582,0.0550391766560307,0.0041083161172219,5.11940206724448,-4.620904559788935,9.641804164379105
6.82,0.0352693329173981,0.0343013830532888,-0.0060052137437513,-4.061512067357412,1.033477290949416,8.530360452942405
6.83,-0.0274714503157438,-0.0418487425524554,0.0449485246476479,-3.442304896759929,3.6401628202819527,12.036173067284391
6.84,-0.0004075080742249,-0.0179898050127566,0.0650962729391404,3.491669238881143,-0.3926464364264885,9.490705727366644
6.8500000000000005,0.0058536959482865,0.0436698252263425,0.0319594692823239,4.122375807506207,-1.3438075408152368,9.572801536616208
6.86,0.0643199529761808,0.0435072000869234,0.0225356601563044,0.0417584022485803,-2.471005171099089,8.434818170116497
6.87,0.0115879057864778,0.0124580321186132,0.0186640739825316,-3.4956005419762404,5.9232470228349365,8.821730841433371
6.88,-0.0780806497203015,-0.0846387719361415,0.0308267314371415,-5.391424665417357,6.382364204987254,12.165381762186446
6.890000000000001,-0.0275905345118733,-0.0349410227496706,0.0184072450187751,5.97956633575973,-2.800968972586198,10.369736596692745
6.9,0.0431551149633606,0.0546582900678393,0.0068107832607575,5.960067205551162,-4.101456663579984,8.552611775449341
6.91,0.0348498833293324,0.0710005205221236,0.0250116203364678,-0.5408827762204785,2.2979209903335103,8.037144852059006
6.92,-0.0103722830847991,-0.0200927764551224,0.0475480098661729,-6.160219033597224,3.0810410815167835,11.707797646989135
6.93,-0.0045599057522572,-0.047341436035201,0.0461977858480759,-0.3572706589689401,-0.1555934803166581,10.666883247272688
6.94,0.010551467826057,0.0183493934361457,0.038440829926426,3.807138974209928,0.373483701583246,10.45430833660878
6.95,0.0498650386197056,0.0624969147076634,0.0458441812929459,14.783026285242244,-10.627001957342475,-1.8140571817835696
6.96,0.0312802062604218,0.0217131825529161,0.044714345448906,-1.6918118046249675,3.23904518891898,9.348319991116847
6.97,-0.0013326548607139,-0.0291435855290266,0.0840016071137734,-5.139877616973603,8.956305338098579,12.10747182622437
6.98,-0.0862998257433457,-0.0702299147643453,0.0722478766378709,-0.9360898503995086,8.81593281214158,10.858248018768968
6.99,-0.0986346059096435,-0.0192153266848653,0.0953394685324975,4.3156938424486215,2.688914504739349,8.478687709238928
7.0,-0.0882644562762887,-0.0667300991492187,0.1228723142680474,-3.385056800713294,-0.189846926179869,8.131677021230017
7.01,-0.0488487437947552,-0.1155194435923795,0.0806174863514253,-1.239771827816969,-3.987941358526218,12.361044211280426
7.0200000000000005,-0.0059542195868786,-0.1389157547171594,0.0758100066718407,-2.1122403599206656,-5.454179860647301,9.170174029085304
7.03,-0.020054007793231,-0.0924804806953969,0.0792193327483483,4.6966016265679,1.8525538455211616,11.454178945560953
7.04,-0.0411321888854405,0.0179381295262917,0.0137159301352449,7.180629444573292,-1.3942410535429697,9.044678618079498
7.05,0.0257736301799608,0.049455235292757,-0.0043437757144919,2.042073425600245,-10.22833409937228,6.903352048946385
7.0600000000000005,0.0590762007980881,0.00701655581357,-0.0101063932839087,-4.440028586215212,-0.8377491172995957,8.002301957285542
7.07,0.0099462411783205,0.0082291434080601,0.0193702474620887,0.9195224045879292,5.054468648043671,9.825359401520718
7.08,0.0199490573696222,0.0296022127882916,0.0358315620955773,2.2457981946982044,0.9787988624307103,9.611053232653084
7.09,0.0174383849297314,0.0317097928376495,0.0381649684545346,0.1823720114232452,2.768079323481306,10.22181712010248
7.1000000000000005,-0.0002854001135968,-0.0266716309822312,0.0237041011837073,-2.9743475201016945,1.2023412333283214,11.58092072295528
7.11,0.0005628118814234,-0.0118677246226692,0.033216058128769,2.375034526789516,1.3601985413497724,9.126280679497851
7.12,0.0187322623723523,0.0308937006506728,0.0433658723172494,4.210823528445684,-1.3696179678095075,8.906234715895934
7.13,0.018013675043408,0.0488875288883055,0.0295422178146191,-0.0006328571636193,1.83269547046873,8.317704874798098
7.140000000000001,-0.0436557862152752,-0.0662939727995736,0.0167098276701518,-7.490387813578919,3.6000946863629704,11.577721718622648
7.15,-0.0237465329166708,-0.0627671913683062,0.0099953253206559,3.036079722109239,-0.5987998260051636,10.657288182342963
7.16,-0.0025428650556152,0.0441006811971065,0.0111435240518995,7.165366486018594,-1.4391308854080678,8.964894318189732
7.17,0.0461101488367684,0.056251258117947,0.0255410399672337,-0.6003296109372096,-1.7504775291877963,7.711223123720529
7.18,0.0055536001771805,-0.0102455076416613,0.0372584786650487,-4.689095096976391,3.944994416869508,11.325811697232409
7.19,-0.0180420529962567,-0.0328208210817012,0.0413488585886308,-0.0649443153475458,2.0701538034631786,11.241094053311382
7.2,-0.0003969557237395,0.0160101074561414,0.0348844889935799,4.0256377116117,-1.364952635315986,9.209667589451811
7.21,0.0497769922875114,0.0410982174255235,0.0461109120783158,2.0389674367440738,-1.6158630221884511,8.077363293899332
7.22,-0.0044133343435164,0.0044782283144082,0.0501031902071782,-3.327349811464373,5.260344018231659,9.819147428779914
7.23,-0.0276759787208463,-0.053534978761506,0.0488024492201157,-1.7422568197039996,1.2656420838785525,11.976634969250805
7.24,0.0567918042048276,-0.0027526897694355,0.0885751981672593,4.940252574515708,-1.7095448143533267,9.309733322026904
7.25,0.0301894800739472,0.0548181302208122,0.1321535397705384,5.609225276584652,5.1798583134865055,8.65536660323096
7.26,-0.0256178274546655,0.0766405911385459,0.1763281662401505,-0.1536534746489362,6.966760546049177,7.810401133324419
7.2700000000000005,-0.0675042194777323,-0.0240969650675493,0.171866564863617,-4.726314128785111,2.459728388935201,12.758217044574794
7.28,-0.0151646837760424,-0.0453415085515828,0.157206206434662,-0.8248096452031825,-6.93844401447505,8.830354830650972
7.29,0.041557263948832,-0.064859040527603,0.103710814231331,-0.74600965095046,-5.906108481180349,8.870313294230597
7.3,0.0936980024131505,0.0209091679047659,0.0994209338363953,7.231283189793258,-6.909588838261888,7.815763245680543
7.3100000000000005,0.2039936423193507,0.1130128487449416,0.117781764679844,6.3013863533253245,-6.449339777883739,4.934314370500532
7.32,0.1512398021199522,0.187627919052876,0.0698147926863976,2.457506105856678,6.140936889915829,9.68141497665399
7.33,0.0057447091782204,0.102159635612725,-0.0055514501023343,-9.799663242454956,8.564054521810677,13.983681974565483
7.34,0.0190115770032664,-0.0392299599178682,-0.044386499709194,-9.740709525010953,-0.7348712431463601,14.139664643993408
7.3500000000000005,0.0451537430153525,-0.0346733650486385,-0.047627092486923,1.9026822016177904,0.9907275267788168,9.134347544506843
7.36,0.0265652061611047,0.0269098755018066,0.0054883606184967,5.879026662176723,5.6310865571367685,8.36378924740077
7.37,-0.0130723079698543,0.0373411959660879,0.0497420754668065,1.2094229246556478,5.338939604244794,9.73675947365126
7.38,-0.0126999686234185,-0.0150683578777442,0.0653231356677361,-2.28628074007137,0.7369474628654659,11.156564023586752
7.390000000000001,-0.0165306097032201,-0.0275136139121958,0.0414071333047696,0.1011415010707373,-0.1922472677158399,10.657532311840002
7.4,0.0365678179728266,0.0266812400008245,0.0501942623791047,5.06750189889207,-3.612536681487278,8.278709685118061
7.41,0.0276234247823419,0.0579379758054307,0.0414877001580544,0.7617961891785207,2.743404542493616,7.593883470256181
7.42,-0.0578223116808469,-0.0357973609475104,0.0112469036516496,-7.81759399785727,3.740167337750477,12.039685872332347
7.43,0.0006663375814564,-0.0714440243209964,-6.312181588773863e-05,0.7738688219404137,-3.090598858716246,10.970321697034375
7.44,0.0035253683290807,0.0335776649026399,0.01917024593919,7.265914237432028,1.809065232649804,8.799578406954986
7.45,0.0009890578533827,0.0376616566736275,0.044972590022976,-0.5419705408014082,1.3026871579360293,9.480996818765496
7.46,0.012841905598718,-0.0135295635989153,0.0457505125936814,-3.059267595377453,0.5595867961718163,10.31445796894923
7.47,-0.0087780741971392,-0.02369330068848,0.0382019158837148,-0.091428599000987,1.8019286634515437,9.426153229374524
7.48,-0.0179938695409202,0.0013664510044951,0.0408485968050309,1.8651290759269183,1.0642162175603618,9.221678628259214
7.49,0.0236013799596765,0.0192417822407109,0.0230726961430856,1.0649921457361649,-2.060450797832108,9.529386492976478
7.5,0.006081758325975,0.0043217148091243,0.0257668093231269,-1.129458582159886,1.7922496157057015,10.710670004917976
7.51,0.0163782615339906,-0.0080096379114019,0.0491111379501172,0.4310251620255523,0.8614201771586073,10.268086876174976
7.5200000000000005,0.0037290191116477,-0.0153340615906821,0.0640745077666589,-0.0049359130591832,2.785749864679661,9.496853060554557
7.53,0.0194727466384573,-0.0234804054755737,0.0693028856453248,1.1539329882526963,-0.2839526480688633,9.84975032346241
7.54,0.0208376138524163,0.0316172693720848,0.0840449396905251,5.395181568669615,4.64447471114031,7.957556352025375
7.55,-0.0459294684563106,0.0571469909028248,0.0989274669822999,-0.0530104158493648,5.595440260404481,8.792906348076766
7.5600000000000005,-0.0931562348983949,-0.0459176528398916,0.097591734343464,-5.868226425405137,4.441069437147514,11.537241304964969
7.57,-0.0186236454690505,-0.016619283659846,0.0662608210381814,4.622777401339539,-6.374695174271497,9.88993143091941
7.58,0.0026246931585522,0.01729294526567,0.0347402196761914,1.8922890847991705,-1.3478442728646938,10.312976513547133
7.59,-0.0242556452365103,0.0134596657031468,0.0212754130747863,-0.7489185292504414,0.3414495972800139,10.132117014616128
7.6000000000000005,-0.0259911763617817,-0.0018579221697551,0.0398121092852898,-0.9294910515487405,-0.5830497624449726,9.444144058602532
7.61,-0.0136361815683395,-0.0420945302955432,0.0279176745948144,-2.2272598984590903,0.1139586162928674,9.819850900270524
7.62,-0.0120409864205077,-0.0114718351463804,0.0350052480038949,3.8132265346285648,1.159258330559391,9.578998813834628
7.63,0.0051595057728019,0.0420993266760864,0.0341172766324826,2.260130625755867,0.9185499739386824,8.76066899319099
7.640000000000001,0.0004453066902841,-0.0005970275894143,0.0325193357106992,-2.666259253173686,1.9751814746649616,10.41376699797313
7.65,-0.0143243278136268,-0.0121203332213323,0.0286543768283673,-1.130441517576863,2.005433041896652,9.75997633951418
7.66,-0.0119920344024115,-0.025801538541241,0.0274015076842852,-0.1974567875581675,0.0770525956913729,9.748671550363762
7.67,-0.0105821166117661,0.0272997012009463,0.0350443970796414,4.142157081008609,0.8816277005643134,8.480682416801827
7.68,0.0079034392799542,0.0130852690268788,0.0138707802084037,-2.09927652418196,-1.813949880083247,10.40219256090629
7.69,0.0047098320292644,-0.0230030989899627,0.0273306265857764,-0.737755808985681,1.068001343374796,11.212702089719777
7.7,-0.0034087772814211,0.0080994492404811,0.0406597394880601,2.707746176609286,1.912927910682416,9.370805492097633
7.71,-0.0141393732139609,-0.0031668836470149,0.050393747949297,-0.2331827455577137,1.7087404241408386,9.36935476376732
7.72,-0.0328203570385712,-0.019084684924013,0.0550526481506177,-0.5664428956315632,2.1592353712066394,9.601784516817808
7.73,-0.0124218857302466,-0.009183671120534,0.042264788263733,1.713339134465032,-0.3979843383017899,10.322530984261434
7.74,-0.0065009407956419,0.0019722153343601,0.0271750137594291,0.726989371667294,0.5823688441481897,9.805537629268075
7.75,-0.0110885323626036,0.0068635936073646,0.0344041388866254,0.0701648596402347,1.3313023762516387,9.349792715291429
7.76,-0.0110579164985706,-0.0073623958915977,0.0465601113077947,-0.5339940318846631,0.8251729090744591,10.63534028971388
7.7700000000000005,0.0278277009071447,-0.0241247337293635,0.0573155012366124,-3.762097519588433,-5.717485667418396,5.4602544908030906
7.78,0.0657928556873187,0.0135894963285428,0.0322197143372842,3.058201217758253,-6.480716649686652,8.957666338186002
7.79,0.2410300154188016,0.0516616998922428,0.0176693246152945,1.8386323382215792,-10.61266467768509,5.511102376552138
7.8,0.2385725872085833,0.1483351447356171,0.0388008419808694,9.644204269806686,-1.1319493596570984,5.361565513863536
7.8100000000000005,0.1959840262829257,0.2547096382135562,0.104973031991417,5.940338684039674,11.77564796256301,8.131921329044662
7.82,-0.0139025747833152,0.2276364727896019,0.1075019229587861,-4.138767369237518,16.71737333189853,15.34122854645944
7.83,-0.1107474337556258,0.0825177706445568,0.0919088486966439,-12.090316476773047,8.823118463719915,17.037868522470276
7.84,-0.0121433669963954,-0.1422750442166871,0.0616882767912694,-10.167505177777604,-5.403214437343112,15.479828480862064
7.8500000000000005,0.0693772500330362,-0.0798107992973118,-0.0111328737425855,8.930362338078496,-1.6575380545594611,7.186738540166384
7.86,-0.0510126984078119,0.0629730147911573,0.0020600217080437,11.296446936814045,12.336699386551167,5.328348864632916
7.87,-0.0872156133240689,0.0531094936772315,0.0126404416200467,-0.7102680282565188,-1.76471555992484,11.434813446055928
7.88,0.0233524676795445,-0.0251465349916688,0.0229100760456868,-4.21858974632286,-8.091403727894171,10.327914220559007
7.890000000000001,0.0325965182919489,-0.0271700974651079,0.0263674714055606,-0.0501691974384247,-0.7138081530728366,11.058271740648076
7.9,-0.0156374722930527,0.015658185405694,0.0387737814721413,2.1746276131669804,5.100396270937864,8.086409329834709
7.91,-0.0396344195357081,-0.0247371846958088,0.0416685108479806,-3.691674938586966,1.9048738669160077,10.058509450018976
7.92,0.0049363773940188,-0.0294023405962347,-0.0106271478894404,0.2881108161682119,-1.4852927268653338,10.611907509105734
7.930000000000001,0.0365431164874488,0.0431829963203038,-0.0255716677370718,5.2228088237557895,-0.3916940997353091,8.58846145210601
7.94,0.015823055199306,0.0812281204367391,0.0074808461044677,-0.3196308452496109,3.2765999146477878,7.842172985928647
7.95,-0.0213545449461212,-0.0366294381503416,0.0347519655165025,-7.791489155908413,2.595285428812923,13.538822703613404
7.96,0.0226301622606593,-0.0618092700908113,0.037569600009615,1.2431473122106826,-3.0575520047765026,10.06218135145242
7.97,0.0080845085230378,0.0318201222908102,0.0468042780098267,7.769162046522941,2.564782497411908,8.698142113954216
7.98,0.0012068033839158,0.0305604977086108,0.0372108731803246,-0.8413608548615844,1.190221651584776,9.738267565460903
7.99,0.0324700103341623,0.0377185657893746,0.0157213367906161,1.5164244216763223,-2.220147462323011,9.181751186823194
8.0,0.0569713827311596,0.0446368413422321,0.0059077295859106,-0.4877225534673425,0.981897120535856,8.088821654894362
8.01,-0.046271270364127,-0.0470888379273651,0.0047372573439725,-7.325773947148072,7.712337724456857,11.11140754256413
8.02,-0.0359423606968442,-0.0605329957756812,0.0167432481807419,2.356961461590016,-0.1144274740555045,11.552373542310344
8.03,-0.0061444164097181,0.0285950169026587,0.012160227486188,5.657159542985277,-0.9616565906371656,9.339044449474706
8.040000000000001,0.0172215677124178,0.0154650697320025,0.030135131293232,-1.031089856636337,-0.517003403193091,9.821201883854338
8.05,0.003885238144178,0.001719802090402,0.05169337134927,-1.0822558919731171,1.7542063893258608,9.199592849768727
8.06,-0.0096668186705265,0.0017910910025182,0.0504247721669026,0.8330931453346442,0.945719888414764,10.787858282670443
8.07,0.0731024677456767,0.0626602185911473,0.0300839867827245,4.4164547044687215,-6.013638308626759,8.0423913773807
8.08,0.0632417971911216,0.0817482893417154,0.0413574900862523,-0.4929623966304375,4.460419934564211,7.456090765426445
8.09,-0.0217101930096541,-0.0611267841840844,0.0840003181633302,-9.136377916382306,7.239250134503998,12.786761186478468
8.1,-0.0087495097807257,-0.0655666811546306,0.0842989150819131,2.8266859853342847,1.6762878260512275,11.565653721624246
8.11,-0.0118366411383576,0.0141220925260612,0.053221597188408,5.358041844507091,-0.1228578170121749,8.70186365948843
8.120000000000001,-0.0156974572059231,-0.0182769034178939,0.0499979954597302,-2.475099091711046,3.387547295692709,6.839043675853297
8.13,-0.0866873326514735,-0.0693965981551832,0.0277411461260863,-2.933650882520473,4.3796262218949575,10.883945731794508
8.14,-0.0517045846268625,-0.0566467886857564,-0.0027057949069193,2.358423282166012,-3.108289208304208,11.913264960208595
8.15,-0.0094063310140691,0.0040754045473433,-0.0059780866454592,4.536681121127666,-4.064060029284499,10.56542613937011
8.16,0.013474975315291,0.0347522045554089,0.0457069304224797,1.327293779531001,-0.5778861108937703,7.971849791839943
8.17,0.0013362304065091,0.0111845498165962,0.0727468345698663,-1.3760313937157638,1.4566660189649054,10.063817525568032
8.18,0.0350308728655874,0.0316800036708954,0.0598063495394536,2.541446388474667,-1.9472540044195787,9.239277403600024
8.19,0.0208643564690035,0.0369990286991922,0.0302442655351706,-0.7553242223651812,3.407850121121808,8.921020260705436
8.2,-0.0129671241513889,-0.0241710765599893,0.0093708153267153,-3.8790385967190666,2.583725449707235,11.232233778099584
8.21,-0.0162919143015059,-0.0156635682161528,0.0182548862335034,1.626631114442195,2.1028776327041405,9.424928414819613
8.22,-0.0058931392012796,0.0119773878923296,0.0233905639883824,1.7349015380421198,0.2513377562614522,10.089799479282432
8.23,-0.0003734197095809,0.004282448021145,0.0282069359359094,-0.4915534555793272,0.3843245880109722,10.213734446024166
8.24,0.0196260056400126,0.0226367088344398,0.0364524599549123,2.0030180577121746,-1.4286426010672453,9.037076733338289
8.25,0.0304067501853719,0.0351619606377105,0.0340509329375573,0.466374994903665,0.3284434552312517,8.450727949982918
8.26,-0.0261790831871546,-0.0540055124816693,0.0219694067177125,-6.498943303023428,4.86658305115943,10.67925436766226
8.27,-0.0438648074047114,-0.0582943110443169,0.0194563482341119,1.8176383331781365,2.8128295001009858,11.04641037497374
8.28,-0.0253424503896589,0.0135114229339413,0.020844868236477,5.27295380985312,-1.3997853118045054,10.155202445718968
8.290000000000001,0.0500787036930599,0.0480631886062343,0.0289239444222995,1.834156879080028,-3.782558535136301,7.767437272217588
8.3,0.0154174115045233,0.0112455469013964,0.0488505613443204,-3.313007409321917,3.587771257138556,10.009617329979337
8.31,-0.0160555840313402,-0.0324030654816467,0.0581794072326966,-1.4305264873197052,2.5600283173787384,11.307274886543064
8.32,-0.0122052638487715,-0.0018042845100733,0.0490938786801644,2.6934340903301703,0.2352781259632635,9.731133917656482
8.33,0.03818526499004,0.0321175511122043,0.0430158179637738,2.9686162758982486,-1.7608090984847036,8.736184422555361
8.34,0.0489952308967892,0.0193037266974321,0.1406714905437776,-0.7634947634683084,-0.3244835933711577,5.474169997037556
8.35,0.0626946239241519,-0.0127244174971694,0.2197996516165086,-0.946103780222965,-0.2298684360500849,8.389300892882417
8.36,0.0969493342110519,0.0002248914430204,0.2675108153757402,2.7995129995740458,-2.8203051465050266,9.830367113162112
8.370000000000001,0.1665915044972645,0.1016718556899435,0.2209036786493607,10.219947448759154,-2.6940340654961896,8.185180238522344
8.38,0.0142428453028152,0.1270140723283998,0.0606534246739694,-3.979317576350188,11.89419751447224,11.57121573324802
8.39,-0.0505027049955529,0.033050720782608,-0.0465037013950995,-7.678196039686743,1.4554079047424882,14.660648903479416
8.4,0.0427719458935281,-0.0672480287198444,-0.0594929355743578,-6.668312679020129,-4.209445761220187,9.002632151331557
8.41,0.0162864548524726,-0.0365525004288724,-0.0022866922977617,5.992027315363048,4.27025523368081,9.500811375395267
8.42,-0.0346867992413574,0.0556906706481325,0.0606456946966,6.260207887137859,6.29176780526968,8.273581806761259
8.43,0.005632198440779,0.0117801596979307,0.0667245377239533,-2.3127230992412144,-3.841205054276039,12.185857874563103
8.44,0.0080218931770093,-0.0174149899093028,0.0322488684591599,-1.0920151715328914,0.3730970096247509,9.500336295145472
8.45,-0.0245617286473709,-0.027056014975291,-0.0044039144727638,-2.017286273091472,2.787009750325713,7.884532552018289
8.46,-0.0096686722564455,-0.0209260493846359,-0.0103715333703211,1.0286558386130755,-0.7665950310154023,9.19163658604683
8.47,0.0045257831439725,0.0452550072304138,-0.0106604259076765,4.584432002391358,1.2286843632706943,10.353875306862063
8.48,-0.0021617256052034,-0.0020931390309533,-0.0067611841100505,-4.58190967321238,0.3606400644205054,12.148802341516085
8.49,0.0244991784066344,-0.0319088633004306,0.0509554472204991,0.4822431855727769,-0.2387147503404611,9.197172376932762
8.5,-0.0067187832457798,0.0193625464754275,0.0656958286103555,4.046540691333275,3.870519781370754,8.74604857940162
8.51,-0.0039011967257296,0.0257714483867402,0.0364950474736043,0.0434828412954659,-0.4527295902672895,10.218165997850567
8.52,0.0271715788728206,-0.0158173790830363,0.0090761765290745,-2.604575068982233,-1.3027669222343037,10.084227587056864
8.53,0.0220184235961464,0.0215066018047646,0.0087024009239622,3.19836469758732,0.8799610074189632,8.838123537823217
8.540000000000001,0.022748749644088,0.0441008675199667,0.0191632200416871,1.0594715933167314,1.9801571383544976,8.534318852229804
8.55,-0.0149979681709955,-0.0265710368938738,0.0025553853751854,-5.355803534933349,2.925833603898171,11.055922731263596
8.56,-0.0130256053581576,-0.0474340058865801,0.008505891395057,1.2233392131977558,0.798062341093825,11.234099275404008
8.57,0.0060333497011475,0.0248059484214569,0.0231792580720731,4.911031021729345,0.1986368464594803,8.641281594703162
8.58,0.0032741305661552,0.0197122976578069,0.0435800914105721,-0.7134202421208815,1.0904669320649143,9.927430802481156
8.59,0.0088677179980577,-0.0144269034454241,0.0388984855648824,-1.7618377184716172,-0.1685292787204255,10.41657420965356
8.6,0.0178475911027078,0.0135358199160827,0.033854792678053,2.08399643869244,-0.1038268646867449,9.484494177572005
8.61,0.0455646595214485,0.0361381796556866,0.0358365651604482,2.054391589406092,-0.5576559537113702,8.338909592776455
8.620000000000001,0.0130391226593192,0.0074560290811403,0.0308299016591855,-3.046216680391685,4.950250310585605,8.201639922770605
8.63,-0.0333956210727837,-0.0467923488840112,0.0467205223080464,-1.8378131071413544,5.626962624535935,12.59088688197764
8.64,-0.0537586082053211,-0.0050463269552776,0.0476533014711686,3.946454655249559,3.3543098833046425,8.780375379652366
8.65,-0.0770873691062409,-0.0028417887789182,0.0528615478810616,-0.3808843133531444,1.7332112416244605,9.354070557432548
8.66,-0.0345293431880617,-0.0563204151301453,0.0161832280841418,-2.717356582858368,-3.724302365103674,11.068775062151635
8.67,0.0253822295258979,0.0105864093026526,0.015405475014145,7.070346767024795,-2.9671503862666158,10.252871179938346
8.68,-0.0207381375661864,0.0748431515182271,0.0315268159297057,1.5233313887805222,3.25627190680146,7.702818456221924
8.69,-0.0231396884499625,-0.0123278096485022,0.0587638866540738,-5.101188574476339,-1.2878392772414504,12.214674357804295
8.700000000000001,0.0234259276202463,-0.0219915938935383,0.0508315738674947,0.3757776361335187,-1.8468117021684027,9.041123216644738
8.71,-0.0072861492825392,0.0290643929999952,0.0454194534954377,4.157097827562894,2.7392323341737543,9.73570607426761
8.72,0.0073152273773322,0.0315886791390803,0.0429624718066998,-0.0040614768547771,0.7180932868675696,9.506963342622328
8.73,-0.0207716743120017,-0.0038413361839606,0.0440550249454327,-1.432332433593171,3.776494609320564,10.254821232518996
8.74,-0.0412210102512481,-0.0216455723499104,0.0409893755254098,-0.7208466179210505,2.0142375440888927,9.63742537519278
8.75,0.0110001936422351,-0.0047008367666277,0.0651509527501412,0.6822156329605336,-4.40905588971699,6.637693037195282
8.76,0.0086129034651807,0.0059366651381178,0.070901385360653,-0.0770343188366524,-0.746021650839688,10.393746249791777
8.77,0.0948451836237166,-0.0241709655589938,0.0879423533019372,-0.1582166489900421,-6.965696885274977,10.85234155797289
8.78,0.1277018556535736,0.119390075067923,0.0586372603115388,11.586614372855164,0.4424141075256289,7.664104476124597
8.790000000000001,0.0498067600300928,0.1762660807249673,-0.0095343051093867,-2.878753713594614,6.3666764720754205,9.359082160913182
8.8,0.0011908850492441,-0.0606271619849919,0.0093142519158073,-13.693739602762632,3.025031097800239,14.305426761531404
8.81,0.0382045313117642,-0.0700333137361887,0.0565918971237489,3.059761489390719,1.1143024690429573,8.189484123143648
8.82,0.0309620302814985,0.0283310034616559,0.0718539718922921,6.948898257325932,4.968054971535843,8.811766520102525
8.83,-0.0039228564357229,0.0295220631511882,0.0733527083334275,-0.3036005442832747,4.543193483104079,10.048864859906288
8.84,-0.023302974653138,0.003544896577397,0.0972157035407372,-2.553635468156532,2.643361447977233,8.877782095900542
8.85,-0.0201370571582609,-0.0477052668693783,0.0782022167381593,-2.263179604767899,0.0822384715428179,11.456037673270997
8.86,0.0308055537242037,0.025321124947456,0.0363988828298398,6.597904908324496,-3.441870987498981,8.671963023910209
8.870000000000001,-0.0075673004527885,0.0616237330737665,0.0128117286053248,-0.1351192177639758,1.9951399867041653,8.261625503362858
8.88,-0.0181524465670652,-0.0383681790977769,0.0291410040494748,-4.537139544567598,-1.3636324701200744,12.685803332249243
8.89,0.0286315922692926,-0.0072002208861646,0.0313432820525714,3.56890606263982,-1.847236734248357,8.84232152073327
8.9,0.0166172312041674,0.0440284092542878,0.0293797988828965,3.5004169542023136,2.08596725353589,9.863051532502292
8.91,0.0206949488659665,0.0222684797634884,0.0305410351988622,-1.808186762477967,1.7667048645287564,9.216298827261015
8.92,-0.0290011070565374,-0.040297837479766,0.0068885323975929,-4.9479888454718965,5.348659164166207,9.333634001698426
8.93,-0.0260161420065721,-0.0275989072525493,0.0001373993850075,2.651491229415546,0.3541466492519164,10.491042300818629
8.94,0.0119884140099018,0.0484566011203291,-0.0037952695588818,1.3895632538764735,-0.6360970647149691,10.06430335526289
8.950000000000001,-0.0007242815259736,-0.0008371243721898,0.0226037361112185,-20.150759652530024,12.698146021636438,24.317018401171136
8.96,0.0074149159676245,-0.0315182746943569,0.0537326585885831,-7.48582983761062,2.6786010831952307,15.315461631995976
8.97,0.009139855010677,0.012986323009556,0.0601882625755616,4.471769220897508,1.176624674284713,9.039532486345148
8.98,0.0181457637873876,0.028107159599345,0.0448918331798859,0.3920995230240259,0.0232829410630008,9.437792360713225
8.99,0.0633765129716269,0.0305183731860493,0.0359014746186086,1.2650331758808482,-2.6494810868610457,8.85600437146926
9.0,0.0226421430309042,0.0167181693269097,0.0303169720259257,-0.8218279217140297,6.743270689536901,8.003173764073471
9.01,-0.0344487865380521,-0.0159747582307077,0.0510427866515466,-1.6781808920017054,6.74404454479824,11.17176189424688
9.02,-0.0813815811078582,-0.0326644263834526,0.0377666827675649,0.3370197347376137,4.318490303789273,10.609002887318702
9.03,-0.0682621040741304,-9.470946045792838e-05,0.021004970037634,2.0179798719578264,0.0309434782887992,9.572304913981
9.040000000000001,-0.0620977806645451,-0.0407582817786856,0.0005737966543757,-2.226881439244686,-0.6308032293376676,10.754752841808546
9.05,-0.0232035756301901,0.0025312323124302,0.0158403849613615,4.856162594741231,-2.7935137905423093,10.578749198152394
9.06,-0.0117686721614343,0.0456623580133645,0.0513080869254418,3.2474200786538585,0.3985045489538498,8.531212746721618
9.07,-0.0110874016493891,0.0303453705482901,0.0697403092321702,-3.4064299154532502,-3.107141636883124,8.505991362427851
9.08,0.0333982196672111,-0.0904483941629696,0.0820361514028855,-6.33615920513273,-1.945594237386722,9.878123283765056
9.09,0.0369577904993705,-0.0413403712064518,0.1003697876271554,4.980815611080661,-1.6274510818015056,7.860622001518298
9.1,0.1023750903468684,0.0797926902845293,0.0670851458248444,8.331596903007389,-2.6260717200831425,8.580649319819445
9.11,0.0491612649389499,0.0945176232489371,-0.0370584476354769,-3.925624145022547,4.5968672049797,12.403482248381794
9.120000000000001,0.0574009955085334,0.0315783439804246,-0.0623741682234457,-5.085063011196921,-1.5266537549092016,11.157167593897942
9.13,0.0449887252144324,0.0069213372640626,-0.0059311321552148,-0.5778381965846014,4.729344931218802,8.848138275434948
9.14,-0.0052775933963297,-0.0075979255362898,0.05298147615164,0.5205076123123676,6.665183818420755,10.022890404247546
9.15,-0.0170829576446479,-0.0057234354881747,0.0642684426543065,1.5231107510461033,2.736194258602356,10.987625981083616
9.16,0.0083788674649911,0.0074253706140943,0.0379191812512227,0.9358651534403504,-0.6378015240024982,9.598545192052883
9.17,-0.006622299595556,-0.0048649113209668,0.0156708246481367,-1.100041268486014,1.110642707977091,9.640492506228975
9.18,0.0050650395362542,0.0123896631832055,0.0268345501658269,1.66287229818086,-1.9995751858706683,9.620878332188576
9.19,0.0700295917600369,0.0751075229112896,0.0378647510346719,4.994311543427943,-2.9373522080856804,8.024339494993717
9.200000000000001,0.000847205370696,0.0181631553241542,0.0185379207518645,-7.230539228378356,6.967124865959712,8.945385195681105
9.21,-0.0663884685693003,-0.1070710309275727,0.0277799189475127,-5.542565507929647,3.92573332415117,13.29593134744306
9.22,-0.0105346869697132,-0.0405037523274843,0.0166129030671664,7.1441804546084,-0.9067910804556608,8.897265163679739
9.23,-0.0044950917783874,0.0379524978862877,0.0026444079971634,4.915586901869056,-0.8938216584886955,9.382362034025698
9.24,0.0223369835613429,0.0365427031718287,0.0448377121624299,-1.0283002711729134,-0.7091229823987497,7.789691980712926
9.25,0.0079888096797976,-0.0198245049681787,0.0544329759117909,-3.1610498775831086,2.007299039306987,11.184977357192444
9.26,-0.0046959503585909,-0.0050380618932508,0.0379369546112367,1.7001083836586166,0.7809055168654266,10.552968401404772
9.27,0.021198963275752,0.0014379946654195,0.0236648030963488,1.4519902190905989,-0.2513931598079253,9.507709887333808
9.28,0.0172789531881706,0.0227703064175899,0.0510695826646634,2.1854841676939207,3.529113557249655,7.715370954489477
9.290000000000001,-0.0328083657478212,-0.0076959453211776,0.055801163279707,-1.9179719193752127,5.459018768264825,9.155828461248262
9.3,-0.0390573029851718,0.0292493978782207,0.0668382335838624,3.5445265218859663,3.5442719522711963,9.410054999705268
9.31,-0.0794243670160597,0.0688953016066307,0.0448742535349675,1.2794370027010054,2.016872202635617,10.366426063750486
9.32,-0.0132256700439724,-0.0274918252325116,0.0211185951170274,-5.708098333817799,-6.77786701037303,13.160821090090764
9.33,0.0020002146934853,-0.043636293325243,0.0123404952150532,0.250865722091432,-0.9523348994214536,9.976064562412832
9.34,-0.0358032591357345,0.0253963909114697,0.0427331913647004,4.691778543623814,1.8055055613887585,8.515978905521845
9.35,0.0066878475359427,0.0329838545704048,0.0622137252625771,0.3578510972082658,-2.610604033285615,9.159218602839797
9.36,0.017176404244883,0.0224507209413415,0.0533045109745808,0.6089137774812955,1.24627514733244,9.89990593876222
9.370000000000001,-0.014003188062494,-0.0020062135966883,0.026810112261469,-3.493510352766824,4.228535826376942,8.843490630648324
9.38,-0.0279422909473494,-0.0336787239666108,0.017048469596798,-1.0090434931723429,1.984943492521349,10.319293746334644
9.39,-0.0178849750424458,-0.0360387096608972,0.0470800388988801,0.5571815283122515,1.3517165765462478,10.034671069249868
9.4,-0.0281761160150959,0.0062454406470235,0.0476376440760442,3.375826120636132,1.1207180505042191,11.111688581340848
9.41,-0.0156353440455433,0.0082217683681062,0.0623523097869702,-0.5593072894325142,-0.6282257679533693,9.82736870013068
9.42,-0.0003752802508408,0.0143915154451006,0.0783823717769929,0.9723022407243728,-0.79479623247815,9.38938961773576
9.43,0.0561940330339443,0.0182728182761258,0.0988305572804757,-0.5272518084015729,-4.504150300907827,5.7239951981578
9.44,0.0305317120759953,0.0096086227395618,0.0902807627257653,-0.8480196629017402,-0.1696864171884107,9.058302404844657
9.450000000000001,0.1639234435156815,-0.0300583968167567,0.1209768195089646,-1.682306640622339,-9.36950348701954,7.985271401333343
9.46,0.1874431726562037,0.0861582897510061,0.1224402625498124,10.980969986751104,3.301493265679945,9.103945441730078
9.47,0.0447710435309366,0.1676389357809045,0.0440649304923364,0.1689153119758647,13.742478770931356,12.003831234728288
9.48,-0.0167913606505629,0.0455569562226657,0.0090455807198532,-9.264274409077258,1.824469552269344,14.54303627642918
9.49,0.0565319101462191,-0.0788702348361127,0.0355866168078729,-5.908138592264944,-1.9582084649156788,9.74896644542432
9.5,0.0159329655510971,-0.0196193153871045,0.0326236606028624,6.880545215564336,4.928916563562031,8.298853872266037
9.51,-0.0321227313693402,0.0434370949745041,0.0364536483225175,3.892711543739656,3.9035664727766695,9.371475005461336
9.52,-0.0130342523708055,0.0022836816266801,0.0233562391635724,-2.6424166207937594,-1.1944280497794302,10.486071606545517
9.53,-0.023687913170944,-0.0306441247277123,-0.0023035348008624,-1.2992615656890494,1.647574303604049,8.964928923447793
9.540000000000001,-0.0445444194746489,-0.0625397542547088,-0.0100779991212538,-2.1783688566240267,1.9970806049217715,10.732736999822857
9.55,0.0281929912005641,0.0883721573680218,0.0229686525103398,5.96444907015731,-2.5372720201116925,7.519290832244357
9.56,0.0263601242900412,0.0237449614522765,0.0326538261410542,-7.099209421353052,0.4090538439149576,10.433363033686614
9.57,0.017108598496027,-0.0695488137564375,0.0557246234652348,-2.63483948991922,1.5831339057364424,11.801003276673672
9.58,-0.0008037645938624,-0.0080931779712496,0.0408826832112618,4.423785129092251,3.1435010269752994,8.354437917904898
9.59,0.0015969098077756,0.01096491670556,0.0078185855795391,1.6955550112879283,0.6827329478225437,9.43743064604787
9.6,0.0139845055780978,-0.0087514832066641,0.0140347972896643,-0.352038403542051,0.7738037087371925,9.77753191986988
9.61,-0.0102934590001843,-0.0238538758974248,0.0186279554304429,-0.871514893329982,4.339799214933854,9.148325456752993
9.620000000000001,-0.0713380714010687,-0.0637011063735234,-0.0015716586808911,-2.1073497427986445,4.7447037804370975,10.997382424545512
9.63,-0.0196542339660866,0.0086407262023292,-0.0191572971257618,6.865035723568161,-3.540108186471964,8.454374594085223
9.64,0.0143174684881694,0.0982224362977562,-0.0022468451957455,5.675094985961154,-1.12394200790825,7.355746607119141
9.65,-0.018514198494905,0.02697305228702,0.0118474493187614,-7.647142589780183,1.5489732445859827,11.776904751080416
9.66,-0.0138300881310847,-0.0829518794013247,0.0288031686481782,-4.729264089122048,0.2488432048951877,12.198598434177494
9.67,-0.037038999449082,-0.0370553735838231,0.0175734654453345,3.689304745275341,1.541969992099257,8.759064856091614
9.68,-0.0054887250892941,0.026947447540804,0.0183249980595656,4.405808190687872,-1.0433614546404502,8.957337791137714
9.69,0.0170064892275828,0.0178392246081678,0.0209224474069424,-1.6797394919940287,0.7723292941954293,9.801528784620222
9.700000000000001,-0.0071247720931409,-0.0023252910755514,0.0204538617667504,-1.02708557125981,2.273979857964612,10.18000368849705
9.71,-0.0209653119843755,-0.0203832803504091,0.036571181231434,-0.9672439064846108,2.3974238624930293,10.322852105089618
9.72,0.0094479470181629,0.0051688561524653,0.0271239400294371,3.2685213615343702,-2.2073251421878437,9.065476515218576
9.73,0.0483133983892258,0.0937369342629374,0.0257849682506867,5.388882536019473,-0.8309123276921556,6.864115360634138
9.74,0.0116506845599692,0.0197599868377593,0.0124508969870158,-7.19138110247681,2.7260260475225286,11.284057939589712
9.75,-0.0119663638076163,-0.0547883556990377,0.03110892217725,-2.6795416150390383,1.873370791365964,12.263266832546291
9.76,-0.0021098595230649,-0.0129842217063924,0.0384776655968972,4.071165375343657,1.6181932522169329,8.995272473422117
9.77,-0.0312900197432656,-0.0061546345617449,0.0253014237073012,-0.7948725796748447,2.6881176587098774,8.937021738258538
9.78,-0.0121557516034321,-0.0380832641588518,0.0269568495836802,-1.1533840752757467,0.7007919686381027,11.07286939900082
9.790000000000001,0.0013520024431158,-0.000694054210945,0.0173183175188251,3.056641253746592,-0.6727188008420169,9.147218411146229
9.8,0.0304418640239839,0.0536940319935515,0.0351190966007062,4.003050077078544,-0.6393496945125304,7.714748669361738
9.81,0.0147911371783228,0.039651884937161,0.0847266529139825,-1.388454585974387,3.482419041645497,10.104403733910338
9.82,-0.0405497698805131,-0.0282648153826562,0.0804234657821008,-4.18880474335054,5.320397514668007,11.298278091703528
9.83,-0.0806875789000964,-0.0759023100022651,0.0369565364357777,-3.300973516857535,4.454457266723198,10.37337163483942
9.84,-0.0460708819522333,-0.0616255050108428,0.001832364361203,2.8425002814393125,-3.418828592771302,11.110193952644348
9.85,0.0080377297608446,0.0252617560467939,0.0101262264338084,7.0601320383018535,-1.3087131939613916,8.173323515016598
9.86,-3.363690920050109e-05,0.0435455376447094,0.0262827173259803,-1.5413721562391074,-2.221131936313372,6.797730273308346
9.870000000000001,0.0092496785333468,-0.0867267665752452,0.0458686378237553,-6.759670807192016,1.4461225732833567,11.937554237202384
9.88,0.0196580744688354,-0.0446235825080731,0.0734064493712731,5.250352439817309,-3.5333616384986546,8.3628738327458
9.89,0.1262880433115382,0.0651456349924113,0.0592776563402959,7.36717417381997,-5.488850567922764,6.77634567046076
9.9,0.0655154641295179,0.1058647816861386,-0.0300787139299563,-1.6565335846679516,4.027453088137771,11.846039632570214
9.91,0.0455388921849478,0.0429704178740684,-0.0551868613424948,-4.688013714858039,1.0773351560648774,12.056946813940447
9.92,0.0494296820274787,0.0135655896290628,-0.0133201285812309,-2.0254027723385377,2.000373307440337,9.684585780362118
9.93,0.0276629005518806,-0.0076173297758954,0.0391371649143048,1.0185000180407815,5.279040234867076,10.028801247813602
9.94,-0.0046917232542317,0.0176629272712821,0.0613125589129277,2.0888649833258537,4.835688983298556,9.513319390030947
9.950000000000001,0.0105147345914758,-0.0121811245822882,0.0474063929554768,-1.1715500947138353,0.4259945231143774,10.827834201478543
