time,wx,wy,wz,ax,ay,az
0.0,-0.020507263698279,-0.0096870266851116,0.0301907738774903,-1.1129861083836787,3.019554295230835,9.789674445105646
0.01,0.0242660406317649,-0.1021519905245953,0.0861900249600298,-4.184668033731467,-2.831681627203668,9.671583247445456
0.02,-0.0115742990692807,-0.1605096522254379,0.0845413455843814,-0.0910985871024052,4.85081620737037,10.530135799332967
0.03,-0.0146351329328742,-0.2232149536456238,0.0512248674511797,-3.940846945023503,2.7632571720347694,6.638707915636313
0.04,-0.0896537156789868,-0.292751555535955,0.0553667420625575,-0.586224853905982,5.189226094839764,13.00846311500154
0.05,0.017131686795166,-0.2439070390158784,0.0683542216300852,5.976189944797183,-7.789987530056444,9.028315902378903
0.06,0.0566474458588579,-0.2057266127021272,0.0275310190498717,6.015707076512974,-1.5322385712463509,10.331867913809653
0.07,0.0693115730327402,-0.0762236344480068,-0.0160785404861084,8.460016200298497,1.8942368629905275,9.61716977261194
0.08,0.0266075738177883,-0.1295674685012105,-0.0681321447610966,-4.773542269727522,2.2104799698066464,10.205600112454274
0.09,0.038593492116896,-0.15335487556506,-0.0858380844712368,1.4585250058162726,1.1013533785709018,9.75975783826987
0.1,0.0156271090048952,-0.1259467091838375,-0.0732651254057995,3.417683883855487,3.464217738238896,9.64514963015053
0.11,0.0518422765601491,-0.1751056481704434,-0.0567972523987404,-2.838749294071085,-0.3837910364788195,6.8019298271436215
0.12,0.0075361852871692,-0.2532808932471663,-0.0502373961627594,-1.3649594895586747,5.76537661047359,10.922465260481149
0.13,0.0300773388378546,-0.2151407749146011,-0.0554377449572197,4.602780405475086,0.1059600007486774,8.785025670557134
0.14,0.0183271822593683,-0.2324937000433128,-0.0407497709512822,1.0729414382768083,2.926270980821446,10.421251335023342
0.15,0.0457059610925758,-0.2303609284977101,-0.0379061488330475,2.0383343374183043,0.7001782592737217,9.033612457129422
0.16,0.0164399587824843,-0.2301147197654623,-0.0537808587670437,1.7333605057591996,4.378860560154477,10.890836167564323
0.17,0.0172158507948046,-0.2321168228234144,-0.0535194774985424,1.286554897871407,1.049278123481704,10.52981620565416
0.18,-0.0415033438510949,-0.2380261682219618,-0.053787240189325,1.638438447030805,7.308841506487852,9.981285124769958
0.19,-0.0488082384132464,-0.2033466704561082,-0.0520755251765362,4.94832410618094,0.8568200013385727,11.102902032435953
0.2,-0.0784432409303503,-0.1817071486990159,-0.0690250819444767,2.9164181470781907,5.076082998010667,9.638257011967529
0.21,-0.0971196333381972,-0.134098584290437,-0.0890548428416363,5.486120532205653,2.403122020438616,10.387368247574484
0.22,-0.1148010730498942,-0.0901129663650571,-0.1099365850806347,3.3395695815496493,2.2445911458872816,8.474009653552523
0.23,-0.0844912986973722,-0.0565598816703995,-0.1237920498371235,3.8718725216265097,-0.6249547790415283,9.375022994648308
0.24,-0.0751477802522462,-0.0476234926728115,-0.1377834951400868,1.1319118491777458,0.2000669401751896,8.98843775243627
0.25,-0.0566755631091826,-0.0195912097164511,-0.1333664184332005,3.9666309499288777,0.1871884032024094,9.228666588277536
0.26,-0.0758691057558602,0.0160285737898516,-0.1252815997123829,3.081508843942645,3.605550987214882,8.3678215345113
0.27,-0.1375010172961942,0.0416890703619952,-0.1268115615368001,2.9116453076232856,5.456061529395601,10.390181704190615
0.28,-0.133707803664965,0.0795502711640552,-0.1240833079338185,2.724196042023536,1.1173243571607605,10.003442765527
0.29,-0.1100894853089016,0.0850845431484117,-0.1238114809513203,0.6857606759082545,-1.3014574025256167,10.874861148180395
0.3,-0.0584050488884445,0.0791060587552299,-0.1123370056867711,-0.1003275894820766,-0.8997776158865858,9.555605994519048
0.31,-0.066631264810918,0.083348963762256,-0.1100252842426411,1.067928170081381,1.2096499455332568,10.329886391027763
0.32,-0.0590032007666584,0.0933864657888647,-0.1106971999526135,1.1405517715185889,1.6759269242809565,10.403580793610324
0.33,-0.0540350421628957,0.1103448050736825,-0.111497116637241,1.1168275743036993,0.2256103666982103,10.212677505661963
0.34,-0.1379503751492755,0.0523306701062724,-0.1371090238809697,-5.083895547128162,10.444038345112736,9.091682592345563
0.35000000000000003,-0.2060319334424261,0.0581504732261488,-0.162039679837238,2.705648819282521,2.504834206460691,11.939007678469158
0.36,-0.1521959146075201,0.0970865866000087,-0.1725091462850682,2.2007547912555467,-3.265213916871242,5.756516088538141
0.37,-0.1322857275427803,0.0688074168853704,-0.2084390943765751,-0.7243298863815996,-1.4135607748373942,9.486465318414028
0.38,-0.0805186772586753,0.1028529897422305,-0.1997398113727681,1.915083630149109,-2.827893512851308,7.128884971648734
0.39,-0.0337464365189291,0.1003666390445316,-0.1915288692236058,0.8424392509573696,-2.863634062419594,8.818671612207154
0.4,-0.0535207615821071,0.1326070444045113,-0.1851357048273198,1.90702222348043,2.9204256327430143,9.026944605660836
0.41000000000000003,-0.0581909385682659,0.1341356825340147,-0.1905724381923787,0.5468260612640968,1.6556314739494735,10.81015861553012
0.42,-0.0921565404790632,0.16619611126417,-0.1871629184007756,1.617564338258831,2.7167250843578143,10.110166827096853
0.43,-0.0631235306841034,0.1420168190945864,-0.1886028474092595,-1.6331726422158614,-0.1635765190684029,9.412495749546771
0.44,-0.0538562231166166,0.1294763989544627,-0.1952842598676793,-1.4556296449203967,-2.6092908317751418,9.12396812447033
0.45,0.0715757831667284,0.0806168077213946,-0.1703664934158436,-2.9562704042551085,-7.650435115120882,8.327374312666839
0.46,0.0512459552208593,0.0295651855342637,-0.1505582457304112,-3.157468933195553,4.570429421843425,8.251113894702378
0.47000000000000003,-0.0047421255103731,0.0234851732079476,-0.1470079993724934,0.5053552224414655,3.953923006767317,10.699591734973785
0.48,-0.0342591890963293,0.0441725036271306,-0.1545639162778966,1.0424790408769835,6.018152973426768,9.720476202477606
0.49,-0.1457324518632536,0.0597870862091323,-0.194247258257877,2.2384196019757634,9.501955395763389,11.712682002844138
0.5,-0.1416228456775979,0.1608509632829578,-0.2201409762621037,6.721875566752682,1.648380183023636,9.38374034223269
0.51,-0.1477425790143072,0.1347514142009679,-0.2535517936468235,-2.696817897091789,1.4325487147446874,9.262004601440006
0.52,-0.1131848155779808,0.1193280441081887,-0.2346331899881474,-0.6580014812367644,-1.8248512035005209,7.808942991660208
0.53,-0.0617153947553821,0.0555243104557806,-0.2133395200491063,-4.072650580369582,-3.204619514821673,10.14704119222337
0.54,-0.0013286846000165,0.0562390186294889,-0.1786508982896916,0.7567770946909657,-1.9418789015982407,7.748512237144585
0.55,-0.0039234796401592,0.0337299397679416,-0.1609291707992665,-0.1828716072472118,1.7659538182131984,11.571481028067716
0.56,-0.05564459479929,0.0850694288337549,-0.1784035986185185,3.4476471991634114,7.53054712077813,10.387178098471404
0.5700000000000001,-0.1149438912519053,0.0972601722207977,-0.1869865780592076,1.349632065141792,4.439371065706282,13.077183268550137
0.58,-0.1291705297096912,0.128400424669955,-0.1925358747959248,2.951882469822149,3.6869547102251023,9.9248133345174
0.59,-0.1418624448274572,0.1340469774089903,-0.1926001286029927,0.5596590819513806,1.1552107576901125,9.577093409901408
0.6,-0.0820961249052363,0.0844318795157889,-0.1756488954544179,-3.702026469441751,-3.950099468636061,8.598872967784866
0.61,-0.0134920013388871,0.0241456402339957,-0.151093093109142,-2.140071196499949,-4.193848411256496,8.294196383091055
0.62,0.0412115984928976,0.0353546362853474,-0.1294696008682362,1.2517914404776214,-3.138226114727672,8.089612940908033
0.63,0.0725107927151133,0.0248629067388472,-0.1110067045211903,1.0977796531119832,-0.9149321159375976,9.546247189469472
0.64,0.0137863654056625,0.0945973857400995,-0.1080601489067189,4.778893196737475,7.681048021456645,9.965749470869948
0.65,-0.0647097985485296,0.103463122484691,-0.1271283155202977,0.3744215563063914,5.381219850163238,11.804569249993731
0.66,-0.071086701819761,0.1440875229277459,-0.1372017985105626,3.037159358642253,3.118205784895492,10.216086642668415
0.67,-0.1098110408010595,0.1238615823424352,-0.1316620981216542,-2.0382685638444045,3.3290968040299465,10.022662300949465
0.68,-0.1009418811095328,0.0860608542509221,-0.1167807629227749,-1.6665890083662718,1.9917313655260696,11.011371037782958
0.6900000000000001,-0.0807507642279465,0.0893357434760278,-0.1107936104655377,-0.0738388443715602,-1.043376482561851,9.371379731126478
0.7000000000000001,-0.0616685610712148,0.0599866942675699,-0.1016005998373143,-2.3286722968231244,-0.0884597318104478,9.41916607258617
0.71,-0.0226700335328111,0.0262614801859589,-0.0959860136628262,-2.3602953522614194,-0.6799691834390581,9.44876907163513
0.72,-0.0696296010557162,0.0128145700648962,-0.0892084514618031,-0.5836052545365503,4.6402159150421145,10.258555863896856
0.73,-0.0660382077884037,0.0334663373121859,-0.0777681222081295,0.810084804474205,1.2197205713302597,9.911034859507811
0.74,-0.0620684515308687,0.0007124127624284,-0.0777770480036847,-1.7526115069074348,1.4071643135889222,10.611270147961111
0.75,-0.0752391249879207,0.0199949050808645,-0.0772456502437703,1.1675196410397803,2.362219288971785,9.525883532154127
0.76,-0.083022984517236,-0.0026323836191288,-0.0675815245032422,-1.718402707363922,1.8652065503798496,9.51233059901276
0.77,-0.1063445838640143,-0.0361072279287866,-0.0579279189825169,-1.7387673938032824,3.216360978854421,9.211563805067511
0.78,-0.0871748944696845,-0.0225092583858968,-0.057304238331329,1.3925342196285089,-1.197127012179768,9.627243865024962
0.79,-0.1119387951412233,-0.0688803165362992,-0.061173168373119,-3.811251605038581,5.559366345605941,8.376655368602554
0.8,-0.1524631637003227,-0.061365079302561,-0.0630896141648404,1.7605497461519983,1.9399576713936333,11.413267189598098
0.81,-0.0772703490508728,-0.040992533728017,-0.0558026334166638,0.4502334317537201,-4.034464819098634,7.805524110668731
0.8200000000000001,-0.0210606801583029,-0.0565764995096426,-0.0684520652413479,-0.2957776795459714,-3.24562277386431,9.82845930276887
0.8300000000000001,0.0003178337981844,-0.0651120067256365,-0.049332809996616,-1.7387446513885028,0.1430601520686602,8.262101466643943
0.84,0.0133519785809334,-0.1053480130883261,-0.0294657679170481,0.0683608830159111,-0.4028445501659442,11.601495629654275
0.85,-0.0045576983715494,-0.0290308806649017,-0.0158980073303095,4.385508502182715,2.162778738928941,7.451121500251943
0.86,0.0159260269648852,-0.0637257214578967,-0.012012645033013,-1.106282843027476,-0.5159842984501243,10.586786692048417
0.87,0.0114188141525861,0.0039780039936955,0.0051516477122791,5.030972820311719,1.2478562608609671,8.522808397695302
0.88,0.0250415091126954,-0.0007018649915296,0.0134799029782302,0.7270298528808284,0.5286205963096796,11.277422593129636
0.89,-0.0138707403106484,0.01111576306384,0.004996892634023,-0.2000721952233213,5.512898350354797,7.461652403266671
0.9,-0.0699912325573084,-0.0451412733600916,0.0059285709738619,-2.572031609341888,4.375260204497653,11.269682519810294
0.91,-0.0510507819922702,-0.0317824196338959,0.0044632247753329,1.1134670220142169,-0.3266613324266618,8.382349877585051
0.92,-0.0442689443705751,-0.0495757347956404,-0.0077823152661435,-0.5861669065535703,0.0332956741129517,10.107953566836803
0.93,0.0021902312706137,-0.0472047175568071,-0.006217182044696,0.5296665217018934,-2.209698966823782,8.195719025909893
0.9400000000000001,-0.0370407571797119,-0.0309388593868179,-0.006259095285844,2.44982349409663,5.245528029296286,10.260400938954705
0.9500000000000001,-0.0513958082357342,0.0219534372801866,0.0001941935496293,3.265877329474485,1.4245243983409603,9.730176851376251
0.96,-0.0493155680969997,0.0118312264936282,-0.0095468260243646,-0.3159801930718221,1.4331212887255376,10.168166971135902
0.97,-0.0334045134894217,0.0143595776058091,-0.0075547438010684,0.7694697477728484,0.5379165268011541,8.979747205648366
0.98,-0.0301326308617761,0.0167389552787115,0.0030064124019705,0.3498606483959077,0.3184160576505456,8.967463722033038
0.99,-0.024671141761026,0.0008511070013205,0.012916485416878,-6.549532016332275,2.325232303494532,11.98774368793917
1.0,-0.0495432638973268,-0.0223866709819722,0.0142098456725366,-1.845882760992137,3.893030475219182,11.361069138210857
1.01,-0.0402464399497386,-0.0184217453415421,0.02890135591029,0.9656498972875012,-0.0881485155970654,10.11147417885984
1.02,-0.01801709413788,-0.0080044354375784,0.0342837037622817,1.935862767326812,0.3249999864882175,9.787517877218262
1.03,0.010545963539663,0.02686428304498,0.0187965152889378,2.445386510930386,-0.8624835565661695,7.196325922823444
1.04,-0.0408072173911934,0.0286755207535628,0.0273506106912978,0.7068020725933596,4.883062400434911,10.624721655479377
1.05,-0.0164998262457461,0.0313059829328388,0.0251799175619967,-0.1641098006063119,1.061431594761512,8.519687108766693
1.06,-0.0797744598024214,-0.0099509526698605,0.0154194353252537,-2.8126341493337303,5.385536398935972,9.871537105502412
1.07,-0.066740279269683,-0.0298786926385433,0.0132874628633149,-1.829984968349737,0.6004926015620613,9.921596045519506
1.08,-0.0563444015484481,-0.0750504120364316,0.0196467755466588,-2.324768444855662,-0.5971313048817205,10.81143959540405
1.09,-0.0232233305839258,-0.0389535054014323,0.0249416982859261,2.8164566930342345,0.6595978988244805,9.499466403528206
1.1,-0.0639172542713115,-0.0523444226840217,0.0039253824960328,-1.0439926429161102,2.9556447720175174,10.89117685179976
1.11,-0.0465462914516169,-0.0092816747671332,0.0042833544883765,3.303769982205901,0.3728977274167885,9.105323817061512
1.12,-0.0625684896535252,-0.0133803571069856,-0.0105958565965406,-0.9404339573384748,1.3748898955145812,10.435025296101706
1.1300000000000001,-0.0373537695491199,-0.0174362931421839,-0.0181591635465733,-0.1948011011167966,-0.5348255714015138,9.365483521894912
1.1400000000000001,-0.0441222311007595,-0.0426174397464461,-0.0142317986011616,-1.8241515909840849,0.8512132357389978,10.19749119170071
1.1500000000000001,-0.0149499519094071,-0.0286731853781235,0.0022293876844346,2.4702755288109626,-1.4400769616730529,9.337061505073814
1.16,0.0158815393241271,0.0023405025522916,0.0062617357924469,1.8711980353801063,-1.9599014281728036,9.040536005846146
1.17,0.0324231405763449,-0.0015553631076555,0.0147110806882269,0.618748147580207,-0.299178724347837,10.342978130242455
1.18,0.0447202027072554,0.0132125445164402,0.0216247072547562,1.2401690320011298,-0.9123926807601754,9.69993844167492
1.19,0.062718478077724,0.0058334366704227,0.0214540032774098,0.0462458977227344,-0.2043726008651514,9.640003138934713
1.2,0.063427087023438,0.011778161814184,0.0257846290349848,0.9944859972076816,0.3427040691394523,10.3282298868136
1.21,0.0630218172022183,0.0156939176796195,0.0308791535079367,-0.5928094575147337,2.313807664372701,8.876997293070938
1.22,-0.0172165383635745,-0.0684470374379907,-0.0005812955916039,-7.138990469471264,6.8538920627686855,8.501738746151295
1.23,0.0280079457706943,-0.0909382756514176,0.0020845855632219,0.4161085207399483,-2.6442335751529384,10.656871120749432
1.24,-0.0053068103916114,-0.1023279623055437,-0.009625046876084,-2.060005775532716,5.268566355236466,8.489065585239475
1.25,-0.0092473201551254,-0.0831507892530997,-0.0043100182794145,2.616253815492658,0.1808150077767271,10.702225128489516
1.26,0.0096756721120734,-0.0488376004647579,-0.0005337282911054,2.4512167933655853,-0.2857507327659591,8.329228137030794
1.27,0.0369692912991336,-0.0128457093944555,-0.0060370623961202,3.755168498164224,-0.8267740041607363,8.800851058516963
1.28,0.0443104908406332,0.0162894655777099,-0.0041751194641105,1.3677828282846534,0.5479713079058095,9.22433955217786
1.29,0.0652847881847591,0.0105731526788485,-0.0026661612920574,0.985017343534832,-0.2918669630409111,10.223905576107256
1.3,0.07154305662403,0.0538933519967643,-0.0015746791742853,2.709180805167533,0.7185431142219947,9.508392807437936
1.31,0.0358690649695002,0.0022549949860554,-0.0166303509742133,-4.001856650420675,5.118244557298779,9.796994386443444
1.32,-0.0159738221900193,-0.0106536106066886,-0.0378354614496342,-0.11259948290381,4.190771817832073,10.12196736229875
1.33,-0.0437701669939368,-0.0180343822430264,-0.0528403608024231,-1.2919653079170847,4.070439118369359,10.547530832160794
1.34,-0.0505763590411735,-0.0218728146301918,-0.0807463651418797,0.7047647672979158,0.2496390557158026,10.23343386026892
1.35,-0.0541598815607496,0.0041010285845376,-0.0903444191336743,0.8021789581152052,3.5082490787378524,9.171080555033168
1.36,-0.0949188050187447,-0.0194776712177725,-0.1011696955084912,-1.081898617780445,3.8803234834406535,11.179993858624616
1.37,-0.1228714517630054,0.0275170636688234,-0.1044267689705006,3.389040067145148,4.315266484346104,9.904376271887855
1.3800000000000001,-0.1369095336965114,0.037239093460732,-0.1166383525252453,0.503471437389645,2.0129984505360072,11.132177447875362
1.3900000000000001,-0.1419074679291774,0.0635683591442803,-0.1112851252675168,1.9533042875474569,2.3437783954200437,9.88820478742177
1.4000000000000001,-0.156562418893399,0.0698081666048364,-0.1101939504861943,0.1083919678484904,2.465549144568593,10.31931640045337
1.41,-0.1397834966155751,0.0731032974534399,-0.1060316538334004,0.975228994993127,-0.5787003264270102,9.399706565600288
1.42,-0.1270000490082435,0.0863169062618346,-0.0947955077409855,0.0054962412669114,0.3846485440478669,8.78692050801667
1.43,-0.1109832538144124,0.047399574897859,-0.0852973734855763,-2.0672836904512173,-0.0427889283522786,10.0571916479653
1.44,-0.1098495303081214,0.0592111770417365,-0.0732799669623486,1.1850644914250368,1.751584717990221,9.47645522192882
1.45,-0.1346824159115016,0.0409197793177398,-0.073111919116985,-1.1371292005976306,2.79230863380265,10.39784389764544
1.46,-0.1380126849434333,0.0665911743357477,-0.0709972580790631,1.934807230273673,1.1980753173138654,9.853283734243972
1.47,-0.1518671265306163,0.0375943719580849,-0.0608303448081128,-2.2451329057422176,2.36457097851522,10.281410878849918
1.48,-0.1506767722953097,0.0357946761977325,-0.0639514824271313,0.6034811434832607,0.0181982265911534,9.829244349952926
1.49,-0.1053424512822662,0.022972384541976,-0.0586070505797974,-1.6633895423386342,-1.589183943863843,8.592276071607408
1.5,-0.0933601443123393,-0.0107701390791356,-0.0604962235212437,-1.452397445751589,-1.0509239776645305,10.316651029808842
1.51,-0.0692472260705732,-0.0194793111415345,-0.0637119462609402,-1.447343191524211,-0.438157755889535,8.811801479186615
1.52,-0.0754036345342583,-0.0471168911240541,-0.0637936493277661,-1.18397431095012,0.6955890117278605,11.381809395164025
1.53,-0.0751496553061975,-0.0317163149761386,-0.0596131434559933,0.2359311031034591,0.5888169614911751,9.253818427615965
1.54,-0.0800632980337525,-0.0458586196353543,-0.0596287077188603,-0.3467712551200673,0.8450671442341823,11.301054777371526
1.55,-0.0456713131976576,-0.0081397554848181,-0.051819549304258,2.061026970140676,-1.439039004398597,8.826462154374227
1.56,-0.0520327618179121,-0.0174597660328305,-0.0482915727317444,-1.0265841338639554,1.210562316088891,10.034206135221318
1.57,-0.0427327140560913,-0.0294793448675422,-0.0516893615841977,-0.5684369119003769,-0.12176717946497,10.07979488683404
1.58,-0.0159105968539663,-0.0259865383663433,-0.0513041367650143,-0.0581390600124549,-2.3464417254239285,9.522293107474304
1.59,0.0300802613288861,-0.0185995270167544,-0.0420115044236294,0.8693144253252272,-3.3590998931868663,10.120456733403772
1.6,0.0400962892546891,-0.0214403416273618,-0.0356997078180424,-0.6362474199280778,0.8078499751500806,8.83708674520662
1.61,0.0018279040467492,-0.0525940848172078,-0.0260956002295128,-2.1210147676995685,3.0992750645829563,10.455704622015146
1.62,0.0026222304847315,-0.0533902070484978,-0.0186349687993637,-0.1264487295914239,-0.7898209811073013,9.536399824221022
1.6300000000000001,0.0674935692927847,-0.0668697408065766,-0.0045304213546327,-0.3807589000246144,-3.020445685284895,8.940544927236926
1.6400000000000001,0.0339457127184944,-0.0638130838526059,-0.001144538762804,-0.2184636145704292,3.9220066924286674,9.647475272025536
1.6500000000000001,0.05546067139863,-0.0999544111538352,0.0081795226886756,-2.5205193864345654,-1.1698429352094135,10.312912674769652
1.6600000000000001,0.0292840201880794,-0.1016331113255837,0.0020579657737985,-0.371436266183928,4.129004479434663,10.530765535466273
1.67,0.0276051589575552,-0.1144364244463903,-0.0079957120016328,-1.0421345929760482,0.960331079858609,11.065803231907822
1.68,0.0166557841992368,-0.093510149339917,-0.0063729755476228,0.1336732359137982,0.1266773435901582,10.338364895666029
1.69,0.0278708498090705,-0.1184302627668672,-0.0123912621185295,-3.510526555093564,1.0270731863464069,11.305800215902384
1.7,-0.0106093374937788,-0.1182539798324473,-0.0261393071979395,-0.9054038569732636,8.851466935649821,12.867479940188243
1.71,-0.0015917833225372,-0.0827848336724261,-0.0264802290022484,3.684565602657744,-0.0123803075202275,10.355853973603828
1.72,0.0467631324400484,-0.0805299063499377,-0.0244399117201678,0.2124109533379574,-2.8989762845771243,7.856014271544381
1.73,0.0527057177050981,-0.0504666823880614,-0.0367365976691357,2.833792598546107,-0.2340381567255713,10.061833544467977
1.74,0.0757199454150675,-0.0374244544885865,-0.0268922535598389,1.2960361851347435,-0.6139711305051051,9.583405412827132
1.75,0.0742081448602153,-0.0165470795074752,-0.0162797210633866,2.293520387602518,1.5642694500950267,9.62064015293095
1.76,0.0409862857996195,-0.0096876849329671,-0.0329759655416123,0.2099614498661691,2.70973624847834,9.694199359733842
1.77,0.0604821746603901,-0.0080261337023202,-0.0239373067289702,1.2653563899459614,-0.5713277176368154,8.666880438291725
1.78,0.03285957543386,0.0116550492631498,-0.0260748783022276,1.512088602075847,3.932433845611271,9.115242480936471
1.79,0.0205739105609378,0.021555709512421,-0.0265623418510071,1.8373019294995407,1.9035784558178392,9.857576383441325
1.8,-0.0146980458727774,0.0520326535685517,-0.0386886162579171,2.030871887032309,4.09185436694044,8.400083059748589
1.81,-0.0335551881027195,0.0612607473704923,-0.0390585189581028,1.5433021864804717,2.5950161130368463,11.004597441234534
1.82,-0.0547952154280254,0.0913323071810689,-0.0434768026590458,2.6207469513982686,3.3484938652199125,8.574705305902613
1.83,-0.0621941584469265,0.1118894154403527,-0.0462345940888039,2.0159704783726147,0.4541833258336373,9.914751463127534
1.84,-0.0449279659880478,0.1185633113768822,-0.0504248378694169,1.0975819220440692,0.3054732084893412,8.66345480906853
1.85,-0.0166076058745432,0.1427363407888889,-0.044431162428867,2.2454453479440644,-2.426797511753336,9.596198865454292
1.86,0.0195637660539567,0.1311997193579756,-0.0337234711170308,-0.8638540054179453,-1.6467021294630466,9.03339933536498
1.87,0.047240371680329,0.1020668976285889,-0.0308710386872403,-0.5826394720932941,-0.2769861955541914,9.869590023826488
1.8800000000000001,-0.0077882657469273,0.099793743377802,-0.0259505392879359,0.1769357707207827,6.617890779781106,9.715665438336686
1.8900000000000001,-0.0299737095229177,0.1015016183498767,-0.0286864856153838,1.2703556489470749,2.51467694866425,11.256335729385288
1.9000000000000001,-0.0328279685708521,0.1251274167499338,-0.0305019294738881,1.7102498881062609,1.3054534054483564,8.770750223084178
1.9100000000000001,-0.0398262823634131,0.1216937385065305,-0.0396525649249665,0.3402159620461406,1.5820231689825222,9.8881029216866
1.92,-0.0315835579784304,0.1238290818772645,-0.0344919724285714,0.7458059527339138,0.5389215595135474,9.665407280716826
1.93,-0.0139011289668677,0.122572774646017,-0.0258776297688595,0.103954685607879,-1.3212559631208116,9.636483398238498
1.94,0.0221609809016318,0.0890107242127215,-0.0228326314956061,-2.893806640165371,-0.9592163636307808,9.167849217922846
1.95,0.0028786151523874,0.0545529745807176,-0.0158497312933318,-1.3113569948200274,2.2430017031849268,10.821974643940466
1.96,-0.0322161547285691,0.0640202075582688,-0.0190261373192183,0.1219217154135725,4.706556638001355,10.103047399488249
1.97,-0.0389570502459627,0.036451119212188,-0.0313436327397934,-2.436807532201067,0.3938503814272619,9.770063206679025
1.98,-0.0350745884136423,0.0358722231275563,-0.0489929592132679,0.0759413593195665,1.2692566666922058,10.312310553803645
1.99,-0.0392438046781147,0.0463578723489612,-0.0578480450332276,-0.1387074855183613,1.4633097294680406,9.659053239444749
2.0,-0.0576803440438778,0.0391303281132323,-0.0588464340090863,-0.7607663839768211,2.958887867891634,10.262172205341136
2.0100000000000002,-0.0744546739275694,0.0445933510432397,-0.0602980082750432,-0.135419404622879,1.9585728715423123,10.46470983119378
2.02,-0.0770676240713417,0.0396283554308306,-0.0521861178696267,0.0775508649928834,1.8067027841793677,10.18737770178902
2.0300000000000002,-0.0997315750464879,0.0424568039055054,-0.0440384609520546,-0.3235667685474311,3.060080920655776,9.640458873470218
2.04,-0.1079091690505408,0.0258566986457154,-0.0380635460734478,-1.189977079565972,1.4976738968384309,10.336819822859434
2.05,-0.1146165415577983,0.0154646222063452,-0.0393806112825982,-0.7493440527945177,1.604368111259138,9.604989077150174
2.06,-0.1045608415092363,0.0092483985300142,-0.0372902763903252,-0.3451894518984111,0.0323880886097972,9.144409891932026
2.07,-0.0820485822559467,0.0056289094036402,-0.0386415732920281,-0.2046283715565728,-1.1799840162196675,9.319784740605796
2.08,-0.0473690859856539,0.003670325746246,-0.0512749304890744,-0.0368082065822856,-1.2511584804831992,9.371120014039889
2.09,-0.0502031245549567,0.0211283668750638,-0.0466932369291893,1.891575705794636,1.0184579831611362,10.102844886768253
2.1,-0.0566313046621605,0.0498491533762383,-0.0394017634809128,1.4629295227093944,1.0753021979506812,9.236318381189893
2.11,-0.0424897210313657,0.0492167371923573,-0.0382966747403256,0.7801994581411513,-0.2084936273934256,10.332951920941932
2.12,-0.0588955660916301,0.0723802842382808,-0.0323947755515686,1.173572757706474,1.7188338997815775,10.025291092082036
2.13,-0.0596386571208568,0.0484854358269763,-0.0262130977481715,-1.5280296521071763,2.1637860822370847,9.91249745073776
2.14,-0.0995096764297757,0.0291813171458492,-0.034510602605354,-1.1649772961460811,3.271094647336908,9.868304127885578
2.15,-0.0872752161601514,0.0138491406646869,-0.034895011585962,-0.9848689309982072,-0.2362326419900156,9.264501401458771
2.16,-0.0563848099444904,-0.0075998552393439,-0.0328728457808606,-1.0809654732218668,-2.242871406420857,8.723445098702351
2.17,-0.0421928871466575,-0.0107834627760726,-0.027865783673536,-0.1514398910545723,0.4791001282501188,9.421008562043957
2.18,-0.060267330814973,-0.0198692507010204,-0.0290577703982703,-0.5580581177666717,2.525977892343929,10.53609659311495
2.19,-0.0842259154172659,-0.0120317235157657,-0.0262388637185208,1.2671858169665378,1.0613410702507,10.373102467682626
2.2,-0.0173012626264016,0.0550879248725251,-0.0438616549491993,5.852607369035809,-4.255074423797255,6.290961024087832
2.21,-0.0437165194475756,0.0649292149290717,-0.0480647770583741,-0.5866603297107408,3.158045270542522,7.043322527664061
2.22,-0.0463720681381733,0.0458698627561155,-0.0505788935244194,-0.4314546943607367,0.7129555897067105,9.959822147458688
2.23,-0.0577416289532382,0.0405939870582975,-0.0472849992931,-0.7799575984586186,0.418995435655854,9.175872182939097
2.24,-0.0385902011655994,0.0135678288293089,-0.062466089975845,-1.7089263020321088,0.2611559237934824,9.384820459458014
2.25,-0.0580966274320642,0.0015363280622051,-0.0509881017625443,-0.4133363627412116,0.9104972987792724,10.060200236316176
2.2600000000000002,-0.0356393783363637,0.0213287795732014,-0.0506702562689892,1.719703645057006,-0.0932852487507362,9.170851800620849
2.27,-0.0397027490175297,0.018186490149209,-0.0597117667913548,-0.7822744903652242,0.5090246429622299,10.057733800724163
2.2800000000000002,-0.0419267444782808,0.0269405159803466,-0.0649733817100636,1.4750762235079211,0.884903945965229,9.50940390822903
2.29,-0.0365729092856941,0.0575571041767282,-0.0679706310749165,0.7913639364019031,-0.3621707410683025,9.010095956805786
2.3000000000000003,-0.0256850898597171,0.0255875895219838,-0.0662458440184704,-1.4953343312485028,1.4530938752055789,10.045010813798184
2.31,-0.0375176701533275,0.0495751493898861,-0.0683628966927639,1.454417724899462,-0.42736934441777,9.865727369420368
2.32,-2.8157373067929127e-05,0.0419562143727178,-0.0588737068593613,-0.086245818513837,-0.8680244823459533,9.040101833330612
2.33,-0.0005164700617352,0.0640915341278965,-0.0504713034153096,1.347480434329693,0.389640922783756,10.081587529601649
2.34,0.0025624276103785,0.0338592841568807,-0.0401343790710083,-2.825152464696845,1.5697957549701698,9.30036615222397
2.35,-0.0806273230204948,-0.0005073442592061,-0.0340252531588189,-2.947882750581012,6.496539658952565,10.512911031529288
2.36,-0.0581235526560677,-0.0185603493647822,-0.0226673049748055,-1.6571605490255723,0.1999050391421452,10.591569073716164
2.37,-0.0896250755128045,-0.0429136540158331,-0.0197280285775772,-0.8347582076956335,1.866913197887858,11.362275960381512
2.38,-0.0534258992742742,7.225643278686295e-05,-0.022015096050512,1.5643868215845054,0.1862452517796161,8.382281775007664
2.39,-0.0979997474937073,-0.0388536164529199,-0.0210801040649525,-2.31783750290997,2.886041745325558,12.031624632516266
2.4,-0.0878317766672439,0.0006155946499594,-0.0178565116495005,2.88957529552331,1.61321816126157,9.827954980367831
2.41,-0.1166609694705251,0.0139751320985877,-0.0267662828683964,-0.0515238478783412,1.919354761424472,11.752387694247265
2.42,-0.1181873063148297,0.0012375679623187,-0.0284251117974631,-0.7669478330267242,1.6575000897571317,10.58311989404495
2.43,-0.1351656548809321,0.0443917076154072,-0.0337662560761086,2.567750221832135,1.706457830873231,10.230796114969907
2.44,-0.1228491482039268,0.0512900950373387,-0.0332189587772004,0.6151755998771326,-0.2881004327088476,9.750417665134853
2.45,-0.0960757301420598,0.0924429599972321,-0.0336902638793103,2.4128415525275555,-0.8646862334487314,9.55769052476444
2.46,-0.0850588684340489,0.0836038290274991,-0.029411745619785,-0.8277504251081217,-0.3782063706138085,9.71707863553847
2.47,-0.0709771952267488,0.0858940556606963,-0.0230739762902371,0.9937177860247564,-0.0473513846573846,9.423420082029844
2.48,-0.0803607457409976,0.0882261369932538,-0.0230169849366061,-0.4390888170152811,1.0652193324138366,9.388234260198503
2.49,-0.0721120500106065,0.0595875277763848,-0.0181555667787901,-0.9982517541001272,0.6057734553476938,10.093576956189096
2.5,-0.0688868253221238,0.064276514530015,-0.0150475067913643,0.4249030551084269,0.2511228151469814,9.703244118133586
2.5100000000000002,-0.072202899124558,0.0499335904637127,-0.0194253859937302,-0.8502940065758715,0.5133647814630548,10.89415942367692
2.52,-0.0754161900509289,0.0572548726088079,-0.0238830776780955,1.0115352160582205,1.0327704698197837,9.884636287666096
2.5300000000000002,-0.0615986961667611,0.0751239235677869,-0.0223506441235653,1.147409392397294,-1.1659795305680027,9.611700287435111
2.54,-0.0573690731019522,0.0711985591510654,-0.0247767152160517,-0.1167966342173288,0.5289517048523383,10.03327417850659
2.5500000000000003,-0.0535819500454873,0.0836865469437292,-0.0195411587029807,0.4708131629371622,0.6950053827764671,9.514935808129946
2.56,-0.0710568179375378,0.0543893983297868,-0.0099128488347045,-2.522966184733488,1.2621311459762476,9.895259238094852
2.57,-0.076778710137886,0.0329691464692253,-0.0099382124737016,-1.7756587919265432,1.302019245553894,9.12482571296669
2.58,-0.0643599798073651,0.011154154175731,-0.0103897986829392,-1.838193857626589,-0.7616533729831477,9.98939298142487
2.59,-0.057965984143641,0.0207823767029543,0.0007236393738426,0.6189018287613576,0.7604008437062855,9.882785760024536
2.6,-0.0392393929851565,0.0361730739709589,0.0009928609232306,0.6923642567517042,-2.3644639063774764,9.84524046394999
2.61,0.003019268167676,0.0721802290824712,0.0038100950058438,3.0907280112717057,-2.0427613965511413,8.777121834452691
2.62,-0.0061340450605072,0.1168377108421693,0.0060362300008423,2.049101308182109,0.9236798832314826,8.879128158199975
2.63,-0.0219491421955483,0.1072719131504483,0.0073558284073956,-0.6408406042738741,0.4044378933490562,10.265137866847413
2.64,0.0186887441466295,0.1072001750380323,0.0133265746861584,0.4329172657868917,-3.2925149679736663,9.104617790871428
2.65,0.0473673015413964,0.1252656292091008,0.0157136112555749,1.4439613855031588,-1.0465694069550604,9.086056555345838
2.66,0.0409491436769264,0.1212407712865671,0.0262562433361895,0.0232879943554762,0.7288294379525305,9.952737543706762
2.67,0.0390956929842759,0.1252865135887997,0.0296604620396979,0.3178487275072542,1.3194196507824285,8.969622244060119
2.68,0.0020201975279303,0.1397171765429745,0.026928160908807,1.4582815672419374,2.9407689855232864,9.81520796553337
2.69,0.0048042859039601,0.1484453602861958,0.0328335227548964,0.0109202998980462,0.479789302377742,9.25195134860156
2.7,-0.0048623706671067,0.1365856792545637,0.0290254378795512,-1.061228718881315,1.8815532347004964,9.770715382984392
2.71,-0.0008643222861269,0.0998043043226524,0.0361950533568747,-3.745337105821647,-0.5209630660273423,9.621911604998123
2.72,0.024496941812211,0.0563957393424487,0.0545029515504725,-2.918064697095763,-0.1957915805593825,10.497869653448443
2.73,0.0125992577464193,0.0427045618441136,0.0567045608639605,-1.9300315313285377,0.8110653942604278,10.362730417965146
2.74,0.024610646123147,0.022325886740568,0.0579849803924449,-1.7530476963404873,0.131169501858364,10.372433447185884
2.75,0.0043354416260021,0.0174329360776372,0.0521655256032832,-1.5228421231839868,0.886605001957014,9.851773364706208
2.7600000000000002,0.0544638258635207,-0.0077402373674314,0.0483145961642153,-1.9714238312821577,-2.9779882525766466,9.359467089069252
2.77,0.0274701059945832,0.0091091697090857,0.043012409108866,0.0972465183080664,1.5747248443924362,10.112747782476886
2.7800000000000002,0.0520959848226367,-0.0028413789912123,0.0363738970935233,-2.069800973931513,-0.8355409708251167,9.399102639924871
2.79,0.0535422988346619,-0.0266528587926644,0.0235807193547375,-3.044854589330083,-0.3608065239959558,10.15094074535967
2.8000000000000003,0.0596397952890313,-0.0410301274075066,0.018758236068476,-1.9604529431664928,0.2325011575854649,11.212965442659014
2.81,0.0341487995893762,-0.0606077615845022,0.0060955561801679,-3.27187104481053,3.650627373355121,10.424022780852932
2.82,0.0131237280868417,-0.0768839347907107,0.0091107046335824,-1.4205252746138628,0.6361671631801243,11.609664949329831
2.83,0.0486982864035587,-0.0678061200463273,0.0099746115609891,-0.2270845298530172,-0.9682211468313712,9.12845007214968
2.84,0.0360099833657219,-0.0433622255634699,0.0106125600740202,1.6502445624287183,2.0211205566022645,10.27254325716012
2.85,0.0005971384466447,-0.0255256221349547,0.0073993672720976,-0.2179916679644261,3.025407273200821,10.23725758982676
2.86,0.0049078611512151,-0.0475960260141549,0.0084582507714517,-2.155332376192701,0.4534721004853441,10.284474876950876
2.87,-0.0005590593750201,-0.0694880405109445,-0.0028994231380633,-2.295450838587382,1.4482057145872975,10.77487447439692
2.88,0.0096122747646058,-0.0778332672860085,0.0036379736719541,-0.5837906030808734,-0.5688292081324198,10.16762668676336
2.89,0.0220644250057495,-0.0730996345207076,0.0002815234346203,-1.020282994578939,0.2395906828468365,8.485638922467324
2.9,0.0193488895512118,-0.1060933160050002,-0.0050149279542378,-2.7671379836786625,0.3745319354897845,10.237128219811966
2.91,0.021725024446761,-0.1171195803873318,-0.0044033000141493,-1.4089671847648948,1.006853373110993,9.634493397680783
2.92,-0.003271062596626,-0.1410398325807492,-0.0113011816412321,-2.0628316324718936,1.9728009872585488,10.88295886397758
2.93,0.0323310666433823,-0.1252246663456386,-0.0063640469581,1.3643481726607878,-2.690280280777801,8.722406045830487
2.94,0.0842215297329973,-0.1366261297854063,0.0067486638307459,-2.049258325340717,-3.161945364456781,7.464765868819712
2.95,0.0889235895073573,-0.1612775851082957,0.0018590856942469,-0.8810613749113408,0.611702853254835,10.69170748256332
2.96,0.0697029914794508,-0.1500519804369045,0.0047183834120519,-0.0696565135109686,1.4614432349929465,9.471320541918102
2.97,0.0667503186492314,-0.1555585186761973,0.0025227247841544,-0.2702682375549155,0.431762990525551,10.419762664600588
2.98,0.0724564639759479,-0.1664002754947249,-0.0088313318684808,-1.5628057490437175,0.3930941625197508,9.284467978124784
2.99,0.0764843568627368,-0.1822131386467372,-0.0109351970151178,-1.07566367545416,0.3946032756430376,10.112886803316057
3.0,0.06199153996542,-0.1991823363502789,-0.0225504891842715,-1.9787032432940088,1.59708046315066,10.146797616294393
3.0100000000000002,0.0573246756075378,-0.2120108925165019,-0.0369491813600174,-0.5654599880133949,1.1479797915245065,9.955497585346372
3.02,0.0730613523064702,-0.1712784819308076,-0.0385863756656758,3.7168322790518697,-2.11820744837294,9.081896859985278
3.0300000000000002,0.1085032363957955,-0.1239919668218572,-0.0354107109725586,2.799135154632156,0.3863402305572824,7.393481313273194
3.04,0.0774181425284191,-0.12771634122962,-0.0216132117331139,-0.6231731041548796,1.2417552774101472,9.58111369718558
3.0500000000000003,0.0544018878602483,-0.1560502748621046,-0.01138412616105,-1.081890351737567,4.118075418050865,10.747779052381444
3.06,0.0281158445475003,-0.1504024170918017,-0.0055235315941385,-0.4087066058767046,1.5071485538505334,9.619483740192564
3.0700000000000003,0.0335322278308882,-0.1648854820332252,-0.012816873741161,0.2354555793210352,0.9252526657876609,10.70280683015718
3.08,0.0369317933676773,-0.135299053548911,-0.0235342359066121,1.1133251869614096,0.6593207136080356,8.709031899276908
3.09,0.0130411544129881,-0.1517075901981746,-0.0357611192286126,-0.8751588727321916,2.778298330007657,11.15958598823832
3.1,-0.0025942835037716,-0.1358692470598613,-0.0532204596221558,0.6298681427071317,2.312693208985402,9.629875095234606
3.11,-0.0043001437074159,-0.1475576628223651,-0.0546723989665619,-0.5103522682700204,-0.4632746096794038,9.80508951771975
3.12,0.0124096268830265,-0.1325721912210367,-0.0563080472767464,1.3570404318781528,-0.0008266048850472,9.299161373449154
3.13,0.0149652501021895,-0.1267941474278173,-0.0511763816595189,0.5561423751163996,0.2525388885680494,10.586327096766755
3.14,0.010896287891692,-0.1233175832081862,-0.0546930258989445,0.397200089689744,2.2418776913881606,9.94253122282986
3.15,0.0115812342649686,-0.1333440735690949,-0.0548556348204724,-0.9342643498012972,-1.1059460085543882,8.758935758921057
3.16,0.0258545372050682,-0.1503074877944175,-0.0495588568866364,-0.2442114623367411,1.760856154609834,10.078996372632496
3.17,-0.0076770587270412,-0.143471475360721,-0.045432077151548,0.7222297630068806,3.073925691635618,9.727020667906825
3.18,-0.0288279295428858,-0.13711584351055,-0.0346502115845791,1.1477406939821877,1.816300341576578,10.100233905501296
3.19,-0.007506109827003,-0.1264438658567589,-0.0339479198575131,1.0291633783005407,0.3491605569618075,8.7481732581152
3.2,-0.0480452525153496,-0.1324055927485667,-0.0375852262497059,-0.2900316496126451,4.415399599267145,9.922641030558497
3.21,-0.0761375355471412,-0.1411015826353701,-0.0323939224600903,-0.0032280868203631,2.7013294816219204,9.94473020000341
3.22,-0.0784835973584799,-0.1324367275393761,-0.0334398610413186,1.149285495456506,1.6725956465616518,8.811447954762235
3.23,-0.0813144206905366,-0.1136922887139308,-0.0414743697166554,1.5207491761733478,1.0085121241830717,10.523172380298949
3.24,-0.073385172562634,-0.1211846534776385,-0.0445673888445012,-0.6589732779045531,0.1635107030889594,8.553168063305371
3.25,-0.0635574040044799,-0.112107748970281,-0.0472435368120781,1.200672603620866,0.4428126002921069,9.89862090006913
3.2600000000000002,-0.0676301942764234,-0.1130710304420142,-0.0531702501595131,-0.3200130127386171,1.0725843801758792,9.5477420299974
3.27,-0.0802050698208544,-0.120861234420554,-0.0485517730832211,0.3473324436901207,2.1242949047771447,10.419134099874134
3.2800000000000002,-0.1242436278998886,-0.1286955399209676,-0.0616369744658581,-1.729100079886994,4.047237500979255,9.199009998157903
3.29,-0.1016560135106544,-0.1407245913680923,-0.0611583417177311,1.2319713390933886,-0.9311240694488836,10.49497642965536
3.3000000000000003,-0.1074257135635955,-0.1209796218728561,-0.0686975246191136,0.0349730808868763,1.648793279640933,9.15921205868826
3.31,-0.1083834403170524,-0.1436973163723006,-0.0718537023186795,-0.772911033541817,0.7450380974495877,10.790672111056669
3.3200000000000003,-0.134539292648589,-0.1491054940136279,-0.0715636437654606,-0.8848479937923024,3.372854920829357,9.861227828865848
3.33,-0.1294413174899674,-0.1621423425014632,-0.0681134289026371,-0.0770969239493503,-1.0395009822254304,10.765054549452678
3.34,-0.1331740742739763,-0.1729950171157979,-0.0634840553522221,-0.6286495835027951,1.887900495949163,9.555454138349706
3.35,-0.1600624973051304,-0.1644349823083561,-0.0663192173361889,0.9583069151288224,2.9256134923265926,8.279635726447774
3.36,-0.1646799667113773,-0.1524942023582342,-0.0547437382757775,1.341719020284534,1.4320926939493226,10.100931101944818
3.37,-0.1697609543282845,-0.1507704346130195,-0.0592933682620636,0.3449104621399183,0.1477265905834012,10.126745398287229
3.38,-0.1376647289030933,-0.1351985316870493,-0.0512062361359707,0.9875269955651644,-0.8258389137555953,10.646991762646266
3.39,-0.1415050748407685,-0.1618538135272066,-0.0611932029843441,-5.567157482146994,0.392436766903436,11.737353858348376
3.4,-0.1289496764197795,-0.1423405904176277,-0.0525352259993664,2.4424747030580995,-1.3851510678062984,10.63908564187746
3.41,-0.1114802893766098,-0.1519949318927626,-0.0403322031617276,-0.6489873048710489,-0.9212418545614872,9.960179642694952
3.42,-0.1010519983373755,-0.1282139771582376,-0.0426151690900437,2.926196910743808,-0.9869314866776236,9.85319319839387
3.43,-0.0867720171414192,-0.0991033585821681,-0.0303425429284684,2.0778924629259587,-0.6433324534912391,10.411449967395049
3.44,-0.1252495105077582,-0.1026446247858345,-0.0368948591768853,0.2448678688837215,3.5597544871826146,9.828332738395693
3.45,-0.1227291319091578,-0.0899794953503176,-0.0362863590836636,1.643454914545339,0.1337874296060331,10.696290870382162
3.46,-0.1335945537756675,-0.0949304349893635,-0.0496471127390973,0.6189220259344007,1.8036779547102144,10.513134067464485
3.47,-0.1342544742186915,-0.0583666230540221,-0.0555839775025956,3.010425771324716,0.2294774293960959,9.868020804541072
3.48,-0.117982714997728,-0.0599198433906873,-0.0594652680575959,0.587369462128739,-0.8709906584843687,10.433787219020973
3.49,-0.0954215075419138,-0.0402815394597663,-0.0675233056664578,1.879021478998256,-1.842572468306267,8.62203517185773
3.5,-0.0632871736574556,-0.0326578338571116,-0.063326035988342,1.453773733919372,-2.5266139338749785,9.496686313521751
3.5100000000000002,-0.0509301793487248,-0.0177796975571199,-0.0563550790667645,1.8878812461926264,-0.291933468112652,9.162592755980995
3.52,-0.0841137755003603,-0.0237255668586206,-0.0597381194949261,-0.2087609973581755,3.071924044863904,9.72789626622174
3.5300000000000002,-0.1044263352729197,-0.0388240919543808,-0.0563012560725323,0.4250244165270282,0.9272372238550564,10.509113332504162
3.54,-0.0810949100316111,-0.0188523240691302,-0.0593377066671959,1.5855472868096758,-1.2353254689957176,8.331593012018672
3.5500000000000003,-0.059121194574038,-0.0403720049407822,-0.070943286073219,-0.2242578091157306,-2.1039587065287946,9.222806434043733
3.56,-0.0096482654818969,-0.0119864328408572,-0.0634070387005917,3.5901280767828414,-3.143670131343945,7.471916822645463
3.5700000000000003,-0.0216166516944128,-0.0004599316631628,-0.0673058977246396,0.7319363416297863,0.8844852311979177,8.121422596428278
3.58,0.0024090893365384,-0.0280976862713628,-0.0570924853801838,-0.4887515597696064,-0.9698207573358454,8.753954476260917
3.59,-0.0488218975925283,-0.0312211726588536,-0.0438053136587254,0.2610191733384229,3.537715850777893,9.457055232499362
3.6,-0.0291457166671142,-0.0706685118521813,-0.0274446358800045,-0.4139487230983219,0.117048879580964,9.31017989732029
3.61,-0.0494803641355995,-0.0568182531319394,-0.0077449859947077,2.8147257739770906,1.3698325750139213,9.445314041023051
3.62,0.0259828158578988,-0.0808702965634618,0.0047008077252544,-0.1812544444863224,-4.007516311950442,8.746962338229128
3.63,0.0075870231862779,-0.0773686693553308,0.0045396388612576,0.5739463887172316,0.8808077478542302,8.55375252208189
3.64,0.0157578105199765,-0.1047775008467653,0.0197532555192597,-0.5243136252924759,-0.269749683604343,10.0828019547032
3.65,-0.0035026211964772,-0.0773732287357008,0.0246837871253378,2.6644112292036226,0.8897913096087098,8.994503653018187
3.66,0.0279038430154145,-0.0841006173435216,0.0206290694057829,0.6788029814180552,-2.046608892164236,10.163414516955347
3.67,0.0555811759388205,-0.0531932408042608,0.0230076728492863,3.3463217905520155,-3.015883464429556,9.299635223206108
3.68,0.0750609712398834,-0.0289546269013951,0.0120764128968008,2.479532499922544,0.1929914184761526,9.826907243433803
3.69,0.0616879000146404,0.0306711029209071,0.0276435526192076,4.184202130273532,0.0217710952347231,9.62087651012828
3.7,0.0763411111874002,0.0342888568950446,0.0247413149207718,0.4867566498189364,0.8211829538208026,10.811606628303982
3.71,0.0656700117120684,0.0166754660573288,0.0087918146617599,-1.4340878893321292,-0.8328393023922381,10.81311106399074
3.72,0.1028077127551167,-0.0390781023021918,0.0029614526882656,-3.3983334308092856,-1.8473448069705345,10.361462985052247
3.73,0.1171036520331195,-0.029221579536219,-0.00110400155076,1.7254053055223966,-0.7439737169107519,9.615884301266432
3.74,0.1173010931001693,-0.0210550907522319,0.0004784411156438,0.6251602448286699,0.5605889922248143,9.30429866742935
3.75,0.0873706989676619,-0.0084242204469849,-0.0021692280553392,1.6696998786361912,2.956326911246478,10.73116527136442
3.7600000000000002,0.0475647526581419,0.0047006413839975,-0.0096888955578319,1.1091780746138011,3.938949972649731,10.837564160057266
3.77,0.0438140875373185,0.0025976580259916,-0.0061627145752422,-0.128218807705049,-0.1429989485962209,10.433586458786898
3.7800000000000002,0.035997390870148,-0.0219219412701372,-0.0158805785596482,-0.88128984624814,2.825427109399006,10.85443713735821
3.79,0.0098721956368023,-0.0033971599933616,-0.0126682197570912,1.3295434278932208,1.6011521767893009,10.295100790081712
3.8000000000000003,0.0281231103411891,-0.0168898381674225,-0.0074446139752976,0.115010541970666,-0.8792947410033517,10.505834431086564
3.81,0.066360928928931,0.0016847283663225,-0.0008776487212739,1.5187478942205002,-1.6947583139164155,8.822452425076055
3.8200000000000003,0.0306987725197957,-0.0190678185803847,-0.0060687050119153,-0.4520045753804947,3.6192543387672953,11.228936445906845
3.83,0.0166621924597853,0.0058776221274207,-0.0055171608820669,2.2856189994348672,1.05592043439699,10.015930881799472
3.84,0.0091602523927537,0.0170422646485886,-0.0081902680814377,1.1546119082085862,0.93915929245068,10.17884742038537
3.85,0.0331716872393801,0.020253970049273,-0.0163761539280526,1.0049930317961293,-1.729054997089989,10.444126496196269
3.86,0.0496289048830099,0.0459129695176211,-0.0113206984371058,2.470302864043851,-0.6961320239276252,8.960630126753355
3.87,0.063839237732308,0.0484703966641767,-0.0011890077859274,0.7295579787203987,-0.155238514140719,10.104580238996656
3.88,0.0429968299490695,0.0628423734927517,-0.0110013684153668,1.84766958610128,2.3519213308891787,10.234763874598842
3.89,-0.0174977236850534,0.0706903267403026,-0.0157077418536059,0.7825684314942423,5.639046683356894,10.208643612314528
3.9,-0.032698817951274,0.068122704570416,-0.038084117126476,-0.2799908237959762,0.5510860419900961,9.536590336894964
3.91,-0.021050962671123,0.0472843332673064,-0.0412315292179696,-1.4562779698938806,-0.5369129758308802,9.126344121553377
3.92,0.0174123259561451,0.016508897618626,-0.0530017478287331,-1.8735974794482024,-3.2041677096151644,9.426093409895197
3.93,0.0275337457912408,0.017282721288425,-0.0444148121297471,0.7422890768983605,0.7386349309500917,9.746368609868554
3.94,-0.0030525115402729,0.015698581497553,-0.0488107850670926,0.2905305113827999,2.233792165831137,10.366355854205256
3.95,0.0252522689465574,0.0197776110650805,-0.0497380396247021,-0.3854705675734821,-3.971394747873742,8.31338154810437
3.96,0.1002140366906386,-0.0522504823604115,-0.0525732835650555,-3.6787022973113888,-2.6037106185682304,9.21868867532285
3.97,0.0449255887520272,-0.0357776598690273,-0.0459385266423336,1.1599769895064196,3.4227416609977164,9.626200186274463
3.98,0.0499064791277481,-0.0702837403625698,-0.0450965365290753,-1.1728834571198774,0.7447161987095224,10.149319147658714
3.99,0.0398386848854811,-0.0408890883067665,-0.0340842915594689,2.7233636938165597,0.669823939182023,9.07967660758374
4.0,0.055811255634593,-0.0609819728416468,-0.0264225056290738,-0.4010704990827071,-0.7234137047471692,10.258182803335387
4.01,0.0719569997929722,-0.0233521263547019,-0.0093372141838185,3.5748639728429312,0.167051922374543,9.50406903071102
4.0200000000000005,0.0419877918491634,-0.0233516675762381,-0.0058072403900436,0.3419399307766306,2.921226836128155,10.475314489379748
4.03,0.0426672433478526,-0.0301925485961478,0.0032550369959213,1.0515627326071264,-0.3717808595922638,10.286762200460544
4.04,0.0357773267781521,-0.0022609302285972,0.0124852988973148,3.0757330710347155,2.280414309266082,9.04570249006686
4.05,0.0355699993850253,0.0075988784221369,0.0095903534546382,1.0717446513418103,-0.5754334095402946,9.212411398385727
4.0600000000000005,0.058176870959061,-0.0048670335762376,0.0195449745386727,0.8322971252271152,-0.518209588101571,9.429427381822318
4.07,0.0615935889122098,0.0088322299770881,0.012540963116277,1.0049619904900355,-0.5963906229929014,9.445819786258994
4.08,0.0318010543315913,-0.0226066738008688,0.0043348591878898,-1.087228567957937,4.312164566711447,10.13132255781273
4.09,-0.0029943189215805,0.0183839925538858,0.0009276355138868,3.7282956123061006,0.8837234776160552,11.141383507600462
4.1,0.0634666567701624,-0.0021524302865877,0.0008437810337059,-2.0013710870780423,-5.911603156559536,7.008979445014015
4.11,0.1226190320862342,-0.0145645862412794,-0.0119106260955445,1.1949944808268114,-1.382569046189013,9.870425452232908
4.12,0.0679955550424221,0.021891778303839,-0.0151784637838713,2.286172866061032,3.925706452189612,9.475795663395402
4.13,0.076634948726326,0.0224770592362975,-0.0129073461413494,1.4449109109700078,-0.2418727154406755,9.57797209165265
4.14,0.0698548173863624,0.0388292831035078,-0.0210181319981924,1.217346898626532,0.872164521732884,9.464975294082942
4.15,0.0797389094727497,0.0321379615241643,-0.0197270488262288,0.961683143269137,-0.4355478780830011,10.519884672218613
4.16,0.0825526702146071,0.0670271566546475,-0.0128611115634552,2.8206186111933755,0.3671015601682771,9.329987220721726
4.17,0.0793317619418428,0.0866545403997699,-0.0084967207059375,2.2699224434168936,1.2929492276517354,10.910158236553738
4.18,0.0722147705576137,0.0850085988533608,-0.0140984462469927,0.119577547417531,0.4907312902601713,10.30464796658148
4.19,0.0792124201736238,0.0663854516359206,-0.0022294813662878,-0.9196366889744726,0.4677805014616553,8.935748615719216
4.2,0.0547183602171904,0.0441392978060379,-0.0087422229245416,-0.1693835238389349,2.8776233607796358,10.584260238008204
4.21,0.0611587462994145,0.0806752596859573,-0.0057817449689022,2.847589666283901,-0.3135506126294829,9.613261095814352
4.22,0.0535710306087173,0.0833726850034952,-0.0128784034296981,1.231415879154006,1.569041091931005,10.258971807426908
4.23,0.0615799412963839,0.1120221258020871,-0.0151751333743445,1.8621125466967203,-0.0285597210875545,9.1733055743199
4.24,0.0664433320676976,0.1056774850414894,-0.0149915659695975,0.7574673083494936,0.8368213244099977,11.07375323062348
4.25,0.0312102957052406,0.1424338250941363,-0.0186599580466858,3.055484515165674,3.882398326963664,8.955973841041512
4.26,0.0180400538547545,0.1591072209462136,-0.0283407376974932,1.2020165353177312,1.1095667178225077,10.239990159280362
4.2700000000000005,0.0289759234115551,0.1420765787265662,-0.0200454717397801,-0.764580360219666,0.0533205194591324,8.881414964807268
4.28,0.0356834181627899,0.1078051253230116,-0.0266290189594141,-2.5634910867068643,-1.241427475686583,9.235072354156843
4.29,0.0788651449623156,0.0621453550989927,-0.0253342291236035,-2.8370866410291646,-1.7202016806859095,9.837614296176207
4.3,0.072527932715767,0.0347125985478847,-0.0169989721745364,-0.7845124686549179,0.8977690008981626,10.59310412405542
4.3100000000000005,0.0548095689477933,0.0488321617210567,-0.0175651566952578,1.37179810987717,2.8396863509770665,10.373883517729656
4.32,0.0419579811758819,0.0499887594753754,-0.0203712725907675,0.4013602597678731,1.0045853037744876,10.343617018893708
4.33,0.0269117766927364,0.0538655248544154,-0.0224368585169426,0.562573700962662,2.3683780988212293,9.96386839009124
4.34,0.0172817158304713,0.0549589427833022,-0.0274759525328986,0.2671695733584291,1.032673222728304,10.032583145133763
4.3500000000000005,0.0235975022881086,0.054934026174841,-0.0136297935515753,0.5616918489054578,0.7571653106163748,9.239504742356724
4.36,0.0028563923684545,0.073779845952689,-0.0239146718651167,2.0434843300617844,2.799552706433245,10.938373264432473
4.37,-0.0017346979119315,0.0833092306614462,-0.0404183542251698,0.7301249178113589,1.18166257044056,8.743979934792877
4.38,-0.0198216391412219,0.1125328706130229,-0.0410669905960671,2.620725817228618,1.6173400143945795,9.834862045455704
4.39,-0.0026670754681697,0.1266634488757944,-0.0506647502899281,1.423102604738281,0.3159164706079034,9.631185000122665
4.4,-0.0267026322301539,0.1237884593626636,-0.0591255849123112,-0.4809267939889476,2.3509875261434856,9.327442808252933
4.41,-0.0163751499555241,0.0923225614911748,-0.0411803400039784,-1.3395300492369078,-0.4094141788691749,10.08614667621426
4.42,-0.0246404108095348,0.0762711502815252,-0.0469446716725937,-0.8585484923810665,1.5736817429215622,9.773398449418169
4.43,-0.0126689497330778,0.0515447725837104,-0.0427060102939717,-1.1398948259006785,0.9935716763056226,9.22735732920096
4.44,-0.0583227385811109,0.0706759952491001,-0.0330776808679215,2.3082140570341445,2.639861783420761,10.917830114520664
4.45,-0.0368461932204514,0.0941947561170503,-0.0398595942080132,1.4003903630436083,0.9061782105041372,9.256828417488649
4.46,-0.0490545395144321,0.1012203008490655,-0.0449147945165745,0.5949560833683436,0.4683799333705442,10.47498813208496
4.47,-0.012216704644171,0.0934970373478025,-0.0345096563816182,0.1169473554642294,-2.2219216567081714,8.881320638210255
4.48,0.0159081468472092,0.0930267493759553,-0.0354413440346829,0.7461796412545987,-0.5811690736804576,8.976871183933365
4.49,-0.0413027601526804,0.1020236281179101,-0.0327167710185162,1.6340386856595246,4.9710391986469,8.809870848680271
4.5,-0.0412936204957589,0.1211050418881103,-0.0221681533277146,1.5026272219866257,-0.0817459489969987,9.476696714239678
4.51,-0.0349479572443981,0.1028428288670042,-0.0240462416678778,-0.0810564485967552,0.7524740417583379,10.074073578674096
4.5200000000000005,-0.0354717103567779,0.1364030737064683,-0.0275084314763657,2.562715637415987,0.3496203551155445,9.355722835056026
4.53,-0.0082932234397312,0.1312734210860236,-0.0204853670567385,0.4983438441759752,-1.152852766560306,10.742264835254716
4.54,-0.0270364071890265,0.1301525954112646,-0.0116594288393966,0.0578524503731768,2.5819644451819768,9.795275036189068
4.55,-0.0372844993708252,0.1024935021954919,-0.0262687181949726,-1.2930668165669597,0.6647373418101213,10.61811469257646
4.5600000000000005,-0.0410708579491602,0.1079567272283108,-0.0271737588465325,0.9793499337862108,2.0288460055556814,9.867326238892844
4.57,-0.0574492835266647,0.1193820299028213,-0.0307438088476769,1.3220661070900892,1.2373044780616984,9.547578303086032
4.58,-0.0444714808969595,0.1048284503797916,-0.0260961590230576,-1.3404955778137375,-0.2764022140119782,8.944304232808214
4.59,-0.049844930932161,0.101333502873281,-0.0329698001861683,0.8211365014733298,-0.012162287841367,10.58162041613477
4.6000000000000005,-0.0189750490088256,0.1113982164898357,-0.0219205425948016,0.3994146689505793,-0.5548377682905162,9.29611075740146
4.61,-0.0411095524228034,0.134586249568543,-0.0104995019629709,2.077523356967036,1.255730448895013,10.24511013237625
4.62,-0.0047795184280878,0.1184532312779446,-0.0110414497450105,-2.197222675660849,-1.1978894772427475,8.337932211251466
4.63,-0.0184377526057013,0.0939832606306113,-0.0062707954913489,-1.3327140284507693,0.6544985717900391,10.92039927047574
4.64,-0.0004610849153764,0.0675448485792299,0.0019565565179223,-3.0143485222307818,-0.7421235206115385,9.410768259676615
4.65,0.0126886151142986,0.0452514685524927,-0.0003376904770843,-0.0046710072318366,-0.3685933382800299,10.865404651035414
4.66,-0.0037710896614938,0.0702327410543132,0.0141170626610406,1.023776718942736,1.7658835755398044,8.174248673351247
4.67,0.003901665283597,0.0656210978943051,0.0232762998074181,0.4874746881553984,0.1464407632066603,10.62792794303896
4.68,0.015401181584879,0.0775159281782707,0.0235438017278798,-0.2099144105394808,-0.5972175267099619,9.193100940831238
4.69,0.0200643274542456,0.0709348278098998,0.0202968480169661,0.3548261243710908,-0.2286061522902246,11.08633807834259
4.7,0.0640538547180944,0.083836019724451,0.0158090476050861,-0.5486453371298603,-2.391220304209645,8.752393323074578
4.71,0.0845176380134783,0.0375078609609118,0.0160597158700116,-2.3342449834958594,-1.5403135790543443,11.305233327515015
4.72,0.0530385105271368,0.0542717998381953,0.01511742697208,0.925247158363248,3.135156804469532,9.992673023358762
4.73,0.0589236761008822,0.0471058693886058,0.0118965717136748,-0.977138425907398,-0.6403757323232214,10.261039732169712
4.74,0.0774048660803418,0.0293335418927173,0.026038406985987,-1.1607574875646274,-0.8808036080329201,9.510846425558016
4.75,0.0918423755335679,0.0104745839839456,0.0209492469310649,-1.5950573537375146,-0.0680937531292767,9.615022106695726
4.76,0.1101302067103114,-0.0096023636688829,0.0308656288415082,-0.9874594113449802,-0.6770085404761468,8.792816219092499
4.7700000000000005,0.0918769220349901,-0.0112936030971695,0.0384180979907401,0.0803922045351915,2.22292637340104,9.569877874359502
4.78,0.0997434567120979,-0.023680187366204,0.0336035365342982,-1.1416885186150878,-0.7358727767505859,9.656335693847982
4.79,0.1043912038808129,-0.0407099540649222,0.0292338064044602,-0.0806113536981216,1.7787913874563674,9.66944931003576
4.8,0.0453002750235816,0.0230722681633977,0.0329214396059401,4.551882886351458,5.074700360048665,8.705093746325991
4.8100000000000005,0.0394073934951681,0.0038957488826464,0.018290624591697,-2.2318550274190985,1.6656680065434344,10.01261815861792
4.82,0.0489112008748285,0.0026776316482673,0.0164900036632903,-0.37202636527374,-0.9470725721984352,9.838332882077058
4.83,0.0598159623527706,-0.0290777155565989,0.0116697285428531,-1.842738446236423,1.0993739800982676,9.97097620924189
4.84,0.057507762968963,-0.0016262957452106,0.0159164905652292,1.829042421914887,0.7906184994434765,8.895248158789025
4.8500000000000005,0.0447187106321683,-0.0239536635164432,0.0147168893471248,-1.417196901041891,1.5343876639505665,10.777065673733963
4.86,0.047817562848938,0.0015856718867423,0.0155722951620705,1.8375338052521368,0.1319591951863094,9.438069318871252
4.87,0.070511873501494,-0.0217586950063012,0.0304655922680981,-2.515016654386672,-0.9956997730183154,9.875163310786451
4.88,0.0889567769354912,-0.055541608770878,0.0334174843609221,-2.410094047647517,-0.7272651367132955,9.752192141927043
4.89,0.0954035699035424,-0.0805446560876215,0.0371880369365103,-1.6031915705040958,-0.2997997180746354,9.954760968097965
4.9,0.1036508544345607,-0.0827681556737429,0.0434224816143401,-0.0436416072296653,-0.2945630064836076,9.358022805362848
4.91,0.0959994270917824,-0.0934546778381486,0.0437305109679587,-0.6149373947828756,1.9185390380465197,9.3644579827599
4.92,0.0765948955255532,-0.0874469238631423,0.0467804769158251,0.1562851264249769,1.1722297058507496,9.35118487664869
4.93,0.084592933911076,-0.0973878770540129,0.0523096645355113,-0.5213784971454435,0.5804523881572706,9.477103972317114
4.94,0.1080731444252186,-0.0988146530855461,0.0443692343413718,-0.3053549681507928,-2.136353913107202,8.301361950187538
4.95,0.1045256812264481,-0.1031646765300069,0.0320836069166548,0.196614352896699,3.3968312342888622,10.107896698613754
4.96,0.0538358959911726,-0.0868599753626994,0.0213471805781014,1.0085170928483196,3.8555790117549913,10.797549808929602
4.97,0.0794164674234535,-0.0845536175114732,0.0193545861273892,-0.7586450901530619,-1.988480098716692,9.179377035890742
4.98,0.1125398515555086,-0.1136469888642443,0.007146787933249,-1.2102710687084852,-0.6971594157193884,10.873985215246888
4.99,0.1016665807396484,-0.0920138620734286,0.0079499935835488,1.4517367239262344,2.047881397330145,9.466276311420652
5.0,0.0746064483559533,-0.0569511141604817,0.0073417682304866,3.3104955276609527,2.5000060558259904,11.248610414343872
5.01,0.0893638660010239,-0.0487173191733699,0.0098066531225927,-0.1960301086666766,-0.4421547597266249,8.362195500189024
5.0200000000000005,0.1006590418105425,-0.0482526635440002,-0.0092969782546274,1.116339186356523,-0.1175527466918541,11.576764738841389
5.03,0.1121556527888243,-0.0201898982837184,0.0097790207818039,1.6997588382794904,0.8111609555713477,9.771225931545851
5.04,0.1012217901835063,-0.0140208949922038,0.0152613358676322,2.000984504883349,2.1193825288243797,10.591861633417832
5.05,0.0781930260531065,0.0264111245255326,0.0121697202429063,2.745605533264178,2.214779178893963,9.364070590089444
5.0600000000000005,0.0902468968527543,0.0147524805428731,0.0147496719017513,-0.0509928093112446,-0.2982670888847361,9.969296047805145
5.07,0.0734438994076618,0.0123396865002229,0.0135056149318702,-0.2752995735996951,3.539922025729313,9.08092855256238
5.08,0.0474453662399722,-0.0057615438351223,0.0128929341316111,-0.1478395430824437,1.2667374205788535,10.69429803268027
5.09,0.0569014988400772,-0.0047318019377982,0.0105059944197424,-0.2641826322873859,1.8357689717523316,9.466052151678538
5.1000000000000005,0.02306384724671,-0.0132456971855345,0.0063071498751528,0.4805611782017795,2.3491491636042734,10.767251542659022
5.11,0.0598762916892612,0.0052707962063407,0.0160672372311242,0.7195062008731782,-2.1395618943688053,8.111885600303028
5.12,0.0653177535428375,-0.0386618074620528,0.0080385982163138,-2.1392419472047908,1.466637634603349,10.27992469363364
5.13,0.0554002373639485,-0.0092116598235582,0.0090116258814819,2.5412050946243427,0.3977579155147102,9.43132800288639
5.14,0.0279361518543329,-0.0410550815740038,-0.0056959873892478,-2.696683824673147,5.6192993620053375,8.432179000704803
5.15,0.0071086466357079,-0.0054520236019026,-0.003758944001805,4.727998931831744,-0.2208432726491466,10.538831536099876
5.16,0.0318879124517868,0.0015411198474984,-0.0182429024845473,-1.402586885432474,2.259144306111501,7.474810270143349
5.17,0.0127781148989966,0.000446289206922,-0.0240777036070935,2.770538390120039,0.4471330624119668,11.950685049208936
5.18,0.0123739942563471,0.0394864431449869,-0.0097687508806697,1.060802456066192,3.148257111675337,7.792692186000754
5.19,-0.0198505237671615,0.0046564598281638,-0.0128481484845392,-0.5629098055758476,2.69909851505652,11.00213111675676
5.2,-0.0070554611465662,0.0141759553234128,-0.0003734753828607,-0.097826082092153,0.9477733416338264,8.694704769082902
5.21,-0.0174920007566178,-0.0145762810583483,0.0019152241455745,0.1113282027454316,1.4615797694058248,10.445101447714444
5.22,-0.0201398006491949,0.0449078016404057,0.00433059442899,3.581327475028982,2.5921033896765477,8.09835545623241
5.23,-0.0425955493501011,0.0338766657399562,-0.0076852388575784,0.3625324188824525,0.8496536991222942,10.9908980590547
5.24,0.0090325751800463,0.0736754499052591,-0.0007201909449062,2.661682343266422,-1.7047695175968014,7.753675812329432
5.25,0.0148610029106894,0.0559086097143521,-0.0034330216132215,-0.7519443062291045,-0.8974247579901825,10.92237629815919
5.26,-0.0004780133033947,0.0512356654433263,-0.0035262809962145,-0.3905534629602296,3.54904343542031,8.912569280879119
5.2700000000000005,0.0053787271101921,0.0559485010378301,0.0006638752400763,1.4320790319625163,-0.8774016791901025,11.583685444889335
5.28,0.0077326878560994,0.0731090607694918,-0.0022832391679398,0.9776298154758968,0.9764723083378763,9.762672654330236
5.29,0.0383818629027248,0.0737693902005898,0.0008986893679835,-0.2441942291890752,-0.5245688023341469,9.30665400195772
5.3,-0.0271934377102673,0.040388666789479,-0.01562947164179,-2.3870783557885096,5.024477808881447,10.613839107624576
5.3100000000000005,0.0050719252137095,0.0563092722373692,-0.0118816861778609,1.5455764054638408,-1.8506421603938348,9.160410108269067
5.32,0.0087210489418753,0.0314720823220084,-0.0188437340676896,-2.3545382166066773,0.5415244267338148,9.682664461527487
5.33,0.0207788399789483,0.0239117214767163,-0.0122597714781872,-0.0229286164871714,0.2316406584603569,10.516269553793236
5.34,0.0005096963874661,0.0235908531407996,-0.0083132212877385,-0.2570521108442655,2.85677142904252,10.218419382331188
5.3500000000000005,-0.0025681285045537,0.0310711887773047,-0.0028365076415352,0.4537096779282547,1.7992672872969635,9.31243840099085
5.36,-0.0168414010256648,0.0211725889175589,-0.0017386287346593,-0.4275091150272337,1.4095225195053225,10.612642985195455
5.37,-0.0141953486481236,0.0383326837630247,-0.0038078570634238,0.880210529192934,1.1476370784042362,9.64376755167737
5.38,-0.0096208437068218,0.0284074925039793,-0.0072582507401816,-0.8607161623379053,0.7075781109128092,10.162027777938407
5.39,-0.006318756205842,0.0177183358231454,-0.0127336824208609,-0.7633063772771731,0.7287573720223851,10.809736193613286
5.4,0.0038896591597647,0.0108622725228759,-0.0063375461742393,-0.5597173146538711,0.2319988282415966,9.436258748673511
5.41,-0.0228676260340809,0.0169021441347725,-0.0144192142307869,1.173455705464976,3.0906458065264144,10.40171721368557
5.42,-0.0179080477288785,0.0342203743793317,-0.0166841516167036,0.5930329931325988,-0.6175925385933656,8.767172624475844
5.43,0.0100699858390434,0.0374510091925225,-0.0160526050150505,1.6629231672172669,-0.2745659795122279,9.75902664946661
5.44,0.0102406345531609,0.0765271330321133,-0.0295129058778397,1.878769017999131,0.6347314632202077,8.611250991153755
5.45,-0.0053366234744097,0.072297061815445,-0.0356768978655449,0.4564027675209643,2.6450810237755467,10.34605230542242
5.46,0.0066562472615372,0.0772460598447419,-0.0288536338031403,0.0684358100006177,-1.921751763246638,8.313689775708626
5.47,0.0295325376161353,0.05084224266479,-0.0265948040306679,-0.9635884479428932,0.5042205565892809,9.947031604917251
5.48,0.0116995230331657,0.0464922409169805,-0.015059559968125,-0.6682712524383134,2.50292083162245,8.942824187492526
5.49,-0.0189550841301249,0.0316847304075277,-0.0048852003075293,0.2241822085262228,3.1545324955049794,11.425422114528647
5.5,-0.0164969361730793,0.0435224801531991,-0.0002034981863684,0.3275468501035651,1.2055725954261998,9.427359208653272
5.51,-0.0047852120038326,0.0262999558770127,-0.0052133345872275,-0.6645459241928929,-0.3767249659552491,10.483410472198331
5.5200000000000005,0.0077198305527693,0.0339496771104438,0.0016750104058305,0.2963923831688445,1.4496922682196065,9.072820677447003
5.53,-0.0281817465905937,0.019534146349342,-0.0027104019083194,-0.4623322027078601,3.03993549868646,10.036982626923782
5.54,-0.0107190813740873,0.0307645981081966,-0.0031968074746541,0.7719801109329991,-0.3117561551953292,9.007566856338464
5.55,-0.0006159426813684,0.027560091087486,-0.0026978686347715,-0.0226719029296132,-0.2573365090840288,9.375274939462864
5.5600000000000005,0.0012431033301758,0.0339151115816385,0.0028638357633613,0.322488207069653,1.371627963504087,9.075169324501026
5.57,-0.0012211944298271,0.0051719441537493,0.0039744790281988,-2.4474079248617344,-0.001733492487412,8.55956816513622
5.58,0.0089232434388266,-0.0014093038360643,0.0077262549765296,0.6959269880308809,0.6127251085601304,10.277526251794654
5.59,0.0033335039043537,0.0147784927178882,0.0012851576774269,0.4516744712223929,0.9754988575856685,9.7373626700007
5.6000000000000005,-0.0054553758038387,0.026265208316059,-0.0028213811002783,1.4117053479954322,1.6155208984619531,10.734281077110548
5.61,0.0025523909160274,0.0246704402391905,-0.0009780683450512,-1.4683614479186715,0.3379919699870793,9.01656898814935
5.62,-0.0028612143764932,-0.0008023315329195,-0.0032268007181696,-1.142006446644073,1.5397945233436534,10.527511479418052
5.63,-0.01222912898408,-0.003884597439638,0.0065888907864578,-1.1784871482570485,1.4852341435231111,9.241338360949351
5.64,0.0276777755700555,-0.0349402678291317,0.0232649935513623,-2.1420328622167366,-2.5665091346711018,9.62893786404068
5.65,0.0456617160624242,-0.0605843473867411,0.0245769402116425,-2.543497184696177,0.9957288408613968,9.155400444900415
5.66,0.009077762817956,-0.0929836220169296,0.0256723376095183,-2.297011948127265,2.2065445492797875,10.50009750809118
5.67,0.0442167890942279,-0.1004126591477796,0.0269616140156872,-1.5881564270590764,-2.596278357038628,9.446090588309469
5.68,0.0582155471452206,-0.117260254826252,0.0216111211210377,-1.3965422487346777,0.1306055254399128,10.735746413733324
5.69,0.0242376286470727,-0.1073686710671362,0.0179699646413214,1.1561084406415028,4.990065128935738,9.947131399918648
5.7,-0.0209073718409514,-0.076775462685412,0.0240581413835175,0.8029490607024927,3.5250588767814213,9.133682608351572
5.71,-0.0204695811834944,-0.0957764909555821,0.0095704035937674,-0.8308234854815837,1.0747635523210948,10.620956769057043
5.72,-0.0114718718452248,-0.0739592075887856,-0.0145409939706437,0.7801045456149528,0.8913800343647941,9.896513625897253
5.73,-0.0011109231189647,-0.0765418568037852,-0.0048859812215082,0.3128224754329743,-1.1394648832241785,10.217707217273976
5.74,0.0436363867609904,-0.0589073164757279,-0.0001737014519162,1.0087681958707315,-0.9401945377717916,9.78609693905258
5.75,0.0476686735301566,-0.0529234688268002,-0.0051652126841358,1.0185867477982753,-0.8439747488693251,10.635766841140478
5.76,0.0857480701611486,-0.0433754934481941,0.0101420493900664,0.4725528804333321,-1.3669950486115527,9.827243369856662
5.7700000000000005,0.0798559805032229,-0.0493080823124785,0.0204284625232108,0.0514874013956532,1.4133504619168311,10.684316003609869
5.78,0.0311692925365275,-0.0629460671560191,0.0191713260590918,-1.2960265885399005,4.251763705237884,9.378851690905208
5.79,0.0493593632033497,-0.0656332160656449,0.024230480763305,1.2724856371661477,-0.1614248259942416,10.516240604960103
5.8,0.0465521527890545,-0.0560761775186071,0.0355622271180041,0.4433890519957426,0.1229533041769825,8.966345810459227
5.8100000000000005,0.0738652661373194,-0.0434924581174604,0.034107329893101,1.4461107093095993,-0.0909298380403602,9.843806017063232
5.82,0.0420674861582186,-0.0609447191560855,0.0216704761713631,-1.4864636373029347,4.558434608906613,9.312416654630413
5.83,-0.001840592790953,-0.0699280528499226,0.0129633477061875,0.3169454202142605,2.6068307402069086,11.029659425817696
5.84,0.0364220923207966,-0.0583208296402045,0.0060094344533868,0.1335161292623237,-1.3992201768321464,8.21057135090415
5.8500000000000005,0.0843965094601078,-0.0815423254883569,0.0012902023025676,0.3229613069557714,-2.84226157406552,9.955534719855908
5.86,0.0579608608458535,-0.0332627395402614,-0.0041930436983816,2.7498346736367067,3.876005510206804,8.795905770232094
5.87,0.0558081893470983,-0.0468025084201167,-0.0160357033729664,0.284732519698387,0.8306624324056349,11.074488190079558
5.88,0.0358527981777824,0.0100937070167802,-0.0076246209338418,3.6845794103874288,2.005196438241237,9.105090248361076
5.89,0.0514341610239032,0.0013326076125737,-0.0025933388516418,0.3621544893225772,1.105492087542444,10.215149366810174
5.9,-0.0064700325214257,-0.0009857432042332,-0.0144638301700465,-0.7115862232024254,4.510849461250091,8.549641768482354
5.91,0.0393000057136271,-0.0161962628317566,-0.0058142304316274,0.4779286325078912,-1.7995328496139158,10.832736717189624
5.92,0.0144051321006474,-0.0158448198132008,-0.0143848577410094,0.3281089198910437,2.834453986857475,9.0119438662522
5.93,0.0291377137163867,0.0055444256868315,-0.0152339016914479,1.9785605876332983,-0.2948316710412927,10.145979573878748
5.94,0.0288159429141304,-0.0054169338353372,-0.0161739414453617,-0.5222955014069907,1.9080038794474763,9.501445057665764
5.95,0.006553740398556,0.0363254182993266,-0.011582053628575,3.677795383497291,1.3638973699495265,9.792054777068344
5.96,0.0536294003061821,0.0152901942222231,-0.0094973727956525,-1.408329703246112,-1.0442062240183962,8.726347028225346
5.97,0.0275900276255281,0.0474099412936654,-0.0027168284997455,3.642944114953566,1.9247806968888503,9.249063448466869
5.98,0.0373425930788111,0.0370850345381067,0.0089708022877462,-1.3318309153443113,1.7060803835050686,9.337252009866306
5.99,-0.0318280625594695,0.0061831097510038,-0.0050716576062254,-1.2884514701686622,6.531032235995297,10.318227043006727
6.0,-0.0038841794415874,0.0280207946540741,-0.0091302091151587,1.9724419373514397,-1.6203393967527104,10.367346893458556
6.01,0.0101995532303217,0.0192263287400115,-0.0099670620530955,-0.2999901627827196,0.6933359928796012,9.204862160669355
6.0200000000000005,0.0049342483847959,0.0474892596602007,-0.0138672118902317,2.451800456731438,1.440385397351738,9.730537021589766
6.03,0.0027660232990165,0.0542307888251912,-0.0191854568094126,0.6117283302356747,0.6895545174626418,10.45520119763716
6.04,0.0004669189785736,0.0567635740706318,-0.0138686917618028,0.3115726667768797,1.3866084714436198,8.304603515776837
6.05,-0.0005958833417167,0.064788237708787,-0.0106585578888766,1.2465500864445098,0.7873387480808998,10.576272379452398
6.0600000000000005,-0.0008828690903992,0.0367162485731509,-0.0066801061749569,-2.0093289264561967,1.7039705755696248,8.504276372198206
6.07,-0.001124512673738,0.060615479038055,0.0029061421390511,2.634831775109727,-0.3707293705429478,10.7998344976319
6.08,0.0268729560388927,0.0360924366835687,0.0058307355373986,-1.8609315485627296,-0.2755999413418796,9.176376973826468
6.09,0.0174243620645742,0.0608455053304457,-0.0102447852388135,2.8968854822976,2.276094002230664,9.572942803610072
6.1000000000000005,0.0119754764158347,0.0585344660564861,-0.0070188095688931,-1.450179763373358,0.7636318901527986,8.485559680035006
6.11,0.0167425536114884,0.0370682011665478,-0.0106906736165396,0.3253029492996154,1.1856404298787326,10.568882981510043
6.12,0.03889859501178,0.0608266750924378,-0.0130277540430538,0.3420861383584686,-1.302015524820875,8.617704599336852
6.13,0.0453388577227263,0.0118912462251951,-0.0032429056137911,-2.696832350209488,1.3926259387522464,10.016545572338766
6.140000000000001,0.0088669005382047,0.024116137524186,-0.0058330496668927,0.5677486101203479,3.704533826121077,10.691610382664193
6.15,-0.0033195264018869,0.0104426897788212,-0.0080184195086471,-0.6979362894928541,1.8593071886116983,10.589040423104676
6.16,-0.0134521771026041,0.0427651069127385,-0.0132154984295479,2.3556068307869613,2.116983061170928,9.60080040666212
6.17,-0.0283237815165581,0.0479064896021381,-0.022351551231753,-0.1551742297566254,2.826414152789585,10.188668746861996
6.18,-0.0467729184191633,0.0520861418547797,-0.0289542147785536,0.1997228318195169,2.4478850966254893,9.98860010128216
6.19,-0.0482462831251204,0.0413138351982634,-0.0379678321898095,-1.3186115823603335,1.5736337569376984,9.859645135524053
6.2,-0.053831963837069,0.0269227501443121,-0.0411071417749039,-0.6816691473386858,1.722299427609388,10.62030166562674
6.21,-0.0594966658357556,0.0239242508139194,-0.0417652813613526,-1.3024930875191263,0.044941153212806,9.195197899479268
6.22,-0.0017406157497751,-0.0377814199131551,-0.0208561489254347,-3.513416094700532,-1.4385563298137156,9.329543327009748
6.23,-0.0393562489573864,-0.0322146917767341,-0.0164406107634417,0.4996170502138533,3.173343046611289,10.456724952152632
6.24,-0.0378837921637242,-0.0358799749170752,-0.0184997649759165,-0.1245926486515294,1.822310733719396,10.430387300454704
6.25,-0.0583837119387149,-0.0045558238609039,-0.0119999725267402,2.3405913134050973,2.4220534892529315,9.7967608869239
6.26,-0.0624899472815426,0.0054912275430127,-0.0261662838876358,0.0324836849690891,1.14342363955111,9.958190176811913
6.2700000000000005,-0.0537686171294645,-0.0116869127122721,-0.025739251998078,-0.8638209598558172,0.7540520417307218,9.716167266044492
6.28,-0.0777411197483937,-0.0051281096196919,-0.0232764756202809,-0.1516111568196483,3.1278572963330435,9.97010450430156
6.29,-0.0617704608827849,-0.0403584556394521,-0.0200447006046883,-2.336229545786758,-0.4197624277794909,10.127603062268122
6.3,-0.0662174236087827,-0.0425103553037491,-0.0263538690179697,-0.1258226329165161,1.5142093482284626,10.788851231928357
6.3100000000000005,-0.0345685748067427,-0.0680046307544276,-0.0133527520939819,-2.514051499929183,-2.277485482407456,9.181462307983802
6.32,-0.024074037097589,-0.0771514720888483,-0.0124528122961632,0.4839994176113728,1.4041158643296194,10.481175912772963
6.33,-0.0295339594864274,-0.0690705719606294,-0.0228738928109518,-0.3776534447753439,0.6759500350114958,9.355601217531998
6.34,-0.0498059795688635,-0.0557972078045317,-0.0177082525462023,2.1343435637058774,2.351360083329634,10.706500499089476
6.3500000000000005,-0.0330730591274666,-0.0194775685718224,-0.0190927529603354,1.6231604320937545,-0.4658252717461865,8.423852287396011
6.36,-0.0070757278366152,-0.048404017400069,-0.010687695246946,-0.9700475821381424,-1.5514692941637176,9.686641392128791
6.37,-0.0051343632651752,-0.0167594173927659,-0.0071450112283341,2.6240668527436557,0.8276131953201512,8.700269395231219
6.38,0.0307787056858021,-0.0217293650605364,-0.0044733596861473,0.1391686567872088,-1.3109089770880735,9.247532492778063
6.390000000000001,0.0120544913718059,4.1263480923530045e-05,-0.0107239087939373,3.3564376894432946,3.7552236392836407,9.679978759775144
6.4,0.0127407657633668,-0.0271646338230465,-0.0089572764828912,-1.3364307718536674,0.9757565507957404,9.436750150974497
6.41,-0.0201989329549637,0.0051888094065388,-0.0115762580081931,2.1634885945427724,3.6215233860471536,9.029508654011952
6.42,-0.0064770682661368,-0.0288618767878609,-0.0063602033898345,-1.7044606535659588,-0.3982740029121272,10.042843033362022
6.43,-0.0206837630792013,-0.0157351695978321,-0.0088370026916376,1.44527119592503,2.356500685941809,9.591380293526846
6.44,-0.0243371976074883,-0.0222441154667855,-0.007329482947301,-0.3346595666347778,1.3289583547082775,10.565630865830936
6.45,-0.0253099225195052,0.000716596482282,-0.000937401912,2.930586027486874,0.8519740366700431,9.34653328785976
6.46,-0.0370373999120052,0.0221137578592493,-0.0052131213143579,0.7352585332082264,1.0429139425289715,8.588264485679606
6.47,-0.0069176330439608,-0.0147080323486549,-0.0156593540579192,-1.6840446935271294,-0.6306448028309645,9.793330406302596
6.48,-0.0129995439724127,0.001307892091159,-0.0029826507799438,1.827477329451019,0.5741912405634993,9.555015940856643
6.49,0.0096962067188503,0.018595054611518,0.002100042694889,1.4812336548330125,-0.0227956812867025,8.870324776143066
6.5,0.0147249587765935,0.0131877383070109,0.0059820265613384,0.1708424347286279,0.8648560572519948,9.988338305580326
6.51,-0.0111970014117908,0.0247044529072714,0.0129843453049548,1.4279975189234675,2.461847476377656,10.15079620008533
6.5200000000000005,0.0226615667159877,0.0286705836633264,0.0248617125779278,0.8829289956992297,-1.3544349514981335,9.277654007777569
6.53,0.0377733671548178,0.0454583706850866,0.0174229504644759,3.4371954396365614,-3.613779500584085,6.918760176453301
6.54,0.0806592492708682,0.0323718712189195,0.0277399873465188,-1.0217197036656496,-2.1946093340971804,9.093765979100969
6.55,0.0637837527453982,0.0233941692542378,0.0275940323352702,-0.0789480615274137,2.336515475721142,10.51551206994807
6.5600000000000005,0.0632206792008634,0.016239619219335,0.0189194033026583,-0.3142114064716396,0.5135444445194883,9.614562461403365
6.57,0.0526239637046871,0.0375170783780584,0.0147384215250499,1.684606836812701,2.030647418711601,9.377269897211557
6.58,0.0539526186836501,0.0275423936121789,0.0181632606416829,-0.5297169328114217,0.9704574766282988,9.945226744671016
6.59,0.0276929131045891,0.0240910063809282,0.0052106160309054,-0.4954126251398762,3.2904037141876503,9.236080639238976
6.6000000000000005,0.0343606728450459,0.0260193293278207,0.0024013561650067,0.6731961633831253,0.7282537316569994,10.949994857726836
6.61,0.0137555165461632,0.0281630674582517,0.0005764321993924,-0.1456057095121915,2.524758299705462,9.152611324742743
6.62,0.0269624645045674,0.0469783125932278,-0.0058595392748824,1.7671837534113553,-0.0035358944007903,10.293760101749324
6.63,0.0268942650410486,0.0549159076605046,-0.0145572846651188,-0.0659895834470696,1.1703317812295302,9.785904150730277
6.640000000000001,0.0307317171804407,0.0602296719252733,-0.0111078809842578,0.6554725173524651,0.0743580874906767,10.226491941856054
6.65,0.0523239737562022,0.0486618497540216,-0.0077520221367589,-1.192781676785827,-0.1444411008411662,10.250259628452635
6.66,0.0477821241315245,0.052136535172493,-0.0013751784701011,0.7989411123988402,0.8248043791456106,10.278126406132175
6.67,0.0872457200353115,0.0375899400706881,0.0252854606240876,-1.5706086405546975,-1.456675103212869,9.217188623636934
6.68,0.0607199202194769,0.0223850693891933,0.0223341589897759,-0.3975380467933463,3.2484437470892678,10.55593752607853
6.69,0.0716175398460646,0.0259034897075936,0.0311362320661433,0.2179696215015047,-0.048122866600855,9.868617951019754
6.7,0.0721979971755588,0.0465011409861543,0.0318118246376402,1.673068632668609,0.9987636096327472,9.646950878735092
6.71,0.0858533199884581,0.0509849627020562,0.0241351356834061,-0.2771762371216517,-0.2150562860418539,9.895700823591472
6.72,0.0850940913780941,0.0395830689789608,0.0190601782977469,-0.803540611804547,0.9426317837487282,10.58723579456503
6.73,0.0821500210706997,0.0407840202530282,0.0127659548178203,-0.2713862851005769,1.2888689460127805,10.41477392664352
6.74,0.0731718645373966,0.0345270472721389,0.0100559411674626,-0.484880587290119,1.6241824681929566,10.500863453539282
6.75,0.0612932782562763,0.0313332424219744,-0.0001111867733411,-0.1890596964497898,2.1420543464041337,10.10693335930378
6.76,0.0555795185329083,0.0449462873768157,-0.005213332258921,0.8831917457466864,1.387716434733293,9.53073743383407
6.7700000000000005,0.0704933927454095,0.0384534737874243,-0.0021060913696996,-0.7827975841397591,-0.0707001608315971,9.667928630117594
6.78,0.05594225295913,0.0003297989008669,-0.0174056490779034,-2.788292388700059,4.280729752276975,8.574125257348904
6.79,-0.0076688213319161,-0.0472488288040806,-0.0281414234906546,-5.082134174624426,5.163567324214911,12.063237365193103
6.8,0.0365358928519038,-0.0317841560307122,-0.0109486220300309,1.722147661706129,-0.3706140710345203,8.820846869745429
6.8100000000000005,0.0388539390605865,-0.0342985606435563,-0.008094881092023,-0.0607673651544962,-0.4523298556709126,10.01991989761748
6.82,0.0875386607004142,-0.0096656916197017,-0.0022910590179376,1.5232243848092313,-2.280633103822865,8.461600037172651
6.83,0.0825305309980405,-0.0214857576596738,-0.0007529225096218,-0.9522620780515704,2.592408431969453,10.401148397902524
6.84,0.0580098801434839,-0.0143351037851129,0.0039232397556193,0.4686401024241764,2.236516768326088,9.968420715481216
6.8500000000000005,0.0564116999640402,-0.0210382407895561,-0.0051565257728211,-0.4935391202845837,1.4533047629278164,10.016927051563917
6.86,0.0525506041129112,-0.0266179796685057,-0.0076087428152672,-0.1138866142765342,1.594009201557726,9.372479140750045
6.87,0.038232132903695,-0.0247252069764252,-0.0193914057582728,0.2276598830071429,2.371013330361356,10.250050622778966
6.88,0.0184962711242125,-0.0176268146097876,-0.0280864307552687,0.7578051043543964,3.6233646971071103,9.138360425875062
6.890000000000001,-0.0096334194855436,-0.0301550153825095,-0.0413798851788155,-1.375795923519231,2.8655028482450806,9.722618188894698
6.9,-0.0111885665192037,-0.0391353831166701,-0.0400557940721623,-0.4129150256932962,2.143862402966766,9.766103775495637
6.91,-0.0151928983568245,-0.0526226210036381,-0.0366872748255841,-0.5978448374985748,1.1940132625185225,9.992887345806048
6.92,-0.0268591967023217,-0.058776906040095,-0.0381714416563622,-0.7255500020219516,1.6764211613209223,8.881129079642614
6.93,-0.0060353684895576,-0.0658972402735418,-0.031265017938625,0.3296109615363896,0.2097745674696428,9.792028979477667
6.94,-0.0463155034531552,-0.0579700784169539,-0.029577614170324,0.5946827785455342,4.772696807950173,8.568290383897251
6.95,-0.0724368509516,-0.0273277705195434,-0.0308406775713078,2.863678672341083,2.491336437131711,10.221915401950756
6.96,-0.0641841019415935,-0.0195275234516389,-0.0435777319491021,0.1818285441349797,1.4235103208987945,8.963205312287354
6.97,-0.0603747064864573,0.015841419068133,-0.0601716501534096,1.1119887516745723,0.204800639142153,9.953975096629865
6.98,-0.0480575568510917,0.0134843553414995,-0.0684264724969975,0.1095162137416889,0.2649339285553216,9.819226107961226
6.99,-0.0392986499090942,0.0272717049870563,-0.0677402442216984,1.4098116701027903,0.8266573337719636,9.788892319464743
7.0,-0.0775391662737968,0.0152658217575187,-0.0805421745300404,-1.335267015239072,3.720550520445837,9.854059279399335
7.01,-0.0643187328044885,0.0193555159190498,-0.075152640593063,1.0775765067196177,0.0422121559383256,9.708174904565515
7.0200000000000005,-0.0610494518302044,-0.0016030021350665,-0.0738327180862538,-1.3619430616512562,1.0608878448471284,10.305832013430043
7.03,-0.0723317196631247,0.0106252982618126,-0.0654837837338559,1.0573601892852067,2.262271866952887,9.58463019298321
7.04,-0.0835075811426761,0.0014614724024174,-0.0536400129914395,-0.55433492276487,2.600352445755911,10.741817249597384
7.05,-0.0944557656710414,0.0139646503131903,-0.0506744397699944,1.1212094206227958,2.229335600174404,9.736746056894404
7.0600000000000005,-0.1072938794284784,0.0208725878219832,-0.0526182180166356,0.135077258486002,2.2889499383791807,9.90037461943176
7.07,-0.0941347905036519,0.0208219532048126,-0.0432990988612286,0.1137601607722932,-0.2118173111110622,9.176067839024268
7.08,-0.0850127071868188,0.0143714379562393,-0.0418704053282849,-0.2558368769451519,1.335233142716443,9.578768477303758
7.09,-0.0904982635841775,0.008521425886806,-0.0438784485578648,-0.878404135860891,0.3924564987596747,9.218927311238971
7.1000000000000005,-0.0712438898729582,-0.0119570063095366,-0.0394529973983876,-1.3630799143869905,-0.1684192115432176,9.603088147511498
7.11,-0.0592229027526255,-0.0149882459206047,-0.0470591908216588,-0.0104992506859507,-0.8056206130644139,10.74170305529087
7.12,-0.0095271721381287,-0.0333911449805356,-0.0371931096434704,-2.0213432566428686,-3.018416747582519,6.646083021748239
7.13,-0.0147453108628942,-0.031358275362038,-0.0371599880874268,1.6770037796000754,2.2256497283289,11.37953902394789
7.140000000000001,-0.0363972341080076,-0.0174746387422637,-0.032802467596542,-0.4721722261148052,2.751121428393376,8.803139301005167
7.15,-0.0088613608043893,-0.0226782011051958,-0.0322154139995686,-0.9167192633566226,0.3791690472140379,9.40081856230615
7.16,-0.0168710421708528,-0.0416725183292768,-0.0263148205250613,-0.0876076973392005,1.055448649168506,11.027199749806432
7.17,-0.0181684786471977,-0.0178739237954919,-0.0144702730596177,0.9867715307698708,1.0879358793443066,9.24813111156488
7.18,-0.0175695999573659,-0.0512497572526031,-0.0049731194868795,-1.2735127262198518,1.5212710681869557,10.497297703347373
7.19,-0.0372830332243379,-0.0372836180038893,-0.0066931595921627,0.591407762793491,2.031399168689356,9.35782844146078
7.2,-0.0302417536648907,-0.0584670863471798,-0.0046445800818614,-1.194122411745448,0.6804649757888338,9.980668725744923
7.21,-0.0536899788455366,-0.0458059709041111,-0.0066261919111124,1.684306046833475,2.9067986637050685,9.675143659258746
7.22,-0.042630572707213,-0.0201570459057914,-0.0187535187125317,1.9177549007512675,0.3346220733767008,9.50879325121574
7.23,-0.039139375201799,-0.0063912037666129,-0.0208071669459454,0.8816510198811927,-0.1795525120805396,9.249592695922065
7.24,-0.0351004608410497,0.0008834041357669,-0.0245238890767208,0.701126487959215,1.1299590021632144,9.874294880129604
7.25,-0.0061178905846963,-0.0124011041622651,-0.0277412360429875,-0.5411845064445658,-2.033281842665913,9.312645475066509
7.26,-0.0034046033229369,0.0127760549338342,-0.0236108912050835,2.349514878513057,0.8273387627016034,10.132664134218336
7.2700000000000005,0.0042403659764976,0.019609393841391,-0.0204657720297686,0.6226736847661632,0.5076762971151074,9.941720737012936
7.28,0.022308924464925,0.0289281492987952,-0.0144061384618393,1.017865064273479,-0.800376014910126,9.235466830159991
7.29,0.0297964436253432,0.0154227569018936,-0.0070842042461149,-0.5177405641235738,-0.081031030515765,10.046814607227835
7.3,0.0443618596697152,0.015987551424427,0.0067395755194016,0.3160250860271417,0.0433199285909447,9.345519687387084
7.3100000000000005,0.0458295308890055,0.0005548187154268,0.0087173502996452,-0.8117752130242497,0.7364631265387176,10.463090860087116
7.32,0.0408916035957464,-0.0067949139140785,0.0012006878840625,-0.2444609146936104,1.1598877902738929,9.796556634845652
7.33,0.0442698614019825,-0.0112517733447931,-0.0036128842167667,-0.142194355758419,0.4107082163110381,9.855857881252078
7.34,0.0525069457628577,-0.0119488138377621,-0.0092490542575828,0.4406880026524912,0.711513511044116,9.84735525174861
7.3500000000000005,0.0374749303173169,-0.0064446558198427,-0.0148815488338581,0.7057428041301574,3.3546657174993544,10.16115540119517
7.36,0.0281061476100892,0.0082372374001988,-0.0170359307795874,1.54384715444555,2.851813908884027,9.869474904494508
7.37,-0.0115290922811282,0.0278125380905073,-0.018191687193524,1.0715536741052514,3.641082997731904,9.7476788625542
7.38,-0.0178139876321088,0.0327253001481513,-0.0304241044342629,0.4785902627949827,2.7494980285986856,9.833154303277292
7.390000000000001,-0.0257378713224132,0.0233638723331515,-0.0376858314395062,-2.2181970799056776,-0.7643908646991736,8.703298380009743
7.4,0.0159053402868324,-0.036999080751798,-0.034606424522411,-3.2644917291183377,-0.0393891735353754,10.584055105359829
7.41,0.0205438171216232,-0.0343939058822342,-0.034714353632938,-0.3941849550544437,-0.3677950957627469,9.538721740865563
7.42,0.012677118371965,-0.0447599679705363,-0.0240315360844246,0.3070474566426164,2.7572436314380213,10.65949829347079
7.43,0.0117767476987439,-0.0076806724221674,-0.0166173608869425,1.954798439632772,0.7961099240635771,8.724206022002868
7.44,-0.0218060040084453,-0.0083570246607675,-0.0307630611479393,0.6002260394801147,3.901228733138397,10.710510824426386
7.45,-0.0147015926626165,0.0103857073374034,-0.0239361742407195,0.8687070837097688,-0.240889575242799,9.08018488972627
7.46,-0.0312390156227713,-0.0016547670223662,-0.0357148138702027,0.0738504845924775,3.275513770487112,10.569965332021454
7.47,-0.0457272072868757,0.0339135750566785,-0.0381068525731675,2.804925371149803,1.3238465127895929,9.348202665642564
7.48,-0.0318573592071763,0.0191815062040557,-0.0436857392907254,-1.0910911897364763,0.192365082912991,9.758005747393597
7.49,-0.0166568230269831,0.0256941064904179,-0.0497246658325306,0.8733420763158296,0.6229153014685698,9.650391661879524
7.5,-0.039722658843951,0.035739523403633,-0.0534562630474678,1.1052961146648013,2.828829200591272,10.197009016575498
7.51,-0.059466728799128,0.0601972870456121,-0.0548822445690743,1.6569875572147177,2.926397609183464,9.635046833027404
7.5200000000000005,-0.069400752936916,0.0676368516753565,-0.0665877511620633,1.2089114210289618,1.3574585365729577,10.43215475118925
7.53,-0.0311895884779179,0.0692431492372031,-0.0608392706036679,-1.176822127758199,-3.5864053099155115,7.072920091765365
7.54,0.0101542293932943,0.0175063937539023,-0.0546893453121296,-2.449830084674092,-0.1090192807240972,10.64034977908196
7.55,-0.0305064650788756,0.0256655004878502,-0.0373772432923428,0.4428069047564252,4.477140387709731,10.548055081929448
7.5600000000000005,-0.0645483746807063,0.019386062690122,-0.0268106492132059,-0.0074701770455915,1.366483283210197,9.699505753511438
7.57,0.0066098762376506,0.0003870030046368,-0.0093095483154169,-1.103180267101999,-1.842029831142744,7.892469997657959
7.58,-0.0388978520433423,-0.011135119573932,-0.0152411864966265,-0.9187986858859004,2.750728547296582,10.5504035874636
7.59,-0.0090807177039881,-0.003839173954602,-0.0115769378736726,0.8653888286577228,-0.3592443766091974,9.425741197451677
7.6000000000000005,0.021443015386332,-0.0325635715149424,0.0104760859265812,-2.4796085728781105,-1.5642311640285878,8.231284138374079
7.61,0.0016632349452419,-0.0572965490002595,-0.003449568887066,-1.2368263454776185,2.4007165603229685,10.77619946359408
7.62,0.0228637823168733,-0.07428494526671,0.002681400846865,-1.4993904966404037,-0.7524143238987278,9.143763893115748
7.63,0.018039134951202,-0.0708937071013536,0.0086671860061474,1.0251272622752383,1.510873227575582,10.55600605326604
7.640000000000001,0.0163397708629275,-0.0602608874580233,0.0098873177647479,0.362350331643181,1.4233698995247233,10.01615997381978
7.65,-0.0017440789875054,-0.0778142313853652,0.00858427780791,-0.8714351676174371,2.1720170533648,10.676650950989002
7.66,-0.0042276176490333,-0.0577143857414622,0.016591757173825,1.2207010469123434,0.2594538960663169,9.73373574678437
7.67,0.0273793398002027,-0.0725050193819838,0.0180253354936726,-1.0902859865917336,-0.4187560256508785,10.087894930530988
7.68,0.0208681968161665,-0.0659966937381296,-0.002991455037903,0.344191968336509,0.9815565002587392,10.4845712079233
7.69,0.0222803965035321,-0.0596330149924251,0.0027511753013246,0.684597367894138,-0.105416369212337,9.713623988801126
7.7,0.0449350484054627,-0.0572658048377829,0.0060792929597087,0.1204164178527021,0.230681108852198,8.822441977753819
7.71,0.0261810552020251,-0.0450277693332168,0.0059155007928498,1.2142003171288118,1.5154699814050814,10.68073636641953
7.72,0.0369854430588722,-0.0503359962160677,0.0104068616509326,-0.7781511654689199,0.4298978012282404,9.502256469345486
7.73,0.0462596130029156,-0.0391583162967469,0.0091004400618262,1.5409094665741214,-0.0139936779209927,10.27130693584762
7.74,0.0576147230606235,-0.0337481737243376,0.0176969008624442,-0.2399696922790818,0.0844086570115036,8.631718333512678
7.75,0.0663231990701547,-0.0600407652545125,0.0170134153321273,-1.3620894048362782,0.0980815887866189,9.794680919082142
7.76,0.0535805015828866,-0.0757491338124364,0.0177647272229083,-1.1091644760555033,2.0156992224054044,9.347701409588144
7.7700000000000005,0.0544226894420855,-0.0856913576895392,0.0206654822558053,0.1395488464261245,0.6971357052997974,10.16675182391789
7.78,0.0445141133961776,-0.074279054011005,0.0181816710263379,0.7693539297595494,2.2426223492243964,9.450756284380342
7.79,0.0306686158892032,-0.0652426093707814,0.0146672936260588,1.6137405083614114,1.5106125045389942,10.55722206310776
7.8,0.0450605045216383,-0.0276017239147597,0.0102222260191925,2.4960009632681155,0.9010198656611088,9.0079325444064
7.8100000000000005,0.0227058411712924,-0.0188273294607408,-0.0023662898585311,1.2423671283456224,2.581017037900287,10.465892318820504
7.82,0.0264858300120065,8.54024608217286e-05,-0.0127389741957299,1.3109031711034116,1.1940564954346893,9.11873357908543
7.83,0.00795932344073,0.0060371439038342,-0.0125892361521832,1.093503207300203,2.015687321484225,10.40884739949992
7.84,0.0171823295823621,0.0125520594286881,-0.0146426552802435,0.6611513901484376,1.044298894074131,9.683106218623294
7.8500000000000005,0.0071019799058806,0.0195882976653996,-0.0191704438895098,1.2988445592159368,1.4012725570608895,10.588726364855408
7.86,0.014226431873201,0.0399267103186508,-0.0126774901419989,1.5731168646341611,0.2676230711814838,9.1651069809235
7.87,0.0153616607728031,0.0393127594128619,-0.009593368870031,0.6445998241558392,2.2905761362448467,9.90846862796307
7.88,0.0033549266933106,0.031960263650846,-0.0046861017018668,-0.4697354342418095,0.8137785868592116,9.374936142816832
7.890000000000001,0.0152453917438982,0.03261601707631,-0.0030310162238888,1.614206802986515,1.212064215674439,9.87107002806528
7.9,-0.0146612374736917,0.0573962819344869,0.0007357024459056,1.6368162725929072,3.584066808068504,9.139508876287634
7.91,-0.0489804427946615,0.0742846193448864,0.0019523088575229,2.389699143609743,2.6126644606994898,9.706695046296808
7.92,-0.00927086606029,0.076617538755622,0.0094348835863061,-0.1051037525651033,-1.2931182435879467,7.697727079324903
7.930000000000001,-0.0009174126535968,0.0553330626478595,0.0104744803264625,-0.4168695402800613,-0.059214497838831,10.266875641814751
7.94,0.0011863954038185,0.0736348532227855,0.0132061630591638,1.4719514512007523,1.9776994561209469,9.375994568463906
7.95,-0.017231615710733,0.0800745795774622,0.0062977379292138,0.6757133206097188,1.6649383898838408,10.24388560090289
7.96,0.0366244957455203,0.0423988351430895,0.0101459432497509,-2.768507344570849,-2.600431668768902,8.31560910079349
7.97,0.0179209623251091,0.0515555676916873,0.0037649102613218,2.119041939077972,1.881878630344667,10.487668336220572
7.98,0.0336553468294871,0.0618328695392067,0.006978588747967,0.2428385507219071,0.6163341329798055,8.829753794420778
7.99,-0.0195189337258814,0.0734123984485165,0.0071340283483155,1.924302839102504,5.015901454351877,10.640465888593456
8.0,-0.0281444611195628,0.0823678914810525,-0.0052848103352002,-0.5483652297698302,1.7052196970136615,9.47314541126181
8.01,-0.0355448801477523,0.0709353731498697,-0.0117851797387115,0.2758213574786901,1.4955725391474275,10.032783415774404
8.02,-0.0348499014916835,0.0752698843667844,-0.0119481732964627,-0.8132014324358356,0.9780093595337078,9.441266733170972
8.03,-0.0278900744493465,0.0382838759222524,-0.0207544987917057,-1.5494936224571914,0.533010330400633,10.03462327885774
8.040000000000001,-0.0310651971453956,0.0593542062825018,-0.0190120687604062,1.392328490502625,1.532565018850096,9.68222674360601
8.05,-0.030932394857058,0.0602767896784832,-0.0219932248711697,0.0512913606784795,0.8958459969281916,9.462583916095175
8.06,-0.0096513369252201,0.0473049420208457,-0.0111828924983851,-1.4170829592974252,0.0312511675693202,8.75514419467327
8.07,-0.0323200548484465,0.0281879567916496,-0.017049805623304,-0.9367286451879814,2.664364429792393,9.865676643689596
8.08,-0.0364527162335692,0.0125255681249968,-0.0115010052815191,-1.707697239056114,1.8432307550147824,9.990293107070682
8.09,-0.051944713105963,0.0086575981455561,-0.0045942341804615,0.8977810156530024,1.894852487343323,10.411021682791558
8.1,-0.0400762198647121,0.0460071787619548,-0.0178489996016137,1.7292374921060325,0.8399881087384521,9.026780362634929
8.11,-0.0570510919368655,0.0369174328399092,-0.0205675544113032,-0.0077484295232271,1.617322515070403,10.734709452528756
8.120000000000001,-0.0451613141892896,0.053888236686752,-0.0171123942256085,0.4796634892982934,0.4176928742378361,9.044370711083204
8.13,-0.0415811504345193,0.0386000236058361,-0.0187278123468272,-0.6140242060081663,0.4273244030475194,10.719612117307545
8.14,-0.026826732140471,0.0491251552406137,-0.0076431682229153,0.690264694093594,-0.1195095062220382,9.647097788376874
8.15,-0.0175985299727943,0.0496067778076831,-0.0097196627304069,-0.3077836172096448,0.9227481698558552,8.650381581924705
8.16,-0.0340616813515969,0.0384425867143768,-0.0048634963005892,-0.3748953695743716,2.372282935275546,10.841906557079351
8.17,-0.0314298824535027,0.0298266156359083,-0.0090829389065615,-0.6921697627832996,1.0275147976871817,10.11224652294396
8.18,-0.0635927285201889,0.0428125905208781,-0.0026653496444336,1.113138524792196,3.4857647870339177,10.642144179125888
8.19,-0.042879533464969,0.0232148077836921,0.0051431875780113,-1.6541880984340769,-1.0544114687049893,9.54063685436301
8.2,-0.0401626357317147,0.0264690739984247,-0.0023133669875673,0.9277761753190524,0.8274598986887267,10.662314179973178
8.21,0.0077195775077834,0.0429712796808147,-0.0084542142123095,1.0382958900199235,-3.907262394520023,8.678290337439817
8.22,0.0232325244317919,0.0444012101969469,-0.0085698826134316,-0.3570069216015814,1.0257267771061152,9.168400585352948
8.23,0.0083725184002346,0.0061391052644308,-0.0230568343669287,-3.0679650749946394,0.7489331903713567,10.291517220557218
8.24,0.0140925542287436,-0.0088485308157,-0.0189157383412234,-0.6441625831350027,1.0478754072705896,9.039166554553937
8.25,-0.0083508877427761,-0.0283906381253875,-0.0205836830556504,-1.6344580164789655,3.2248206505873718,10.561427885243363
8.26,-0.0184632014623628,-0.0241165295038158,-0.0204261777818314,0.1884810494696989,1.6057733660043352,9.578303570777898
8.27,-0.0288605783756806,-0.0099193220984759,-0.0215808836639038,0.9556869132802924,1.9459513137315287,10.510773369488271
8.28,-0.0247263223661122,-0.0062652572274527,-0.0141482664167992,-0.1309730062590151,1.2861399173117876,9.398284409104717
8.290000000000001,-0.0300804643900564,0.0071496595828032,-0.010527087737631,1.5994959743963642,0.5767707277451701,10.867385408069069
8.3,-0.0204451926287911,0.0182838644599117,-0.0115460328653566,0.6734031074435931,1.0888054330052566,8.612148947707377
8.31,-0.0224924645740683,0.0468921495059797,-0.0071212010353915,2.5665785188190995,0.362685273193789,9.42513591420902
8.32,-0.0165947025070226,0.0473135327418814,-0.0041783288017026,-1.085523863602725,0.4320761700601171,9.105912678518324
8.33,0.0215998566572152,0.0218249929814413,0.0014747394178416,-0.3384063351145986,-2.1354289646777795,10.811075644629272
8.34,0.0227835462444109,0.0242760061708659,-0.0012411543995253,-1.345499630771477,1.2760018452001032,8.762182092073967
8.35,0.0112643166155057,-0.0228824631089686,-0.0031774368964247,-0.971916764264659,1.1941834563704776,10.905221935753726
8.36,0.0259360009578167,-0.0067754656752391,-0.0016366947803757,5.15101617712843,-4.3132698336082615,5.507544704764781
8.370000000000001,0.0286943941932995,-0.0208787135903034,-0.0164713481336943,-1.2760889253793064,1.2159456957963837,10.458729533232455
8.38,0.020542390466133,0.0013554811101365,-0.0180715223670117,1.3107826581289004,1.4229824812873075,8.954877293751117
8.39,-0.0038665734674711,-0.0065567458869622,-0.0161976827204338,-0.407594371112721,3.3044444450702266,10.894126924434184
8.4,-0.0118048638566774,0.0135894358098221,-0.0204293815314881,1.28272196374116,1.1608868279766908,10.210246527006529
8.41,-0.0054096398319076,0.0104274962239707,-0.0241752819985262,-0.6844006156752527,0.0635409595349393,10.019617671784312
8.42,-0.0013429984804032,-0.0063956012929075,-0.0224821282446495,-0.6098298158167763,1.4530400613851149,9.981834181260911
8.43,-0.0185521155805014,0.0126674104191563,-0.022708987247955,1.2233530766621523,1.7231105919027396,9.98395813450235
8.44,-0.0004503983244308,0.0066688581793429,-0.0159463709116093,-0.3734955140491693,-0.0789380695428188,8.38587951598247
8.45,-0.0052068840004566,0.0181781513551389,-0.0117881310999504,0.6616564776766388,0.7990783825236643,9.810166813711229
8.46,-0.0066144719444984,-0.004442913567339,-0.0061970366060845,-1.8396998111895664,2.0886156529786124,10.567819556729544
8.47,-0.0198541144477035,0.033247595335499,0.0007550372846313,3.3244154113581423,0.7943864666069879,10.348472688597075
8.48,-0.0154921586257976,0.0460928474437375,-0.009516456526529,0.4228781307044499,1.8346381622813457,9.607769618647714
8.49,-0.0271843806751084,0.069547903512958,-0.0107277355983964,2.387501231384091,0.8460396075278667,10.384139143545164
8.5,-0.00961988886385,0.0676263634295743,-0.0043617094762734,-1.0180433538707616,-0.3356512223903674,9.212874724135265
8.51,0.0237141532855357,0.0363135578082291,-0.0042326407402865,-1.6002241190726574,-1.015906144843101,9.392716041455044
8.52,-0.0150866158142607,0.0035282068354382,-0.002289860405784,-3.4040734241709933,3.718417361089415,8.83305890004238
8.53,-0.0114745165045782,-0.0130027741801759,0.0056067946005501,0.6575846604751667,0.727531184092148,11.136960321887694
8.540000000000001,-0.0245555109466192,0.0122078491966458,0.0011368609137721,0.4557634185454945,1.7193598127259466,8.424605724380024
8.55,0.0349237041806351,-0.004266755202948,0.0051029916956909,-0.3979580686317173,-4.403720639775143,9.94888731801613
8.56,0.0399903650625256,0.0161957146340877,0.0054425190772749,1.1250391618167257,1.3976111842596473,9.555101719178795
8.57,0.0568138819721204,0.0169915185374577,0.0061049956001229,0.3634970130597755,-0.7959328648678913,10.251607767866412
8.58,0.0201520599805355,0.0547612827714907,-0.0042636272393278,2.9839511396143417,4.003639455202484,9.657988179098352
8.59,0.0423125614559296,0.0809873442994422,0.0067062746837623,1.809020177053653,-1.167075639580195,9.253195240284596
8.6,0.0217471101428085,0.094044812202936,0.0127951592311151,1.6358681983284509,2.982621373152333,10.084248845292418
8.61,0.0454368739786629,0.1058965657754841,0.0107245637208111,0.1428832739542029,-0.6563686893528659,9.668187008586967
8.620000000000001,0.0354889161490234,0.0856756114834982,0.0121295867591984,-0.9896269558211234,1.0824165423990095,10.942036540571962
8.63,0.0342027021655905,0.0694429014639686,-0.0053267044842354,-1.1169272278889173,1.9242352117513328,9.75234847941274
8.64,0.0231737064914621,0.0834577123236252,-0.0076514681697003,1.0389910921276413,1.3980907822831594,9.22238537077127
8.65,0.0260991353442851,0.0668526185606713,-0.001131285576906,-0.9265214004696634,0.3941781280694736,10.726212587249266
8.66,0.0500990284500482,0.0826464527982798,0.0046237479999549,1.4245522360156064,0.0115941249773306,9.504172360521451
8.67,0.0536664597088351,0.0755755930573719,0.0146811898901947,-0.5480230083669154,0.1144700262189634,9.916874234290775
8.68,0.0440537506948128,0.0670506951865417,0.0201737457990534,-0.5867539864947082,2.982472237346984,8.581688771010043
8.69,0.0163034658760263,0.0542185461911868,0.0132998783245571,-0.7031433277368009,2.245024539049309,10.20107919787485
8.700000000000001,0.0333525353195013,0.0595105413900513,0.0142658591374643,0.1259898102464819,-0.6231849548288403,8.725954466636823
8.71,0.047790914932657,0.0622967354936885,-0.0008643755119405,0.3381909434682448,0.4784986148373464,9.564831277633642
8.72,0.035428033124354,0.0760766483592783,0.0003748865436651,0.855998158083863,0.7949476464493616,9.43342908916108
8.73,0.0673114995086704,0.0819199625567863,0.0100791115417965,-0.2912829536066771,-0.6797744046363736,8.879924716681849
8.74,0.0553706090027734,0.0614066198420085,0.0089000376045592,-1.805145441325135,1.8639172659596317,10.836142149726694
8.75,0.0383094834873934,0.0403592357253601,0.0057008919410296,-1.7423083513601982,2.525222003914443,10.066401201601424
8.76,0.0313154890308443,0.0432950029663968,0.0116861039876826,-0.0856534451463174,1.1729225977321602,9.650064055110844
8.77,0.0362548631981348,0.0262282523594536,0.011869650903333,-1.8090134811260024,0.9040900432240468,10.13624770352848
8.78,0.0686876700390204,-0.0064729792638836,0.0081731231056042,-3.574367855266791,-2.183492955449497,8.080720123311163
8.790000000000001,0.0669531954290083,-0.0310647385228394,-0.0011291591346375,-1.9581333037995377,1.3001611020162127,10.934174433735874
8.8,0.098447578926118,-0.0580126282458059,-0.0083100790053717,-2.4556743332441355,-0.866181799235775,8.945205102444422
8.81,0.0557660897159996,-0.0355242927360367,-0.0052276122279576,1.1865897425931085,2.8819843607746227,10.654882515824394
8.82,0.0809140891763256,-0.0547609322008916,-0.0095407826721779,-2.346326710975931,0.8921178932187765,10.248983768489303
8.83,0.0686229523849855,-0.0534843525347229,0.0006425895133875,-0.1039235143584881,0.3109595230420558,10.342608169160012
8.84,0.1033667211347252,-0.0723066621010878,-0.0015029652405641,-2.483334263804416,-0.0776063861133589,9.727474569423284
8.85,0.066961446818871,-0.0885750418345478,-0.0013527103129885,-1.0991529650180227,4.042760798272263,10.527526711478142
8.86,0.0400011625504121,-0.0967154165706344,-0.003876730696123,-1.9082361506044607,2.4510260542644486,9.607477477613292
8.870000000000001,0.0552284787816214,-0.1199861694228093,0.0046029364328719,-1.305484172397005,0.315053451005837,10.498025949414467
8.88,0.0520337405481342,-0.1227735444097814,-0.0007240740943811,-1.2657153745853311,-0.0105609129179986,9.435967136608046
8.89,0.0963945287030024,-0.1317538499065297,0.0148461327060945,-0.0643722675241958,-0.8720635536637348,9.665396542522252
8.9,0.0652979612544582,-0.1159420048074118,0.008637144333858,0.8093680039046798,3.9756928810550143,8.557856956119855
8.91,0.052594875488012,-0.0926092787781399,0.0047516116045303,1.2417272906561252,0.7601081891189168,10.241552334877632
8.92,0.0450277721232993,-0.1209080344768192,-0.007618376415979,-1.470975686567659,3.386046660766984,9.849433325031375
8.93,0.018809296894442,-0.0789974333520608,-0.0096767622873298,2.279104323420658,2.260381820108827,9.734713006208786
8.94,0.0297053821159516,-0.1149435351910104,-0.0116722000658623,-2.379734014034514,0.8758979201919345,10.860952423958109
8.950000000000001,0.0463354108804244,-0.1217588500581511,-0.0158293204277865,-0.8198033002669072,-0.4353717089349704,9.225815706561251
8.96,0.0546182635132974,-0.1432709937445601,-0.0157727165043465,-1.5325272138059862,1.1996109186893686,10.54159865986604
8.97,0.0513986765030422,-0.1526667655660639,-0.0031380819983891,-0.109520115283763,1.977060910303744,8.555525948821407
8.98,0.00984665260214,-0.1411079854853373,-0.005977341336023,0.940139903873782,4.227748042231247,9.16897011061154
8.99,0.0271690465120813,-0.1368377137554737,0.0113207321718223,0.5110552702951382,0.1942485701731601,9.328917438951905
9.0,0.0051312252765733,-0.1388135469998328,0.0074120788939185,0.5436892303789573,2.782478621359016,9.673893761162308
9.01,0.0326434275948427,-0.1361108801903183,0.0025758058053329,-0.1763034071555449,-0.159827565761748,9.33375698712089
9.02,-0.0013732175645794,-0.1338204831671039,-0.002229146090161,0.9434875301738772,2.846791967542436,10.538864860654549
9.03,0.0132681238350162,-0.1069807707957607,-0.0074180535867921,1.8071734530097616,1.281430497998741,9.588402020053495
9.040000000000001,0.001435566103341,-0.103691735939411,-0.0158090716123692,0.3090644327177629,0.4248055974127966,9.832939290680208
9.05,0.018457324115061,-0.0937752064146862,-0.0281857265055291,0.9930480309399908,0.8453301777492805,9.305395899131556
9.06,0.0071405738216776,-0.0972491739561556,-0.0309182492911927,-0.1036386779165404,1.5328729630438085,9.621565930162529
9.07,0.0200126039124456,-0.0948163389696488,-0.0258554922312609,1.0945082749196102,-0.6529943189252616,9.518388933503497
9.08,0.0356248255680273,-0.0924848991137222,-0.0214916145324818,0.5850564269524076,1.1319019881019394,9.247037823601987
9.09,0.007958594692751,-0.0773220277347954,-0.0191391607642285,2.3149108325216083,3.5917694484686145,9.622913232986551
9.1,-0.001869133679023,-0.0439186870093146,-0.0112581992417685,2.1686562569393635,2.012872047943742,9.280297638148514
9.11,0.0060445679419292,-0.0506223482534444,-0.0087893925503007,0.4924139587263106,-0.197765993663372,10.15863675845134
9.120000000000001,0.0175516751132716,-0.0421089676785518,-0.0131597010314576,0.7726866935290484,2.0457564314316152,9.017171318813206
9.13,-0.0169786316703848,-0.029267422992788,-0.0081117985665909,1.712488515547201,2.4442978614437987,10.596296227469749
9.14,-0.0236277754454869,-0.0230324613798786,-0.0056167499989382,0.2072858413018993,2.3096980834660084,9.06528711942528
9.15,-0.0076035129389059,-0.0410553248933074,-0.0058054028906039,-0.2717965850063439,-0.0428342580932085,9.504015114777644
9.16,-0.0252350672629981,-0.0320004314862966,-0.0066981766268722,1.1288413629115066,2.572284694429616,9.897651559607374
9.17,-0.0146582481177733,-0.0190431042915369,-0.0135648077249638,1.2111430216641572,-0.2328311591117297,8.726119830977508
9.18,-0.0029972266144396,-0.0170245695032241,-0.0152679843723885,0.2993454222536637,0.8484782820570861,9.576318431918812
9.19,0.001514139911704,-0.0278773470382624,-0.0248986402422301,-0.7034947714457145,0.0357304594785574,10.212615580686228
9.200000000000001,0.0035789637311138,-0.02838417289211,-0.0166340818524472,0.6584518908331423,1.5277814031863308,10.111496712065913
9.21,-0.0050671932524495,-0.029131701410885,-0.0168686820089928,0.1847520361567226,2.300834184586768,9.63506345797297
9.22,-0.015972665445942,-0.0197943703101484,-0.0184700390219799,0.918219364119106,1.182337966556547,10.001972518089485
9.23,-0.0368586276100724,-0.0323905672799334,-0.0144991570979468,-0.4752023749793457,4.474896164671497,9.778495016622143
9.24,-0.0611138404803209,-0.009750133288208,-0.004259834893804,2.3777175768714067,1.6670304209239482,10.330383735562547
9.25,-0.0667676218324783,-0.0134347463122468,-0.0080264335394017,0.0188976992789448,2.7486400643384004,9.4178062387289
9.26,-0.0530563416902554,0.0065881927096567,-0.0094674996927492,1.824607287937778,-0.5659981551294584,10.295988961318075
9.27,-0.0525860641701948,-0.0034642666374889,-0.0083706000715605,-0.6906310135683164,1.8019421664134925,9.538422320796393
9.28,-0.0487185058394755,0.0136852333476992,-0.0088705293730012,1.321586215406059,0.8112737925818096,9.65295456564513
9.290000000000001,-0.0558199999755661,-0.0076301240525514,-0.0140299660980812,-4.564038398653857,2.319192639438352,11.257149930347609
9.3,-0.0443020183612852,0.0069043785337036,-0.0025522051274887,1.791048598502324,-0.1537923791466761,9.53163137361777
9.31,-0.0384935689796453,-0.0039874035397852,0.0062620966799445,-0.6371368460370705,1.2589320172004577,9.76538346143845
9.32,-0.0117573618627524,-0.0060217606566462,0.0061395597748346,-0.0551944961734837,-2.0161898280611235,9.452162314953696
9.33,0.0077914058971768,-0.02235977684287,0.0029002567624561,-1.0146502532477253,0.9982381360510006,9.63767004713628
9.34,-0.0107265874796911,-0.0185043237491055,-0.0084247276082746,0.1921858465402872,1.682209155156767,10.360302938706608
9.35,-0.0192721343003261,-0.0384988344115203,-0.0152958905220143,-1.5806991177474088,2.100700012616456,9.657368070503695
9.36,-0.0251858622902442,-0.0353125757842301,-0.0163787187904231,0.6603717474725455,1.5756278233977186,10.240094627381406
9.370000000000001,-0.0267616286929438,-0.0359122287691423,-0.0151846719801537,-0.3322544990753928,1.2647988222694386,9.842146540148002
9.38,-0.0257296650267591,-0.0311914506201846,-0.0108437504515163,0.744543995877296,1.3869490420673172,10.204067951168566
9.39,-0.0284741766340591,-0.0371932675149302,-0.0050197112269811,-0.7071740064300924,0.8965206536841066,9.434493935278802
9.4,-0.0034688879380067,-0.0308035795159166,-0.0011650315847359,0.9573454836145536,-0.502682377255808,9.720175436143013
9.41,-0.011995386228219,-0.0338477156585638,-0.0046683665260784,-0.662101356131467,1.1678661946251347,10.132756927333157
9.42,-0.0144069030105244,-0.0459811974508397,-0.0020707188069931,0.0674894538682368,0.6666825624339451,9.40406199404886
9.43,0.0082111103439797,-0.0329653866362617,0.0010184481960609,0.484272450589662,-0.2299118494578497,9.520995860170045
9.44,-0.0002418344298462,-0.0464681111839234,-0.0062972916185967,-0.0134137240966389,1.1135398341235494,9.455939015970824
9.450000000000001,0.0159749470633205,-0.0130305404349601,0.0045595000136532,2.510024760318827,0.6013922176424862,8.371421333066799
9.46,0.013144415173412,-0.0332201480114522,0.0004729581868164,-0.7912237560564286,0.8309708899809244,10.749897215398171
9.47,0.0064871169971897,-0.0149745561999641,-0.0139213198691718,1.8976723184649515,1.6880215135060144,10.422935241046666
9.48,0.0295481165253857,-0.0094280769868725,-0.008876517777156,0.0827718329053622,-1.2073663243917938,9.783561230531587
9.49,0.044887793411769,-0.033518278853876,-0.0053308609768859,-0.7611580967926592,0.19473522953664,10.328684464708155
9.5,0.0392512595110782,-0.0173065689707633,-0.0076792057499401,1.1917902956127255,1.4794694715959946,9.650791380720856
9.51,0.0384455363456217,-0.0318150857739403,-0.004484604009252,-0.8802556038260027,0.934170600792122,9.436996416910516
9.52,0.0402069874706644,-0.0345329336922494,-0.0097388135165087,0.3734777861994025,0.8785948744188337,9.466054042038396
9.53,0.0481072774842682,-0.0204273245303627,-0.0215412484377734,0.3424522464877783,0.7647592601487859,9.264723189859668
9.540000000000001,0.0191347090396253,-0.0258716635884458,-0.0200347205519787,1.042104481798805,3.0199786671346245,10.966401984915915
9.55,0.0200122854061657,0.00906763062739,-0.0154180837690941,1.9936822563594565,1.7691149268054926,9.187555456973318
9.56,-0.0142255325280644,0.0090951292742163,-0.018393689197313,1.0763587471310452,2.13428377005388,9.530851048684706
9.57,0.0284336593030468,0.0310491912477333,-0.0150873115182034,0.9364231438084788,-0.6681456341721443,8.53473763807808
9.58,0.0028054512966912,0.0077311156525135,-0.0052859172120801,-0.6198579852487739,2.0096269885617097,10.526583162678318
9.59,0.0064190062526735,0.0209486936389746,-0.0159698123008124,0.2066567065656281,1.7419894977178472,8.710161533496223
9.6,0.0046618942792854,-0.0084920818808195,-0.0187282072275988,-1.385929690241013,0.4092294849377408,10.785120379772508
9.61,0.0402459736208425,-0.0419243006964519,-0.0015054947126768,-2.534646165427344,-1.779191359349758,9.623103295808116
9.620000000000001,0.0471411810788143,-0.0589927951372109,-0.010685523402702,-0.4619139159448771,1.5947637570880495,10.26759643021968
9.63,0.0387645075310415,-0.0489080355696907,-0.0038484720409027,0.8281018076297096,1.8182103882249967,9.180411771462412
9.64,0.0377815243717636,-0.0397371259719195,0.0085823336720355,1.220248090111875,0.8141664435395226,9.673742014353849
9.65,0.0661577993688779,-0.030357047235493,-0.0025403130695335,0.6628786436021462,0.1135178075557459,9.520613661387603
9.66,0.0566459325033448,-0.0313124473875167,-0.007992050972592,0.2925387340175876,1.1332846579391165,9.962428261921646
9.67,0.0559246388688575,-0.0259978477162464,-0.001392184187483,0.4113153521007288,1.4909609795505008,10.319091625480898
9.68,0.0418787541817742,-0.0379856363381116,-0.0031798061810545,0.410364458118955,2.4623224828644257,10.239889175496948
9.69,0.0294152085470198,-0.0091279600368687,-0.0088424509286991,1.4100590014107015,1.3568838027491466,9.580333062196251
9.700000000000001,0.0350663175759913,-0.0358422974664253,-0.0075876884058229,-1.199677420887854,1.2513453374026555,9.60148442409508
9.71,0.0465755576835338,-0.0205632569873295,0.0050544337008036,1.4463748947012498,0.122620689513329,9.537487992758866
9.72,0.0492142925962513,-0.0332114859917523,-0.0013641185488663,-1.2189438777883963,0.586141777876508,9.71331846722584
9.73,0.0754367757804378,-0.0391512167003129,-0.0005279238231591,0.1494116452340613,-1.4324329454822975,10.186833074728602
9.74,0.1081932948603382,-0.0407462283032396,0.0089027300581224,0.0265142077078793,-0.7057892617141932,9.215880172943743
9.75,0.0919010586310258,-0.0325175113234626,0.010985483984638,1.5103070148278053,2.2099717743043468,10.58677688687222
9.76,0.0811679314832661,-0.0186470062489843,0.0048627195518352,0.8374648484205585,2.5589604237744346,8.942486227961984
9.77,0.0605812454312803,-0.0095810020891237,0.0025518429336957,1.3258568893989005,2.5869942070492904,9.967884074183496
9.78,0.0485071931799385,-0.0029521536185756,0.0026784153759368,0.9558400180227128,1.6262373643476438,9.539079496348956
9.790000000000001,0.0665509703096425,0.0019027631268647,-0.0068542076170555,0.8122924059415066,0.0521966719037045,10.1710618180857
9.8,0.0621766761515694,0.0154458744330186,-0.0012728119164816,1.1265389177989766,2.334273614123402,9.611809702135124
9.81,0.0139481515306243,0.0164970699426562,-0.0108948074177019,0.0770056018960098,4.244455713093466,9.893523831601772
9.82,0.033665605156078,0.0285631922551288,-0.0077203487873188,2.414463348586583,-1.6952651437481143,8.829928032365803
9.83,0.0426117342243327,0.028232071214564,-0.0116243049398176,0.3014093267099152,0.6944407447232305,9.52344274803457
9.84,0.0395016152531487,0.0622116353174508,-0.0095620131015889,2.8453277909064547,1.270807624187606,9.679483795328352
9.85,0.049652761411692,0.0586346049822203,-0.0011445171095542,-0.2761642198605634,0.4807449730179193,9.321769088223116
9.86,0.0505876237872306,0.0765927828539836,-0.0007529802516214,1.95149305569252,0.1386695554628538,9.897993565473772
9.870000000000001,0.0948470271391783,0.0764228780510622,0.0072139241836853,0.044237465991466,-1.3017338304502049,8.874752542362302
9.88,0.070608752645137,0.0739891858887589,0.0071050535060353,0.3621025128403299,3.1102569973227734,9.258860418400612
