time,wx,wy,wz,ax,ay,az
0.0,-0.0942000299692154,0.12823332846164703,0.0069166505709290504,0.6480845212936401,0.2539370059967041,9.367035865783691
0.02,-0.06106778234243393,0.14395169913768768,-0.010709964670240879,0.675620436668396,0.3202027678489685,9.422051429748535
0.04,-0.0517609640955925,0.16439317166805267,-0.004040800966322422,0.6348122358322144,0.5301476120948792,9.908970832824707
0.06,-0.07278071343898773,0.1740453541278839,-0.013368540443480015,0.29325443506240845,0.5378862619400024,10.322518348693848
0.08,-0.07712194323539734,0.1975947469472885,-0.019243769347667694,-0.020684175193309784,0.40905001759529114,10.134841918945312
0.1,-0.13483521342277527,0.19583408534526825,-0.0286871287971735,0.09391187876462936,0.4100286066532135,9.692585945129395
0.12,-0.07948294281959534,0.18205960094928741,-0.025060243904590607,0.1713990420103073,0.20096148550510406,9.679946899414062
0.14,-0.057324543595314026,0.16964128613471985,0.0009336477960459888,0.21826604008674622,0.07097256928682327,9.918238639831543
0.16,-0.06801386922597885,0.19400712847709656,0.030052686110138893,0.3143147826194763,-0.015995392575860023,9.959770202636719
0.18,-0.04385754466056824,0.1803216189146042,0.05002990737557411,0.2213536500930786,-0.09463366866111755,9.60457992553711
0.2,-0.07477287948131561,0.14333729445934296,0.03511577844619751,-0.35126158595085144,-0.09014150500297546,10.077549934387207
0.22,-0.08879632502794266,0.14505265653133392,0.007027465850114822,-0.8916555643081665,0.010185999795794487,10.762137413024902
0.24,-0.045592911541461945,0.1164148673415184,0.01745804399251938,-1.2186689376831055,-0.15870532393455505,10.6290922164917
0.26,-0.08094348013401031,0.0989755317568779,0.05114952102303505,-0.9481198191642761,-0.3381556570529938,9.877159118652344
0.28,-0.04908424988389015,0.05776231735944748,0.09160435944795609,-0.6974354982376099,-0.23954282701015472,9.341462135314941
0.3,0.03583681583404541,0.010724365711212158,0.1329369693994522,-0.7468518614768982,-0.19172511994838715,9.37851619720459
0.32,0.06594478338956833,-0.008540604263544083,0.1628643125295639,-0.55378258228302,-0.3844621777534485,9.73990535736084
0.34,0.03994735702872276,-0.030561674386262894,0.18560907244682312,-0.23579774796962738,-0.3407761752605438,9.797998428344727
0.36,0.045776039361953735,-0.0566362626850605,0.164683997631073,0.012674233876168728,-0.16749437153339386,9.862524032592773
0.38,0.08160053938627243,-0.1089182123541832,0.10947319865226746,0.3424620032310486,-0.11490589380264282,9.670540809631348
0.4,0.12141171842813492,-0.1322568953037262,0.060766082257032394,0.5739325284957886,-0.06857973337173462,9.516700744628906
0.42,0.12598969042301178,-0.14255806803703308,-0.005452858284115791,0.42050644755363464,-0.00257951975800097,9.512823104858398
0.44,0.12160146981477737,-0.14826464653015137,-0.029244529083371162,0.13561435043811798,-0.18001551926136017,9.35629940032959
0.46,0.12244423478841782,-0.13946093618869781,-0.06633113324642181,-0.030339166522026062,-0.196927011013031,9.2623872756958
0.48,0.1533445417881012,-0.15345121920108795,-0.05805910378694534,-0.25443607568740845,-0.09188704192638397,9.123041152954102
0.5,0.14601635932922363,-0.1296621412038803,-0.05003732815384865,-0.47336703538894653,0.04551604762673378,9.2637357711792
0.52,0.09223683923482895,-0.09865051507949829,-0.028566202148795128,-0.47818511724472046,0.1237272396683693,9.696525573730469
0.54,0.11345387995243073,-0.043883733451366425,-0.02028273604810238,-0.5712360739707947,0.3887097239494324,10.188243865966797
0.56,0.08264702558517456,0.010914289392530918,-0.004717012867331505,-0.28919604420661926,0.7149291038513184,10.443845748901367
0.58,0.06744983047246933,0.03566031903028488,-0.018322791904211044,-0.15048381686210632,0.9474084973335266,10.39065170288086
0.6,0.025039667263627052,0.07896251976490021,-0.05538693442940712,0.10405054688453674,1.0645511150360107,9.543559074401855
0.62,-0.04155198484659195,0.09079883992671967,-0.06884836405515671,0.41855424642562866,0.8312261700630188,8.769964218139648
0.64,-0.08561962842941284,0.09782709926366806,-0.07684214413166046,0.7801362872123718,0.5352311134338379,8.573929786682129
0.66,-0.16392013430595398,0.08708228915929794,-0.061271827667951584,1.06623375415802,0.42715898156166077,8.624409675598145
0.68,-0.15117278695106506,0.10789666324853897,-0.04814206063747406,1.1530762910842896,0.4341405928134918,9.395120620727539
0.7000000000000001,-0.19072012603282928,0.10453792661428452,-0.02412755787372589,1.0316765308380127,0.7715651988983154,10.870543479919434
0.72,-0.10295803844928741,0.10645823925733566,0.007753822021186352,0.5908028483390808,0.8637439608573914,11.659613609313965
0.74,-0.11115902662277222,0.10926904529333115,0.02862408570945263,0.1255042999982834,0.5409612059593201,10.814045906066895
0.76,-0.08640651404857635,0.08378607779741287,0.046163953840732574,-0.395470529794693,0.15632908046245575,9.340353965759277
0.78,-0.12903806567192078,0.09696775674819946,0.03802993521094322,-0.6807661056518555,0.019825346767902374,8.653700828552246
0.8,-0.08643680810928345,0.1113322451710701,0.03735058754682541,-0.6563612222671509,0.08774381875991821,9.279714584350586
0.8200000000000001,-0.08266521990299225,0.1177763119339943,0.01254261750727892,-0.40691080689430237,-0.2624613642692566,10.0911226272583
0.84,-0.07292323559522629,0.09602701663970947,-0.013763519935309887,-0.18184494972229004,-0.565735399723053,10.233343124389648
0.86,-0.009335116483271122,0.05223570391535759,-0.014182934537529945,-0.08909829705953598,-0.6533095836639404,9.582337379455566
0.88,0.01057558786123991,0.04529115557670593,-0.011286216787993908,-0.18922966718673706,-0.49237900972366333,9.053447723388672
0.9,-0.01660681515932083,0.05576479807496071,0.0036081380676478148,-0.274136483669281,-0.5369228720664978,9.488503456115723
0.92,0.02058710716664791,0.0740058571100235,-0.008832511492073536,-0.38215652108192444,-0.39818310737609863,9.894062995910645
0.9400000000000001,0.01735508255660534,0.05544525012373924,-0.00952722318470478,-0.530733048915863,-0.021581068634986877,10.291770935058594
0.96,0.009542200714349747,0.057288769632577896,-0.01422334648668766,-0.7091221213340759,0.36781713366508484,10.215897560119629
0.98,0.026885932311415672,0.06672583520412445,-0.009666848927736282,-0.7430727481842041,0.5696113705635071,9.55070686340332
1.0,0.001482515363022685,0.07088551670312881,-0.011859942227602005,-0.5398759841918945,0.4988706111907959,8.983241081237793
1.02,-0.07598622888326645,0.05542142316699028,-0.024356737732887268,-0.24598091840744019,0.40530362725257874,9.308769226074219
1.04,-0.0287894569337368,0.034567590802907944,-0.007657996378839016,0.07657713443040848,0.2652823030948639,9.879941940307617
1.06,-0.05980398505926132,0.04186252877116203,0.014009621925652027,0.2577325999736786,-0.003254785668104887,9.916105270385742
1.08,-0.022162513807415962,0.042798154056072235,0.04509730264544487,0.3059499263763428,-0.0004867379320785403,9.96186351776123
1.1,-0.03559306636452675,-0.022730356082320213,0.058702632784843445,-0.05594131723046303,0.20451508462429047,10.293632507324219
1.12,-0.05249220132827759,-0.04521198198199272,0.055133745074272156,-0.6573204398155212,0.5062057375907898,10.194344520568848
1.1400000000000001,-0.06829927116632462,-0.04867922514677048,0.04059630632400513,-1.102984070777893,0.5687419176101685,10.394153594970703
1.16,-0.06337175518274307,-0.07740633189678192,0.026542266830801964,-1.4405494928359985,0.24286964535713196,10.422099113464355
1.18,-0.056251294910907745,-0.09124049544334412,0.019984373822808266,-1.3340731859207153,-0.11287038028240204,10.347149848937988
1.2,-0.03282339498400688,-0.11553679406642914,0.021188022568821907,-0.9119883179664612,-0.22311173379421234,10.106953620910645
1.22,0.01106783002614975,-0.13213200867176056,0.00033378091757185757,-0.5126561522483826,-0.2775450050830841,9.851619720458984
1.24,0.024912917986512184,-0.13436901569366455,-0.01209802646189928,-0.40114596486091614,-0.2460559904575348,9.713157653808594
1.26,0.04440978541970253,-0.13684292137622833,-0.012387722730636597,-0.4206363558769226,-0.20861351490020752,9.615735054016113
1.28,0.08255253732204437,-0.16496692597866058,-0.013433679938316345,-0.3844853937625885,-0.22586113214492798,9.433135032653809
1.3,0.04641258344054222,-0.15756180882453918,-0.004081476479768753,-0.6181652545928955,-0.19856823980808258,9.429821014404297
1.32,0.11404703557491302,-0.09748680144548416,0.006771864369511604,-0.5785256028175354,-0.22740621864795685,9.882121086120605
1.34,0.13144969940185547,-0.033325329422950745,0.025587627664208412,-0.6038271188735962,-0.28161993622779846,10.317708015441895
1.36,0.10858367383480072,-0.015652785077691078,0.06557628512382507,-0.3772127628326416,-0.25819146633148193,10.232443809509277
1.3800000000000001,0.07688868790864944,-0.0143862534314394,0.11196865141391754,-0.044531501829624176,-0.2450137436389923,9.181985855102539
1.4000000000000001,0.07753175497055054,-0.005862442310899496,0.14840763807296753,0.36192700266838074,-0.26838967204093933,8.49830436706543
1.42,0.06420796364545822,-0.03628132864832878,0.1701253354549408,0.6982532739639282,-0.07129209488630295,8.768302917480469
1.44,0.09622551500797272,-0.04275183007121086,0.1688079833984375,1.0881165266036987,0.2845746576786041,10.779268264770508
1.46,0.19970887899398804,0.009021013043820858,0.1424405723810196,0.8633012771606445,0.4331795573234558,12.510828971862793
1.48,0.22708314657211304,0.018613843247294426,0.07906727492809296,0.9292901754379272,0.4008140563964844,11.841289520263672
1.5,0.1928739994764328,-0.013948687352240086,-0.011515045538544655,0.7397018074989319,0.45564210414886475,9.724189758300781
1.52,0.15277600288391113,-0.03343607857823372,-0.08928222954273224,0.2558157444000244,0.6719818711280823,8.122302055358887
1.54,0.2029360979795456,-0.03276348114013672,-0.1421208679676056,-0.008438552729785442,0.6410158276557922,7.682053089141846
1.56,0.19390243291854858,-0.030436133965849876,-0.14619135856628418,-0.04313453286886215,0.4250335991382599,8.134057998657227
1.58,0.15252912044525146,-0.0007823967607691884,-0.10824783891439438,0.03282596543431282,0.1502026915550232,9.01708984375
1.6,0.13883259892463684,0.009342445991933346,-0.07093282043933868,-0.027430327609181404,0.04388871416449547,10.256892204284668
1.62,0.07681784778833389,0.019835658371448517,-0.02863181009888649,-0.10339835286140442,0.1117907240986824,10.614534378051758
1.6400000000000001,0.09113100916147232,0.02861681580543518,-0.0018031593644991517,-0.17300420999526978,0.019903233274817467,10.089756965637207
1.6600000000000001,0.059715740382671356,0.07004308700561523,-0.0036958700511604548,-0.1562173217535019,0.34930500388145447,9.572632789611816
1.68,0.022717462852597237,0.06818172335624695,-0.04147278144955635,-0.20246945321559906,0.9886710047721863,9.878292083740234
1.7,-0.009679672308266163,0.007024425081908703,-0.057123422622680664,-0.406690776348114,1.4251961708068848,9.986018180847168
1.72,-0.06416188180446625,-0.01813332550227642,-0.08297577500343323,-0.32108837366104126,1.4553804397583008,9.928106307983398
1.74,-0.11771468818187714,-0.006173367612063885,-0.07667253166437149,-0.155272975564003,1.0315300226211548,9.634082794189453
1.76,-0.12962323427200317,-0.03992218151688576,-0.060106001794338226,0.18053454160690308,0.7511277794837952,9.210101127624512
1.78,-0.13593685626983643,-0.0875524953007698,-0.019543280825018883,0.1807754784822464,0.7339520454406738,9.088834762573242
1.8,-0.19503462314605713,-0.06718186289072037,0.0027681072242558002,-0.10752930492162704,0.6769780516624451,9.2523832321167
1.82,-0.22197182476520538,-0.0696476474404335,0.02189178392291069,-0.2584993243217468,0.6090201139450073,9.420297622680664
1.84,-0.20074570178985596,-0.11223826557397842,0.03657861799001694,-0.3578241169452667,0.5195261240005493,9.249906539916992
1.86,-0.17904804646968842,-0.13789188861846924,0.0442519411444664,-0.5612720251083374,0.46339401602745056,9.847464561462402
1.8800000000000001,-0.06945185363292694,-0.09879463165998459,0.038391195237636566,-0.5576316714286804,0.22897273302078247,10.63340950012207
1.9000000000000001,-0.07616403698921204,-0.045375533401966095,0.024265149608254433,-0.2981553375720978,-0.2507610023021698,10.443624496459961
1.92,-0.07169634103775024,-0.055969011038541794,-0.0037932181730866432,0.2197607010602951,-0.5642008781433105,9.959712982177734
1.94,-0.028403308242559433,-0.08516160398721695,-0.03274746611714363,0.37907087802886963,-0.5061541199684143,9.488719940185547
1.96,-0.027087295427918434,-0.08348338305950165,-0.04113424941897392,0.3837679922580719,-0.37320321798324585,9.538553237915039
1.98,-0.03127840533852577,-0.05650826171040535,-0.024484094232320786,0.38028088212013245,-0.3419584035873413,9.996899604797363
2.0,0.0021467721089720726,-0.041983749717473984,-0.004908999428153038,0.3255404829978943,-0.11084114760160446,10.1024169921875
2.02,0.007893573492765427,-0.048969004303216934,0.010261588729918003,0.3461934030056,-0.020186305046081543,9.77453899383545
2.04,0.020497383549809456,-0.04926297813653946,0.02598458342254162,0.4320492148399353,0.06130051240324974,9.078824043273926
2.06,0.024287676438689232,-0.041136253625154495,0.01795763149857521,0.42452239990234375,0.019077375531196594,8.904067039489746
2.08,0.04729190096259117,-0.042119480669498444,-0.00020544171275105327,0.3092426061630249,-0.1417291760444641,9.430069923400879
2.1,0.029748545959591866,-0.04344187676906586,-0.008936453610658646,0.20042383670806885,-0.03915959224104881,10.082051277160645
2.12,0.03372038155794144,-0.04201226308941841,-0.013707399368286133,0.04996372014284134,0.2876051366329193,10.481197357177734
2.14,0.04723959416151047,-0.03323754668235779,-0.016556205227971077,-0.32816097140312195,0.507739782333374,10.232406616210938
2.16,0.012844868935644627,-0.009489836171269417,-0.0312546081840992,-0.5736762881278992,0.5832321047782898,10.057563781738281
2.18,-0.03358951956033707,0.03938719257712364,-0.06796156615018845,-0.6594552397727966,0.6085613965988159,9.894392013549805
2.2,-0.04165758565068245,0.04546087980270386,-0.09543056041002274,-0.2011447250843048,0.37504100799560547,9.877914428710938
2.22,-0.026042450219392776,0.04546850174665451,-0.07110532373189926,0.23388902842998505,0.20996642112731934,10.023300170898438
2.24,-0.009721715934574604,0.05779369920492172,-0.03137849643826485,0.44969427585601807,0.11899976432323456,10.188006401062012
2.2600000000000002,-0.002632981166243553,0.09376619011163712,-0.016264645382761955,0.580339789390564,-0.001843911362811923,10.12984848022461
2.2800000000000002,0.019298024475574493,0.1310671716928482,-0.00478853564709425,0.7026047110557556,0.10649849474430084,10.00456428527832
2.3000000000000003,-0.04710635170340538,0.1327497810125351,-0.0031914934515953064,0.5983364582061768,0.25165489315986633,9.774717330932617
2.32,-0.01084992103278637,0.14222826063632965,-0.016600769013166428,0.431290864944458,0.35020285844802856,9.766362190246582
2.34,-0.010608157142996788,0.151407852768898,-0.030433500185608864,0.18619802594184875,0.23997987806797028,9.938070297241211
2.36,0.031188728287816048,0.16120216250419617,-0.024034252390265465,0.03946179151535034,-0.10373681783676147,9.57465934753418
2.38,0.018738366663455963,0.14785000681877136,-0.01888795755803585,0.09161783009767532,-0.1273559182882309,9.905576705932617
2.4,0.03705519437789917,0.1275854855775833,-0.01046823337674141,0.18398281931877136,-0.12079448997974396,10.1146821975708
2.42,0.0315646268427372,0.11258184909820557,0.013900771737098694,0.00013306562323123217,-0.02336062304675579,10.079338073730469
2.44,0.06887952238321304,0.10570520162582397,0.03775862976908684,-0.23036260902881622,0.03449727222323418,9.87291145324707
2.46,0.05724163353443146,0.08609506487846375,0.05981418117880821,-0.6602824926376343,0.06230001896619797,9.773849487304688
2.48,0.06205637380480766,0.059232719242572784,0.05182113125920296,-0.8662907481193542,0.19105707108974457,9.627492904663086
2.5,0.057632580399513245,0.0064239040948450565,0.039806123822927475,-0.8085262775421143,0.29200220108032227,9.713135719299316
2.52,0.04086393117904663,-0.03281143680214882,0.02937905862927437,-0.7025641202926636,0.3127974569797516,9.98447322845459
2.54,0.0727691650390625,-0.04782635718584061,0.015207991935312748,-0.6496827602386475,0.28546035289764404,10.139871597290039
2.56,0.07017960399389267,-0.07383231818675995,0.01184783224016428,-0.35716262459754944,0.12497107684612274,9.863459587097168
2.58,0.07441989332437515,-0.10938195884227753,0.010041190311312675,-0.08829782158136368,0.08501146733760834,9.291635513305664
2.6,0.04095050320029259,-0.09820437431335449,0.0005006826831959188,0.02479376643896103,0.2538316547870636,9.035627365112305
2.62,0.0059058573096990585,-0.08708187937736511,0.006410525646060705,0.07270453870296478,0.4590620696544647,9.335192680358887
2.64,0.04613884165883064,-0.08920682966709137,0.0076449536718428135,0.06875838339328766,0.5500084161758423,9.753229141235352
2.66,0.002303425222635269,-0.09757692366838455,0.010327245108783245,-0.017854487523436546,0.5345730781555176,10.043929100036621
2.68,-0.022970905527472496,-0.10119274258613586,0.004538490902632475,-0.0617295578122139,0.4464651942253113,10.011758804321289
2.7,0.0008763056248426437,-0.06274178624153137,0.006803976837545633,-0.0034336396493017673,0.265320360660553,9.58554744720459
2.72,0.028175709769129753,0.004609266296029091,-0.006712034810334444,-0.13683241605758667,0.1598961353302002,10.079139709472656
2.74,-0.0017460605595260859,0.05427602306008339,-0.027032962068915367,0.10184159874916077,0.20870321989059448,9.590875625610352
2.7600000000000002,-0.029866524040699005,0.06163257732987404,-0.044664934277534485,0.23291979730129242,0.3463655412197113,8.813681602478027
2.7800000000000002,-0.044943779706954956,0.08101756870746613,-0.05046885833144188,0.19797860085964203,0.360456258058548,8.907054901123047
2.8000000000000003,-0.040794603526592255,0.1340281218290329,-0.05365564674139023,0.3648239076137543,0.38807618618011475,9.763775825500488
2.82,-0.04614441469311714,0.16934877634048462,-0.028470434248447418,0.8284801840782166,0.41421419382095337,10.462321281433105
2.84,-0.0345928780734539,0.13399845361709595,-0.00901420321315527,1.0532371997833252,0.15850724279880524,10.408258438110352
2.86,0.004157956689596176,0.10494108498096466,0.018601441755890846,0.8773000836372375,-0.03287900239229202,9.565729141235352
2.88,0.004492737352848053,0.09938659518957138,0.03590074181556702,0.29952478408813477,-0.07683812081813812,8.828862190246582
2.9,0.009790376760065556,0.07901851832866669,0.030750110745429993,-0.2580234408378601,0.21337726712226868,9.184056282043457
2.92,-0.016605282202363014,0.039591096341609955,0.0010135913034901023,-0.5524478554725647,0.44289180636405945,9.844657897949219
2.94,-0.026392264291644096,0.004692381713539362,-0.02901773899793625,-0.7798706889152527,0.4958885610103607,10.540968894958496
2.96,-0.045290861278772354,-0.01349383220076561,-0.05448903515934944,-1.0613231658935547,0.27938005328178406,10.342111587524414
2.98,-0.0012844512239098549,-0.03328796848654747,-0.07917820662260056,-0.9404022097587585,0.06225617974996567,10.05882740020752
3.0,-0.07416301965713501,-0.07854067534208298,-0.09285484254360199,-0.8431956171989441,0.18156716227531433,9.569087028503418
3.02,-0.07257798314094543,-0.11150941252708435,-0.09235198050737381,-0.8859175443649292,0.3595721423625946,9.527650833129883
3.04,-0.0552331879734993,-0.11858127266168594,-0.09969069063663483,-1.006460428237915,0.19684921205043793,9.823610305786133
3.06,-0.05593210458755493,-0.10633038729429245,-0.09236950427293777,-1.017388105392456,0.18302731215953827,10.119946479797363
3.08,-0.05870559439063072,-0.10382954776287079,-0.07759945839643478,-0.4212953746318817,0.14455167949199677,9.866182327270508
3.1,-0.06735670566558838,-0.13346296548843384,-0.0345204658806324,0.21581724286079407,0.05337155982851982,9.516363143920898
3.12,-0.07391159236431122,-0.1411942094564438,0.01924978941679001,0.5777525305747986,-0.03952537849545479,9.28119945526123
3.14,-0.0490238331258297,-0.11244894564151764,0.04522628337144852,0.7622553706169128,-0.07426798343658447,9.098919868469238
3.16,-0.03090449422597885,-0.07285387068986893,0.06330427527427673,0.848595142364502,-0.00215049646794796,9.23201847076416
3.18,0.029694095253944397,-0.00643350463360548,0.04948730394244194,0.6970145106315613,0.19533200562000275,9.557954788208008
3.2,-0.004724537488073111,-0.006140248849987984,0.024135025218129158,0.36059334874153137,0.17544570565223694,10.120083808898926
3.22,0.01827664114534855,-0.023755908012390137,-0.009737398475408554,-0.19157272577285767,-0.03876519948244095,10.38650131225586
3.24,-0.012962269596755505,-0.04366781562566757,-0.04807339981198311,-0.5960206389427185,-0.14934803545475006,10.681726455688477
3.2600000000000002,0.014354158192873001,-0.023941755294799805,-0.06593205779790878,-0.422738641500473,-0.21833984553813934,10.133513450622559
3.2800000000000002,0.05550737679004669,0.035883378237485886,-0.03960003703832626,0.12224370241165161,-0.048339612782001495,8.788125038146973
3.3000000000000003,0.047698210924863815,0.08893130719661713,-0.020739037543535233,0.7508339881896973,-0.27548912167549133,8.979839324951172
3.3200000000000003,-0.052140917629003525,0.02232617512345314,-0.0478115938603878,0.7875956296920776,0.024995766580104828,10.32131576538086
3.34,-0.0740991085767746,-0.04379460960626602,-0.060919780284166336,0.04768042266368866,0.683843195438385,10.802916526794434
3.36,0.00045988732017576694,-0.03182141110301018,-0.06326371431350708,-0.5073599815368652,0.706183671951294,10.54924488067627
3.38,-0.04062768071889877,-0.03608753904700279,-0.05066530779004097,-0.5519605278968811,0.42729470133781433,9.67043685913086
3.4,-0.08771438151597977,-0.08745360374450684,-0.04502459987998009,-0.6609854102134705,0.3641587197780609,9.445542335510254
3.42,-0.009150181896984577,-0.08358462899923325,-0.00293683260679245,-0.9436269402503967,0.2799395024776459,9.74975872039795
3.44,0.0026451395824551582,-0.06047000363469124,0.021159667521715164,-0.842475175857544,0.24145004153251648,10.441354751586914
3.46,-0.060303281992673874,-0.06541192531585693,0.016933657228946686,-0.2876061797142029,0.31674444675445557,10.249831199645996
3.48,-0.06966178864240646,-0.05593840032815933,0.01666213385760784,0.11407582461833954,0.37231460213661194,9.774310111999512
3.5,-0.01975107192993164,-0.0348348543047905,0.025218429043889046,0.28167521953582764,0.308546245098114,9.033584594726562
3.52,-0.01274937391281128,-0.019534209743142128,0.05040182173252106,0.27512386441230774,0.06513852626085281,9.325112342834473
3.54,-0.0408199168741703,-0.013298152014613152,0.051266297698020935,0.2095159888267517,-0.16041088104248047,9.990850448608398
3.56,0.006623277440667152,0.0015904005849733949,0.026827480643987656,0.3250880837440491,-0.1197882816195488,10.602513313293457
3.58,0.008776942268013954,0.010883919894695282,0.01993533782660961,0.5048659443855286,-0.038034338504076004,10.158349990844727
3.6,0.019316181540489197,0.03414417430758476,0.013864688575267792,0.7563526034355164,0.00910736434161663,9.386331558227539
3.62,0.059760842472314835,0.058820948004722595,0.023887500166893005,0.7960382699966431,-0.05046902224421501,8.934311866760254
3.64,0.07273025810718536,0.09018363803625107,0.040487781167030334,0.7541168928146362,-0.3596611022949219,9.02212905883789
3.66,0.10680901259183884,0.11995171755552292,0.04016825556755066,0.802973210811615,-0.47715258598327637,9.538917541503906
3.68,0.04603435844182968,0.11713340133428574,0.022389009594917297,0.6775033473968506,-0.38970673084259033,9.892424583435059
3.7,0.046591173857450485,0.10938173532485962,0.01711246743798256,0.285824716091156,-0.059956107288599014,10.20656681060791
3.72,0.05984039977192879,0.1136273443698883,-0.00957577582448721,-0.17616364359855652,0.219091534614563,10.22032642364502
3.74,0.09516093879938126,0.12478538602590561,-0.03185916692018509,-0.2713942229747772,0.37993988394737244,10.355801582336426
3.7600000000000002,0.050066202878952026,0.10620275884866714,-0.04878327250480652,-0.2279069572687149,0.6107920408248901,10.163625717163086
3.7800000000000002,0.04623948037624359,0.06780513375997543,-0.050033558160066605,-0.32058343291282654,0.46891966462135315,9.660566329956055
3.8000000000000003,0.03245086222887039,0.028182068839669228,-0.03219956159591675,-0.380432665348053,0.1446382999420166,9.411616325378418
3.8200000000000003,0.02236851118505001,-0.02013278938829899,-0.028424855321645737,-0.4799915552139282,0.07544590532779694,9.59752368927002
3.84,0.0042841206304728985,-0.05291764438152313,-0.015169155783951283,-0.6904178261756897,0.11568504571914673,9.977533340454102
3.86,-0.007811587769538164,-0.08910726010799408,-0.017784375697374344,-0.7560937404632568,0.27035459876060486,9.886821746826172
3.88,0.014743277803063393,-0.12330985814332962,-0.010075194761157036,-0.6629636287689209,0.46210819482803345,9.809996604919434
3.9,-0.019562633708119392,-0.15543006360530853,-0.0026425751857459545,-0.6399939060211182,0.6805932521820068,9.8112154006958
3.92,-0.021733922883868217,-0.1670348048210144,0.0023787093814462423,-0.516838788986206,0.6170096397399902,9.659714698791504
3.94,0.0071384054608643055,-0.15182414650917053,0.01834038645029068,-0.27341097593307495,0.21767762303352356,9.592666625976562
3.96,-0.00891059823334217,-0.1423243135213852,0.0029051974415779114,0.060356561094522476,-0.17354518175125122,9.606663703918457
3.98,0.016099803149700165,-0.13518723845481873,0.0016546709230169654,0.4025455713272095,-0.3125373423099518,9.672528266906738
4.0,0.007705341558903456,-0.12760934233665466,-0.0022299049887806177,0.5481538772583008,-0.04905404523015022,9.859262466430664
4.0200000000000005,-0.003223045263439417,-0.09043767303228378,-0.0054484461434185505,0.2040025293827057,0.05000856891274452,10.211125373840332
4.04,-0.02263828180730343,-0.033492013812065125,-0.05032457038760185,-0.15706703066825867,0.31691867113113403,10.421610832214355
4.0600000000000005,-0.04001806676387787,0.017526421695947647,-0.07790485769510269,-0.12997321784496307,0.4059969484806061,9.243437767028809
4.08,-0.024518044665455818,0.06087694317102432,-0.103789784014225,-0.017392601817846298,0.0012324511772021651,8.823140144348145
4.1,-0.0370023287832737,0.08875025808811188,-0.124001145362854,0.3188816010951996,-0.2736895680427551,8.767743110656738
4.12,-0.1004711389541626,0.12398410588502884,-0.12066400051116943,0.7792707681655884,-0.3438570201396942,9.198413848876953
4.14,-0.09893821179866791,0.16494905948638916,-0.08821805566549301,1.1806575059890747,-0.12196031212806702,9.874717712402344
4.16,-0.0744667798280716,0.10813643783330917,-0.02975839376449585,1.1920584440231323,0.06688936054706573,10.80049991607666
4.18,-0.12465653568506241,0.03509797155857086,0.039926543831825256,0.8764150738716125,0.30923759937286377,11.199620246887207
4.2,-0.12646330893039703,0.050595298409461975,0.07197027653455734,0.3566123843193054,0.6654264330863953,10.204111099243164
4.22,-0.06804260611534119,0.11184430122375488,0.08214540034532547,-0.1299794614315033,0.8344365954399109,8.93738079071045
4.24,-0.06195790320634842,0.07512936741113663,0.059712886810302734,-0.2164887934923172,0.5740487575531006,8.31175708770752
4.26,-0.07757075875997543,-0.06328120827674866,0.06119122356176376,-0.08082868903875351,0.6955364942550659,8.693373680114746
4.28,-0.04755910113453865,-0.15106001496315002,0.0554642491042614,-0.3480604887008667,0.5666835904121399,10.349370956420898
4.3,-0.016874516382813454,-0.10099930316209793,0.035256922245025635,-0.9447084665298462,0.04316073656082153,11.535639762878418
4.32,-0.02961540035903454,-0.057534873485565186,-0.006123605649918318,-1.5353106260299683,-0.697929859161377,11.063011169433594
4.34,-0.035959817469120026,-0.05694546923041344,-0.023775169625878334,-1.3421688079833984,-0.42879101634025574,9.473390579223633
4.36,-0.002899422310292721,-0.06254161149263382,-0.0171697698533535,-1.3605189323425293,0.09124801307916641,8.967066764831543
4.38,0.04444640502333641,-0.07207057625055313,0.005167833529412746,-0.9361081719398499,0.2837604284286499,9.34158706665039
4.4,0.06317844241857529,-0.09299911558628082,0.0305533017963171,0.48698797821998596,0.1393970400094986,10.080008506774902
4.42,0.051473695784807205,-0.10505816340446472,0.020328253507614136,0.9623391628265381,-0.2828364074230194,10.834433555603027
4.44,-0.020659614354372025,-0.08844584971666336,-0.01401296816766262,0.9455960988998413,-0.41527965664863586,10.660507202148438
4.46,0.007101768162101507,-0.09791921824216843,-0.03416924923658371,0.7519886493682861,-0.28970175981521606,9.876688957214355
4.48,-0.01584336720407009,-0.10546068847179413,-0.03149796649813652,0.6891464591026306,0.07231646031141281,9.462142944335938
4.5,-0.0008124129963107407,-0.06726889312267303,0.005389799363911152,0.639922559261322,0.2709117531776428,9.073821067810059
4.5200000000000005,-0.03674739971756935,-0.010604392737150192,0.027940498664975166,0.42805472016334534,0.3935405910015106,9.462953567504883
4.54,-0.017205320298671722,0.0045725759118795395,0.04126546159386635,0.09179539978504181,0.31368276476860046,9.535293579101562
4.5600000000000005,0.011379583738744259,0.010687574744224548,0.03535493090748787,0.25952473282814026,0.2124418467283249,9.840818405151367
4.58,0.04893399402499199,0.03156092017889023,0.009477756917476654,0.5808835029602051,0.3974400460720062,9.608112335205078
4.6000000000000005,-0.006337190978229046,0.06053095683455467,-0.01728016883134842,0.8081036806106567,0.060200031846761703,9.351987838745117
4.62,0.018762020394206047,0.09376009553670883,-0.014685548841953278,0.9562957882881165,-0.011287698522210121,9.101685523986816
4.64,-0.01506844162940979,0.1275327056646347,-0.031358443200588226,0.9090908765792847,-0.07877697050571442,9.1740083694458
4.66,-0.0014447782887145877,0.0645589828491211,-0.05043119192123413,0.5267017483711243,0.05056637525558472,10.023090362548828
4.68,-0.028464220464229584,-0.009940546937286854,-0.03717028349637985,0.37430647015571594,0.4225902259349823,10.741313934326172
4.7,-0.01405351422727108,-0.014404570683836937,-0.0038202155847102404,0.34063804149627686,0.4583226144313812,10.446355819702148
4.72,-0.013418815098702908,0.00026586861349642277,0.0325201191008091,0.2506409287452698,-0.02004265785217285,9.307597160339355
4.74,0.015195053070783615,-0.022296180948615074,0.044753942638635635,-0.06720224022865295,-0.13648556172847748,8.559443473815918
4.76,-0.01470856461673975,-0.06698691844940186,0.0369158573448658,-0.3508565425872803,-0.17618870735168457,8.561688423156738
4.78,-0.019267195835709572,-0.04766847565770149,0.03804337978363037,-0.29858651757240295,0.0539470873773098,9.855159759521484
4.8,-0.012493073008954525,-0.020261242985725403,0.060187194496393204,-0.7513404488563538,0.5149356126785278,10.86693000793457
4.82,0.0321919284760952,0.04183480143547058,0.0917523205280304,-1.2300955057144165,0.24880445003509521,10.589075088500977
4.84,0.02143569104373455,0.03820483386516571,0.06072671338915825,-0.6095110774040222,-0.0070100571028888226,9.72321605682373
4.86,0.03054181858897209,-0.0034472141414880753,0.04151211306452751,-0.20491331815719604,-0.2309824824333191,9.25296688079834
4.88,0.031042031943798065,0.03661566600203514,-0.007009145803749561,0.17064620554447174,-0.5475901365280151,9.457695007324219
4.9,0.010261572897434235,0.12352985888719559,-0.06739851087331772,0.4708477258682251,-0.4761638939380646,10.083498001098633
4.92,0.05704706907272339,0.17173974215984344,-0.0949004739522934,0.4499419033527374,-0.3734920024871826,10.349932670593262
4.94,0.11277390271425247,0.09431812912225723,-0.0634172111749649,0.5980831980705261,-0.2228027880191803,10.48755168914795
4.96,0.0699370726943016,0.057576730847358704,-0.04087494686245918,0.4604651927947998,-0.1259407103061676,10.550003051757812
4.98,0.11516910791397095,0.08906329423189163,-0.017575448378920555,0.519120991230011,-0.17568928003311157,10.130258560180664
5.0,0.10867486894130707,0.11339320987462997,-0.018010012805461884,0.8153173327445984,-0.16346144676208496,9.6048583984375
5.0200000000000005,0.08622632920742035,0.10843619704246521,-0.031820256263017654,0.9573277235031128,0.011445782147347927,9.024618148803711
5.04,0.07936722785234451,0.09042969346046448,-0.050606224685907364,0.7268040180206299,0.030549760907888412,9.217696189880371
5.0600000000000005,0.04781419038772583,0.07138895243406296,-0.0793888196349144,0.3341886103153229,0.2626296579837799,9.47353458404541
5.08,0.05239216983318329,0.07738245278596878,-0.08899964392185211,-0.12232059240341187,0.4073999226093292,10.042001724243164
5.1000000000000005,0.042390309274196625,0.0885951817035675,-0.08757976442575455,-0.47174566984176636,0.3706263601779938,9.818199157714844
5.12,0.04812660068273544,0.07854979485273361,-0.06369571387767792,-0.5674305558204651,0.5485439896583557,9.728039741516113
5.14,0.03712770715355873,0.04362194985151291,-0.02020515501499176,-0.49652472138404846,0.555194079875946,9.43099594116211
5.16,-0.0004870162229053676,0.031857941299676895,0.0037452904507517815,-0.371635764837265,0.5828970670700073,9.210874557495117
5.18,-0.01773829199373722,0.04172177240252495,0.046610668301582336,-0.33869385719299316,0.5161842107772827,9.607856750488281
5.2,-0.01657346822321415,0.005725810304284096,0.05879184231162071,-0.559844434261322,0.24618946015834808,10.465450286865234
5.22,-0.07148279994726181,-0.07541510462760925,0.07219135761260986,-0.6742729544639587,0.2212335616350174,10.888544082641602
5.24,-0.08182795345783234,-0.08129105716943741,0.05805692821741104,-0.6101759672164917,0.4178902506828308,10.13972282409668
5.26,-0.056738924235105515,-0.07413696497678757,0.028574395924806595,-0.8694596290588379,0.5813077688217163,9.670190811157227
5.28,-0.10255758464336395,-0.11180702596902847,0.0007835660362616181,-0.8784090280532837,0.5086628198623657,9.714774131774902
5.3,-0.05747700110077858,-0.17620158195495605,-0.02052130550146103,-0.6969004273414612,0.44062626361846924,9.703381538391113
5.32,-0.06477314233779907,-0.1753193587064743,-0.007598995231091976,-0.3853625953197479,0.17221371829509735,9.869941711425781
5.34,-0.01701083593070507,-0.1509927660226822,0.00030439009424299,-0.10594471544027328,-0.3028319776058197,9.998235702514648
5.36,-0.08709929883480072,-0.1244015321135521,0.026455294340848923,0.18016670644283295,-0.43671613931655884,9.917838096618652
5.38,-0.02176288701593876,-0.13231846690177917,0.037027448415756226,0.4612227976322174,-0.11952964216470718,10.250412940979004
5.4,0.010988042689859867,-0.10105371475219727,0.0698290541768074,0.6257074475288391,-0.006940759252756834,10.362666130065918
5.42,-0.01814480870962143,-0.06411422789096832,0.06131627783179283,0.7690733075141907,-0.006775520741939545,9.746451377868652
5.44,-0.03937871754169464,-0.0617825947701931,0.0587930753827095,0.7277636528015137,2.5313784135505557e-05,9.043476104736328
5.46,0.007846429012715816,-0.04849494248628616,0.022556021809577942,0.5190165042877197,-0.23348315060138702,9.077484130859375
5.48,0.012072354555130005,-0.012797425501048565,-0.010475169867277145,0.2848222255706787,-0.15683339536190033,9.722299575805664
5.5,0.03718526288866997,0.06806697696447372,-0.04384168982505798,0.2262929230928421,0.0906362384557724,10.249842643737793
5.5200000000000005,0.02978883869946003,0.1168401837348938,-0.07423689216375351,0.563642680644989,0.09844201803207397,9.703736305236816
5.54,0.04862796515226364,0.13535310328006744,-0.06743442267179489,0.9106319546699524,0.1291358470916748,9.616127014160156
5.5600000000000005,0.02865963615477085,0.11674809455871582,-0.0467522032558918,0.9818201065063477,0.30272290110588074,9.680205345153809
5.58,0.06180906668305397,0.09294844418764114,-0.0011645224876701832,0.9856070280075073,0.477272093296051,9.488962173461914
5.6000000000000005,0.11703719198703766,0.12029894441366196,0.04215702414512634,0.7461033463478088,0.6624774932861328,8.958325386047363
5.62,0.08524852246046066,0.12676244974136353,0.04895927757024765,0.5897647738456726,0.4914000630378723,8.697319030761719
5.64,0.09787546098232269,0.09425868839025497,0.0531558096408844,0.3428085744380951,-0.021716708317399025,9.227113723754883
5.66,0.05245960131287575,0.01696777530014515,0.04783950746059418,-0.02688370831310749,-0.2941419184207916,9.954830169677734
5.68,0.02287519909441471,-0.03106110543012619,0.011694728396832943,0.030491385608911514,-0.19781498610973358,10.321894645690918
5.7,0.07834038883447647,-0.08844248950481415,-0.0015352258924394846,-0.06838223338127136,-0.28865981101989746,9.949531555175781
5.72,0.0671687051653862,-0.07951590418815613,-0.04534232243895531,-0.6608913540840149,-0.14770735800266266,10.590970993041992
5.74,-0.024599211290478706,-0.06674621254205704,-0.0936402827501297,-1.496920108795166,1.0125945806503296,10.240510940551758
5.76,-0.035879552364349365,-0.0343686006963253,-0.15284469723701477,-1.6838206052780151,1.0231893062591553,9.150918960571289
5.78,-0.08028721064329147,-0.056272201240062714,-0.18073970079421997,-1.693735122680664,0.669241726398468,9.012666702270508
5.8,-0.07809288054704666,-0.05823327600955963,-0.19258902966976166,-1.5642036199569702,0.6519838571548462,9.4697904586792
5.82,-0.08859915286302567,-0.05374443158507347,-0.1568920910358429,-0.8335305452346802,0.5633813738822937,10.215577125549316
5.84,-0.010078554041683674,-0.060198478400707245,-0.10432498902082443,-0.18748268485069275,0.35796910524368286,10.539780616760254
5.86,-0.04271925613284111,-0.08201359212398529,-0.018236994743347168,0.6471121311187744,0.20584692060947418,10.273666381835938
5.88,-0.10569892078638077,-0.07966017723083496,0.04067264124751091,1.1359957456588745,0.05934268236160278,9.811080932617188
5.9,-0.10846398770809174,-0.042633987963199615,0.08151460438966751,1.2273313999176025,0.08359940350055695,9.384170532226562
5.92,-0.07186071574687958,-0.008446474559605122,0.0914430022239685,1.3613762855529785,0.28751540184020996,9.089090347290039
5.94,-0.036496832966804504,-0.016412103548645973,0.059105705469846725,1.0128380060195923,0.6006933450698853,9.752001762390137
5.96,-0.05762586370110512,-0.03853904455900192,0.03683985397219658,0.5709913372993469,0.1268662065267563,10.831666946411133
5.98,-0.057593200355768204,-0.05279996618628502,-0.0009752081241458654,0.1417996883392334,-0.4357968866825104,10.703313827514648
6.0,0.04873872175812721,-0.03162359446287155,-0.005647104699164629,-0.29802146553993225,-0.7490476369857788,9.821128845214844
6.0200000000000005,0.04008027911186218,0.014502591453492641,0.028418688103556633,-0.2509450614452362,-0.9533254504203796,8.61806869506836
6.04,0.08541017025709152,0.04665932059288025,0.06515336781740189,0.19659610092639923,-0.633730947971344,8.737458229064941
6.0600000000000005,0.06202021241188049,0.04802423715591431,0.09415291994810104,0.4448864161968231,-0.2762477993965149,9.629260063171387
6.08,0.03380002826452255,0.011635498143732548,0.09779265522956848,0.5075241327285767,-0.06716491281986237,10.162919998168945
6.1000000000000005,0.048200823366642,0.00496402895078063,0.0690520778298378,0.49010077118873596,0.15508949756622314,10.10395622253418
6.12,0.03270585834980011,-0.017063768580555916,0.03001314029097557,0.48482251167297363,0.2265377938747406,10.009133338928223
6.140000000000001,0.06438706070184708,-0.030914006754755974,-0.006871307268738747,0.298435240983963,0.14487586915493011,9.949980735778809
6.16,0.05077410116791725,-0.015022851526737213,-0.03210590407252312,-0.00022993917809799314,0.007109915837645531,10.00680160522461
6.18,0.03478894755244255,-0.024059515446424484,-0.03097160905599594,-0.2502548396587372,0.39776912331581116,9.776873588562012
6.2,-0.01713409274816513,-0.040070679038763046,-0.024208154529333115,-0.3186796009540558,0.7936455011367798,9.498257637023926
6.22,0.0025909566320478916,-0.03625890612602234,-0.000695416412781924,-0.6675965785980225,0.8284127116203308,9.433727264404297
6.24,-0.013507704250514507,-0.006000715307891369,0.028404803946614265,-0.6431770324707031,0.5422936677932739,9.47424030303955
6.26,0.011179533787071705,0.040979109704494476,0.02816164866089821,-0.26363182067871094,0.3947056829929352,10.238877296447754
6.28,-0.0526532381772995,0.08783135563135147,0.006432369351387024,0.36316224932670593,0.4930100739002228,10.553692817687988
6.3,-0.002774932887405157,0.10885748267173767,-0.013529662974178791,0.846055805683136,0.5974277853965759,10.270715713500977
6.32,-0.01874648593366146,0.056822240352630615,-0.007940185256302357,1.042242407798767,0.18784622848033905,9.561509132385254
6.34,-0.057578057050704956,0.06119947507977486,0.022875076159834862,0.7210915088653564,-0.2623509466648102,9.784915924072266
6.36,-0.06530746817588806,0.11700231581926346,0.006849993020296097,0.35000520944595337,-0.07930971682071686,9.9613037109375
6.38,-0.04725823551416397,0.16101819276809692,-0.001983817433938384,0.2771490812301636,0.3358093202114105,9.737574577331543
6.4,-0.0797996073961258,0.14209125936031342,-0.006530230864882469,0.08581897616386414,0.5793114900588989,9.778761863708496
6.42,-0.09836185723543167,0.09078620374202728,-0.015493344515562057,-0.1329384595155716,0.4139811396598816,10.121078491210938
6.44,-0.05994197726249695,0.08693472295999527,-0.01849985122680664,-0.09902599453926086,0.3138682544231415,9.93272590637207
6.46,-0.10565643757581711,0.11964365094900131,-0.008036596700549126,0.010610943660140038,-0.1950988918542862,9.856252670288086
6.48,-0.132931187748909,0.1340791881084442,-0.02370036579668522,0.10837152600288391,-0.26489484310150146,9.750082969665527
6.5,-0.12300600111484528,0.1388915330171585,-0.04265502467751503,0.0003150547854602337,0.04438044875860214,9.399027824401855
6.5200000000000005,-0.10360769927501678,0.11111613363027573,-0.030171725898981094,-0.2766503393650055,0.342814564704895,9.371673583984375
6.54,-0.16042718291282654,0.09493668377399445,-0.020078206434845924,-0.5937765836715698,0.4790063500404358,9.832273483276367
6.5600000000000005,-0.14760512113571167,0.09730780869722366,0.0029496648348867893,-0.7789163589477539,0.513420581817627,10.438270568847656
6.58,-0.12257800251245499,0.10691545903682709,0.00891907513141632,-0.5683289170265198,0.1897677332162857,10.443835258483887
6.6000000000000005,-0.12140656262636185,0.10601077973842621,0.010903623886406422,-0.19743211567401886,-0.1653902530670166,10.14130973815918
6.62,-0.1210588812828064,0.09893009066581726,0.009912614710628986,0.13219355046749115,-0.2171754091978073,9.868612289428711
6.640000000000001,-0.15906888246536255,0.09756604582071304,0.01567784696817398,0.2449226975440979,-0.05836015194654465,9.409358024597168
6.66,-0.15964850783348083,0.10222242027521133,0.004604096990078688,0.2154185026884079,0.14572322368621826,9.162196159362793
6.68,-0.13237345218658447,0.09053375571966171,0.010738175362348557,0.023526005446910858,0.1935843825340271,8.899005889892578
6.7,-0.10542608797550201,0.0899088978767395,0.013989136554300785,-0.21460221707820892,0.11181841790676117,8.84207534790039
6.72,-0.09933115541934967,0.08157897740602493,0.03053560107946396,-0.4149319529533386,-0.21370956301689148,9.309800148010254
6.74,-0.06598237156867981,0.0794048085808754,0.04075377807021141,-0.8944714665412903,-0.6086344122886658,10.523167610168457
6.76,0.017281116917729378,-0.02077920362353325,0.06593141704797745,-1.4774268865585327,-1.2726577520370483,11.123199462890625
6.78,0.04438018053770065,-0.0915767252445221,0.09192947298288345,-0.9932900071144104,-1.378038763999939,9.897656440734863
6.8,0.1250397115945816,-0.06035377085208893,0.0973912701010704,-0.6464165449142456,-0.8434312343597412,8.748879432678223
6.82,0.1074390634894371,-0.07091367244720459,0.07120683789253235,-0.6206076145172119,-0.6658154726028442,8.920793533325195
6.84,0.14571040868759155,-0.15040965378284454,0.04801139980554581,-0.38627156615257263,-0.3262174427509308,9.489019393920898
6.86,0.17640849947929382,-0.24271002411842346,0.04038811847567558,-0.23349632322788239,-0.08702670782804489,9.951489448547363
6.88,0.2549305856227875,-0.3114328980445862,0.04458824172616005,-0.31567034125328064,-0.1647568792104721,9.799345016479492
6.9,0.3795332610607147,-0.3299468755722046,0.05674373358488083,-0.4445855915546417,-0.6506922245025635,9.41889762878418
6.92,0.3377169072628021,-0.3545166254043579,0.05075650289654732,-0.6830132603645325,-1.298250675201416,10.035018920898438
6.94,0.26922330260276794,-0.299040287733078,0.01732086017727852,-0.9702649116516113,-0.831135094165802,10.950364112854004
6.96,0.1716242879629135,-0.22178351879119873,-0.015384790487587452,-0.9730803966522217,0.40139704942703247,10.962512969970703
6.98,0.19175797700881958,-0.19369791448116302,-0.026843471452593803,-0.391123503446579,1.091495156288147,10.057199478149414
7.0,0.13808955252170563,-0.2018764317035675,-0.012251936830580235,0.12448746711015701,0.984622061252594,9.079566955566406
7.0200000000000005,0.12118270993232727,-0.1375984251499176,0.012952386401593685,0.1842956244945526,0.6716995239257812,8.562389373779297
7.04,0.10511961579322815,-0.00942146684974432,-0.0018562530167400837,0.15711909532546997,0.3618154525756836,8.096935272216797
7.0600000000000005,0.005854549817740917,0.06590161472558975,-0.03157796338200569,0.3266836702823639,0.232960045337677,8.301644325256348
7.08,-0.041836515069007874,0.073893241584301,-0.03879675269126892,1.095455288887024,0.6369225978851318,9.050518989562988
7.1000000000000005,-0.0721324011683464,0.08467758446931839,-0.02985725924372673,1.9468754529953003,1.5509477853775024,10.533297538757324
7.12,-0.1630149483680725,0.17341850697994232,-0.022521566599607468,2.2613673210144043,1.8115557432174683,11.188377380371094
7.140000000000001,-0.1993342638015747,0.25326141715049744,-0.011237922124564648,1.9921454191207886,1.1060043573379517,9.541022300720215
7.16,-0.18264393508434296,0.24180135130882263,-0.008625154383480549,1.444811463356018,0.5318660736083984,8.631879806518555
7.18,-0.19815929234027863,0.24253378808498383,-0.011398611590266228,0.9818298816680908,0.5098837018013,9.656176567077637
7.2,-0.2572283446788788,0.2342754602432251,-0.0077209766022861,0.5924323797225952,0.5622715353965759,10.472084045410156
7.22,-0.20221129059791565,0.26083138585090637,-0.00374743458814919,0.1552014946937561,0.17970003187656403,10.7953462600708
7.24,-0.2182845026254654,0.26236408948898315,0.0010446385713294148,-0.03509043529629707,-0.4580719470977783,10.234933853149414
7.26,-0.18458575010299683,0.2098284363746643,-0.016866492107510567,-0.15665578842163086,-0.5996139049530029,10.396740913391113
7.28,-0.11592326313257217,0.18627527356147766,-0.031206591054797173,-0.19429579377174377,-0.27645814418792725,10.239601135253906
7.3,-0.09613965451717377,0.17051424086093903,-0.031616102904081345,-0.41496357321739197,-0.2756616473197937,9.55118465423584
7.32,-0.02637816220521927,0.12208249419927597,-0.0258011631667614,-0.6312650442123413,-0.3380064070224762,9.040946960449219
7.34,0.026593657210469246,0.04375404492020607,-0.0004766210913658142,-0.8397566080093384,-0.39477404952049255,8.959590911865234
7.36,0.06630421429872513,-0.0054078372195363045,0.01998753659427166,-0.9907287359237671,-0.6644136309623718,9.411124229431152
7.38,0.11919865757226944,-0.05141066759824753,0.01633787527680397,-1.3282928466796875,-1.1181972026824951,10.113785743713379
7.4,0.0887727364897728,-0.09418468177318573,0.0011110048508271575,-1.5568113327026367,-1.3067245483398438,10.282476425170898
7.42,0.1286270022392273,-0.11725802719593048,-0.013100949116051197,-1.5942096710205078,-0.9838001132011414,10.263646125793457
7.44,0.11887942254543304,-0.11596652120351791,0.0029895887710154057,-1.7755998373031616,-0.3786838948726654,10.469120025634766
7.46,0.08587507903575897,-0.07901697605848312,0.015358020551502705,-1.5187078714370728,0.30897095799446106,9.864753723144531
7.48,0.06108508259057999,-0.06878141313791275,0.008188780397176743,-1.4023789167404175,0.5226364135742188,9.486644744873047
7.5,0.061302296817302704,-0.04584918171167374,-0.01627298630774021,-1.2395812273025513,0.46461233496665955,9.545134544372559
7.5200000000000005,0.00983353704214096,-0.01438640896230936,-0.0025377203710377216,-0.6354334354400635,0.4644016623497009,10.120628356933594
7.54,0.010248495265841484,-0.001343231531791389,0.020334111526608467,-0.04116915538907051,0.30617180466651917,9.897066116333008
7.5600000000000005,0.008447409607470036,-0.010681584477424622,0.04840968921780586,0.16876491904258728,0.08281900733709335,9.72486686706543
7.58,-0.07092949748039246,-0.006089195609092712,0.05836525186896324,0.18011540174484253,0.08572787046432495,9.917367935180664
7.6000000000000005,-0.07498663663864136,-0.007073810789734125,0.061530664563179016,0.2003304660320282,0.33714666962623596,10.081904411315918
7.62,-0.09090501070022583,-0.017429979518055916,0.022094255313277245,0.6220501661300659,0.6007821559906006,10.054705619812012
7.640000000000001,-0.16376903653144836,-9.156460146186873e-05,-0.006736238487064838,1.070884346961975,0.842115581035614,9.913496017456055
7.66,-0.10455413907766342,-0.014907565899193287,-0.013386895880103111,1.3165488243103027,0.6584299802780151,9.64501953125
7.68,-0.14361056685447693,-0.051513586193323135,-0.0004910175921395421,1.2794560194015503,0.21953542530536652,9.645444869995117
7.7,-0.13426095247268677,-0.06850589066743851,0.03603788837790489,0.8877968192100525,-0.11746992915868759,9.817401885986328
7.72,-0.18710096180438995,-0.07119332253932953,0.09306929260492325,0.3477210998535156,-0.3362460732460022,10.001763343811035
7.74,-0.12328433245420456,-0.060650784522295,0.12043167650699615,-0.11426637321710587,-0.40217646956443787,10.074506759643555
7.76,-0.11437497287988663,-0.030866745859384537,0.13654182851314545,-0.4085230231285095,-0.29497039318084717,9.632329940795898
7.78,-0.06587392836809158,-0.00851653516292572,0.13028159737586975,-0.5475269556045532,-0.1484242081642151,9.037487983703613
7.8,-0.08920607715845108,-0.021129734814167023,0.11786415427923203,-0.5220634341239929,-0.22908365726470947,8.84821605682373
7.82,-0.03910809010267258,-0.019112206995487213,0.08984033018350601,-0.5713043808937073,-0.5843989849090576,9.28085708618164
7.84,0.0017550468910485506,0.026567453518509865,0.06162167340517044,-0.8012089729309082,-0.7736852169036865,9.989892959594727
7.86,0.10980946570634842,0.10670681297779083,0.04722476750612259,-1.1977853775024414,-0.48182597756385803,10.497040748596191
7.88,0.1750614047050476,0.19689108431339264,0.06515084207057953,-1.1566826105117798,-0.48312702775001526,10.385520935058594
7.9,0.24944809079170227,0.24043193459510803,0.09204863756895065,-0.7031611800193787,-0.6091212630271912,9.49302864074707
7.92,0.2761775255203247,0.20885629951953888,0.10086815059185028,-0.49749892950057983,-0.4862237572669983,9.023426055908203
7.94,0.20179350674152374,0.15433284640312195,0.08273109793663025,-0.13310837745666504,-0.5924726128578186,9.786832809448242
7.96,0.1516774594783783,0.08285190910100937,0.03341823071241379,-0.04179892688989639,-0.2758948504924774,10.835490226745605
7.98,0.12904511392116547,0.06676866859197617,-0.016474992036819458,0.40327319502830505,0.26509010791778564,10.695865631103516
8.0,0.18569234013557434,0.09782213717699051,-0.020568206906318665,0.857988715171814,0.251140296459198,10.177624702453613
8.02,0.15348105132579803,0.07932539284229279,-0.02456694096326828,0.9477351903915405,-0.09587924927473068,9.257862091064453
8.040000000000001,0.09272399544715881,-0.05429857596755028,-0.03509385138750076,0.5346169471740723,-0.1497117280960083,8.648700714111328
8.06,0.054711099714040756,-0.1368742436170578,-0.05725628882646561,0.1266166865825653,0.03996967151761055,8.445810317993164
8.08,-0.03464088216423988,-0.145453542470932,-0.06710422784090042,-0.37885069847106934,0.5900691151618958,8.79465389251709
8.1,-0.0721319392323494,-0.12900292873382568,-0.08917458355426788,-0.5675632357597351,1.2352447509765625,9.75327205657959
8.120000000000001,-0.0681137964129448,-0.13817667961120605,-0.08526372164487839,-0.6463950872421265,0.8649344444274902,10.274834632873535
8.14,-0.1556018888950348,-0.1622316837310791,-0.06938671320676804,-0.7520349621772766,0.5659497380256653,10.027107238769531
8.16,-0.12748746573925018,-0.14359670877456665,-0.05545743927359581,-1.1220648288726807,0.30725690722465515,9.769545555114746
8.18,-0.04821081459522247,-0.07836078852415085,-0.00154790875967592,-1.6555657386779785,-0.2492729127407074,9.818538665771484
8.2,-0.10277190059423447,-0.035976968705654144,0.0168773103505373,-1.2922778129577637,-0.3960648477077484,10.258922576904297
8.22,-0.11297394335269928,-0.06466911733150482,0.03285985067486763,-1.1642802953720093,-0.14826488494873047,10.498047828674316
8.24,-0.04120710864663124,-0.12023773789405823,0.03006378747522831,-1.2625439167022705,-0.25309211015701294,10.378203392028809
8.26,-0.02030218206346035,-0.09480668604373932,0.019319310784339905,-0.7493178248405457,-0.38329482078552246,10.368379592895508
8.28,-0.022748492658138275,-0.07486893981695175,0.010962802916765213,0.16571378707885742,-0.5314366221427917,9.732100486755371
8.3,-0.005566380452364683,-0.11308077722787857,0.013560103252530098,0.511528730392456,-0.5923504829406738,8.883981704711914
8.32,0.07150907069444656,-0.16446533799171448,0.03188212588429451,0.5172652006149292,-0.4802233874797821,8.83696460723877
8.34,0.013469880446791649,-0.18051649630069733,0.04614966735243797,0.31808120012283325,-0.2572079300880432,9.664410591125488
8.36,0.007765674497932196,-0.17780780792236328,0.046282876282930374,0.24264542758464813,-0.08348580449819565,10.546832084655762
8.38,-0.011470500379800797,-0.16153177618980408,0.03989904001355171,0.16235201060771942,0.0040207733400166035,10.597391128540039
8.4,0.031234409660100937,-0.17962346971035004,0.002851498778909445,-0.02481788955628872,-0.04125094786286354,10.324309349060059
8.42,-0.022327926009893417,-0.18988104164600372,-0.029417505487799644,-0.3545372188091278,0.14474333822727203,10.264644622802734
8.44,0.009255286306142807,-0.1550995260477066,-0.04433124512434006,-0.6138023138046265,0.08013085275888443,9.961902618408203
8.46,0.014492400921881199,-0.11135942488908768,-0.0425654798746109,-0.717645525932312,-0.008062388747930527,9.447824478149414
8.48,-0.03021676279604435,-0.12479196488857269,-0.034041326493024826,-0.44012805819511414,-0.033893853425979614,9.150654792785645
8.5,-0.03631255403161049,-0.14021873474121094,-0.02929585427045822,-0.03464760258793831,0.11919110268354416,8.861637115478516
8.52,-0.018445061519742012,-0.103743776679039,-0.012882857583463192,0.4226651191711426,0.3143311142921448,9.927270889282227
8.540000000000001,-0.060504402965307236,-0.033264096826314926,0.009829165413975716,0.7805871963500977,0.4812912046909332,9.897550582885742
8.56,-0.015811851248145103,-0.034486912190914154,0.024440640583634377,0.9270022511482239,0.5537359714508057,8.989409446716309
8.58,0.0043161045759916306,-0.054999981075525284,0.029664667323231697,0.781280517578125,0.5570493936538696,8.606704711914062
8.6,-0.030590742826461792,-0.03104506991803646,0.026763249188661575,0.7911651134490967,0.20942671597003937,9.525525093078613
8.620000000000001,0.007252925541251898,0.029712708666920662,0.031252436339855194,0.9241988658905029,-0.34773463010787964,9.98379898071289
8.64,0.010517856106162071,0.06915362924337387,0.028448328375816345,1.2575156688690186,-0.9149155616760254,10.375505447387695
8.66,0.015583580359816551,0.053366076201200485,-0.004990326706320047,0.7424147129058838,-0.961388349533081,10.890949249267578
8.68,0.047896020114421844,0.06212880089879036,-0.031346000730991364,0.9346750378608704,-0.5839754939079285,10.360780715942383
8.700000000000001,0.024501003324985504,0.09444096684455872,-0.03187411651015282,0.8874853849411011,-0.4824064075946808,9.514442443847656
8.72,0.03774323686957359,0.11643780767917633,-0.01997270993888378,0.8052327632904053,-0.4120233356952667,8.93875503540039
8.74,0.0842907726764679,0.12687478959560394,0.010643537156283855,0.7186917662620544,-0.39808180928230286,9.531195640563965
8.76,0.0495637021958828,0.10987584292888641,0.010808059014379978,0.42640063166618347,-0.3598356544971466,10.656205177307129
8.78,0.09273889660835266,0.11215674877166748,0.012651585973799229,0.19060058891773224,-0.0340995267033577,10.982022285461426
8.8,0.09464752674102783,0.09906516224145889,0.02048325538635254,0.09097985178232193,0.2638787627220154,10.091339111328125
8.82,0.07606304436922073,0.07539761066436768,0.033202774822711945,0.0007281749276444316,0.18752028048038483,8.789582252502441
8.84,0.11173051595687866,0.025858888402581215,0.0311240553855896,-0.1992383748292923,-0.01006270106881857,8.74709415435791
8.86,0.1118926852941513,-0.018698837608098984,0.013699459843337536,-0.1585596352815628,-0.03871552646160126,9.51528263092041
8.88,0.10341271013021469,-0.059025414288043976,0.013923541642725468,-0.16567637026309967,0.0843389481306076,10.080547332763672
8.9,0.08975508064031601,-0.03984901309013367,0.027697984129190445,-0.26118239760398865,0.29385489225387573,9.874314308166504
8.92,0.07638771831989288,-0.0399363674223423,0.012926364317536354,-0.3600526750087738,0.37989887595176697,9.406686782836914
8.94,0.06948701292276382,-0.05246295407414436,0.00020423319074325264,-0.4348258972167969,0.43854132294654846,9.224773406982422
8.96,0.029796699061989784,-0.05650481581687927,-0.011309540830552578,-0.4718180298805237,0.4532037377357483,9.575225830078125
8.98,-0.025386139750480652,-0.026971587911248207,-0.017086157575249672,-0.44189128279685974,0.35965755581855774,10.183804512023926
9.0,-0.004987060092389584,-0.007988964207470417,-0.03649930655956268,-0.364824503660202,0.16992755234241486,10.183943748474121
9.02,-0.008897354826331139,0.023959606885910034,-0.060042817145586014,-0.12183874845504761,0.005614585243165493,9.750836372375488
9.040000000000001,0.022569939494132996,0.04171128198504448,-0.05805782973766327,0.015285549685359001,-0.08882832527160645,9.60270881652832
9.06,-0.004852962680160999,0.055773746222257614,-0.08322940021753311,0.19655302166938782,-0.0975121334195137,9.675027847290039
9.08,-0.007846245542168617,0.053195368498563766,-0.0895090103149414,0.3137667179107666,-0.045112427324056625,10.177742004394531
9.1,-0.018949080258607864,0.07242751121520996,-0.09182291477918625,0.368904709815979,0.19654275476932526,10.676898002624512
9.120000000000001,-0.016085481271147728,0.05716261267662048,-0.08621454983949661,0.5264745354652405,0.31643250584602356,10.763694763183594
9.14,-0.03584684431552887,0.033348631113767624,-0.04043877497315407,0.6766756176948547,0.3734281659126282,10.322770118713379
9.16,-0.03608166426420212,-0.007346887607127428,0.020417436957359314,0.8358945250511169,0.3335987329483032,9.48077392578125
9.18,-0.07630515098571777,-0.027376960963010788,0.052795764058828354,0.9874037504196167,0.02166684716939926,8.74689769744873
9.200000000000001,-0.08978835493326187,-0.032878629863262177,0.05306238308548927,0.8827048540115356,-0.09414458274841309,8.542113304138184
9.22,-0.06369420140981674,-0.018948864191770554,0.01858283206820488,0.492000013589859,0.1759108603000641,9.239788055419922
9.24,-0.06970086693763733,-0.0002612563839647919,-0.005806715227663517,0.005059661343693733,0.3301038146018982,10.123863220214844
9.26,-0.10286666452884674,-0.01824149116873741,-0.018264366313815117,-0.3345051407814026,0.4470776319503784,10.496533393859863
9.28,-0.10401309281587601,-0.0597529411315918,-0.022577853873372078,-0.7671359777450562,0.2946213185787201,9.983732223510742
9.3,-0.0709153339266777,-0.0611339807510376,-0.017289798706769943,-0.9576747417449951,-0.18285949528217316,9.618008613586426
9.32,-0.05941665545105934,0.00994987040758133,-0.013456706888973713,-0.7029030919075012,-0.4667775630950928,9.962759971618652
9.34,-0.012798996642231941,0.06158618628978729,-0.0018049754435196519,-0.06867262721061707,-0.39680635929107666,10.283111572265625
9.36,-0.03085712529718876,0.07280127704143524,0.007717325817793608,0.43648794293403625,-0.11490681022405624,10.260896682739258
9.38,-0.0091299619525671,0.06693420559167862,0.0032833877485245466,0.669681966304779,0.16823990643024445,9.743048667907715
9.4,-0.023112758994102478,0.06858497112989426,-0.00823286920785904,0.6757156848907471,0.13083100318908691,9.405669212341309
9.42,0.013483226299285889,0.09352211654186249,-0.015681838616728783,0.5184710621833801,-0.03736215457320213,9.112502098083496
9.44,0.04497898370027542,0.11212963610887527,-0.027860816568136215,0.4534456431865692,-0.17553310096263885,9.43856430053711
9.46,0.005847014952450991,0.10436591506004333,-0.017946429550647736,0.49250656366348267,-0.3691556751728058,9.924748420715332
9.48,-0.00186085794121027,0.09728313237428665,-0.017106346786022186,0.28155091404914856,-0.4188947379589081,10.283923149108887
9.5,0.0011292407289147377,0.14471298456192017,-0.014920932240784168,-0.34417206048965454,-0.26808544993400574,10.38556957244873
9.52,-0.03459261357784271,0.18531207740306854,-0.0536692813038826,-0.4229695498943329,-0.004524307791143656,9.697795867919922
9.540000000000001,-0.0036714174784719944,0.19021151959896088,-0.0662652775645256,-0.2435363531112671,0.11806583404541016,9.333137512207031
9.56,-0.0007280645659193397,0.17286618053913116,-0.07142004370689392,-0.14656229317188263,0.04741865396499634,9.449516296386719
9.58,-0.02216293290257454,0.17165228724479675,-0.06920839101076126,0.017391813918948174,0.15149231255054474,9.773399353027344
9.6,-0.030455341562628746,0.17172399163246155,-0.0690976157784462,0.16636212170124054,0.20730805397033691,10.029290199279785
9.620000000000001,0.03183871880173683,0.13566282391548157,-0.05297766625881195,0.210854172706604,0.20819835364818573,9.905150413513184
9.64,-0.0008975855889730155,0.10339203476905823,-0.03142311051487923,0.30010342597961426,0.05230751261115074,9.561689376831055
9.66,-0.030762428417801857,0.07734771817922592,-0.0007402573246508837,0.3540847599506378,0.14938481152057648,8.981342315673828
9.68,-0.003762404201552272,0.03048909828066826,0.009916112758219242,0.39430755376815796,0.18383197486400604,8.563945770263672
9.700000000000001,-0.01623529940843582,-0.02145889215171337,0.04036915674805641,0.35809752345085144,-0.04969596490263939,8.603259086608887
9.72,-0.010218893177807331,-0.04689808934926987,0.07172363251447678,0.08817654103040695,-0.32559171319007874,9.188544273376465
9.74,0.033614546060562134,-0.05316724628210068,0.08003044873476028,-0.646468460559845,-0.2728383243083954,10.552597999572754
9.76,0.11150337755680084,-0.029419420287013054,0.03893183916807175,-1.0124763250350952,-0.17633841931819916,11.2272310256958
9.78,0.049063920974731445,-0.019280998036265373,0.01807292364537716,-1.5811985731124878,0.0735849067568779,11.450826644897461
9.8,0.07324948161840439,-0.04125937819480896,-0.01591588370501995,-2.189373254776001,0.2712898552417755,10.971132278442383
9.82,0.13536427915096283,-0.048304688185453415,-0.022081371396780014,-2.1414411067962646,-0.02910706400871277,9.630989074707031
9.84,0.07400114089250565,-0.018397606909275055,-0.025959091261029243,-1.770913004875183,-0.3035491704940796,9.250397682189941
9.86,0.07222256809473038,-0.002328295726329088,-0.009996108710765839,-1.8428521156311035,-0.2482381910085678,9.571672439575195
9.88,0.04358985647559166,-0.03788851946592331,-0.010570391081273556,-0.8649911880493164,-0.08279440551996231,9.790343284606934
9.9,0.044658344238996506,-0.07946101576089859,-0.03582117706537247,-0.34429073333740234,0.24251490831375122,9.853439331054688
9.92,0.03109208680689335,-0.0847865492105484,-0.050884079188108444,0.21826604008674622,0.5699483156204224,9.920609474182129
9.94,0.0016484156949445605,-0.1058080643415451,-0.037989579141139984,0.8412688970565796,0.6331334114074707,9.911337852478027
9.96,-0.035287827253341675,-0.15848107635974884,0.004984278231859207,1.2388619184494019,0.5789690017700195,9.893013954162598
9.98,-0.02403280884027481,-0.17101222276687622,0.0643475130200386,0.9475585222244263,0.6661723852157593,10.10725212097168
10.0,0.023609550669789314,-0.1365746259689331,0.11050292104482651,0.6877914071083069,0.41421064734458923,9.491087913513184
10.02,0.03190462663769722,-0.10584443807601929,0.09612913429737091,0.524120569229126,0.16932807862758636,8.958757400512695
10.040000000000001,0.014068315736949444,-0.07771298289299011,0.07327387481927872,0.4228275716304779,0.24413856863975525,8.688533782958984
10.06,0.019110651686787605,-0.047441255301237106,0.044579923152923584,0.17602422833442688,0.08346322923898697,8.852762222290039
10.08,0.02098125033080578,0.0023434734903275967,0.014440380968153477,0.04647444933652878,-0.20171262323856354,9.15225601196289
10.1,0.01897856406867504,0.06149652600288391,-0.0054195839911699295,0.10584688186645508,-0.35768964886665344,9.744460105895996
10.120000000000001,0.07674700021743774,0.06819070130586624,-0.020896300673484802,0.029149677604436874,-0.2443723827600479,10.65742015838623
10.14,0.10257787257432938,0.05931444838643074,0.004560887813568115,-0.069727823138237,-0.33344483375549316,10.768718719482422
10.16,0.004071383271366358,0.03638208657503128,0.011221748776733875,-0.05129547789692879,-0.0968293622136116,10.431879997253418
10.18,0.07854403555393219,0.040853600949048996,0.002779164118692279,0.19954542815685272,-0.041743554174900055,10.418423652648926
10.200000000000001,0.10090310126543045,0.06490044295787811,0.0023024573456496,0.1620934009552002,-0.1856960505247116,10.601099967956543
10.22,0.11833230406045914,0.08313808590173721,-0.00789177231490612,0.18881934881210327,-0.11401552706956863,10.210287094116211
10.24,0.050415877252817154,0.039718903601169586,-0.024537978693842888,0.07626482844352722,0.266336590051651,9.187232971191406
10.26,0.09277108311653137,0.007022729609161615,-0.02086491324007511,-0.3121154010295868,0.7188037633895874,9.075772285461426
10.28,0.03623301535844803,0.011603682301938534,-0.006497027352452278,-0.5278588533401489,0.882637619972229,9.145953178405762
10.3,-0.008416780270636082,0.03700656071305275,-0.012201255187392235,-0.4752872586250305,0.8773664236068726,9.200470924377441
10.32,-0.009372466243803501,0.06141210347414017,-0.006982649210840464,-0.32638785243034363,0.5840715765953064,9.177576065063477
10.34,-0.08019401133060455,0.0697258934378624,-0.023416073992848396,-0.1779334992170334,0.268492192029953,9.365482330322266
10.36,-0.0921340137720108,0.06550853699445724,-0.023081444203853607,0.04136829450726509,0.1047666072845459,9.486186027526855
10.38,-0.13500967621803284,0.06504534184932709,-0.023277701810002327,0.15529729425907135,0.23434986174106598,9.805800437927246
10.4,-0.10272133350372314,0.07667390257120132,-0.007101641036570072,0.20049530267715454,0.28918153047561646,9.8771390914917
10.42,-0.16134685277938843,0.0895761176943779,-0.008590119890868664,0.2629028558731079,0.21310923993587494,9.420693397521973
10.44,-0.20526345074176788,0.06789936125278473,-0.028462709859013557,0.03742053359746933,0.387881338596344,9.931802749633789
10.46,-0.22617241740226746,0.05361134558916092,-0.04489621892571449,-0.18802496790885925,0.5438939929008484,10.643180847167969
10.48,-0.1845826506614685,0.033487122505903244,-0.04746406525373459,-0.3276500701904297,0.5650988221168518,10.631481170654297
10.5,-0.1635318398475647,0.053857844322919846,-0.019579755142331123,-0.41534489393234253,0.432420015335083,9.848746299743652
10.52,-0.1950964629650116,0.06053047254681587,0.004233291372656822,-0.43280309438705444,0.23207515478134155,9.311606407165527
10.540000000000001,-0.12348033487796783,0.039295926690101624,0.021001001819968224,-0.5536452531814575,-0.042548902332782745,9.524723052978516
10.56,-0.09304168820381165,0.018354961648583412,0.02842893823981285,-0.5731794238090515,-0.33581456542015076,9.765913009643555
10.58,-0.05846826359629631,-0.003894577268511057,0.0213673897087574,-0.508323609828949,-0.3953269124031067,10.048304557800293
10.6,0.014719025231897831,-0.005052659660577774,0.029369385913014412,-0.4401412308216095,-0.5988312363624573,10.001158714294434
10.620000000000001,0.012030139565467834,-0.039829857647418976,0.019916431978344917,-0.3143184781074524,-1.0346733331680298,9.933612823486328
10.64,0.07534841448068619,-0.06711071729660034,0.014014513231813908,-0.3057706356048584,-1.1868013143539429,9.774812698364258
10.66,0.06550977379083633,-0.07992774248123169,0.010198496282100677,-0.4466169476509094,-1.0075712203979492,9.740618705749512
10.68,0.11390434205532074,-0.07500829547643661,0.00856543704867363,-0.6150481104850769,-0.4532201588153839,9.88694953918457
10.700000000000001,0.1410391479730606,-0.08746836334466934,0.014264572411775589,-0.45366761088371277,-0.21846657991409302,9.499935150146484
10.72,0.16408215463161469,-0.12331816554069519,0.021056847646832466,-0.3355152904987335,-0.06400468945503235,9.332324028015137
10.74,0.1616491973400116,-0.12144475430250168,-0.002843287540599704,-0.17373552918434143,0.011826153844594955,9.297494888305664
10.76,0.11743415892124176,-0.11845152825117111,-0.020873520523309708,-0.09983006119728088,0.09079178422689438,9.741013526916504
10.78,0.14790786802768707,-0.13231198489665985,-0.007218873128294945,-0.3503299653530121,0.05480358377099037,10.56386947631836
10.8,0.14945687353610992,-0.14947688579559326,0.022801117971539497,-0.5896039009094238,0.07736831903457642,10.755282402038574
10.82,0.13716933131217957,-0.14289982616901398,0.04062667116522789,-0.5785037875175476,0.44185584783554077,10.223169326782227
10.84,0.10310391336679459,-0.10448199510574341,0.042396094650030136,-0.226440891623497,0.6467039585113525,9.8251371383667
10.86,0.04321708530187607,-0.0957636833190918,0.02343144081532955,-0.22481493651866913,0.8211106061935425,9.593119621276855
10.88,0.04140143841505051,-0.08683919161558151,0.00712943822145462,-0.44825389981269836,0.6495883464813232,10.02988338470459
10.9,-0.047264471650123596,-0.06266801804304123,-0.01088788453489542,-0.5231031775474548,0.6786432862281799,10.240872383117676
10.92,-0.019704993814229965,-0.0331132598221302,-0.009162776172161102,-0.36278092861175537,0.43889257311820984,9.813878059387207
10.94,-0.02441457286477089,-0.009185496717691422,0.0038849173579365015,-0.10613813251256943,-0.001852763700298965,9.236533164978027
10.96,-0.04967896640300751,0.01528200600296259,-0.007053897716104984,0.2164306789636612,-0.023953599855303764,9.432089805603027
10.98,-0.06042398512363434,-0.001261406927369535,0.0159036573022604,0.6186508536338806,0.17694568634033203,10.09947395324707
11.0,-0.03568408638238907,-0.007633862551301718,0.022042881697416306,1.0182814598083496,0.37782493233680725,10.548933029174805
11.02,-0.0018992751138284802,0.002337081590667367,0.024612154811620712,1.5610620975494385,0.52643883228302,10.584049224853516
11.040000000000001,-0.03387269377708435,0.021679123863577843,0.026296451687812805,1.8762922286987305,0.5031914710998535,9.902939796447754
11.06,-0.010368164628744125,0.021218745037913322,0.001986284041777253,1.7636325359344482,0.3064059615135193,9.194388389587402
11.08,0.0025375259574502707,0.0384846106171608,0.008734202943742275,1.3047945499420166,-0.003242762293666601,7.933457374572754
11.1,0.024843595921993256,0.059389568865299225,0.02190716378390789,0.6501041054725647,-0.2677042782306671,7.232111930847168
11.120000000000001,-0.050443537533283234,0.1343221515417099,0.03996787965297699,0.1632050722837448,-0.5778576731681824,7.257016658782959
11.14,-0.0046206810511648655,0.18452104926109314,0.04707871377468109,-0.06336893141269684,-0.40607786178588867,8.258855819702148
11.16,0.023952405899763107,0.17093069851398468,0.04585735499858856,-0.06720954179763794,-0.2711281478404999,10.16745376586914
11.18,0.06293916702270508,0.16360905766487122,0.0727466568350792,-0.7019789814949036,0.3764086365699768,12.464756965637207
11.200000000000001,0.11176445335149765,0.2117248773574829,0.04500378295779228,-1.0990562438964844,0.3800511956214905,13.475858688354492
11.22,0.06638718396425247,0.23293104767799377,-0.003611186984926462,-0.6135662198066711,0.17722725868225098,11.39124870300293
11.24,0.07921114563941956,0.2086719125509262,-0.050180867314338684,-0.06434513628482819,-0.10980843007564545,9.055517196655273
11.26,0.10679017752408981,0.17819641530513763,-0.07885266840457916,-0.11949392408132553,-0.1311483085155487,8.433326721191406
11.28,0.08080513030290604,0.11958591639995575,-0.08472832292318344,-0.23932021856307983,0.042801931500434875,9.032444953918457
11.3,0.07103312015533447,0.07049111276865005,-0.06369718164205551,-0.20460867881774902,0.16578683257102966,9.517670631408691
11.32,0.027844997122883797,0.0460437536239624,-0.039855439215898514,-0.1991722285747528,0.32942190766334534,9.621556282043457
11.34,0.027401767671108246,0.01763276755809784,-0.021447019651532173,-0.2997320294380188,0.4164435863494873,9.528768539428711
11.36,0.016657164320349693,-0.039100341498851776,-0.01523622963577509,-0.9047166705131531,0.08797217905521393,9.297137260437012
11.38,-0.012449252419173717,-0.056457698345184326,-0.016724083572626114,-1.169107437133789,-0.0011988225160166621,8.998811721801758
11.4,-0.04845220223069191,-0.0620102733373642,-0.026785070076584816,-1.1697443723678589,0.07888124883174896,9.506837844848633
11.42,-0.07046657055616379,-0.0789460763335228,-0.041585132479667664,-1.178053855895996,0.21772773563861847,10.047540664672852
11.44,-0.10260307043790817,-0.08288849890232086,-0.060928408056497574,-1.2218878269195557,0.4718957841396332,10.381819725036621
11.46,-0.15662583708763123,-0.05844287946820259,-0.07838048785924911,-1.2474002838134766,0.750087559223175,10.228509902954102
11.48,-0.1116025522351265,-0.05245333909988403,-0.08986120671033859,-1.0221904516220093,0.8598662614822388,10.05085563659668
11.5,-0.13464736938476562,-0.07198740541934967,-0.07099450379610062,-0.7327032089233398,0.7529544830322266,10.323723793029785
11.52,-0.2562626898288727,-0.08416154980659485,-0.07592479139566422,-0.933394193649292,0.5672881603240967,10.923748016357422
11.540000000000001,-0.23499229550361633,-0.12624035775661469,-0.04444385692477226,-0.6251406669616699,0.41272634267807007,10.57466983795166
11.56,-0.1920701414346695,-0.1325036883354187,-0.027592996135354042,-0.01714985817670822,-0.15889108180999756,10.002650260925293
11.58,-0.22738033533096313,-0.16353097558021545,-0.015639128163456917,0.4462987184524536,-0.3820907473564148,9.696541786193848
11.6,-0.22784335911273956,-0.17661046981811523,0.005836145486682653,0.49399250745773315,-0.2717069685459137,10.179673194885254
11.620000000000001,-0.1136881485581398,-0.1753832995891571,0.046104975044727325,0.2660410404205322,-0.3111254572868347,10.256579399108887
11.64,-0.11069600284099579,-0.1595378965139389,0.06950736045837402,0.12454986572265625,-0.14839552342891693,9.42987060546875
11.66,-0.05012475326657295,-0.13344953954219818,0.09362457692623138,-0.04063020274043083,-0.27253881096839905,9.125176429748535
11.68,0.036616407334804535,-0.10565752536058426,0.07175849378108978,-0.03782571852207184,-0.6175320744514465,9.239910125732422
11.700000000000001,0.040041252970695496,-0.08829217404127121,0.057475510984659195,0.09319072216749191,-0.827574610710144,9.543163299560547
11.72,0.09551841765642166,-0.06570488214492798,0.03225206211209297,0.19646932184696198,-0.8359283208847046,9.763948440551758
11.74,0.06342272460460663,-0.02665756270289421,0.025720546022057533,0.2872290313243866,-1.079216480255127,10.047627449035645
11.76,0.1277284473180771,0.013128260150551796,-0.0069241332821547985,0.2827385663986206,-1.0732917785644531,10.109479904174805
11.78,0.10557544231414795,0.0018199459882453084,-0.01096100453287363,0.44594210386276245,-0.702600359916687,9.958330154418945
11.8,0.1192706823348999,-0.003868038533255458,-0.009927457198500633,0.6164875626564026,-0.4549950957298279,9.424271583557129
11.82,0.12263800203800201,-0.026525143533945084,-0.0033868926111608744,0.7723447680473328,-0.006561074405908585,8.682523727416992
11.84,0.15881113708019257,-0.04321317374706268,0.008266017772257328,0.6579440236091614,0.20959940552711487,9.09885311126709
11.86,0.04774465039372444,-0.035371333360672,-0.02017485722899437,-0.030673755332827568,0.44790002703666687,10.304312705993652
11.88,0.05717114359140396,0.01587654836475849,-0.03632210195064545,-0.6616987586021423,0.9114970564842224,11.008439064025879
11.9,0.014246168546378613,0.010495415888726711,-0.037714943289756775,-0.6208577156066895,0.9323934316635132,10.474946022033691
11.92,-0.008514703251421452,-0.04093573987483978,-0.025340745225548744,-0.2940475344657898,0.8744221925735474,9.413538932800293
11.94,0.014402924105525017,-0.010685811750590801,0.01053538452833891,-0.4762061536312103,0.6939104199409485,9.735389709472656
11.96,0.05243420600891113,0.05609619989991188,0.020999617874622345,-0.2908465266227722,0.12786586582660675,9.880531311035156
11.98,0.029183128848671913,0.07004713267087936,0.026264317333698273,0.2779521346092224,-0.16513559222221375,9.537558555603027
12.0,-0.00846133939921856,0.03806965425610542,0.0167846716940403,0.5808525681495667,-0.07879437506198883,9.263036727905273
12.02,0.018606357276439667,0.014801946468651295,0.00767371105030179,0.6511961817741394,0.07622889429330826,9.45549488067627
12.040000000000001,-0.03232148289680481,0.03833929821848869,-0.0027310517616569996,0.7024750709533691,0.2507267892360687,9.503929138183594
12.06,0.021362271159887314,0.06210438162088394,-0.026605067774653435,0.6964055895805359,0.21254834532737732,9.269511222839355
12.08,0.022679386660456657,0.07778842747211456,-0.04941796883940697,0.5339245200157166,0.11077924072742462,9.25262451171875
12.1,0.010114523582160473,0.05795265734195709,-0.05584385246038437,0.21227684617042542,-0.07635847479104996,9.188654899597168
12.120000000000001,-0.009888085536658764,0.036068394780159,-0.06061120703816414,0.042290184646844864,-0.2984500825405121,9.357980728149414
12.14,0.03510032221674919,0.02386748231947422,-0.05463014543056488,-0.05895663797855377,-0.49696746468544006,9.690362930297852
12.16,0.03794148936867714,0.004146954044699669,-0.03990725055336952,-0.07419148087501526,-0.7122737169265747,10.068547248840332
12.18,0.04313085600733757,-0.021467968821525574,-0.02963261306285858,-0.16035224497318268,-0.4777714014053345,9.745713233947754
12.200000000000001,0.01682104356586933,-0.00555622112005949,-0.03196346387267113,-0.3394821286201477,0.00958999339491129,9.852001190185547
12.22,0.0015650278655812144,0.010381384752690792,-0.05371896177530289,-0.41521185636520386,0.2120646834373474,10.056201934814453
12.24,-0.018958676606416702,0.017231838777661324,-0.06196194142103195,-0.3999507427215576,0.41199690103530884,9.456427574157715
12.26,-0.029110295698046684,0.0037973104044795036,-0.04079964756965637,-0.23605641722679138,0.45687156915664673,9.50802230834961
12.280000000000001,0.011416950263082981,-0.04290129989385605,0.023593297228217125,-0.17008891701698303,0.30012133717536926,10.243914604187012
12.3,-0.04041597619652748,-0.04222392663359642,0.08417294919490814,-0.3051317632198334,-0.03481144830584526,10.695040702819824
12.32,-0.0030171177349984646,-0.01015931461006403,0.11651930212974548,-0.41175001859664917,0.083843894302845,10.310385704040527
12.34,-0.010731947608292103,0.021951548755168915,0.12677857279777527,-0.6062572598457336,0.10937833786010742,9.843694686889648
12.36,-0.00940037053078413,-0.005018657073378563,0.09021618217229843,0.10347884148359299,0.26480692625045776,9.475171089172363
12.38,-0.024632493034005165,-0.024541841819882393,0.034038789570331573,0.5058531761169434,0.3516247272491455,9.391345024108887
12.4,0.017269480973482132,-0.012074473313987255,-0.021192103624343872,0.5765816569328308,0.13534508645534515,9.408677101135254
12.42,0.05492296814918518,-0.02360791154205799,-0.04215969517827034,0.5694147348403931,-0.2872941195964813,9.758596420288086
12.44,0.01821422390639782,-0.04055646061897278,-0.056426163762807846,0.29498952627182007,-0.46332836151123047,9.998680114746094
12.46,0.04072479531168938,-0.055668022483587265,-0.04673580080270767,-0.11353297531604767,-0.25865599513053894,9.968523979187012
12.48,0.010561804287135601,-0.07085740566253662,-0.02653062529861927,-0.12457068264484406,0.03121543861925602,9.776886940002441
12.5,0.019944259896874428,-0.08429692685604095,-0.01265055313706398,-0.1648987978696823,0.3076261281967163,9.764824867248535
12.52,-0.022251391783356667,-0.05488277226686478,-0.017697950825095177,-0.2419016808271408,0.31904903054237366,9.71309757232666
12.540000000000001,-0.032051071524620056,-0.05965057760477066,-0.023971708491444588,-0.11062024533748627,0.26122814416885376,9.883484840393066
12.56,-0.047265250235795975,-0.0531780943274498,-0.026093197986483574,-0.1673620492219925,0.4070153534412384,10.326518058776855
12.58,-0.030892573297023773,-0.04481111839413643,0.0004295975377317518,-0.11111395061016083,0.34586453437805176,10.47858715057373
12.6,-0.0719919204711914,-0.029546746984124184,0.03928561508655548,-0.08573256433010101,0.31477731466293335,10.4844970703125
12.620000000000001,-0.09850120544433594,-0.03469061851501465,0.03267649933695793,-0.1159604862332344,0.3765881359577179,10.193673133850098
12.64,-0.09236065298318863,-0.016228407621383667,0.006063965614885092,-0.12307539582252502,0.4406355321407318,9.843833923339844
12.66,-0.07881992310285568,0.008655887097120285,-0.012800246477127075,-0.04177010804414749,0.2616918385028839,9.395059585571289
12.68,-0.04144733399152756,0.039359498769044876,-0.05724009871482849,0.011672928929328918,-0.04730358347296715,9.273002624511719
12.700000000000001,-0.04405578598380089,0.08080115169286728,-0.06482754647731781,0.2167937159538269,-0.19479244947433472,9.465147972106934
12.72,-0.029995927587151527,0.09819929301738739,-0.08732771128416061,0.38115474581718445,-0.27096694707870483,9.82459545135498
12.74,0.053103651851415634,0.0949009358882904,-0.09109264612197876,0.4656202495098114,-0.5770235061645508,10.268270492553711
12.76,0.0014832251472398639,0.10538938641548157,-0.07479216903448105,0.5188862085342407,-0.6830925345420837,9.999497413635254
12.780000000000001,0.006751426961272955,0.10292499512434006,-0.06821219623088837,0.6946251392364502,-0.4582820534706116,9.480713844299316
12.8,0.006685590371489525,0.11752327531576157,-0.058061301708221436,0.6706594228744507,-0.24427764117717743,9.42668342590332
12.82,0.054752204567193985,0.1323406994342804,-0.02116132527589798,0.6069124341011047,-0.07408171892166138,9.507455825805664
12.84,0.036276571452617645,0.15710671246051788,-0.0032393373548984528,0.44833672046661377,0.11061707884073257,9.679414749145508
12.86,0.03855905681848526,0.18513956665992737,0.014291900210082531,0.22528746724128723,0.0689493790268898,9.74556827545166
12.88,0.07129713892936707,0.18618686497211456,0.008278235793113708,-0.06600991636514664,-0.005247269291430712,9.616156578063965
12.9,0.11722230911254883,0.17758803069591522,0.007303818594664335,-0.2271275520324707,-0.11091069132089615,9.128965377807617
12.92,0.08323098719120026,0.16658027470111847,0.01409105397760868,-0.3567006587982178,-0.05637764558196068,9.782062530517578
12.94,0.057684920728206635,0.15298810601234436,0.013935700990259647,-0.42036986351013184,0.1773347556591034,10.429441452026367
12.96,0.04749438166618347,0.13200579583644867,-0.005064753815531731,-0.3770087957382202,0.3637165427207947,10.48567008972168
12.98,0.004509068559855223,0.11449824273586273,0.0024449434131383896,-0.29699739813804626,0.31318849325180054,9.98234748840332
13.0,0.001619564020074904,0.0734550952911377,0.0041370815597474575,-0.2643284499645233,0.26931172609329224,9.546537399291992
13.02,0.030519522726535797,0.02369266003370285,0.010583474300801754,-0.4069576561450958,0.19875256717205048,9.272904396057129
13.040000000000001,-0.00015979536692611873,0.016182268038392067,0.017901290208101273,-0.6473482847213745,0.21991190314292908,9.321496963500977
13.06,-0.036154355853796005,0.00216805562376976,0.011331301182508469,-0.7531235218048096,0.25570449233055115,9.45436954498291
13.08,-0.03157530725002289,-0.03179345652461052,0.00378258153796196,-0.8405671715736389,0.2565259635448456,9.616630554199219
13.1,0.008195199072360992,-0.05418896675109863,-0.006098159123212099,-0.8379583954811096,0.23139263689517975,9.789743423461914
13.120000000000001,-0.044182997196912766,-0.06911061704158783,-0.026616139337420464,-0.7466028332710266,0.1559663563966751,9.870443344116211
13.14,-0.010018193162977695,-0.07802408933639526,-0.0427570566534996,-0.5648601055145264,-0.10761403292417526,9.876151084899902
13.16,-0.038851864635944366,-0.08418790251016617,-0.04908859729766846,-0.4514339864253998,-0.3064611554145813,9.832734107971191
13.18,-0.06715065240859985,-0.0720159113407135,-0.04145267233252525,-0.2355973720550537,-0.14292138814926147,9.598464965820312
13.200000000000001,-0.059854865074157715,-0.08023130148649216,-0.026332274079322815,-0.1502111256122589,0.08390142768621445,9.292314529418945
13.22,-0.05803975835442543,-0.0722036361694336,-0.010368727147579193,-0.14498783648014069,0.2285960167646408,9.115974426269531
13.24,-0.01835331693291664,-0.05117174610495567,0.02037382498383522,-0.1697210669517517,0.38072794675827026,9.636923789978027
13.26,0.03002564236521721,-0.03195583075284958,0.03769758716225624,-0.12700417637825012,0.2084364891052246,10.480029106140137
13.280000000000001,-0.029449954628944397,-0.019677164033055305,0.033585406839847565,-0.027451783418655396,-0.007253001909703016,10.379827499389648
13.3,-0.04808706045150757,-0.029696350917220116,0.0326172299683094,0.08280235528945923,-0.163450226187706,9.633291244506836
13.32,-0.005281239282339811,-0.011472145095467567,0.015312463976442814,0.05086410045623779,-0.23617768287658691,9.266439437866211
13.34,0.04426507279276848,-0.005267235916107893,0.014399420469999313,0.06897006183862686,-0.34854528307914734,9.274433135986328
13.36,-0.015554547309875488,0.019311079755425453,0.0031327945180237293,-0.010376671329140663,-0.19133757054805756,9.903400421142578
13.38,0.03551579639315605,0.04131298512220383,-0.010294422507286072,-0.02757437154650688,0.1296847015619278,10.061023712158203
13.4,0.050115615129470825,0.04686020687222481,-0.02363651618361473,0.00372899416834116,0.21269598603248596,9.991341590881348
13.42,0.01887441612780094,0.03455338999629021,-0.03514040261507034,-0.004359937738627195,0.1395944207906723,9.98525619506836
13.44,-0.004829900339245796,0.03539712354540825,-0.035938382148742676,-0.16645491123199463,0.12170720100402832,10.090770721435547
13.46,0.06348515301942825,0.04176229238510132,-0.022268153727054596,-0.3901095688343048,-0.12723790109157562,10.055183410644531
13.48,0.02513480745255947,0.06359697878360748,-0.017593221738934517,-0.4667373299598694,-0.2984643578529358,9.890392303466797
13.5,0.005526472348719835,0.0648542121052742,-0.012782590463757515,-0.35453078150749207,-0.07569177448749542,9.871170043945312
13.52,0.01585756242275238,0.060372043401002884,-0.0034517482854425907,-0.321104496717453,-0.04038308933377266,9.803821563720703
13.540000000000001,0.0016731319483369589,0.0639086589217186,-0.009786517359316349,-0.26691335439682007,0.08103133738040924,9.592440605163574
13.56,-0.03226231411099434,0.05050359666347504,-0.029091833159327507,-0.15495480597019196,0.17959269881248474,9.481010437011719
13.58,0.021292855963110924,0.03454476222395897,-0.020448211580514908,-0.04358239471912384,0.09393521398305893,9.506421089172363
13.6,-0.035740338265895844,0.02828107960522175,-0.007234216667711735,-0.000835970975458622,0.06254962831735611,9.655781745910645
13.620000000000001,-0.06422635912895203,0.040949102491140366,0.018225861713290215,-0.22636841237545013,0.12985053658485413,9.94223690032959
13.64,0.013414743356406689,0.1043064296245575,0.04106585308909416,-0.5098587870597839,-0.0033546006307005882,10.593267440795898
13.66,0.03947310149669647,0.13714194297790527,0.04845106974244118,-0.5354014039039612,-0.12118333578109741,10.287049293518066
13.68,-0.03056878037750721,0.1059151142835617,0.048320222645998,-0.3504660427570343,-0.058113180100917816,9.901516914367676
13.700000000000001,-0.014177489094436169,0.05841280519962311,0.024591654539108276,-0.32569795846939087,0.24030762910842896,9.502296447753906
13.72,0.041171904653310776,0.06830765306949615,-0.016878975555300713,-0.27521130442619324,0.18212535977363586,9.156944274902344
13.74,0.02129315584897995,0.10895645618438721,-0.03650250658392906,-0.15116478502750397,-0.03649743273854256,8.994403839111328
13.76,-0.013836863450706005,0.09904186427593231,-0.035895366221666336,-0.26504072546958923,-0.027793170884251595,9.291449546813965
13.780000000000001,0.040593221783638,0.059160780161619186,-0.03711863234639168,-0.62491774559021,0.11205577850341797,10.033257484436035
13.8,0.004507805220782757,0.018648000434041023,-0.011140955612063408,-0.9958307147026062,0.19410373270511627,10.453508377075195
13.82,-0.021732481196522713,-0.015451823361217976,-0.00020816107280552387,-0.9242158532142639,0.38010361790657043,10.44303035736084
13.84,0.009853912517428398,-0.06449980288743973,-0.00477967131882906,-0.75216144323349,0.21144738793373108,10.391707420349121
13.86,0.045397043228149414,-0.09496798366308212,-0.013270881958305836,-0.7399317622184753,-0.1552681028842926,9.981568336486816
13.88,0.024371864274144173,-0.1086159348487854,-0.022864652797579765,-0.8490613698959351,-0.2540152966976166,9.308833122253418
13.9,-0.00017193242092616856,-0.09622874855995178,-0.04592115804553032,-0.6778207421302795,-0.27528607845306396,8.867596626281738
13.92,-6.193618173711002e-05,-0.12131672352552414,-0.03283971548080444,-0.4012491703033447,-0.11536532640457153,9.033225059509277
13.94,0.013772699981927872,-0.1294434517621994,-0.021242590621113777,-0.36578279733657837,0.11084806174039841,9.73637580871582
13.96,0.034607887268066406,-0.08160870522260666,-0.011530553922057152,-0.5766204595565796,-0.009402228519320488,10.41811752319336
13.98,0.0121923191472888,-0.057963576167821884,-0.008728735148906708,-0.634836733341217,-0.12420563399791718,10.699810028076172
14.0,-0.05421764776110649,-0.0630120187997818,-0.04064302518963814,-0.41053152084350586,0.057514071464538574,10.411639213562012
14.02,-0.0450773648917675,-0.09284073114395142,-0.06755147874355316,-0.26600417494773865,0.4092201590538025,10.122148513793945
14.040000000000001,-0.05067026615142822,-0.0710204467177391,-0.039253294467926025,-0.07626955956220627,0.3552549481391907,9.987053871154785
14.06,-0.019700102508068085,-0.03454289585351944,-0.019073283299803734,0.247499018907547,0.1521608978509903,9.4878511428833
14.08,0.029057102277874947,-0.029771938920021057,0.003973140846937895,0.5431269407272339,0.07998187094926834,9.21826171875
14.1,0.009355563670396805,-0.05451372638344765,0.053438957780599594,0.2555971145629883,0.04219575598835945,9.903393745422363
14.120000000000001,0.01901441626250744,-0.05319100618362427,0.06465651839971542,-0.3398486375808716,0.2782435715198517,10.438520431518555
14.14,-0.02130494825541973,-0.03418083116412163,0.05983579158782959,-0.5770963430404663,0.2480396330356598,10.121546745300293
14.16,-0.03220986947417259,-0.026040159165859222,0.030021218582987785,-0.4642851650714874,0.04804493859410286,9.32966136932373
14.18,0.03630422428250313,-0.032637275755405426,-0.0035303006879985332,-0.2253601849079132,0.06896290928125381,8.5131196975708
14.200000000000001,0.027953049167990685,-0.03764309734106064,-0.025086985900998116,-0.014011161401867867,-0.032039426267147064,8.467188835144043
14.22,0.028298553079366684,-0.016864951699972153,-0.041663262993097305,-0.08810539543628693,-0.14297255873680115,8.863570213317871
14.24,0.029907718300819397,0.032708894461393356,-0.05373421311378479,-0.1960231512784958,-0.2341785430908203,9.487797737121582
14.26,0.005223461892455816,0.05190100520849228,-0.07889854907989502,-0.3681458532810211,-0.17411461472511292,10.260119438171387
14.280000000000001,0.021592289209365845,0.027672065421938896,-0.08868390321731567,-0.3898557424545288,0.1800086498260498,10.773430824279785
14.3,0.0089810686185956,-0.01655500940978527,-0.06186811625957489,-0.16899563372135162,0.3684566617012024,10.447378158569336
14.32,-0.0018725640838965774,0.019643913954496384,-0.016347574070096016,0.024390636011958122,0.06932470202445984,9.762632369995117
14.34,-0.04918156936764717,0.05637340992689133,0.008064258843660355,0.36915817856788635,-0.11760851740837097,9.68643856048584
14.36,-0.058341994881629944,0.0012987233931198716,0.0019198504742234945,0.41434770822525024,0.06809989362955093,10.042614936828613
14.38,-0.021066445857286453,-0.05958378314971924,0.0020594599191099405,-0.026936279609799385,0.4038376808166504,10.20082950592041
14.4,-0.01068488322198391,-0.06319291144609451,0.007650577463209629,-0.5269342660903931,0.4371720850467682,9.892520904541016
14.42,0.02554417960345745,-0.08839917182922363,0.00800887681543827,-0.8289464712142944,0.2753579616546631,9.460110664367676
14.44,0.030709778890013695,-0.10465353727340698,0.007095170672982931,-0.7783647179603577,-0.0244765505194664,9.397425651550293
14.46,0.05583234503865242,-0.09305258840322495,0.006167285144329071,-0.6244853138923645,-0.23655004799365997,9.758844375610352
14.48,0.036309972405433655,-0.09494448453187943,0.011071162298321724,-0.49235811829566956,-0.48520687222480774,10.020251274108887
14.5,0.016596904024481773,-0.08586394786834717,0.011183561757206917,-0.46512946486473083,-0.44138216972351074,9.799813270568848
14.52,0.054875511676073074,-0.0858723372220993,-0.0059815519489347935,-0.24634785950183868,-0.26794347167015076,9.575308799743652
14.540000000000001,0.06699661910533905,-0.10425086319446564,-0.014960800297558308,0.038360852748155594,-0.01373487152159214,9.646988868713379
14.56,0.060309313237667084,-0.09900874644517899,-0.01927855610847473,0.21958020329475403,0.11286412179470062,9.912529945373535
14.58,0.13469161093235016,-0.077538400888443,-0.00036138889845460653,0.3757380247116089,0.12745888531208038,9.778899192810059
14.6,0.04644155502319336,-0.06329437345266342,0.0091880913823843,0.3768661320209503,-0.018756918609142303,9.756908416748047
14.620000000000001,0.10866852849721909,-0.0605890192091465,0.0030064363963901997,0.34010952711105347,0.011845421977341175,9.501105308532715
14.64,0.08985283970832825,-0.05832162871956825,0.00024745322298258543,0.07172556966543198,0.21737492084503174,9.870200157165527
14.66,0.09208075702190399,-0.047333914786577225,-0.002101275837048888,-0.0016194579657167196,0.38919463753700256,10.037710189819336
14.68,0.061288218945264816,-0.03238125890493393,-0.0013698352267965674,-0.02146460860967636,0.37192046642303467,10.04992389678955
14.700000000000001,0.0528445802628994,-0.009841048158705235,0.0023029581643640995,-0.08616472035646439,0.33717969059944153,10.190339088439941
14.72,0.016799628734588623,-0.01514593418687582,0.013359639793634415,-0.0811302661895752,0.27276337146759033,9.934704780578613
14.74,0.03995636850595474,-0.032340142875909805,0.02454935945570469,-0.0013201915426179767,0.2780005633831024,9.693839073181152
14.76,0.07593337446451187,-0.039744988083839417,0.016108354553580284,0.0417780727148056,0.24043653905391693,9.81174373626709
14.780000000000001,0.03660963103175163,-0.026166437193751335,0.010313058272004128,0.049909524619579315,0.36293232440948486,10.022359848022461
14.8,0.009354190900921822,-0.044320378452539444,-0.004238540306687355,-0.0488116480410099,0.20843380689620972,9.979141235351562
14.82,-0.07448359578847885,-0.07746793329715729,-0.037118181586265564,-0.11048704385757446,0.3281678259372711,9.702988624572754
14.84,-0.05790896341204643,-0.0782523900270462,-0.050652552396059036,-0.06761007755994797,0.42529213428497314,9.328173637390137
14.86,-0.010387541726231575,-0.07180039584636688,-0.047503676265478134,0.019239317625761032,0.41825276613235474,9.00231647491455
14.88,-0.04258197546005249,-0.05625617876648903,-0.041032835841178894,0.07340894639492035,0.39766040444374084,9.132292747497559
14.9,-0.03546731546521187,-0.03541019558906555,-0.017077092081308365,0.16332712769508362,0.2998197078704834,9.819110870361328
14.92,-0.0933021530508995,-0.01462635025382042,0.013736897148191929,0.24081794917583466,0.1503937989473343,10.179476737976074
14.94,-0.09533083438873291,0.0018839226104319096,0.019844872877001762,0.14964759349822998,0.20930631458759308,10.346046447753906
14.96,-0.05675387382507324,0.0363163985311985,0.017129477113485336,0.18900571763515472,0.0915306955575943,9.976967811584473
14.98,-0.027200262993574142,0.07021703571081161,0.011103873141109943,0.2758758068084717,-0.044256776571273804,9.304766654968262
15.0,-0.002218568464741111,0.08282920718193054,-0.007578205782920122,0.20361149311065674,0.043726660311222076,9.19665241241455
15.02,-0.05032329261302948,0.12528902292251587,-0.031227415427565575,0.24001002311706543,-0.012181972153484821,9.345230102539062
15.040000000000001,0.05603595823049545,0.1529196947813034,-0.038027144968509674,0.2905277907848358,-0.02793160453438759,9.710679054260254
15.06,0.046809591352939606,0.15215109288692474,-0.01942039467394352,0.22849205136299133,-0.2501092255115509,10.485806465148926
15.08,0.02199622243642807,0.10186309367418289,-0.015401633456349373,0.08856973052024841,-0.24267174303531647,11.027201652526855
15.1,0.0031594322063028812,0.014035951346158981,0.0093545438721776,-0.12241308391094208,0.03397960215806961,11.425996780395508
15.120000000000001,0.011795581318438053,-0.029024392366409302,0.026103554293513298,0.21663326025009155,0.30490952730178833,10.502861976623535
15.14,-0.005333520472049713,-0.01796022616326809,0.03822699561715126,0.23519454896450043,0.027744587510824203,9.47465705871582
15.16,0.06290087103843689,-0.008487601764500141,0.0038116206414997578,0.20441921055316925,-0.252048522233963,8.782218933105469
15.18,0.06030448153614998,-0.04959778115153313,-0.01592910662293434,-0.24617545306682587,-0.3007495105266571,9.120087623596191
15.200000000000001,0.0012702344683930278,-0.08463892340660095,-0.013927017338573933,-0.7093985080718994,0.08227377384901047,9.9148530960083
15.22,0.0036698111798614264,-0.0616365447640419,-0.003855425864458084,-1.154118537902832,0.3998531997203827,10.2176513671875
15.24,0.06235341727733612,-0.03851858153939247,0.003878124989569187,-1.0616986751556396,0.6740255355834961,10.038989067077637
15.26,0.03773925080895424,-0.06866564601659775,0.011220911517739296,-0.592868983745575,0.546630859375,9.49190616607666
15.280000000000001,0.05136542394757271,-0.07237927615642548,-0.006233661901205778,-0.019729577004909515,0.609707772731781,9.323189735412598
15.3,-0.022005373612046242,-0.04163660854101181,-0.045038141310214996,0.32534462213516235,0.5650086402893066,9.507402420043945
15.32,-0.03620525076985359,0.02359197661280632,-0.055621739476919174,0.49987420439720154,0.2610495686531067,9.793933868408203
15.34,0.0018580617615953088,0.018813544884324074,-0.05060911178588867,0.6531819105148315,-0.08447852730751038,9.722306251525879
15.36,-0.04224350303411484,0.00484961224719882,-0.034585535526275635,0.365883469581604,-0.18691882491111755,9.92880916595459
15.38,-0.05320211499929428,0.018237287178635597,-0.02550581283867359,-0.06999268382787704,-0.20212821662425995,10.370044708251953
15.4,-0.06731347739696503,0.0015402451390400529,-0.028643153607845306,-0.0023284906055778265,-0.02069370448589325,10.430419921875
15.42,-0.0433802530169487,0.0015145777724683285,-0.011084300465881824,0.29702821373939514,0.22107549011707306,9.892269134521484
15.44,-0.04261227324604988,-0.0059781260788440704,-0.016204776242375374,0.444386750459671,0.38376232981681824,9.488842964172363
15.46,0.018887370824813843,-0.017411505803465843,-0.009406392462551594,0.4638412594795227,0.5193873047828674,9.556438446044922
15.48,-0.004065027926117182,-0.025455579161643982,-0.013589357025921345,0.4221515357494354,0.5447717308998108,9.603471755981445
15.5,0.0019439717289060354,-0.024215318262577057,-0.007553620729595423,0.23680593073368073,0.3209269344806671,9.698542594909668
15.52,-0.022782448679208755,-0.03412756696343422,-0.0011335150338709354,0.14557963609695435,0.05759957805275917,9.600339889526367
15.540000000000001,0.020734822377562523,-0.062291234731674194,0.011733299121260643,0.0032203292939811945,-0.09403097629547119,9.34679889678955
15.56,-0.021538840606808662,-0.06840716302394867,0.01769954524934292,-0.021775396540760994,-0.151061549782753,9.290523529052734
15.58,0.03949396312236786,-0.05848902463912964,0.03291366621851921,-0.09872259199619293,-0.16173802316188812,9.617606163024902
15.6,0.046547405421733856,-0.05135176703333855,0.048363327980041504,-0.13723275065422058,-0.2031213790178299,9.609466552734375
15.620000000000001,0.07688406854867935,-0.0812760442495346,0.05465292930603027,-0.050902359187603,-0.048998795449733734,9.351701736450195
15.64,0.0908077210187912,-0.07755964249372482,0.06123623251914978,-0.11351029574871063,0.03998264670372009,9.664012908935547
15.66,0.09431728720664978,-0.017055660486221313,0.06167643889784813,-0.3537730872631073,-0.10149218142032623,10.911534309387207
15.68,0.11404774338006973,0.020132984966039658,0.042498622089624405,-0.4373221695423126,-0.04875430837273598,10.968457221984863
15.700000000000001,0.09639856964349747,-0.005809529684484005,0.031159643083810806,-0.09927445650100708,0.03949832543730736,10.141014099121094
15.72,0.12853272259235382,-0.033086925745010376,0.026091350242495537,0.315416157245636,0.3637194335460663,9.47072982788086
15.74,0.17613175511360168,0.004620843566954136,0.0240113977342844,0.5760276317596436,0.400094211101532,9.245942115783691
15.76,0.12943217158317566,0.05100229009985924,0.0064545487985014915,0.8123560547828674,0.3220140039920807,9.190401077270508
15.780000000000001,0.13137497007846832,0.03790602087974548,-0.026486307382583618,0.7123450636863708,0.41474395990371704,9.353307723999023
15.8,0.09361729770898819,0.03690492361783981,-0.037461262196302414,0.2661140561103821,0.4825098514556885,9.976896286010742
15.82,0.07508770376443863,0.028794223442673683,-0.03269576281309128,-0.2175045907497406,0.5368391871452332,10.713614463806152
15.84,0.06661839783191681,0.07015394419431686,-0.04713592678308487,-0.36748069524765015,0.44677862524986267,10.767054557800293
15.860000000000001,0.037833038717508316,0.0699639618396759,-0.053635723888874054,0.04278244450688362,0.39994966983795166,9.801288604736328
15.88,-0.01512109488248825,0.015913667157292366,-0.033647164702415466,0.41238194704055786,0.34778016805648804,8.98818588256836
15.9,0.000268633128143847,0.000742320204153657,0.008216709829866886,0.4493705928325653,0.4766009747982025,8.849407196044922
15.92,-0.019251618534326553,0.0022809237707406282,0.022356972098350525,0.197890967130661,0.5914881229400635,9.014219284057617
15.94,-0.06726077944040298,-0.01662924885749817,0.036168865859508514,-0.10255832225084305,0.7028681635856628,9.540691375732422
15.96,-0.07763784378767014,-0.04116542637348175,0.019036760553717613,-0.35629522800445557,1.1297340393066406,10.070622444152832
15.98,-0.11130999773740768,-0.060710418969392776,-1.75410823430866e-05,-0.3590126633644104,1.178065299987793,10.023635864257812
16.0,-0.09559305012226105,-0.0759100392460823,-0.011236973106861115,-0.2896752655506134,1.2317185401916504,9.917142868041992
16.02,-0.02737381123006344,-0.10915730893611908,0.01209576427936554,-0.19343021512031555,0.6146413087844849,9.95116138458252
16.04,-0.07848681509494781,-0.13448993861675262,0.011661253869533539,-0.047193095088005066,-0.048807721585035324,9.95328140258789
16.06,-0.08830626308917999,-0.16287711262702942,0.009126168675720692,-0.05689379572868347,-0.1165931448340416,10.10512924194336
16.080000000000002,-0.054617516696453094,-0.14042647182941437,-0.0026343418285250664,-0.15691909193992615,-0.1297241449356079,10.275137901306152
16.1,-0.06813979148864746,-0.13156770169734955,-0.008159871213138103,-0.2554284632205963,-0.07521326094865799,10.278754234313965
16.12,-0.04370556026697159,-0.14411722123622894,-0.005025933496654034,-0.24348518252372742,-0.007504566106945276,9.78208065032959
16.14,-0.020124292001128197,-0.1718282848596573,-0.0024082758463919163,-0.23789070546627045,-0.08524401485919952,9.715582847595215
16.16,-0.07068084925413132,-0.1534385085105896,-0.016960294917225838,-0.05216214433312416,0.0716775581240654,10.367623329162598
16.18,-0.0075501068495213985,-0.07707621157169342,-0.03151371330022812,0.35941755771636963,0.30432188510894775,10.28354263305664
16.2,-0.01912197843194008,-0.042182307690382004,-0.03567442297935486,0.7577318549156189,0.13489849865436554,9.38363265991211
16.22,-0.04857883229851723,-0.04743165895342827,-0.056952573359012604,0.9645642042160034,0.16641102731227875,9.067838668823242
16.240000000000002,-0.02685340866446495,-0.029484910890460014,-0.022004850208759308,1.050947666168213,0.29556867480278015,9.417378425598145
16.26,0.042291734367609024,-0.010441429913043976,0.013130329549312592,1.23035728931427,0.231769397854805,9.784831047058105
16.28,-0.0020582755096256733,0.027503201737999916,0.03011024370789528,1.314487099647522,0.39778825640678406,9.5643949508667
16.3,0.012314744293689728,0.05750551074743271,0.05420942232012749,1.1895012855529785,0.6338343620300293,9.23515510559082
16.32,0.04235273599624634,0.06968871504068375,0.05418846011161804,1.0736045837402344,0.5513988137245178,8.958093643188477
16.34,0.074449323117733,0.11363348364830017,0.03715147823095322,1.0258811712265015,0.414394736289978,8.994140625
16.36,0.022989923134446144,0.17129892110824585,0.023173002526164055,0.9654973745346069,0.3742811679840088,9.442392349243164
16.38,0.06026618182659149,0.20261329412460327,-0.005227284040302038,0.8526554107666016,0.29156404733657837,9.958572387695312
16.4,0.03526436164975166,0.1612206995487213,-0.022711461409926414,0.5681989192962646,0.1517665982246399,10.209426879882812
16.42,0.010312644764780998,0.1281764954328537,-0.014216790907084942,0.13793644309043884,0.10590894520282745,10.17719841003418
16.44,0.041891444474458694,0.15235581994056702,0.0012446398613974452,-0.35466375946998596,0.3102484941482544,10.390454292297363
16.46,0.05777781829237938,0.14370472729206085,0.005368795245885849,-0.6420436501502991,0.4198327660560608,10.452198028564453
16.48,-0.022141100838780403,0.10372200608253479,-0.011968533508479595,-0.6261476874351501,0.36875319480895996,10.342459678649902
16.5,-0.012732470408082008,0.11182741075754166,-0.02562452293932438,-0.37257131934165955,0.46342232823371887,10.10921859741211
16.52,-0.0368315726518631,0.10763629525899887,-0.030548401176929474,-0.05674093961715698,0.4036265015602112,9.59257698059082
16.54,-0.05061323195695877,0.07121193408966064,-0.021544283255934715,0.07946259528398514,0.46000051498413086,9.304240226745605
16.56,-0.05554907023906708,0.00239512394182384,0.0004466894897632301,0.027829710394144058,0.49218103289604187,9.257682800292969
16.580000000000002,-0.0801437571644783,-0.007091294042766094,0.0036038272082805634,-0.2974802255630493,0.45620566606521606,9.749775886535645
16.6,-0.022613609209656715,-0.029376044869422913,0.033147502690553665,-0.5875135064125061,0.4378471076488495,10.14290714263916
16.62,-0.02681450918316841,-0.033461011946201324,0.01679299958050251,-0.599378228187561,0.32053902745246887,10.307769775390625
16.64,0.013002482242882252,-0.035859301686286926,-0.004061881918460131,-0.2849069833755493,0.02099691703915596,10.069828033447266
16.66,-0.006870065815746784,-0.05314100906252861,-0.011933284811675549,0.20963165163993835,0.031295906752347946,9.451725006103516
16.68,0.010110128670930862,-0.05729515478014946,-0.028037868440151215,0.4090660810470581,0.11495804786682129,9.08678913116455
16.7,0.03090105764567852,-0.062057506293058395,-0.033598341047763824,0.4799571931362152,-0.03894636034965515,9.106813430786133
16.72,0.022107703611254692,-0.03705338388681412,-0.02812674082815647,0.4641071557998657,0.031068723648786545,9.510944366455078
16.740000000000002,0.028679588809609413,-0.01818261295557022,-0.026267319917678833,0.3894721567630768,0.05733952671289444,9.57731819152832
16.76,0.014626635238528252,-0.021702168509364128,-0.011821512132883072,0.1616518199443817,0.29152894020080566,9.464198112487793
16.78,0.0028993566520512104,-0.011534104123711586,0.009902534075081348,-0.03906127065420151,0.35998448729515076,9.403631210327148
16.8,0.04092249274253845,0.002131319371983409,0.02881239354610443,-0.08606166392564774,0.1909884214401245,9.624734878540039
16.82,0.05731935426592827,0.03643714636564255,0.03539978712797165,-0.11534854024648666,0.09404084086418152,10.39097785949707
16.84,0.06047726422548294,0.042076822370290756,0.046410344541072845,0.05277489125728607,0.17132750153541565,10.497210502624512
16.86,0.041733384132385254,0.022452492266893387,0.059178855270147324,0.178127720952034,0.297345906496048,10.27026081085205
16.88,0.06670330464839935,0.0405590645968914,0.049579039216041565,0.27364644408226013,0.2621224522590637,9.893447875976562
16.9,0.06545030325651169,0.05164717137813568,0.05462634563446045,0.34876954555511475,0.391876757144928,9.675541877746582
16.92,0.02923808991909027,0.07826950401067734,0.030368607491254807,0.39915362000465393,0.5887051820755005,9.585126876831055
16.94,0.017343461513519287,0.05972791463136673,0.013120717369019985,0.2436477392911911,0.7024268507957458,10.010527610778809
16.96,0.03167744353413582,0.03157518059015274,0.020802611485123634,-0.08403067290782928,0.6133320331573486,10.46713924407959
16.98,0.022726137191057205,0.026584820821881294,0.019340937957167625,-0.31114843487739563,0.4923904240131378,10.439261436462402
17.0,0.06023342162370682,0.02426234818994999,0.015515685081481934,-0.23497545719146729,0.18522749841213226,9.757603645324707
17.02,0.006604173686355352,0.02781052328646183,0.0020619146525859833,-0.06079285591840744,0.10630716383457184,9.066045761108398
17.04,0.0018303620163351297,0.02032426930963993,-0.01647251471877098,0.04518820345401764,0.22079351544380188,8.9673433303833
17.06,0.02470436692237854,0.024065455421805382,-0.01608908362686634,0.12037427723407745,0.4660555124282837,9.429909706115723
17.080000000000002,0.02908516488969326,-0.0071479156613349915,0.006030217278748751,0.161112979054451,0.5228545069694519,9.911347389221191
17.1,-0.002740353811532259,-0.023704852908849716,0.018129674717783928,0.016855910420417786,0.5216870903968811,10.250043869018555
17.12,-0.0073263077065348625,0.013854957185685635,0.02398749440908432,-0.2832435369491577,0.41087785363197327,10.224784851074219
17.14,-0.028426561504602432,0.025635866448283195,0.03222178295254707,-0.45376643538475037,0.039247360080480576,9.95612907409668
17.16,-0.009420041926205158,0.03128891438245773,0.039425741881132126,-0.3535729944705963,-0.007445123046636581,9.489163398742676
17.18,-0.043825142085552216,0.05425429344177246,0.048880983144044876,-0.2344466745853424,0.21389101445674896,9.657661437988281
17.2,0.03922087699174881,0.057041335850954056,0.03588220477104187,0.053829677402973175,0.2607548236846924,9.750892639160156
17.22,0.02729015052318573,0.05483993515372276,0.029136965051293373,0.21960635483264923,0.32486191391944885,9.748351097106934
17.240000000000002,0.027238154783844948,0.06844225525856018,0.017379028722643852,0.36830297112464905,0.4817262887954712,9.848739624023438
17.26,0.019075052812695503,0.055122796446084976,0.007108324207365513,0.27343639731407166,0.5914703607559204,10.0270357131958
17.28,0.004635411314666271,0.01539675798267126,0.02532237395644188,0.270058810710907,0.4180559813976288,9.696958541870117
17.3,0.07921265810728073,0.0027611078694462776,0.04449202120304108,0.1740790158510208,0.2645772099494934,9.45859432220459
17.32,0.10769610852003098,0.018142517656087875,0.05514991655945778,0.09476643800735474,0.18597497045993805,9.248479843139648
17.34,0.06888478994369507,-0.0005306778475642204,0.04654422029852867,-0.09391964972019196,0.14105196297168732,9.335721969604492
17.36,0.07077792286872864,-0.01693309284746647,0.010783473029732704,-0.31277042627334595,0.3171793520450592,9.653427124023438
17.38,0.061271294951438904,-0.050888542085886,-0.0011750174453482032,-0.5011493563652039,0.5959736704826355,10.21294116973877
17.400000000000002,0.03557130694389343,-0.042487893253564835,-0.008546151220798492,-0.5462385416030884,0.6209878921508789,10.143446922302246
17.42,0.016413811594247818,-0.02645188942551613,-0.03983524814248085,-0.5241480469703674,0.20639878511428833,9.7636137008667
17.44,-0.008125399239361286,-0.039434999227523804,-0.10616815835237503,-0.3411779999732971,0.28710711002349854,9.146565437316895
17.46,-0.01389895286411047,-0.05840025842189789,-0.16326385736465454,0.004238670691847801,0.3653940260410309,8.89631462097168
17.48,-0.0381280817091465,-0.04167073965072632,-0.21672652661800385,0.2033463418483734,0.10057904571294785,9.085750579833984
17.5,-0.07531602680683136,-0.04436472803354263,-0.2548384964466095,0.45961686968803406,0.14067533612251282,9.56973934173584
17.52,-0.006743619684129953,0.0016203881241381168,-0.2803818881511688,0.42068231105804443,0.3506142795085907,9.671689987182617
17.54,-0.056352920830249786,0.0409700982272625,-0.26091673970222473,-0.008765186183154583,0.28013357520103455,10.43470573425293
17.56,-0.06540586799383163,0.05087542533874512,-0.2124636322259903,-0.0204594936221838,0.5538614392280579,10.3733491897583
17.580000000000002,-0.12553612887859344,0.07311403006315231,-0.18813100457191467,-0.19133152067661285,0.2446518987417221,9.377836227416992
17.6,-0.13016682863235474,0.11151767522096634,-0.21879234910011292,0.1086307093501091,0.2958822250366211,8.804418563842773
17.62,-0.10652292519807816,0.1891259253025055,-0.24756136536598206,0.13752539455890656,0.31781452894210815,9.083633422851562
17.64,-0.08344484120607376,0.23098579049110413,-0.2628016173839569,0.24382394552230835,0.11945917457342148,9.854192733764648
17.66,-0.12158159911632538,0.21833345293998718,-0.27936825156211853,0.2637802064418793,-0.12866787612438202,9.983359336853027
17.68,-0.05787796154618263,0.225828617811203,-0.2843758761882782,0.3283497989177704,0.49865028262138367,10.667784690856934
17.7,0.032023850828409195,0.2010592222213745,-0.26030421257019043,0.19210407137870789,0.19392050802707672,11.063188552856445
17.72,-0.05225459113717079,0.19522684812545776,-0.2630172669887543,0.22334907948970795,0.2834451496601105,9.881070137023926
17.740000000000002,-0.00852644070982933,0.20799857378005981,-0.2762034833431244,-0.07922190427780151,0.20651665329933167,8.701689720153809
17.76,-0.05307432636618614,0.19260796904563904,-0.31111833453178406,-0.42505642771720886,0.372079461812973,8.915371894836426
17.78,-0.041396841406822205,0.11631565541028976,-0.2929992973804474,-0.7625414729118347,0.6108600497245789,10.58115291595459
17.8,-0.0245988667011261,0.039988722652196884,-0.2513929009437561,-0.8765232563018799,0.6316494941711426,11.08742618560791
17.82,-0.014508933760225773,0.0009638704941608012,-0.23493734002113342,-0.771038293838501,0.4793693721294403,10.557106018066406
17.84,-0.012294516898691654,-0.04883492738008499,-0.23643119633197784,-0.5211509466171265,0.3158769905567169,9.562511444091797
17.86,-0.01400021929293871,-0.08398586511611938,-0.25551456212997437,-0.5988644957542419,0.2284816950559616,8.747084617614746
17.88,-0.01885244995355606,-0.1284589320421219,-0.27403324842453003,-1.0528510808944702,0.14639697968959808,9.69781494140625
17.900000000000002,-0.04781140759587288,-0.1470378190279007,-0.2616315484046936,-1.8010567426681519,0.12790308892726898,11.218893051147461
17.92,0.00853641051799059,-0.14472925662994385,-0.23283173143863678,-1.7223880290985107,0.1184496209025383,10.64562702178955
17.94,-0.03142177686095238,-0.16492679715156555,-0.20224794745445251,-1.181042194366455,-0.204797625541687,9.82184886932373
17.96,-0.020217886194586754,-0.1488945186138153,-0.18374685943126678,-0.9679735898971558,-0.3959818184375763,9.03885555267334
17.98,-0.007930024527013302,-0.10680455714464188,-0.1760745644569397,-0.8756908774375916,-0.6125977039337158,9.060171127319336
18.0,-0.04689020663499832,-0.04203319922089577,-0.14224600791931152,-0.6251814365386963,-0.5964264869689941,9.666449546813965
18.02,0.026416905224323273,0.011256652884185314,-0.1032281145453453,-0.6914435625076294,-0.315748006105423,9.685659408569336
18.04,-0.08167589455842972,0.026950933039188385,-0.08117113262414932,-0.7325783371925354,-0.22712722420692444,9.794700622558594
18.06,-0.03766832873225212,0.029871759936213493,-0.08583752810955048,-0.3347061276435852,-0.15926119685173035,9.836980819702148
18.080000000000002,-0.03938085585832596,0.0255137886852026,-0.0726175457239151,0.6013418436050415,-0.16715332865715027,9.142487525939941
18.1,0.008576189167797565,0.06548330187797546,-0.044557347893714905,0.919169008731842,-0.09900617599487305,9.331473350524902
18.12,0.04656023532152176,0.12459000200033188,-0.03535781800746918,1.1956112384796143,0.233674556016922,9.613105773925781
18.14,0.039072874933481216,0.14600498974323273,-0.04061383008956909,1.4511775970458984,0.4123741686344147,10.071626663208008
18.16,0.04346681013703346,0.12431523203849792,-0.06186522915959358,1.18215811252594,0.48208051919937134,10.364253997802734
18.18,0.0037316293455660343,0.08969446271657944,-0.07330317050218582,0.4838225543498993,0.48226240277290344,10.816448211669922
18.2,-0.0188642218708992,0.06928955763578415,-0.05928008258342743,-0.027032678946852684,0.5040282607078552,10.626018524169922
18.22,-0.002315836725756526,0.08235175162553787,-0.022360458970069885,-0.15029582381248474,0.3106072247028351,10.473188400268555
18.240000000000002,0.04036099463701248,0.09148181229829788,0.01906554028391838,-0.07801300287246704,-0.0188017375767231,9.405038833618164
18.26,0.053012315183877945,0.08106529712677002,0.05060214549303055,-0.16757497191429138,-0.22628328204154968,8.810127258300781
18.28,0.03870226815342903,0.06775122880935669,0.04754842445254326,-0.34568262100219727,-0.2890219986438751,8.749571800231934
18.3,0.05899560824036598,0.060740094631910324,0.03936426341533661,-0.5968514680862427,-0.10517193377017975,9.049457550048828
18.32,0.06095287203788757,0.07376595586538315,0.023659422993659973,-0.9016289114952087,0.13495877385139465,9.70716381072998
18.34,0.09594475477933884,0.07536663115024567,0.028604358434677124,-1.0975834131240845,0.1789112389087677,10.051769256591797
18.36,0.09534799307584763,0.06708067655563354,0.036698345094919205,-1.0524955987930298,0.20532813668251038,9.796509742736816
18.38,0.09541556239128113,0.07070121169090271,0.029230033978819847,-0.8589908480644226,0.3085935413837433,9.76746940612793
18.400000000000002,0.05230515077710152,0.07210129499435425,0.01498145330697298,-0.5059432983398438,0.3225638270378113,9.740586280822754
18.42,0.05712869390845299,0.0724157840013504,-0.0019014698918908834,-0.21150913834571838,0.3151029050350189,9.631710052490234
18.44,0.088966503739357,0.06040218099951744,-0.030349645763635635,-0.10107995569705963,0.20153099298477173,9.690530776977539
18.46,-0.0006020224536769092,0.030134933069348335,-0.037416793406009674,-0.28433147072792053,0.23352810740470886,9.762711524963379
18.48,0.008564864285290241,0.028908733278512955,-0.042169470340013504,-0.5064859986305237,0.34406301379203796,9.449882507324219
18.5,0.055146217346191406,0.0167671088129282,-0.04182809963822365,-0.717461109161377,0.37113508582115173,9.314550399780273
18.52,-0.0120887765660882,-0.014218820258975029,-0.04210038110613823,-1.0997297763824463,0.5898372530937195,9.883536338806152
18.54,-0.023248102515935898,-0.06495991349220276,-0.059243667870759964,-1.1856659650802612,0.8517983555793762,9.972370147705078
18.56,-0.09071478247642517,-0.09479717165231705,-0.07380613684654236,-0.9557634592056274,0.8178794980049133,10.07210922241211
18.580000000000002,-0.038232702761888504,-0.08541478216648102,-0.09190310537815094,-0.9846689105033875,0.7791087627410889,10.139358520507812
18.6,-0.08797256648540497,-0.08710110932588577,-0.09502789378166199,-0.9869027733802795,0.45180654525756836,10.234053611755371
18.62,-0.05244220420718193,-0.1361122578382492,-0.07774767279624939,-0.8086917996406555,0.2774279713630676,10.114728927612305
18.64,-0.1045961007475853,-0.17482545971870422,-0.03532872721552849,-0.6511009931564331,0.07476230710744858,9.698283195495605
18.66,-0.11974459886550903,-0.21276028454303741,-0.018281659111380577,-1.0752969980239868,0.11256645619869232,9.216375350952148
18.68,-0.11084359139204025,-0.21231618523597717,-0.017154725268483162,-0.7280576229095459,0.17242056131362915,8.942363739013672
18.7,-0.0996033102273941,-0.23477864265441895,-0.07542986422777176,-0.22867032885551453,0.22358587384223938,9.05566692352295
18.72,-0.1057109534740448,-0.26329758763313293,-0.1383569836616516,0.1275199055671692,0.2718978822231293,10.012287139892578
18.740000000000002,-0.05463480204343796,-0.27404341101646423,-0.16336603462696075,0.2993955910205841,-0.07354916632175446,10.33476734161377
18.76,0.034788962453603745,-0.22816938161849976,-0.16804294288158417,0.23148895800113678,-0.1433136761188507,9.506977081298828
18.78,0.05198054760694504,-0.23582077026367188,-0.1592428833246231,0.07854273170232773,-0.43127140402793884,9.427692413330078
