time,wx,wy,wz,ax,ay,az
0.0,-0.0038400166667997837,-0.0006660213111899793,0.017445595934987068,0.39859747886657715,-0.34509193897247314,8.842522621154785
0.02,-0.02124122902750969,0.071145199239254,0.01247040182352066,0.27103301882743835,-0.3761267066001892,9.452775955200195
0.04,-0.00434477161616087,0.09634299576282501,0.00956494640558958,0.48565688729286194,-0.16369597613811493,9.794111251831055
0.06,-0.004734263755381107,0.05582514777779579,-0.00582046527415514,0.46948519349098206,-0.054168492555618286,9.915827751159668
0.08,-0.023434771224856377,0.04205505549907684,-0.00792224146425724,0.08586341142654419,-0.09838421642780304,10.290496826171875
0.1,-0.013653196394443512,0.04952063784003258,0.004466395825147629,-0.12281902879476547,-0.143832266330719,10.455573081970215
0.12,0.011602011509239674,0.06254809349775314,0.021053247153759003,-0.09663330763578415,-0.2341112345457077,10.375045776367188
0.14,0.029454531148076057,0.04031921178102493,0.01596199907362461,-0.06177521497011185,-0.3577529788017273,9.928937911987305
0.16,0.05185588449239731,-0.0165726151317358,0.015529639087617397,-0.1304086148738861,-0.2604100704193115,9.831446647644043
0.18,0.06073390319943428,-0.01729654148221016,0.026537777855992317,-0.5585479736328125,-0.02149389125406742,9.992875099182129
0.2,0.08097179979085922,0.005215627606958151,0.02971506118774414,-0.5266368389129639,0.011923657730221748,9.904627799987793
0.22,0.12472172826528549,0.00373432831838727,0.04435224458575249,-0.28397050499916077,-0.029871748760342598,9.742554664611816
0.24,0.09529624879360199,-0.05640675500035286,0.05654347315430641,0.08370695263147354,-0.19432887434959412,9.728464126586914
0.26,0.1483084112405777,-0.05942969024181366,0.05370150879025459,0.1607154905796051,-0.36923936009407043,9.761345863342285
0.28,0.1584433615207672,-0.02309836447238922,0.02907123602926731,0.2638598382472992,-0.3663876950740814,9.910150527954102
0.3,0.09765410423278809,0.07193154841661453,0.004798952490091324,0.180759459733963,-0.13215884566307068,10.121010780334473
0.32,0.08128152787685394,0.10186979919672012,-0.03360943868756294,0.3576931059360504,0.08445122838020325,9.580548286437988
0.34,0.0931968167424202,0.0970301628112793,-0.05265529081225395,0.3461427390575409,0.30268654227256775,9.248468399047852
0.36,0.12048059701919556,0.08034631609916687,-0.05303223803639412,0.3658178150653839,0.34490931034088135,9.0643892288208
0.38,0.1161021813750267,0.1268869936466217,-0.04337197169661522,0.5894294381141663,0.2587844729423523,9.2930326461792
0.4,0.08016129583120346,0.18711355328559875,-0.05001109838485718,0.912482738494873,0.2925962507724762,9.172389030456543
0.42,0.053545840084552765,0.20920328795909882,-0.046357594430446625,1.2270057201385498,0.44782334566116333,9.473968505859375
0.44,0.016614453867077827,0.1730966418981552,-0.03323850780725479,1.2304627895355225,0.7447042465209961,9.757895469665527
0.46,0.04467025026679039,0.16963374614715576,-0.04003780707716942,0.9792110919952393,0.9031368494033813,9.674612045288086
0.48,0.045614443719387054,0.17013035714626312,-0.020626040175557137,0.5815707445144653,0.5443903207778931,9.613152503967285
0.5,0.034371986985206604,0.11574430018663406,-0.002944338135421276,-0.021738139912486076,0.33966466784477234,9.946268081665039
0.52,0.03507480025291443,0.04903426021337509,0.019013559445738792,-0.49771028757095337,0.08953865617513657,9.717965126037598
0.54,0.06681574881076813,-0.002737626666203141,0.03626580536365509,-0.5371109843254089,-0.14184731245040894,9.600127220153809
0.56,0.09250769019126892,-0.05297152325510979,0.03522342070937157,-0.5761950612068176,-0.5224518775939941,9.986183166503906
0.58,0.022845685482025146,-0.10761580616235733,-0.00011233845725655556,-0.8023022413253784,-0.5509766936302185,9.869470596313477
0.6,0.00591811491176486,-0.1381884068250656,-0.04487475007772446,-0.8996023535728455,-0.08030874282121658,9.624889373779297
0.62,0.024692656472325325,-0.1437745988368988,-0.08450775593519211,-0.8973867893218994,0.45947936177253723,9.545772552490234
0.64,0.013850987888872623,-0.1893748641014099,-0.08598008751869202,-1.1288954019546509,0.8211645483970642,9.460594177246094
0.66,0.038723770529031754,-0.21590664982795715,-0.05922859534621239,-1.10956609249115,0.7653027176856995,10.033783912658691
0.68,0.04852204769849777,-0.24305805563926697,-0.06499747186899185,-0.9354454278945923,0.5117940306663513,9.951366424560547
0.7000000000000001,0.04348021373152733,-0.2336955964565277,-0.055231284350156784,-0.658197283744812,0.09993788599967957,9.604751586914062
0.72,-0.045936908572912216,-0.2066328227519989,-0.06821945309638977,-0.6747084856033325,0.018281005322933197,9.503050804138184
0.74,-0.08146941661834717,-0.146341010928154,-0.09084446728229523,-0.6479249596595764,0.3686508238315582,9.770013809204102
0.76,-0.11093217879533768,-0.09187892824411392,-0.08609886467456818,-0.06106657162308693,0.19526448845863342,9.764874458312988
0.78,-0.16604046523571014,-0.08592301607131958,-0.061238933354616165,0.155267134308815,0.20519448816776276,9.520075798034668
0.8,-0.15352223813533783,-0.06787310540676117,-0.03300245851278305,0.6300499439239502,0.33549511432647705,9.544736862182617
0.8200000000000001,-0.19983036816120148,-0.049220696091651917,-0.03632516786456108,1.3918641805648804,0.6014397144317627,9.818835258483887
0.84,-0.2021421492099762,-0.022859998047351837,-0.05899139121174812,1.981606125831604,0.6733095049858093,9.577695846557617
0.86,-0.23286744952201843,-0.004192308057099581,-0.0848260372877121,1.8586761951446533,0.7964816689491272,9.661870002746582
0.88,-0.22598429024219513,0.04003231227397919,-0.09369155764579773,1.3373456001281738,0.6044951677322388,10.686333656311035
0.9,-0.15963119268417358,0.10007276386022568,-0.05309373140335083,0.7573490738868713,0.09847676753997803,11.466733932495117
0.92,-0.21021625399589539,0.10011425614356995,0.004736263770610094,0.3662564158439636,-0.34945762157440186,10.879061698913574
0.9400000000000001,-0.14504259824752808,0.05316009745001793,0.03387171030044556,0.3167070150375366,-0.43391966819763184,10.565689086914062
0.96,-0.11806099116802216,0.028353551402688026,0.035569023340940475,0.3118966817855835,-0.28045645356178284,9.742975234985352
0.98,-0.13257326185703278,0.08864960074424744,0.028138989582657814,0.5026305913925171,-0.1818704903125763,9.253377914428711
1.0,-0.078518345952034,0.1184239387512207,0.012381467036902905,0.6246888637542725,-0.402660608291626,9.164341926574707
1.02,-0.056938569992780685,0.06564891338348389,0.006141830701380968,0.464768648147583,-0.675337553024292,9.641464233398438
1.04,-0.006273317616432905,-0.022611647844314575,-0.00373245170339942,0.13725414872169495,-0.6857390403747559,9.85680866241455
1.06,-0.010090732015669346,-0.04751386493444443,0.018834104761481285,-0.2668394446372986,-0.6216814517974854,9.631911277770996
1.08,0.02092084474861622,-0.03473752364516258,0.03196258842945099,-0.5343588590621948,-0.3931351900100708,9.433244705200195
1.1,0.012160326354205608,-0.06752896308898926,0.040283072739839554,-0.44459089636802673,-0.25474533438682556,9.025784492492676
1.12,0.03674428537487984,-0.0904417484998703,0.06027177721261978,-0.44506391882896423,-0.11107330024242401,9.656153678894043
1.1400000000000001,0.04885146766901016,-0.05230757221579552,0.05628856271505356,-0.5556262135505676,0.08573715388774872,10.283012390136719
1.16,0.015970947220921516,-0.030453907325863838,0.03260735422372818,-0.3463418781757355,-0.12611164152622223,10.572875022888184
1.18,-0.00684704864397645,-0.05040574073791504,0.011257401667535305,0.13251404464244843,-0.03322659805417061,10.379233360290527
1.2,0.013529333285987377,-0.061484843492507935,-1.9897383026545867e-05,0.25841832160949707,-0.12407561391592026,10.012078285217285
1.22,0.005938768852502108,-0.014286018908023834,0.012206914834678173,0.2949925661087036,-0.12081259489059448,9.534344673156738
1.24,0.0443781279027462,0.03903717175126076,0.023163218051195145,0.4400644898414612,-0.028009604662656784,8.957561492919922
1.26,0.040270086377859116,0.04056511074304581,0.025292688980698586,0.6629437804222107,0.03737463057041168,8.974613189697266
1.28,0.031900715082883835,0.041868165135383606,0.022953879088163376,0.739302933216095,0.12045266479253769,9.87185287475586
1.3,0.04347792640328407,0.056195713579654694,0.052542705088853836,0.626078724861145,0.20233970880508423,10.082263946533203
1.32,0.08733489364385605,0.08503305166959763,0.06870092451572418,0.6058565378189087,0.2876633405685425,9.344900131225586
1.34,0.02881575934588909,0.1035456657409668,0.07495071738958359,0.7683629393577576,0.2274617999792099,8.793599128723145
1.36,0.064594566822052,0.10659176856279373,0.07745344191789627,0.7512461543083191,-0.031027832999825478,9.088638305664062
1.3800000000000001,0.06643109023571014,0.07385777682065964,0.0646706074476242,0.5906530022621155,-0.3270728588104248,9.891681671142578
1.4000000000000001,0.09030832350254059,0.07193288207054138,0.0395766980946064,0.4269048571586609,-0.6100698709487915,10.354933738708496
1.42,0.04293625056743622,0.06498684734106064,0.024323131889104843,-0.013799264095723629,-0.20846152305603027,10.761470794677734
1.44,0.08167281001806259,0.03891786187887192,0.06413969397544861,0.18916979432106018,-0.11198220402002335,9.37060546875
1.46,0.04217202588915825,0.021380405873060226,0.09197356551885605,0.4033803343772888,-0.3526086211204529,9.465812683105469
1.48,0.014074270613491535,-0.03010532818734646,0.14789670705795288,0.5151954293251038,0.08501631021499634,8.756706237792969
1.5,0.05538731813430786,-0.04687732830643654,0.19306886196136475,0.6247525215148926,0.16047723591327667,8.898387908935547
1.52,0.04959847778081894,-0.023413898423314095,0.22725437581539154,0.07683748751878738,0.4692471921443939,9.573448181152344
1.54,0.028445597738027573,-0.0603213869035244,0.2502727508544922,-0.7267031073570251,0.7068356275558472,9.854092597961426
1.56,0.03457068279385567,-0.10522637516260147,0.28660088777542114,-1.3264133930206299,0.851051390171051,9.734940528869629
1.58,0.055940426886081696,-0.04023495689034462,0.31518489122390747,-1.5062949657440186,0.5003315210342407,9.586237907409668
1.6,0.07675008475780487,0.03681771829724312,0.31526097655296326,-1.0544524192810059,0.24655023217201233,9.853257179260254
1.62,0.05217672139406204,0.05375560000538826,0.31324082612991333,-0.47082147002220154,0.07298215478658676,9.976859092712402
1.6400000000000001,0.049133818596601486,0.06795693188905716,0.3147081732749939,-0.12023194134235382,0.24450449645519257,9.913431167602539
1.6600000000000001,0.059948086738586426,0.09296070784330368,0.3155723810195923,-0.05670716613531113,0.1264101266860962,9.551223754882812
1.68,0.026642628014087677,0.07999836653470993,0.31960853934288025,0.36157819628715515,0.07365474849939346,9.260318756103516
1.7,0.0730176568031311,0.05566464737057686,0.30331432819366455,0.8384290933609009,0.0005448651500046253,9.71644115447998
1.72,-0.006478514987975359,0.08625169843435287,0.28740257024765015,0.8788857460021973,-0.13566891849040985,10.42072582244873
1.74,-0.0038863150402903557,0.08237818628549576,0.2516210079193115,1.0610531568527222,0.024760544300079346,9.89781665802002
1.76,0.05825212970376015,0.060933373868465424,0.22164306044578552,0.7458897829055786,0.32334277033805847,8.99780559539795
1.78,-0.016399923712015152,0.04451892897486687,0.2131519317626953,0.7863059639930725,0.2705017626285553,9.364140510559082
1.8,-0.03301439434289932,0.020352929830551147,0.1874598115682602,0.7425142526626587,0.23233310878276825,9.616011619567871
1.82,-0.08186016976833344,-0.022366108372807503,0.17442649602890015,0.17623747885227203,0.27616265416145325,9.59851360321045
1.84,-0.06374429911375046,-0.021202515810728073,0.18746942281723022,-0.3432532250881195,0.4506290853023529,9.554367065429688
1.86,-0.04445536434650421,-0.006167928222566843,0.20626351237297058,-0.7839633822441101,0.1825331151485443,9.408944129943848
1.8800000000000001,-0.060831476002931595,0.014032821170985699,0.22524234652519226,-1.1903859376907349,0.2664822041988373,10.02712345123291
1.9000000000000001,-0.052497200667858124,-0.0073059299029409885,0.2100217640399933,-1.0416934490203857,0.39278680086135864,9.976730346679688
1.92,-0.13762222230434418,-0.039172567427158356,0.1792830526828766,-0.5278401374816895,0.6381902098655701,8.746585845947266
1.94,-0.03938259929418564,-0.040333058685064316,0.16753655672073364,-0.4232921302318573,0.44133272767066956,8.808390617370605
1.96,-0.06824668496847153,-0.03435740992426872,0.15074113011360168,-0.20050783455371857,-0.3848690390586853,8.858508110046387
1.98,-0.0928063914179802,-0.05692150443792343,0.10186738520860672,-0.22458504140377045,-0.44189611077308655,9.99039363861084
2.0,-0.12490177154541016,-0.04421799257397652,0.0456974096596241,-0.12622909247875214,-0.22030150890350342,10.519922256469727
2.02,-0.07128924131393433,-0.060464050620794296,-0.011057933792471886,0.128665491938591,-0.09156762063503265,9.696495056152344
2.04,-0.08475171029567719,-0.07662208378314972,-0.03555119410157204,0.4931657612323761,-0.03545020893216133,9.47229290008545
2.06,-0.11781255900859833,-0.08108895272016525,-0.04790770262479782,0.35447385907173157,0.23609597980976105,10.30652141571045
2.08,-0.05959766358137131,-0.0808657631278038,-0.026669831946492195,0.3778258264064789,0.07909181714057922,10.952784538269043
2.1,-0.06912866979837418,-0.05353057384490967,0.003828149987384677,0.5194746255874634,-0.14050717651844025,10.192634582519531
2.12,-0.11448722332715988,-0.05546746775507927,0.049953244626522064,0.6950936317443848,-0.023788360878825188,9.01456356048584
2.14,-0.07918085157871246,-0.022252792492508888,0.09543806314468384,0.5107781291007996,0.265093058347702,8.76132583618164
2.16,-0.01741182990372181,0.028774958103895187,0.1377018392086029,0.3746768832206726,0.3878442943096161,8.786407470703125
2.18,-0.08478278666734695,0.07600846886634827,0.15595532953739166,0.04112055525183678,0.3451783061027527,10.008574485778809
2.2,-0.1312866061925888,0.08310062438249588,0.16346487402915955,-0.20141419768333435,0.32929539680480957,10.834044456481934
2.22,-0.10499534755945206,0.0705578625202179,0.12577621638774872,0.477240651845932,-0.10569054633378983,10.276463508605957
2.24,-0.08227579295635223,0.05523623153567314,0.06853734701871872,1.075196623802185,-0.5822229981422424,9.323920249938965
2.2600000000000002,-0.04230494052171707,0.1010207012295723,0.005349170416593552,1.2230380773544312,-0.6494361162185669,9.278635025024414
2.2800000000000002,-0.07372108101844788,0.12594565749168396,-0.018071400001645088,0.99885493516922,-0.6220402717590332,9.156556129455566
2.3000000000000003,-0.03400889039039612,0.0939912423491478,-0.024063952267169952,0.5979649424552917,-0.6182984709739685,9.777769088745117
2.32,0.017604950815439224,0.053790438920259476,-0.007701320108026266,-0.04274534806609154,-0.46212664246559143,9.859856605529785
2.34,0.0023904999252408743,0.0729110985994339,0.021248718723654747,-0.3800863027572632,-0.42007899284362793,9.813093185424805
2.36,0.05978335067629814,0.0573408268392086,0.04838166385889053,-0.33335769176483154,-0.4370676875114441,9.721183776855469
2.38,0.0540088452398777,0.022789020091295242,0.061192575842142105,-0.14233343303203583,-0.4793883264064789,9.388928413391113
2.4,0.06654832512140274,-0.0024578021839261055,0.045372284948825836,-0.12802854180335999,-0.5421479940414429,9.635876655578613
2.42,0.10690216720104218,-0.028187589719891548,0.013136619701981544,-0.3114832639694214,-0.4766499996185303,10.243062973022461
2.44,0.03138114511966705,-0.0194401778280735,-0.013940573669970036,-0.5730963349342346,-0.029289349913597107,9.966803550720215
2.46,0.04271862655878067,-0.023460587486624718,-0.021654468029737473,-0.45606526732444763,0.1370057910680771,9.58349895477295
2.48,0.05034398287534714,-0.07929892092943192,-0.028968585655093193,-0.41482001543045044,-0.10262279212474823,9.529534339904785
2.5,0.02379654534161091,-0.1245536208152771,0.003636328736320138,-0.3277507722377777,-0.1593772917985916,10.211946487426758
2.52,0.03204337880015373,-0.12088056653738022,0.03723341226577759,-0.10044781863689423,-0.17624922096729279,10.129852294921875
2.54,0.014464099891483784,-0.12466380000114441,0.05501263216137886,0.2471606284379959,-0.13942565023899078,9.289862632751465
2.56,0.03422826901078224,-0.11510586738586426,0.06429415941238403,0.29559001326560974,0.04452073946595192,9.08792781829834
2.58,0.02733371965587139,-0.10247302055358887,0.04357891157269478,0.3135889172554016,0.3073556423187256,9.202658653259277
2.6,0.007347445469349623,-0.07871774584054947,0.028615102171897888,0.16966719925403595,0.5203067064285278,9.61673641204834
2.62,0.03170222043991089,-0.062434013932943344,0.014319144189357758,0.17642854154109955,0.35914430022239685,9.94084358215332
2.64,0.020027456805109978,-0.06577558815479279,-0.008052580058574677,0.15892142057418823,-0.16006800532341003,9.985695838928223
2.66,0.03154214844107628,-0.06761977076530457,-0.008962980471551418,0.12901224195957184,-0.6299326419830322,9.730152130126953
2.68,0.04474543035030365,-0.04776059091091156,-0.024460168555378914,0.29201555252075195,-0.721043050289154,9.541399002075195
2.7,0.06408336758613586,-0.03960223123431206,-0.018211103975772858,0.5241125822067261,-0.6293678879737854,9.996598243713379
2.72,-0.0010721259750425816,-0.05286500230431557,-0.016968311741948128,0.4229729175567627,-0.3636438548564911,10.511460304260254
2.74,-0.030016031116247177,-0.05002877488732338,-0.026076871901750565,0.26456063985824585,0.01701667718589306,10.351387023925781
2.7600000000000002,-0.02907075546681881,-0.055055808275938034,-0.02205658331513405,0.08579859137535095,0.24852612614631653,9.859892845153809
2.7800000000000002,-0.019787460565567017,-0.06701972335577011,-0.031212974339723587,-0.00801804754883051,0.19619299471378326,9.62653923034668
2.8000000000000003,-0.051994867622852325,-0.09257280081510544,-0.03925517573952675,-0.07624490559101105,0.2216101586818695,9.733420372009277
2.82,-0.047363948076963425,-0.09280772507190704,-0.03733719512820244,-0.2080758810043335,0.22123390436172485,10.296369552612305
2.84,-0.03291557729244232,-0.07700270414352417,-0.01395170297473669,-0.26305606961250305,0.10688809305429459,10.096800804138184
2.86,-0.05549856275320053,-0.06352400034666061,0.021192427724599838,0.08464318513870239,0.07528546452522278,9.584308624267578
2.88,-0.05636562034487724,-0.05734763294458389,0.04495920240879059,0.52206951379776,0.16211122274398804,9.12671184539795
2.9,-0.06991104036569595,-0.060492128133773804,0.06280548125505447,0.8376356363296509,0.24472247064113617,9.156994819641113
2.92,-0.03608742728829384,-0.023341039195656776,0.06184910982847214,0.9490789175033569,0.13455283641815186,9.428120613098145
2.94,0.0037744531873613596,0.013776475563645363,0.05320754274725914,0.708021342754364,-0.033995673060417175,10.023224830627441
2.96,0.0342714823782444,0.06965702772140503,0.05784788727760315,0.4053981602191925,-0.46502622961997986,10.494561195373535
2.98,0.010638918727636337,0.09004596620798111,0.07592806220054626,0.4627997875213623,-0.8263054490089417,10.496461868286133
3.0,-0.03864327445626259,0.0711517259478569,0.07038548588752747,0.6005853414535522,-0.6977916955947876,9.797364234924316
3.02,0.026997650042176247,0.0600469633936882,0.06380567699670792,0.8168836832046509,-0.24321678280830383,9.370792388916016
3.04,-0.0014092717319726944,0.09885228425264359,0.029168015345931053,1.1020936965942383,0.05275249108672142,9.266611099243164
3.06,-0.049861807376146317,0.12645581364631653,-0.008889581076800823,1.3155156373977661,0.1993129700422287,9.251238822937012
3.08,0.04155711084604263,0.13558095693588257,-0.024257471784949303,1.143492341041565,0.12761463224887848,9.488202095031738
3.1,0.011517222039401531,0.11617723107337952,-0.02574734576046467,0.5110971927642822,-0.2887260913848877,9.827706336975098
3.12,0.0007655522786080837,0.12289068847894669,0.009390612132847309,-0.2790239751338959,-0.7857221961021423,10.223397254943848
3.14,-0.02090180292725563,0.1567978411912918,0.01112145185470581,-0.6417216658592224,-0.5546849966049194,10.09101676940918
3.16,-0.006700301077216864,0.10975901037454605,0.009606286883354187,-0.2655508816242218,0.0163735281676054,9.068953514099121
3.18,-0.0034730052575469017,0.06870128959417343,-0.0026526893489062786,-0.24750980734825134,0.27368295192718506,8.740394592285156
3.2,-0.03594409301877022,0.08655495941638947,-0.012866521254181862,-0.2240002155303955,0.43422332406044006,9.38907241821289
3.22,-0.016839340329170227,0.12238287180662155,-0.013530736789107323,-0.2496872991323471,0.2532253861427307,10.052485466003418
3.24,0.0421874038875103,0.09669224172830582,-0.012536803260445595,-0.11782633513212204,-0.21915990114212036,10.569806098937988
3.2600000000000002,-0.006941217463463545,0.08076158165931702,-0.014803382568061352,-0.1962299942970276,-0.12597866356372833,10.508710861206055
3.2800000000000002,0.03053099289536476,0.06719283014535904,-0.005944724660366774,-0.08087070286273956,-0.05465913563966751,9.832075119018555
3.3000000000000003,0.0684041902422905,0.06635591387748718,-0.0006821170100010931,-0.024702120572328568,-0.383870005607605,9.174031257629395
3.3200000000000003,0.013317005708813667,0.07789835333824158,0.014424516819417477,-0.018420498818159103,-0.6134288311004639,9.116273880004883
3.34,0.09870824962854385,0.09402969479560852,0.029080567881464958,-0.07581956684589386,-0.8500385284423828,9.696680068969727
3.36,0.10456287860870361,0.10502644628286362,0.05748714134097099,-0.12649394571781158,-0.6702037453651428,9.9810152053833
3.38,0.09959250688552856,0.10008662194013596,0.06740729510784149,-0.07973572611808777,-0.19201797246932983,10.154314041137695
3.4,0.1381719559431076,0.08667672425508499,0.06473909318447113,0.04881945624947548,0.1578187346458435,10.046830177307129
3.42,0.10022485256195068,0.07776466757059097,0.042768701910972595,0.08093284070491791,0.1551005095243454,9.841691970825195
3.44,0.08631686866283417,0.08030661195516586,0.018743621185421944,0.04268764704465866,0.2267027199268341,9.791584968566895
3.46,0.08107946813106537,0.08107370883226395,-0.01744500920176506,-0.08601199835538864,0.14760464429855347,10.20159912109375
3.48,0.03481217846274376,0.04536532238125801,-0.03888387233018875,-0.01468268409371376,0.3631344139575958,10.339203834533691
3.5,0.029776718467473984,0.043694425374269485,-0.04072599858045578,0.06526965647935867,0.4217490553855896,10.058347702026367
3.52,0.04001498222351074,0.054377567023038864,-0.05053820088505745,-0.06538648158311844,0.17076344788074493,9.960409164428711
3.54,-0.06158078461885452,0.046320121735334396,-0.03577624261379242,-0.14832814037799835,-0.00026898851501755416,9.585824012756348
3.56,-0.045474570244550705,0.026734234765172005,-0.024174310266971588,-0.2629711925983429,0.1585981696844101,9.473490715026855
3.58,-0.012446623295545578,-0.0009153016726486385,0.01942724734544754,-0.4052852690219879,0.2121075540781021,9.695802688598633
3.6,-0.013258212246000767,-0.0008096058154478669,0.0600367933511734,-0.4613456726074219,0.12319658696651459,9.731072425842285
3.62,-0.0170684102922678,-0.004658583551645279,0.06610015779733658,-0.5255513787269592,-0.040851861238479614,9.633634567260742
3.64,-0.04430244863033295,-0.006332573480904102,0.06538596004247665,-0.440441757440567,0.02215520106256008,9.308631896972656
3.66,0.01206301711499691,-0.0016670998884364963,0.03994181007146835,-0.3274674713611603,0.24962632358074188,9.127373695373535
3.68,-0.013133368454873562,-0.008200427517294884,-0.004598647356033325,-0.3667909502983093,0.32013988494873047,9.685620307922363
3.7,0.040924374014139175,0.006104310974478722,-0.03276602551341057,-0.4944475293159485,-0.06540558487176895,10.311304092407227
3.72,0.04319444298744202,0.007785942405462265,-0.06673239916563034,-0.5132862329483032,-0.5779972076416016,10.199813842773438
3.74,0.036211058497428894,-0.013745845295488834,-0.07256059348583221,-0.7146551012992859,-0.6927977204322815,10.743182182312012
3.7600000000000002,0.006364746950566769,-0.01743965409696102,-0.059815529733896255,-0.7997674942016602,-0.6468422412872314,10.71954345703125
3.7800000000000002,0.025544077157974243,-0.0005112175713293254,-0.02860317751765251,-0.6589149832725525,-0.23475658893585205,10.21608829498291
3.8000000000000003,0.04353034123778343,0.007930313237011433,-0.025093648582696915,-0.28656110167503357,-0.19026866555213928,9.626663208007812
3.8200000000000003,-0.02142379805445671,-0.007829663343727589,-0.0287434421479702,0.0323655940592289,-0.025148358196020126,9.387494087219238
3.84,-0.02069231867790222,-0.02614380232989788,-0.030304720625281334,0.2560330629348755,0.11326030641794205,9.221707344055176
3.86,-0.003043146338313818,-0.02566533349454403,-0.014220502227544785,0.37396010756492615,0.20992127060890198,9.144083023071289
3.88,-0.07424666732549667,-0.014730916358530521,-0.01184791885316372,0.44485750794410706,0.21311724185943604,9.384936332702637
3.9,-0.10556960105895996,-0.038198892027139664,-0.005641507916152477,0.48531895875930786,0.21934674680233002,9.646383285522461
3.92,-0.14224152266979218,-0.04594452679157257,-0.005696381442248821,0.2661222219467163,0.360054612159729,10.055502891540527
3.94,-0.10577493160963058,-0.049415841698646545,-0.021605519577860832,0.12467366456985474,0.56258225440979,9.91955280303955
3.96,-0.15825346112251282,-0.05738607794046402,-0.028393255546689034,-0.1557861715555191,0.8608452081680298,9.802558898925781
3.98,-0.12651072442531586,-0.05880870670080185,-0.027419088408350945,-0.3970593810081482,0.697382926940918,9.779065132141113
4.0,-0.12030640989542007,-0.07582142949104309,-0.014447979629039764,-0.5472780466079712,0.22233372926712036,10.06789779663086
4.0200000000000005,-0.14943847060203552,-0.08445867151021957,-0.0002667470253072679,-0.568885087966919,-0.29559126496315,10.46263313293457
4.04,-0.13201957941055298,-0.0988454818725586,0.0033229298423975706,-0.41540056467056274,-0.6151162385940552,10.548224449157715
4.0600000000000005,-0.11717339605093002,-0.12991225719451904,0.024127298966050148,-0.1744537055492401,-0.6891766786575317,9.728196144104004
4.08,-0.1150524690747261,-0.14931562542915344,0.047291144728660583,-0.07679860293865204,-0.36162126064300537,9.192280769348145
4.1,-0.0798184722661972,-0.16106827557086945,0.06238001585006714,-0.05245194584131241,-0.2453201711177826,9.42264461517334
4.12,-0.046259570866823196,-0.154774472117424,0.061493098735809326,0.004300310742110014,-0.35764750838279724,9.690627098083496
4.14,-0.06309828907251358,-0.14027944207191467,0.04193924739956856,0.06397919356822968,-0.48740217089653015,9.906020164489746
4.16,-0.01858903095126152,-0.12258993834257126,0.018650462850928307,0.17398226261138916,-0.6836754083633423,9.59643268585205
4.18,0.03252998739480972,-0.1059224084019661,0.01681717485189438,0.28501906991004944,-0.8750889301300049,9.263071060180664
4.2,0.07780037820339203,-0.0621727779507637,0.027185069397091866,0.3736026883125305,-0.9299887418746948,9.183125495910645
4.22,0.06348484754562378,-0.04085152968764305,0.03567463904619217,0.34892162680625916,-0.8138959407806396,9.201199531555176
4.24,0.1035769134759903,-0.04480570927262306,0.05393945798277855,0.5137965083122253,-0.6390710473060608,9.320158958435059
4.26,0.11901119351387024,-0.01807878352701664,0.049079522490501404,0.6766622066497803,-0.46816012263298035,9.527223587036133
4.28,0.16720852255821228,0.005998912267386913,0.029047036543488503,0.8141958117485046,-0.26047149300575256,9.598516464233398
4.3,0.16534312069416046,0.02699524536728859,0.024392375722527504,0.8034845590591431,-0.2277643382549286,9.507512092590332
4.32,0.237265944480896,0.03269771859049797,0.026802504435181618,0.7297084331512451,-0.21875570714473724,9.4478178024292
4.34,0.13879449665546417,0.019065216183662415,0.014132996089756489,0.512193500995636,-0.25751158595085144,9.82387638092041
4.36,0.2127903550863266,0.0164486151188612,-0.011971201747655869,0.2618129253387451,-0.25468915700912476,10.445755004882812
4.38,0.18576908111572266,-0.0005610669613815844,-0.02105911821126938,0.14815294742584229,-0.08924596756696701,10.47053050994873
4.4,0.11214784532785416,-0.053179383277893066,-0.03772735595703125,-0.05977173149585724,0.11242455989122391,10.29421329498291
4.42,0.11865220218896866,-0.09294748306274414,-0.03675447031855583,-0.2925305962562561,0.37754836678504944,9.803055763244629
4.44,0.08262847363948822,-0.10698540508747101,-0.04278300330042839,-0.3048909604549408,0.35735970735549927,9.27757740020752
4.46,0.09510205686092377,-0.11334062367677689,-0.056331247091293335,-0.2107294499874115,0.18292716145515442,9.173218727111816
4.48,0.026907894760370255,-0.12605513632297516,-0.046748269349336624,-0.14452949166297913,0.3581022322177887,9.216995239257812
4.5,0.017965899780392647,-0.15268778800964355,-0.04202432557940483,-0.2682839334011078,0.543204665184021,9.90785026550293
4.5200000000000005,0.03918216750025749,-0.12067384272813797,-0.019149038940668106,-0.6018965244293213,0.4412776231765747,10.62356948852539
4.54,0.031082943081855774,-0.07343477755784988,0.013933656737208366,-0.6999889612197876,0.2648850381374359,10.696928977966309
4.5600000000000005,-0.05944136530160904,-0.054754335433244705,0.031987931579351425,-0.11870308965444565,0.4938012957572937,10.109865188598633
4.58,-0.011233240365982056,-0.08562251180410385,0.00457148440182209,0.6400172114372253,0.4327668249607086,9.691774368286133
4.6000000000000005,-0.03420757129788399,-0.08049168437719345,-0.03458350896835327,1.060150146484375,0.12225890159606934,9.376933097839355
4.62,-0.016597993671894073,-0.039043087512254715,-0.0632893294095993,1.2828677892684937,-0.09313543885946274,9.464228630065918
4.64,-0.0015112749533727765,0.001620611408725381,-0.03799642622470856,1.2716482877731323,-0.3087425231933594,9.597166061401367
4.66,-0.004287715069949627,0.011729898862540722,-0.02268199995160103,1.0412170886993408,-0.42180734872817993,9.898045539855957
4.68,0.05001462623476982,0.026924962177872658,0.0028574522584676743,0.7256473898887634,-0.1742563098669052,10.069202423095703
4.7,0.05966906249523163,0.028596455231308937,0.023968406021595,0.6026705503463745,0.007682142313569784,9.834524154663086
4.72,0.06354141235351562,0.03256768360733986,0.031782034784555435,0.41098734736442566,0.08658041059970856,9.602869033813477
4.74,0.05680586397647858,0.01905309222638607,0.02879013866186142,0.4126560091972351,0.1112639456987381,9.358884811401367
4.76,0.07009167969226837,0.04127493500709534,0.023333603516221046,0.4945865869522095,0.020114809274673462,9.703286170959473
4.78,0.06089774891734123,0.0554516538977623,0.011919568292796612,0.5921815633773804,-0.06008564308285713,9.525379180908203
4.8,0.06490001827478409,0.0567658394575119,-0.005616123788058758,0.2703801989555359,-0.07961641252040863,9.967194557189941
4.82,0.06954599916934967,0.06828556209802628,-0.029105421155691147,-0.2326311320066452,0.14984048902988434,10.66822624206543
4.84,0.0317709855735302,0.09248598664999008,-0.024416446685791016,-0.2403244823217392,0.24931053817272186,10.544864654541016
4.86,0.016170024871826172,0.07712439447641373,-0.006384734995663166,-0.22035622596740723,0.32911211252212524,10.071763038635254
4.88,-0.06300061196088791,0.09478814899921417,0.002771101426333189,0.07439150661230087,0.38296180963516235,9.702810287475586
4.9,-0.05612407252192497,0.08646976947784424,0.02049853838980198,0.4669203460216522,0.3975526988506317,9.475107192993164
4.92,-0.07438664138317108,0.08684538304805756,0.022567452862858772,0.6899758577346802,0.4152148365974426,9.100224494934082
4.94,-0.10329409688711166,0.07837042212486267,0.02255062200129032,0.6667816638946533,0.5112429261207581,9.034440994262695
4.96,-0.09323524683713913,0.09501898288726807,0.009276898577809334,0.531647801399231,0.622065007686615,9.648515701293945
4.98,-0.11253201961517334,0.08589152246713638,-0.014028269797563553,0.23126979172229767,0.5229294300079346,10.22983455657959
5.0,-0.11889448016881943,0.08693481236696243,-0.026450153440237045,-0.43468931317329407,0.3439335823059082,11.037443161010742
5.0200000000000005,-0.19659751653671265,0.10596445947885513,-0.041422039270401,-0.5322961211204529,0.22273559868335724,10.969572067260742
5.04,-0.15464375913143158,0.12395265698432922,-0.057052306830883026,0.0017901752144098282,0.18576933443546295,10.19443130493164
5.0600000000000005,-0.14893551170825958,0.12068253755569458,-0.0496181957423687,0.4483318328857422,-0.16517813503742218,8.820724487304688
5.08,-0.15796099603176117,0.1573413461446762,-0.05322477966547012,0.4105675518512726,-0.33687806129455566,8.375149726867676
5.1000000000000005,-0.10502952337265015,0.18697287142276764,-0.06382307410240173,0.381146639585495,-0.19233091175556183,8.835003852844238
5.12,-0.10784236341714859,0.20659303665161133,-0.07004481554031372,0.2093822956085205,-0.17835085093975067,9.64352798461914
5.14,-0.02236764319241047,0.21813759207725525,-0.06556989997625351,0.006464097648859024,-0.45476123690605164,10.554608345031738
5.16,0.0007610222673974931,0.22237332165241241,-0.024015720933675766,0.19005362689495087,-0.6603348851203918,10.690129280090332
5.18,-0.05981900542974472,0.17290250957012177,0.005975598469376564,0.30874598026275635,-0.5783324837684631,9.886995315551758
5.2,-0.04222099110484123,0.15966758131980896,0.03246629238128662,0.20614035427570343,-0.35082998871803284,9.148316383361816
5.22,-0.06456498056650162,0.1874743103981018,0.03133547678589821,0.09506326913833618,-0.1958044022321701,9.306429862976074
5.24,-0.023308617994189262,0.20343439280986786,0.03395675867795944,0.14187771081924438,-0.039361365139484406,9.918909072875977
5.26,-0.009464052505791187,0.14728954434394836,0.03234504535794258,0.035795658826828,-0.02948717400431633,9.437828063964844
5.28,0.04767175018787384,0.09468600898981094,0.026116328313946724,-0.14626608788967133,-0.21014449000358582,8.840479850769043
5.3,0.01227337121963501,0.07053419202566147,0.054327622056007385,-0.3992927670478821,-0.5209149122238159,9.519232749938965
5.32,0.04972279444336891,0.0450001023709774,0.06496480107307434,-0.6007511019706726,-0.6225678324699402,9.767073631286621
5.34,0.022756805643439293,0.03979024291038513,0.0715993270277977,-0.9973850250244141,-0.4000623822212219,9.827590942382812
5.36,0.05838208645582199,-0.001851287786848843,0.06274928897619247,-1.0425251722335815,-0.03240787982940674,9.83164119720459
5.38,0.055549751967191696,-0.04533826559782028,0.06841588765382767,-1.3355287313461304,0.23663756251335144,10.649408340454102
5.4,0.09511759132146835,-0.02674868144094944,0.05428203195333481,-1.5099791288375854,-0.023157253861427307,10.64497184753418
5.42,0.0682501271367073,-0.03681931644678116,0.03098183684051037,-1.2232800722122192,-0.38293522596359253,10.588807106018066
5.44,0.08338209241628647,-0.08105416595935822,-0.011983638629317284,-1.0358439683914185,-0.5045922994613647,10.150163650512695
5.46,0.15267185866832733,-0.08080388605594635,-0.04951826110482216,-0.8536940217018127,-0.45062437653541565,9.430215835571289
5.48,0.11269039660692215,-0.09027550369501114,-0.0541347861289978,-0.4131290912628174,-0.2500113248825073,9.248248100280762
5.5,0.12857337296009064,-0.1163892149925232,-0.06458476930856705,-0.3804342746734619,-0.16198799014091492,9.495757102966309
5.5200000000000005,0.09744403511285782,-0.11911116540431976,-0.06622545421123505,-0.20344112813472748,-0.02471371926367283,9.791854858398438
5.54,0.07971115410327911,-0.1080223098397255,-0.04466827213764191,0.042724255472421646,0.14943310618400574,9.991579055786133
5.5600000000000005,0.04712267220020294,-0.0832258015871048,-0.03687230870127678,-0.11498576402664185,0.36084914207458496,10.140392303466797
5.58,0.06075204908847809,-0.042634543031454086,-0.042375244200229645,-0.030950747430324554,0.4419507384300232,9.75700569152832
5.6000000000000005,0.034948088228702545,-0.05507105216383934,-0.07101010531187057,0.054368145763874054,0.31814461946487427,9.612529754638672
5.62,-0.016179850324988365,-0.04454747587442398,-0.06945643573999405,0.08224892616271973,0.11287318915128708,9.331280708312988
5.64,-0.024540765210986137,-0.025625133886933327,-0.0555933341383934,0.28820258378982544,0.004260493908077478,9.437446594238281
5.66,0.011159224435687065,-0.025635691359639168,-0.024309206753969193,0.5313215851783752,-0.016908567398786545,9.749785423278809
5.68,-0.002881262917071581,-0.03748604282736778,0.009553258307278156,0.5930813550949097,0.11294998973608017,10.10216236114502
5.7,-0.026634739711880684,-0.04277557134628296,0.027651293203234673,0.46517759561538696,0.39231082797050476,10.347901344299316
5.72,-0.011414551176130772,-0.0520784892141819,0.04683849215507507,0.23722706735134125,0.5079056620597839,9.679640769958496
5.74,-0.01918875426054001,-0.06469746679067612,0.028731223195791245,-0.09666131436824799,0.27600762248039246,9.239542961120605
5.76,0.030641255900263786,-0.07742956280708313,0.004119628109037876,-0.5159372091293335,-0.07305455952882767,9.622737884521484
5.78,0.004013183992356062,-0.06696388125419617,-0.0017959674587473273,-0.6747281551361084,-0.2437143176794052,10.012260437011719
5.8,0.006750218570232391,-0.08547669649124146,-0.0210424717515707,-0.654266893863678,-0.3875064253807068,10.17013931274414
5.82,-0.006672557443380356,-0.0926702693104744,-0.021794933825731277,-0.46630412340164185,-0.21750715374946594,9.755492210388184
5.84,-0.04171760007739067,-0.11842650175094604,-0.032608382403850555,-0.46285301446914673,0.01442462857812643,9.762222290039062
5.86,0.0045299953781068325,-0.13221386075019836,-0.038497213274240494,-0.36911267042160034,-0.0009586734231561422,9.853779792785645
5.88,-0.012502327561378479,-0.14397898316383362,-0.052551206201314926,-0.22977390885353088,-0.2164727747440338,9.917649269104004
5.9,-0.015039213933050632,-0.14538156986236572,-0.0575590543448925,-0.0018510996596887708,-0.13515962660312653,9.852679252624512
5.92,-0.011021517217159271,-0.14846156537532806,-0.06464648991823196,0.07366577535867691,-0.023980088531970978,9.786828994750977
5.94,-0.05451187118887901,-0.1353994607925415,-0.07853958755731583,0.09380648285150528,0.13010337948799133,9.540607452392578
5.96,-0.04981360584497452,-0.12846818566322327,-0.08275803178548813,0.06722889095544815,0.2371157705783844,9.542132377624512
5.98,-0.09180659055709839,-0.12657682597637177,-0.07554440200328827,0.010844663716852665,0.40710073709487915,9.786580085754395
6.0,-0.09175469726324081,-0.10995806753635406,-0.07289952039718628,0.06211521103978157,0.4803476333618164,9.92041301727295
6.0200000000000005,-0.116783007979393,-0.10972151905298233,-0.0578400194644928,0.33622151613235474,0.3295929431915283,9.797714233398438
6.04,-0.11197499930858612,-0.11283035576343536,-0.04469545558094978,0.6690766215324402,0.1466049998998642,9.6931791305542
6.0600000000000005,-0.08438065648078918,-0.09750933200120926,-0.021206334233283997,0.7779684066772461,-0.04175921157002449,10.048261642456055
6.08,-0.024959765374660492,-0.06327571719884872,0.0109017388895154,0.8523566722869873,-0.40013813972473145,10.110237121582031
6.1000000000000005,-0.04625551775097847,-0.04732634127140045,0.02708694152534008,0.9360823035240173,-0.2630023658275604,9.577950477600098
6.12,-0.010002095252275467,-0.06516291201114655,0.03262554481625557,0.8289526104927063,0.14880211651325226,9.184341430664062
6.140000000000001,-0.02121344953775406,-0.08232950419187546,0.023472100496292114,0.6990291476249695,0.13182605803012848,9.126752853393555
6.16,-0.03245655074715614,-0.07406316697597504,0.009155189618468285,0.587153971195221,-0.002446215832605958,9.368317604064941
6.18,-0.0029391588177531958,-0.06304964423179626,-0.004516507964581251,0.4168938398361206,-0.147101029753685,9.73226547241211
6.2,-0.022072771564126015,-0.04545227810740471,-0.023997511714696884,0.26008662581443787,-0.4228285849094391,10.064401626586914
6.22,0.016935084015130997,-0.05492474511265755,-0.004052356816828251,0.14913605153560638,-0.6302170753479004,9.885002136230469
6.24,0.008602914400398731,-0.07935634255409241,-0.0019778641872107983,0.06766283512115479,-0.6341357231140137,9.51559829711914
6.26,-0.006419939920306206,-0.10084203630685806,0.0034819026477634907,0.037717290222644806,-0.398607462644577,9.390944480895996
6.28,-0.027444271370768547,-0.09799843281507492,-0.013269055634737015,0.11885712295770645,-0.014897610992193222,9.619940757751465
6.3,-0.019761618226766586,-0.07145465165376663,-0.02091480791568756,0.21065634489059448,0.22478972375392914,9.75903034210205
6.32,-0.05790304020047188,-0.05339118093252182,-0.03206281363964081,0.3629070520401001,0.255339652299881,10.029810905456543
6.34,-0.029332933947443962,-0.07008714973926544,-0.006706125568598509,0.389790415763855,0.17006218433380127,9.945581436157227
6.36,-0.05085870623588562,-0.09293876588344574,0.003860997734591365,0.4245348274707794,0.13418559730052948,10.031194686889648
6.38,-0.04524959996342659,-0.09152248501777649,0.020333027467131615,0.4913141429424286,0.012509280815720558,9.75965404510498
6.4,-0.044245585799217224,-0.08998329192399979,0.025853367522358894,0.5715636014938354,-0.12060871720314026,9.570138931274414
6.42,-0.07145941257476807,-0.06803110986948013,0.01709570363163948,0.6310931444168091,-0.23089858889579773,9.599326133728027
6.44,-0.047145429998636246,-0.045069146901369095,-0.0011328624095767736,0.6636109948158264,-0.05151044949889183,9.577079772949219
6.46,-0.04789119213819504,-0.025030972436070442,-0.017216257750988007,0.5674369931221008,-0.004312850534915924,9.632445335388184
6.48,-0.023642059415578842,0.029762083664536476,-0.005814675707370043,0.4707415997982025,-0.03789936378598213,9.743256568908691
6.5,0.031504809856414795,0.08170416206121445,0.01957279071211815,0.5994485020637512,-0.23991531133651733,9.921289443969727
6.5200000000000005,0.04825741797685623,0.09824749827384949,0.038607943803071976,0.7707030773162842,-0.5485250949859619,10.110319137573242
6.54,0.049094218760728836,0.10902771353721619,0.033164557069540024,0.9806791543960571,-0.5858651399612427,9.622365951538086
6.5600000000000005,0.08195987343788147,0.1053682342171669,0.024914922192692757,1.0686272382736206,-0.6036363244056702,9.328330039978027
6.58,0.12072990089654922,0.14998653531074524,0.014971510507166386,0.9335435628890991,-0.44224247336387634,9.128268241882324
6.6000000000000005,0.12339473515748978,0.1979033201932907,0.013730961829423904,0.8424584865570068,-0.41605302691459656,9.727599143981934
6.62,0.1205814778804779,0.16949833929538727,0.02176709473133087,0.7271709442138672,-0.4003305435180664,10.464160919189453
6.640000000000001,0.11513540893793106,0.1293577253818512,0.02258702740073204,0.3073141872882843,-0.2450004667043686,10.926063537597656
6.66,0.07549690455198288,0.10070450603961945,0.010422107763588428,-0.03832542151212692,-0.022861693054437637,10.796586990356445
6.68,0.09861189872026443,0.12246041744947433,-0.013048417866230011,0.069634348154068,0.0001324129698332399,9.630831718444824
6.7,0.0556781031191349,0.09793229401111603,-0.03684322163462639,-0.08300058543682098,-0.06359535455703735,9.107098579406738
6.72,0.027277445420622826,0.0830104798078537,-0.06560808420181274,-0.5209444165229797,-0.10423316806554794,9.781246185302734
6.74,-0.0016675195656716824,0.03283071145415306,-0.07846693694591522,-0.7745038866996765,0.26251810789108276,10.122218132019043
6.76,0.02049805037677288,0.011976289562880993,-0.06861609220504761,-0.6688085794448853,0.38893696665763855,9.878401756286621
6.78,-0.015065704472362995,0.010633677244186401,-0.040931183844804764,-0.3688456416130066,0.3887745141983032,9.477251052856445
6.8,0.0028420942835509777,-0.018121855333447456,-0.011428986676037312,-0.05429181456565857,0.40911123156547546,9.41240119934082
6.82,0.004519016947597265,-0.029292050749063492,0.002973939524963498,0.24591055512428284,0.308443158864975,9.642650604248047
6.84,0.001994110643863678,-0.009380701929330826,0.015613091178238392,0.38691726326942444,0.1687745898962021,9.585820198059082
6.86,-0.026824111118912697,0.029593389481306076,0.01969165913760662,0.7268608808517456,-0.050368521362543106,9.05434513092041
6.88,-0.012411421164870262,0.07414165884256363,0.02477746643126011,0.9266922473907471,-0.026403045281767845,9.414633750915527
6.9,0.01399134285748005,0.05953430011868477,0.01797301322221756,0.8061485290527344,-0.275223970413208,9.996990203857422
6.92,-0.0018568574450910091,0.06740882992744446,0.006390166934579611,0.27179989218711853,-0.1928647756576538,10.55172348022461
6.94,0.035598281770944595,0.12519338726997375,0.005606581922620535,0.1239769384264946,-0.3255328834056854,10.460794448852539
6.96,-0.004125727340579033,0.14706893265247345,-0.012946526519954205,0.03882917761802673,-0.4492127001285553,10.188581466674805
6.98,0.007486350834369659,0.1526130586862564,-0.03962109982967377,0.13083899021148682,-0.2568542957305908,9.520720481872559
7.0,-0.004152828361839056,0.17001067101955414,-0.057912230491638184,0.13493654131889343,-0.09358491003513336,9.964713096618652
7.0200000000000005,-0.037494782358407974,0.17389726638793945,-0.03780350461602211,0.2618146240711212,0.306510865688324,10.259016036987305
7.04,-0.04794513061642647,0.16090920567512512,-0.026942171156406403,0.3761368691921234,0.5453471541404724,10.310924530029297
7.0600000000000005,-0.040232207626104355,0.1162818968296051,-0.0008153156959451735,0.38885781168937683,0.527521014213562,10.058882713317871
7.08,-0.050147850066423416,0.09030327945947647,0.009639715775847435,0.20980213582515717,0.4045831859111786,9.803303718566895
7.1000000000000005,-0.0897781178355217,0.08708292245864868,0.020137744024395943,0.03056422248482704,0.1322689801454544,9.209625244140625
7.12,-0.02962763048708439,0.06619231402873993,0.00955054722726345,-0.21331971883773804,-0.11300429701805115,8.747308731079102
7.140000000000001,-0.08483953773975372,0.026649145409464836,0.028979413211345673,-0.5731773376464844,-0.24167899787425995,9.20397663116455
7.16,0.0035216936375945807,0.00958195049315691,0.030607718974351883,-0.8325826525688171,-0.1353294998407364,9.96432113647461
7.18,0.005669962149113417,-0.0006283341208472848,0.02632591687142849,-0.8124165534973145,-0.18626517057418823,10.28584098815918
7.2,-0.0006094516720622778,-0.02470298670232296,0.003718731226399541,-0.4856592118740082,-0.22157534956932068,10.1702299118042
7.22,-0.015113224275410175,-0.01636791229248047,-0.029911385849118233,-0.09443703293800354,-0.22504357993602753,9.563655853271484
7.24,0.013204170390963554,-0.013978924602270126,-0.046138253062963486,0.14253363013267517,-0.27273836731910706,9.386338233947754
7.26,0.03760651499032974,-0.007258587051182985,-0.03518340736627579,0.2988296151161194,-0.49302709102630615,9.396611213684082
7.28,0.03755515068769455,-0.02576533891260624,-0.01999404840171337,0.2177308052778244,-0.6442598104476929,9.822014808654785
7.3,0.029318055137991905,-0.019432347267866135,-0.0058892457745969296,0.08035439997911453,-0.3722374141216278,9.945825576782227
7.32,0.06345044076442719,-0.00020192330703139305,-0.011343621648848057,-0.04104476049542427,0.05174798518419266,9.697434425354004
7.34,0.02764119580388069,0.0358988456428051,-0.019432194530963898,-0.1179904118180275,0.18079090118408203,9.336588859558105
7.36,-0.02279934287071228,0.03250829502940178,-0.033077340573072433,-0.07484335452318192,0.2882346510887146,9.048245429992676
7.38,0.006864557508379221,0.05043170601129532,-0.039546605199575424,-0.024876583367586136,0.2255883812904358,9.32308292388916
7.4,0.0045997691340744495,0.06509926170110703,-0.032353535294532776,0.15083256363868713,0.0626157894730568,9.792438507080078
7.42,-0.03647179156541824,0.059406910091638565,-0.01779298484325409,0.29652950167655945,-0.0045994725078344345,10.336448669433594
7.44,-0.04394548758864403,0.040401093661785126,-0.010484574362635612,0.29230251908302307,0.20126745104789734,10.271688461303711
7.46,-0.07405485212802887,0.04699466750025749,-0.018262077122926712,0.3365767300128937,0.45646587014198303,9.79666519165039
7.48,-0.1126592755317688,0.03562871366739273,-0.02803674153983593,0.24631068110466003,0.4558551013469696,9.346643447875977
7.5,-0.09484664350748062,0.020470090210437775,-0.014533565379679203,0.06065713241696358,0.21791678667068481,9.542472839355469
7.5200000000000005,-0.08586350828409195,-0.01259593851864338,-0.02153283730149269,-0.1572689563035965,-0.129166379570961,9.828926086425781
7.54,-0.08250114321708679,-0.0354476161301136,-0.0026216632686555386,-0.35609519481658936,-0.2834928333759308,9.929635047912598
7.5600000000000005,-0.06250836700201035,-0.06880473345518112,0.011258907616138458,-0.4797012209892273,-0.28862178325653076,9.645691871643066
7.58,-0.07184649258852005,-0.06471554934978485,0.011919821612536907,-0.4982641935348511,-0.39746513962745667,9.375377655029297
7.6000000000000005,-0.038079164922237396,-0.06556197255849838,-0.007680146489292383,-0.6364023089408875,-0.40255147218704224,9.393582344055176
7.62,-0.026242678984999657,-0.07560363411903381,-0.004658352117985487,-0.7683572769165039,-0.39306381344795227,9.675163269042969
7.640000000000001,-0.030551275238394737,-0.06742251664400101,-0.004420079290866852,-0.8614811301231384,-0.3468296229839325,9.943628311157227
7.66,-0.01673680730164051,-0.04715248942375183,0.017589697614312172,-0.7539762258529663,-0.32119277119636536,10.070528984069824
7.68,0.009541299194097519,-0.05731256678700447,0.03342229500412941,-0.14037883281707764,-0.3410959243774414,10.065104484558105
7.7,0.012839154340326786,-0.04718109965324402,0.03294850513339043,0.38012775778770447,-0.45200130343437195,10.097031593322754
7.72,0.03192061558365822,-0.039809729903936386,0.031822048127651215,0.5025990605354309,-0.5566769242286682,10.040380477905273
7.74,0.030223410576581955,-0.03127137944102287,0.01754128932952881,0.33539098501205444,-0.5830719470977783,9.831720352172852
7.76,0.04763908311724663,-0.011255122721195221,-0.013144392520189285,0.14896146953105927,-0.41739559173583984,9.664178848266602
7.78,-0.0115836625918746,0.015873827040195465,-0.04473845288157463,-0.13118594884872437,-0.23222635686397552,9.67417049407959
7.8,-0.019564135000109673,0.059996429830789566,-0.06349393725395203,-0.3369963765144348,0.00901423953473568,9.837483406066895
7.82,-0.004496509209275246,0.06801152974367142,-0.07492387294769287,0.011710545048117638,-0.03833114728331566,9.900672912597656
7.84,0.03284447640180588,-0.0009193042642436922,-0.055713068693876266,0.3442857265472412,-0.4629665017127991,10.394601821899414
7.86,0.04718923568725586,-0.000667428772430867,-0.03157120943069458,0.4350280463695526,-0.3606262803077698,10.299019813537598
7.88,0.022071292623877525,0.022829094901680946,-0.007047601044178009,0.5989713668823242,-0.12826552987098694,9.490093231201172
7.9,0.05301504582166672,-0.026770154014229774,0.0022278139367699623,0.4675251841545105,-0.25435498356819153,8.89796257019043
7.92,0.05080309882760048,-0.07346358895301819,-0.016364995390176773,0.09891632944345474,-0.1098509430885315,9.2877779006958
7.94,0.039079293608665466,-0.06697263568639755,-0.002070831134915352,-0.21770083904266357,0.015131634660065174,9.653301239013672
7.96,0.06126578524708748,-0.05553826317191124,0.00403012428432703,-0.384202241897583,-0.13755540549755096,9.780840873718262
7.98,0.05758291855454445,-0.08582814037799835,0.011328951455652714,-0.48076653480529785,-0.2779274582862854,9.753698348999023
8.0,0.04421299695968628,-0.08682166785001755,0.013038099743425846,-0.6999800801277161,-0.314959853887558,10.139242172241211
8.02,-5.327136386767961e-05,-0.028861701488494873,-0.011407253332436085,-1.1189647912979126,-0.1807529777288437,11.317506790161133
8.040000000000001,-0.012511622160673141,0.0017886855639517307,-0.05633847787976265,-0.5933451056480408,0.5043743848800659,10.370257377624512
8.06,0.0038358327001333237,-0.020924808457493782,-0.08906379342079163,0.105960913002491,0.5413593649864197,8.891676902770996
8.08,-0.015691809356212616,-0.02592107094824314,-0.10673779994249344,0.26785558462142944,0.04355821758508682,8.406647682189941
8.1,-0.02021782658994198,0.01229611225426197,-0.07403082400560379,0.28996410965919495,-0.028812428936362267,8.876029014587402
8.120000000000001,-0.032936569303274155,0.03753359988331795,-0.06625419855117798,0.5593851208686829,-0.11965520679950714,9.184165000915527
8.14,0.03144994378089905,0.07478054612874985,-0.05594930052757263,0.6599350571632385,-0.2827196717262268,10.174181938171387
8.16,0.007158766034990549,0.07812020182609558,-0.03024720773100853,0.8910861611366272,-0.4416576027870178,10.627586364746094
8.18,-0.07409154623746872,0.04825911670923233,-0.003184357425197959,0.9348387122154236,-0.06390264630317688,10.41213607788086
8.2,0.03022024594247341,0.03716035559773445,0.008221004158258438,0.6319846510887146,-0.0835641548037529,9.422245979309082
8.22,0.010745659470558167,0.03378560021519661,0.0020729470998048782,0.12194164097309113,-0.23846887052059174,9.282820701599121
8.24,0.04898438602685928,0.054453957825899124,-0.002159917028620839,-0.3754466772079468,-0.3017018437385559,9.7040376663208
8.26,0.033605776727199554,0.07842440158128738,-0.026095174252986908,-0.7245258688926697,-0.24659554660320282,10.290749549865723
8.28,0.04177020117640495,0.1147729828953743,-0.0292247012257576,-0.7611230611801147,-0.28984299302101135,10.184674263000488
8.3,0.030234787613153458,0.0890372022986412,-0.03694269061088562,-0.5496615171432495,-0.26808562874794006,9.889985084533691
8.32,0.024837883189320564,0.058759547770023346,-0.04379121959209442,-0.09503935277462006,-0.3319639265537262,9.86721134185791
8.34,0.08698366582393646,0.04260692372918129,-0.043836526572704315,0.2630797028541565,-0.2641165256500244,9.800236701965332
8.36,0.040726520121097565,0.012811494991183281,-0.04312306270003319,0.598644495010376,-0.1446247398853302,9.496673583984375
8.38,0.05991542711853981,-0.0008865686831995845,-0.04745334014296532,0.5014867782592773,-0.10156296193599701,9.170482635498047
8.4,0.005318481009453535,-0.037033118307590485,-0.05492711812257767,-0.058572813868522644,0.040201280266046524,9.45041561126709
8.42,-0.01630166359245777,-0.052665382623672485,-0.07657072693109512,-0.681023359298706,0.2336779534816742,9.461810111999512
8.44,-0.0027679346967488527,-0.023649195209145546,-0.09208545088768005,-1.0501782894134521,0.22005678713321686,9.794635772705078
8.46,-0.058029573410749435,-0.016576796770095825,-0.11633376032114029,-1.0404702425003052,0.10549494624137878,10.065084457397461
8.48,-0.05688045173883438,-0.03661302104592323,-0.10040070861577988,-0.9774420261383057,0.12911894917488098,10.079204559326172
8.5,-0.04850921779870987,-0.06013895943760872,-0.06579411029815674,-0.5612692832946777,0.2286011129617691,9.807940483093262
8.52,-0.07251986861228943,-0.05237936973571777,-0.05264555290341377,-0.10034257173538208,0.3166152536869049,9.920458793640137
8.540000000000001,-0.05039278045296669,-0.0316857174038887,-0.046618375927209854,0.17545996606349945,0.351195365190506,9.855094909667969
8.56,-0.027449192479252815,-0.019984301179647446,-0.06165356934070587,0.3374919891357422,0.16274499893188477,9.525945663452148
8.58,-0.030018653720617294,-0.03666303679347038,-0.061308011412620544,0.4667339324951172,-0.4292879104614258,9.638599395751953
8.6,-0.07900945842266083,-0.04796673357486725,-0.05669797584414482,0.48022112250328064,-0.7379371523857117,10.295307159423828
8.620000000000001,-0.03339770808815956,-0.035158947110176086,-0.04029261693358421,0.5094344019889832,-0.8441662192344666,10.25920295715332
8.64,-0.04588128998875618,-0.0246439091861248,-0.005318730138242245,0.42942970991134644,-0.63690185546875,9.275662422180176
8.66,-0.02175888791680336,-0.004985178355127573,0.009476866573095322,0.3188115358352661,-0.19326908886432648,8.94123649597168
8.68,-0.005799049511551857,0.009027756750583649,0.013111411593854427,0.10642411559820175,0.021730627864599228,9.494664192199707
8.700000000000001,-0.00813745241612196,-0.003090555313974619,0.006876170169562101,-0.07797156274318695,0.0352630577981472,10.337109565734863
8.72,-0.04327305778861046,-0.0038295602425932884,-0.002184284385293722,-0.09121549874544144,-0.06306992471218109,10.581631660461426
8.74,-0.04194045439362526,-0.01630355790257454,-0.022469164803624153,0.04591438174247742,-0.27991291880607605,10.350871086120605
8.76,-0.010950956493616104,-0.01639954373240471,-0.022648846730589867,0.331719309091568,-0.3759009540081024,9.721250534057617
8.78,-0.029351169243454933,-0.02694535255432129,-0.013470710255205631,0.46005281805992126,-0.23192977905273438,9.216775894165039
8.8,-0.04504925385117531,-0.03077854961156845,0.004820383153855801,0.338159441947937,-0.07627855986356735,9.03626823425293
8.82,-0.04657149687409401,-0.03670872002840042,0.011978411115705967,-0.07686927914619446,0.08900883793830872,9.633234024047852
8.84,-0.09859198331832886,-0.024874433875083923,0.0024816428776830435,-0.38178324699401855,0.2580111026763916,10.029934883117676
8.86,-0.05476909130811691,-0.020717987790703773,0.01507984846830368,-0.639575183391571,0.18136389553546906,10.283562660217285
8.88,-0.025452012196183205,-0.022116050124168396,0.030133206397294998,-0.6434388160705566,-0.3220551908016205,10.370028495788574
8.9,0.02647654339671135,-0.04017588868737221,0.041272737085819244,-0.48276031017303467,-0.5611544251441956,10.34631061553955
8.92,0.04587094485759735,-0.036159396171569824,0.05378974601626396,-0.19499169290065765,-0.6336613893508911,9.80088996887207
8.94,0.03952772915363312,-0.028440574184060097,0.040588825941085815,0.21764405071735382,-0.6103323698043823,9.21107292175293
8.96,0.05812879651784897,-0.0017984447767958045,0.00798479001969099,0.4589649438858032,-0.3643530309200287,9.282801628112793
8.98,0.10401982069015503,0.0047545223496854305,-0.006968207657337189,0.5123417973518372,-0.4391370713710785,9.701737403869629
9.0,0.07999331504106522,-0.0015937058487907052,-0.016451705247163773,0.5472691059112549,-0.5062146782875061,10.181447982788086
9.02,0.10762464255094528,-0.02129426598548889,0.00981039460748434,0.4269295930862427,-0.5378403067588806,10.091249465942383
9.040000000000001,0.14781466126441956,-0.04046853259205818,0.007566932123154402,0.36602476239204407,-0.777319610118866,9.8374605178833
9.06,0.13723288476467133,-0.018880154937505722,0.014109219424426556,0.19572624564170837,-0.4653644263744354,9.39466381072998
9.08,0.11511854827404022,0.02384491264820099,0.016179585829377174,0.06293059885501862,-0.3052973747253418,9.47951889038086
9.1,0.1119721531867981,0.030262229964137077,-0.0025459597818553448,0.010876541957259178,-0.1422634720802307,9.59402847290039
9.120000000000001,0.12036724388599396,0.005680797155946493,-0.01408339012414217,0.12350568175315857,0.16754303872585297,9.877053260803223
9.14,0.08506167680025101,0.001218257239088416,-0.014167253859341145,0.26503899693489075,0.31927943229675293,9.748906135559082
9.16,0.04693133011460304,0.013771857134997845,-0.004553390666842461,0.36190372705459595,0.4762972295284271,9.780550956726074
9.18,0.04297904297709465,0.04980112612247467,-0.010647964663803577,0.26591336727142334,0.455985963344574,9.404630661010742
9.200000000000001,0.03177386522293091,0.03535686805844307,0.0007852546987123787,0.14438331127166748,0.13519376516342163,9.071873664855957
9.22,0.06258764863014221,-0.011678342707455158,-0.00038938323268666863,-0.040055934339761734,-0.03954624757170677,9.306681632995605
9.24,0.024199185892939568,-0.021845350041985512,-0.002324898261576891,-0.19547554850578308,0.03712970018386841,9.637384414672852
9.26,0.049746882170438766,-0.005974258296191692,0.0122238053008914,-0.258664608001709,0.06732043623924255,10.16968822479248
9.28,0.0030631963163614273,-0.02244756929576397,0.015593758784234524,-0.41700029373168945,0.31471627950668335,10.301535606384277
9.3,0.007002688944339752,-0.019825363531708717,0.006313676945865154,-0.4423745572566986,0.44629091024398804,9.790071487426758
9.32,-0.0032173478975892067,-0.017048142850399017,-0.0036766098346561193,-0.41375407576560974,0.294429212808609,9.685173034667969
9.34,-0.018468761816620827,0.014125175774097443,-0.01619013212621212,-0.344369500875473,0.20660626888275146,9.934585571289062
9.36,-0.011583472602069378,0.04108712822198868,-0.03470924496650696,-0.24218815565109253,0.03810969740152359,10.071166038513184
9.38,-0.01738961599767208,0.021264992654323578,-0.03791183605790138,-0.08229362219572067,-0.06704685091972351,10.054445266723633
9.4,-0.01496753841638565,0.00017982223653234541,-0.036969657987356186,-0.06701973080635071,-0.03942333534359932,9.977571487426758
9.42,-0.048163317143917084,0.008630058728158474,-0.03737926483154297,0.10257866233587265,0.09933352470397949,9.627496719360352
9.44,-0.003102339105680585,0.0341799259185791,-0.021035153418779373,0.39074817299842834,-0.057186778634786606,9.468042373657227
9.46,0.00353435380384326,0.0486890934407711,-0.02882992848753929,0.5967549085617065,-0.0684228166937828,9.365724563598633
9.48,0.009403742849826813,0.03378847986459732,-0.02740664966404438,0.5746584534645081,-0.028547024354338646,9.435378074645996
9.5,-0.023768305778503418,0.03510433807969093,-0.032787300646305084,0.5804054141044617,-0.14236417412757874,9.506898880004883
9.52,-0.053345002233982086,0.07636124640703201,-0.032460782676935196,0.3250342905521393,-0.25249242782592773,9.816513061523438
9.540000000000001,-0.03837667778134346,0.1020088642835617,-0.04319703206419945,0.07477917522192001,-0.2857919931411743,10.290359497070312
9.56,-0.033574242144823074,0.10283312946557999,-0.04335775226354599,-0.23100697994232178,-0.35046088695526123,10.610177993774414
9.58,-0.04193802550435066,0.08204033970832825,-0.026995250955224037,-0.3036007583141327,-0.17637962102890015,10.75466537475586
9.6,-0.02961488999426365,0.07446140050888062,-0.00624402891844511,-0.14710982143878937,0.174481600522995,10.431614875793457
9.620000000000001,-0.00900284294039011,0.07123918831348419,-0.0007970238220877945,0.14804406464099884,0.14017356932163239,9.777738571166992
9.64,-0.0808783695101738,0.057386454194784164,-0.010029925033450127,0.1813976764678955,-0.07896104454994202,9.43593692779541
9.66,-0.10659628361463547,0.007410681806504726,-0.0342702753841877,0.03947761282324791,0.03707819804549217,9.342294692993164
9.68,-0.09454440325498581,0.007302669808268547,-0.056882597506046295,-0.3253265619277954,0.07029880583286285,9.428871154785156
9.700000000000001,-0.07997087389230728,0.011271532624959946,-0.04529470577836037,-0.6282797455787659,0.2069350630044937,9.754706382751465
9.72,-0.08932409435510635,-0.03218693658709526,-0.03738856315612793,-0.776969313621521,0.3404202461242676,10.017714500427246
9.74,-0.09496314078569412,-0.08666671812534332,-0.0005995319806970656,-0.7168707251548767,0.3772883117198944,9.85390567779541
9.76,-0.031964607536792755,-0.04503259435296059,0.012260342948138714,-0.6154429316520691,0.039712440222501755,9.426623344421387
9.78,-0.07867731899023056,-0.007479882799088955,0.02531176246702671,-0.16812366247177124,-0.4209497570991516,9.363941192626953
9.8,-0.05252092704176903,-0.034118007868528366,0.03158023953437805,0.29353323578834534,-0.31578361988067627,9.395549774169922
9.82,-0.024539990350604057,-0.06688375771045685,0.032104749232530594,0.3855106830596924,-0.25583189725875854,9.741270065307617
9.84,-0.040997713804244995,-0.03492163494229317,0.032645996659994125,0.14380799233913422,-0.1845877468585968,10.122261047363281
9.86,-0.011910803616046906,0.012386559508740902,0.026580139994621277,-0.13420584797859192,-0.10702698677778244,10.157317161560059
9.88,0.0006992523558437824,0.03317950665950775,0.01686432771384716,-0.20853139460086823,-0.3299335837364197,9.707892417907715
9.9,0.027237452566623688,0.01911618374288082,0.01172492653131485,-0.05179724097251892,-0.5566180348396301,9.509849548339844
9.92,-0.010967678390443325,0.007415336556732655,0.0030091763474047184,0.019171537831425667,-0.496817946434021,9.50809097290039
9.94,0.02872544154524803,0.03608802333474159,-0.0007704523159191012,-0.031249426305294037,-0.46839261054992676,9.66231632232666
9.96,0.046195730566978455,0.06683884561061859,0.011596825905144215,0.06795137375593185,-0.5134767293930054,9.922922134399414
9.98,0.07733074575662613,0.04895428568124771,0.02002495713531971,0.05488843843340874,-0.3392459750175476,10.247274398803711
10.0,0.0667230561375618,0.04102100431919098,0.028446458280086517,-0.09507668018341064,-0.27659985423088074,10.577559471130371
10.02,0.05467092990875244,0.03996564820408821,0.022090818732976913,-0.04805406555533409,-0.2627027630805969,10.49190616607666
10.040000000000001,0.03477053716778755,0.0027652753051370382,0.01406748779118061,0.0812251940369606,-0.05564872920513153,10.005288124084473
10.06,0.06611219048500061,-0.01096526812762022,0.003246565815061331,0.10211291909217834,0.014514749869704247,9.316797256469727
10.08,0.07698243856430054,-0.002897645579650998,0.007173516321927309,0.10528882592916489,-0.08794411271810532,9.055902481079102
10.1,0.038249798119068146,-0.00441674655303359,-0.0030538802966475487,-0.0001651677448535338,-0.23475857079029083,9.490795135498047
10.120000000000001,0.04135783016681671,-0.04854971170425415,-0.0068845623172819614,-0.2716048061847687,-0.1841011345386505,10.179970741271973
10.14,0.08783885836601257,-0.07195029407739639,-0.007782628759741783,-0.46926984190940857,-0.19454391300678253,10.462170600891113
10.16,0.07431359589099884,-0.0701204165816307,-0.007367253769189119,-0.6109855771064758,-0.2539096176624298,10.05886459350586
10.18,0.04947247356176376,-0.048013631254434586,-0.01799970492720604,-0.5270373225212097,-0.31252193450927734,9.790836334228516
10.200000000000001,0.05868462100625038,-0.07192211598157883,-0.034614190459251404,-0.09632647037506104,-0.2269921600818634,9.443056106567383
10.22,0.018780628219246864,-0.09045466780662537,-0.029183847829699516,0.1609250158071518,0.044412050396203995,9.155675888061523
10.24,0.023586638271808624,-0.08317204564809799,-0.005101221147924662,0.22438772022724152,0.2847434878349304,9.25003433227539
10.26,0.008023303933441639,-0.07699446380138397,0.0033479148987680674,0.3002033233642578,0.4186590611934662,9.437990188598633
10.28,0.04379793629050255,-0.07572940737009048,0.023498091846704483,0.2615145146846771,0.3094322085380554,9.972174644470215
10.3,0.004274455364793539,-0.061964213848114014,0.024220505729317665,0.02464267611503601,0.1907161921262741,10.164461135864258
10.32,0.04239263758063316,-0.030324645340442657,0.01176278293132782,0.09070303291082382,0.06337246298789978,9.71601390838623
10.34,0.039386086165905,-0.016610445454716682,-0.007831249386072159,0.11007653176784515,-0.1825665533542633,9.435489654541016
10.36,-0.0016234128270298243,0.010748004540801048,-0.02974872477352619,0.04947305843234062,-0.09151887148618698,9.505014419555664
10.38,-0.006388238165527582,0.005589786916971207,-0.04886725917458534,0.021011797711253166,0.0842290148139,9.783299446105957
10.4,-0.0066826739348471165,0.012257672846317291,-0.07630331814289093,0.17956174910068512,0.12171299755573273,9.894645690917969
10.42,0.013927510008215904,-0.010588417761027813,-0.05162155628204346,0.24890489876270294,-0.01433832198381424,9.906267166137695
10.44,0.015042681246995926,-0.02598535642027855,-0.025257227942347527,0.3649705648422241,0.00981048308312893,9.598158836364746
10.46,0.029665645211935043,-0.014606314711272717,0.002610513474792242,0.36005115509033203,-0.013173948973417282,9.47600269317627
10.48,0.026503000408411026,-0.02784516103565693,0.006551945116370916,0.2471410632133484,-0.07566648721694946,9.530102729797363
10.5,-0.02421177551150322,-0.021828798577189445,-0.00214657885953784,0.05770280957221985,0.05401410907506943,9.50234603881836
10.52,0.02426118403673172,-0.04710988700389862,-0.007680039387196302,0.023661186918616295,0.1883804053068161,9.530107498168945
10.540000000000001,0.01210208423435688,-0.0569688118994236,-0.019104447215795517,0.07462361454963684,0.10736050456762314,9.631953239440918
10.56,0.025091534480452538,-0.0681493729352951,-0.0010291838552802801,0.1577114313840866,-0.0665372982621193,9.359097480773926
10.58,0.08203639090061188,-0.06787126511335373,0.013200955465435982,0.11240307986736298,-0.23785242438316345,8.942032814025879
10.6,0.1159462109208107,-0.06740375608205795,0.03836723417043686,-0.16223548352718353,-0.2721790075302124,9.706048965454102
10.620000000000001,0.08396350592374802,-0.01608273759484291,0.03752583637833595,-0.862029492855072,-0.14056460559368134,11.176025390625
10.64,0.01746530458331108,0.0050668069161474705,0.012550192885100842,-1.4638452529907227,0.07386849820613861,11.765868186950684
10.66,0.010006919503211975,-0.028255382552742958,-0.0350218340754509,-0.8260483145713806,0.058228783309459686,10.918546676635742
10.68,-0.03614141047000885,-0.017732862383127213,-0.0680798813700676,-0.1210130974650383,0.008928784169256687,9.82098388671875
10.700000000000001,-0.047797318547964096,0.030140474438667297,-0.07848458737134933,0.24210165441036224,-0.24149930477142334,9.007808685302734
10.72,-0.04591366648674011,0.05877145007252693,-0.09457329660654068,0.30834415555000305,-0.5231844782829285,8.729084968566895
10.74,-0.06827862560749054,0.04416793957352638,-0.12249456346035004,0.36469003558158875,-0.24469536542892456,9.026856422424316
10.76,-0.04723148047924042,0.04597640037536621,-0.1280221790075302,0.4818638861179352,0.345550537109375,10.130589485168457
10.78,-0.050758253782987595,0.010043080896139145,-0.10228323191404343,0.7823106646537781,0.7486830949783325,10.565021514892578
10.8,-0.06753628700971603,-0.03385188430547714,-0.056951165199279785,1.0980740785598755,0.8274673223495483,10.22996711730957
10.82,-0.0398419126868248,-0.0004332976241130382,-0.027022182941436768,1.0949677228927612,0.5323519706726074,9.832134246826172
10.84,-0.05486711859703064,0.04244546592235565,-0.02068612538278103,0.891139805316925,0.21466514468193054,9.59742546081543
10.86,-0.08113406598567963,0.044390831142663956,-0.010475117713212967,0.5925840139389038,-0.03184300288558006,9.398148536682129
10.88,-0.12050596624612808,0.023431602865457535,-0.02392175793647766,0.12137454748153687,0.1403592824935913,9.613706588745117
10.9,-0.08999214321374893,0.02975200116634369,-0.015606564469635487,-0.4299039840698242,0.20862926542758942,10.227858543395996
10.92,-0.03201897814869881,0.03908618167042732,0.007557707838714123,-0.5332515239715576,-0.06806600838899612,10.326005935668945
10.94,-0.07449633628129959,0.02880115434527397,-0.026123760268092155,-0.16580088436603546,-0.48661139607429504,9.615943908691406
10.96,-0.04129047691822052,-0.01259071845561266,-0.026809951290488243,0.03455919027328491,-0.5837579965591431,9.51695442199707
10.98,-4.087293746124487e-06,-0.017365457490086555,-0.02420121058821678,-0.0343409925699234,-0.5387474894523621,9.893486022949219
11.0,-0.013379891403019428,-0.025492431595921516,-0.001381919952109456,-0.09321780502796173,-0.09890606999397278,10.159578323364258
11.02,0.005190162919461727,-0.0325828455388546,0.01261383667588234,-0.28771060705184937,0.13192789256572723,10.25272274017334
11.040000000000001,0.003662540577352047,-0.03094441257417202,0.04201455041766167,-0.3312753140926361,0.1305127739906311,9.727653503417969
11.06,0.013190634548664093,-0.03972763195633888,0.09186068177223206,-0.2604897618293762,0.004170118365436792,9.375622749328613
11.08,-0.02749096415936947,-0.05186396464705467,0.10656853020191193,-0.09881067276000977,-0.22978699207305908,9.366510391235352
11.1,0.017283527180552483,-0.0693916380405426,0.0949883982539177,0.22783170640468597,-0.35663509368896484,9.267619132995605
11.120000000000001,0.02857259102165699,-0.0482165589928627,0.046041518449783325,0.49986833333969116,-0.4432857036590576,9.842260360717773
11.14,0.06354539841413498,-0.06813670694828033,0.0018405605806037784,0.57963627576828,-0.24441124498844147,9.942819595336914
11.16,0.03794822096824646,-0.06953756511211395,-0.026518186554312706,0.5053459405899048,0.03222355991601944,9.925954818725586
11.18,0.05172768980264664,-0.03742291405797005,-0.041466228663921356,0.2730385959148407,0.02265353873372078,10.083953857421875
11.200000000000001,0.027172353118658066,0.01980835385620594,-0.048564691096544266,-0.11276382952928543,-0.06873127073049545,10.077474594116211
11.22,0.05070378631353378,0.058961328119039536,-0.04747132211923599,-0.12239966541528702,-0.25956615805625916,9.62240219116211
11.24,-0.01195987593382597,0.07776441425085068,-0.029571544378995895,-0.032996345311403275,-0.498940646648407,9.449688911437988
11.26,-0.037459347397089005,0.09752073884010315,0.00037208039429970086,0.32545769214630127,-0.33879855275154114,9.593111038208008
11.28,-0.00787694938480854,0.12823916971683502,0.022217871621251106,0.5939884185791016,-0.02063116617500782,9.485294342041016
11.3,-0.0006781601114198565,0.14664451777935028,0.038596704602241516,1.0154881477355957,0.25667804479599,9.69951343536377
11.32,0.016103437170386314,0.14703775942325592,0.040959328413009644,1.2707008123397827,0.46885520219802856,9.359664916992188
11.34,0.010732380673289299,0.13914911448955536,0.040703192353248596,1.1408336162567139,0.5461596250534058,9.732071876525879
11.36,0.03266451880335808,0.13092219829559326,0.03312867134809494,0.676982581615448,0.33186766505241394,9.843177795410156
11.38,0.06027098000049591,0.10678737610578537,0.021971426904201508,0.02833659201860428,-0.06004079058766365,9.84093952178955
11.4,0.04414869844913483,0.05780749022960663,0.02329828031361103,-0.40290945768356323,-0.3979782462120056,9.579367637634277
11.42,0.012750701978802681,0.013957892544567585,0.027825307101011276,-0.7147804498672485,-0.46354058384895325,9.519536972045898
11.44,0.09181485325098038,-0.017131146043539047,0.03158029913902283,-0.7808448076248169,-0.42524459958076477,9.887203216552734
11.46,0.07104369252920151,-0.036320023238658905,0.006405247841030359,-0.7700993418693542,-0.08420535176992416,9.732645034790039
11.48,0.0823073461651802,-0.002466802252456546,-0.009203534573316574,-0.8249011635780334,0.003961588256061077,9.709870338439941
11.5,0.055617231875658035,-0.025351114571094513,-0.021649645641446114,-0.7971758842468262,0.10383410006761551,9.708015441894531
11.52,0.013210269622504711,-0.06691260635852814,-0.02923429384827614,-0.6237048506736755,0.20896966755390167,10.030349731445312
11.540000000000001,0.0037309175822883844,-0.07749412953853607,-0.012991285882890224,-0.4502694010734558,0.03150594234466553,10.164170265197754
11.56,-0.026191912591457367,-0.08677065372467041,0.00896593276411295,-0.04607299715280533,-0.03889438137412071,9.973825454711914
11.58,0.012757236137986183,-0.09568137675523758,0.014699796214699745,0.27075767517089844,-0.039467986673116684,9.391030311584473
11.6,-0.0613953173160553,-0.12271087616682053,0.00033250704291276634,0.4001461863517761,0.08966834843158722,9.218658447265625
11.620000000000001,-0.03283167630434036,-0.13245625793933868,-0.011275067925453186,0.3903448283672333,0.3850592076778412,9.275708198547363
11.64,-0.029986444860696793,-0.08279868960380554,-0.015631569549441338,0.21648383140563965,0.5577107071876526,10.19836139678955
11.66,-0.026227695867419243,-0.07477118074893951,-0.021118497475981712,0.19182230532169342,0.5205658674240112,9.911222457885742
11.68,-0.013517078943550587,-0.06842231750488281,-0.027393579483032227,0.17372941970825195,0.3159186542034149,10.07409381866455
11.700000000000001,-0.023966530337929726,-0.055534571409225464,-0.006402057129889727,0.15622788667678833,-0.07661718130111694,9.79186725616455
11.72,-0.014880902133882046,-0.032611723989248276,1.9339495338499546e-05,0.21643473207950592,-0.3156549036502838,9.729307174682617
11.74,-0.0730816200375557,0.009269114583730698,0.0063904873095452785,0.07351849228143692,-0.16409459710121155,9.976699829101562
11.76,-0.005468904506415129,0.05517848581075668,-0.02487892284989357,-0.03036845289170742,0.162153422832489,9.688995361328125
11.78,0.019245732575654984,0.06274706870317459,-0.04270211607217789,0.055328551679849625,0.42834264039993286,9.2904052734375
11.8,0.04284589737653732,0.04010438919067383,-0.018004829064011574,0.21011482179164886,0.26155054569244385,9.747416496276855
11.82,-0.0011515154037624598,0.037691254168748856,0.007581730373203754,0.4189028739929199,-0.2859512269496918,10.004964828491211
11.84,0.012153935618698597,0.028180252760648727,0.025330547243356705,0.5080949068069458,-0.5341798067092896,9.92703914642334
11.86,0.033931419253349304,0.035073790699243546,0.021488897502422333,0.453917920589447,-0.630168616771698,9.819393157958984
11.88,0.048411328345537186,0.019852017983794212,0.01477297954261303,0.4452785551548004,-0.3822440207004547,9.31948184967041
11.9,0.02311781793832779,-0.0024537674617022276,-0.007992610335350037,0.2738293409347534,-0.07432270050048828,9.942573547363281
11.92,-0.051280319690704346,-0.037984106689691544,-0.01717802695930004,0.1054815948009491,0.4583488702774048,10.180850982666016
11.94,-0.029106944799423218,-0.05291008576750755,-0.026353467255830765,-0.18498709797859192,0.6021494269371033,9.994407653808594
11.96,-0.07318958640098572,0.0029972237534821033,-0.03231238201260567,-0.3947184085845947,0.36478185653686523,9.754900932312012
11.98,-0.10612542182207108,0.01095288060605526,-0.03527653589844704,-0.1130715161561966,0.21695832908153534,9.335346221923828
12.0,-0.11897022277116776,-0.016880761831998825,-0.018495462834835052,-0.019890600815415382,0.1427086442708969,9.307191848754883
12.02,-0.06766337901353836,-0.0036726039834320545,-0.001224496983923018,-0.0352630577981472,-0.08837869763374329,9.864529609680176
12.040000000000001,-0.0759815201163292,0.025318441912531853,0.013044226914644241,0.08661346882581711,-0.177255779504776,10.131669044494629
12.06,-0.14536678791046143,0.03151252493262291,0.0036075981333851814,0.29297688603401184,-0.14095968008041382,10.305760383605957
12.08,-0.13333342969417572,0.031166646629571915,-0.014908382669091225,0.4347726106643677,-0.07991605252027512,10.082456588745117
12.1,-0.11834295839071274,0.059234701097011566,-0.022953128442168236,0.47184476256370544,-0.06012316048145294,9.358512878417969
12.120000000000001,-0.09883806109428406,0.08994947373867035,-0.010178291238844395,0.4046645164489746,-0.19372886419296265,8.93856430053711
12.14,-0.062059007585048676,0.10055417567491531,0.009567417204380035,0.30263614654541016,-0.3331407606601715,9.468384742736816
12.16,-0.027483390644192696,0.1186085194349289,0.035642243921756744,0.23753225803375244,-0.5761856436729431,10.133530616760254
12.18,-0.02075033076107502,0.08624839782714844,0.040134135633707047,0.0636325553059578,-0.5434326529502869,10.556171417236328
12.200000000000001,0.012666583992540836,0.049781229346990585,0.0273253433406353,-0.15865030884742737,-0.3802679777145386,10.46872615814209
12.22,0.07208286225795746,0.05863404646515846,0.013863736763596535,-0.16731423139572144,-0.30977359414100647,9.854999542236328
12.24,0.08059655129909515,0.06525782495737076,-0.017508691176772118,0.01917889527976513,-0.4917289614677429,9.386687278747559
12.26,0.06920498609542847,0.06230275705456734,-0.037123434245586395,0.0030195172876119614,-0.731661319732666,9.30373477935791
12.280000000000001,0.07917601615190506,0.02255864627659321,-0.05078287422657013,-0.0980152040719986,-0.7909597754478455,9.545939445495605
12.3,0.059858545660972595,-0.0272821094840765,-0.04324592649936676,-0.17817294597625732,-0.5708371996879578,9.42940616607666
12.32,0.06260061264038086,-0.042274441570043564,-0.01639467291533947,-0.26168644428253174,-0.23905101418495178,9.343628883361816
12.34,0.09206981956958771,-0.06969372183084488,0.019753888249397278,-0.307138592004776,0.10035062581300735,9.325024604797363
12.36,0.06524559110403061,-0.08741166442632675,0.030105669051408768,-0.31923431158065796,0.2478121966123581,9.666851043701172
12.38,0.0652964860200882,-0.07297132164239883,0.040328241884708405,-0.3781193792819977,0.43754735589027405,9.933721542358398
12.4,0.07703933119773865,-0.02897815592586994,0.02679266594350338,-0.4248470067977905,0.34285426139831543,9.970932006835938
12.42,0.014178543351590633,-0.02335311844944954,-0.009324393235147,-0.16759206354618073,0.17146077752113342,9.896369934082031
12.44,0.008381768129765987,-0.024953646585345268,-0.013667179271578789,0.1486169695854187,-0.05929012596607208,9.747576713562012
12.46,0.04309086874127388,-0.029894601553678513,-0.001314040389843285,0.4657277464866638,-0.30304720997810364,9.502534866333008
12.48,0.027265209704637527,-0.00031544853118248284,0.008538193069398403,0.4575269818305969,-0.38143035769462585,9.506061553955078
12.5,0.008120139129459858,0.03646034747362137,-0.00739120552316308,0.3299379050731659,-0.13344109058380127,10.235468864440918
12.52,0.018687043339014053,0.0707157552242279,-0.00647437060251832,0.2680051326751709,0.12151943147182465,10.40538501739502
12.540000000000001,-0.020694632083177567,0.07076387852430344,-0.020199313759803772,0.425855815410614,0.19516189396381378,10.196431159973145
12.56,0.0010114540345966816,0.048617731779813766,-0.03387600556015968,0.4265311658382416,-0.02958868257701397,10.072053909301758
12.58,0.007377458270639181,0.05298491567373276,-0.05440178140997887,0.3298991024494171,-0.2719501554965973,9.616963386535645
12.6,0.002809928497299552,0.07070010155439377,-0.0572969913482666,0.18382446467876434,-0.32805168628692627,9.447163581848145
12.620000000000001,-0.01848834939301014,0.06216682493686676,-0.041024308651685715,0.044716063886880875,-0.15633337199687958,9.408088684082031
12.64,0.0028996255714446306,0.02954956144094467,-0.028156735002994537,-0.2783406674861908,-0.07973277568817139,9.899057388305664
12.66,0.014615778811275959,0.03547011315822601,-0.013554123230278492,-0.6126285791397095,-0.06552806496620178,10.516410827636719
12.68,0.0477265827357769,0.03413206711411476,0.011386962607502937,-0.5601282119750977,-0.11533436179161072,10.488551139831543
12.700000000000001,0.039331983774900436,0.001030131708830595,0.01807468570768833,-0.34926915168762207,-0.321893572807312,10.034660339355469
12.72,0.06766460835933685,-0.022253552451729774,0.02586471103131771,-0.24130500853061676,-0.267699658870697,9.328571319580078
12.74,0.03430166095495224,-0.0287992712110281,0.008034816011786461,-0.12362930178642273,-0.17034828662872314,9.11697769165039
12.76,0.05223160982131958,-0.03166584670543671,0.006458550225943327,-0.058372143656015396,0.02014956623315811,9.303442001342773
12.780000000000001,0.033419422805309296,-0.0293715987354517,-0.003546125255525112,0.06943913549184799,0.14058545231819153,9.418781280517578
12.8,0.04724207520484924,-0.02833625115454197,0.017861010506749153,0.006492385640740395,0.07456284016370773,9.52330493927002
12.82,0.06263187527656555,-0.0066339257173240185,0.033173829317092896,0.004529827740043402,-0.0723397508263588,9.682464599609375
12.84,0.059411048889160156,-0.007408442907035351,0.032286617904901505,-0.012936086393892765,-0.28984227776527405,9.820354461669922
12.86,0.039632804691791534,-0.010313156060874462,0.02231689542531967,-0.19922477006912231,-0.34060850739479065,10.285201072692871
12.88,-2.98594623018289e-05,0.02411111816763878,-0.0009908564388751984,-0.43308278918266296,0.006589715369045734,10.535238265991211
12.9,-0.012580765411257744,0.04067808762192726,-0.04667040705680847,-0.35728514194488525,0.20967480540275574,10.321207046508789
12.92,-0.08779703080654144,0.016234055161476135,-0.08181265741586685,-0.06077616289258003,0.40080198645591736,10.132416725158691
12.94,-0.04157455265522003,-0.014418394304811954,-0.07303409278392792,0.2877291440963745,0.4645795524120331,9.54543399810791
12.96,-0.08568596094846725,0.017926033586263657,-0.06276723742485046,0.46078646183013916,0.11479277163743973,9.282266616821289
12.98,-0.11471106112003326,0.030783602967858315,-0.057536058127880096,0.4568089246749878,-0.1293811798095703,9.708735466003418
13.0,-0.12231195718050003,-0.024229871109128,-0.06842423975467682,0.32388579845428467,0.00526792136952281,10.021332740783691
13.02,-0.15078718960285187,-0.05501759797334671,-0.04737093672156334,-0.07121090590953827,0.26545363664627075,10.025378227233887
13.040000000000001,-0.1587838977575302,-0.03469056636095047,-0.023598313331604004,-0.4286332428455353,0.13572116196155548,9.890684127807617
13.06,-0.14452478289604187,-0.011586840264499187,0.0034749158658087254,-0.39867401123046875,-0.010652697645127773,9.682822227478027
13.08,-0.17679846286773682,-0.04814224690198898,0.004070661496371031,-0.1326378881931305,-0.1286809742450714,9.471692085266113
13.1,-0.14109188318252563,-0.05403419956564903,-0.0068436190485954285,-0.005666951648890972,-0.10423775762319565,9.58667278289795
13.120000000000001,-0.16811223328113556,-0.04249107837677002,-0.01554112322628498,0.0658273920416832,-0.10906168073415756,9.572446823120117
13.14,-0.12416591495275497,-0.032348714768886566,-0.02602294646203518,0.22155460715293884,-0.32915815711021423,9.47098445892334
13.16,-0.11266657710075378,-0.02092217281460762,-0.015576113946735859,0.21474221348762512,-0.5965577960014343,9.35607624053955
13.18,-0.09091982245445251,-0.01393007580190897,-0.008740883320569992,0.08032579720020294,-0.7261892557144165,9.47296142578125
13.200000000000001,-0.11079486459493637,-0.0015663332305848598,0.010315684601664543,-0.11341264843940735,-0.7111366987228394,10.023172378540039
13.22,-0.07356201857328415,-0.009285900741815567,0.027015121653676033,-0.20160551369190216,-0.559285581111908,10.419742584228516
13.24,-0.033569347113370895,0.025175096467137337,0.036854684352874756,-0.0710456445813179,-0.30282631516456604,10.126749038696289
13.26,-0.01575632020831108,0.03889888897538185,0.04222182184457779,0.1993049681186676,-0.2019108086824417,9.610450744628906
13.280000000000001,0.05242779478430748,0.047470852732658386,0.04254249483346939,0.36745119094848633,-0.43960198760032654,9.316744804382324
13.3,0.02896423451602459,0.06598390638828278,0.047005441039800644,0.43048524856567383,-0.6795130372047424,9.514679908752441
13.32,0.06407859176397324,0.04166145995259285,0.04493921250104904,0.35613489151000977,-0.7731655836105347,9.933449745178223
13.34,0.06882627308368683,0.005658580455929041,0.018708672374486923,-0.04083729162812233,-0.7557808756828308,10.446272850036621
13.36,0.10382510721683502,-0.005903484765440226,0.02356644906103611,-0.38016828894615173,-0.4838440418243408,10.661048889160156
13.38,0.08229563385248184,0.018026474863290787,0.020305508747696877,-0.27941086888313293,-0.31645241379737854,9.764469146728516
13.4,0.07594496756792068,-0.004669548477977514,0.0020615882240235806,-0.17419110238552094,-0.2689529061317444,8.821271896362305
13.42,0.07653448730707169,-0.061178743839263916,-0.005731597077101469,-0.29649364948272705,-0.23351825773715973,9.051494598388672
13.44,0.10978984832763672,-0.04479627683758736,-0.007225210312753916,-0.26532819867134094,-0.4216092526912689,9.624571800231934
13.46,0.11506904661655426,-0.06157057359814644,0.004807641729712486,-0.13034330308437347,-0.5883994698524475,10.050698280334473
13.48,0.10622742772102356,-0.07728654146194458,0.005150168668478727,-0.0014952798373997211,-0.6595037579536438,9.846746444702148
13.5,0.07542471587657928,-0.09439928084611893,0.0003133510472252965,-0.09836773574352264,-0.5346518754959106,9.802504539489746
13.52,0.1024046540260315,-0.07314466685056686,0.0003471308446023613,-0.027008820325136185,-0.15011677145957947,9.688667297363281
13.540000000000001,0.11821474134922028,-0.07404262572526932,0.006880352273583412,0.1927124261856079,0.07569173723459244,9.154424667358398
13.56,0.08859360218048096,-0.06610074639320374,-0.001720558968372643,0.17105433344841003,0.0580994077026844,9.35513973236084
13.58,0.07355574518442154,-0.05200633406639099,0.0019420083845034242,0.14085392653942108,0.08364260196685791,9.908187866210938
13.6,0.025891313329339027,-0.023728638887405396,-0.017958257347345352,0.1971733272075653,-0.08215325325727463,10.056981086730957
13.620000000000001,0.04481665417551994,0.004418851807713509,-0.017740828916430473,0.26477909088134766,-0.22554144263267517,9.855469703674316
13.64,0.014873200096189976,0.04273586347699165,-0.013667099177837372,0.3682314455509186,-0.19248972833156586,9.923371315002441
13.66,0.043522909283638,0.0443841777741909,0.01962408423423767,0.36265918612480164,0.051336996257305145,10.285130500793457
13.68,0.05639397352933884,0.0633682832121849,0.03215549513697624,0.15841025114059448,0.08461333066225052,10.108694076538086
13.700000000000001,0.0939655676484108,0.09237049520015717,0.035813312977552414,0.1577620953321457,0.18451045453548431,9.997779846191406
13.72,0.08381068706512451,0.09091059863567352,0.019414087757468224,0.34590139985084534,-0.007291542831808329,10.010546684265137
13.74,0.03217194974422455,0.043237391859292984,0.019337248057127,0.5155380964279175,-0.250833123922348,9.992809295654297
13.76,0.06596345454454422,0.027205828577280045,0.008433077484369278,0.4917356073856354,-0.3946395218372345,9.750676155090332
13.780000000000001,0.04515901580452919,0.014156924560666084,0.00712647894397378,0.43492281436920166,-0.4097333550453186,9.41347599029541
13.8,0.0690813735127449,0.0037711907643824816,-0.0008419901132583618,0.20034359395503998,-0.3236451745033264,9.059290885925293
13.82,0.036537595093250275,-0.02735966257750988,0.005774661898612976,-0.22678686678409576,-0.05973087251186371,9.341747283935547
13.84,0.03525916859507561,-0.037067823112010956,0.012723630294203758,-0.8009834289550781,0.2507180869579315,10.266385078430176
13.86,0.05885693058371544,-0.015477987006306648,0.02972118742763996,-1.0637876987457275,0.318768173456192,10.618576049804688
13.88,0.0621037632226944,-0.04880774766206741,0.019756605848670006,-0.8463233709335327,0.0002406079147476703,10.023929595947266
13.9,0.041115641593933105,-0.06446155160665512,0.003025018610060215,-0.33605509996414185,-0.06085805222392082,9.513339042663574
13.92,0.042002104222774506,-0.055169012397527695,-0.017699750140309334,0.09107311069965363,-0.14497289061546326,9.520111083984375
13.94,-0.0024930548388510942,-0.049144722521305084,-0.03799546882510185,0.34551331400871277,-0.22246050834655762,9.937501907348633
13.96,-0.013274052180349827,-0.05041639134287834,-0.0482751727104187,0.48096296191215515,0.05836065858602524,9.591593742370605
13.98,-0.04993759095668793,-0.04049163684248924,-0.05712088197469711,0.36679428815841675,0.16777746379375458,9.71104907989502
14.0,-0.058169323951005936,-0.013059644028544426,-0.06744842231273651,-0.010186309926211834,0.26872754096984863,9.492487907409668
14.02,-0.05928799882531166,0.026632897555828094,-0.08281027525663376,-0.36077234148979187,0.5426689386367798,9.58520793914795
14.040000000000001,-0.08477132022380829,0.03963157534599304,-0.08346480876207352,-0.24215513467788696,0.5471466779708862,10.159649848937988
14.06,-0.08436083048582077,0.014976924285292625,-0.08135915547609329,0.08385864645242691,0.4553772509098053,10.373489379882812
14.08,-0.1301765888929367,0.014599937945604324,-0.06480193138122559,0.2156079113483429,0.1914665848016739,10.054133415222168
14.1,-0.12443140149116516,0.045511867851018906,-0.04460040479898453,0.612945556640625,-0.26671919226646423,9.355260848999023
14.120000000000001,-0.12076039612293243,0.06851914525032043,-0.055197183042764664,0.6007235050201416,-0.19431215524673462,9.399371147155762
14.14,-0.14435935020446777,0.05797009542584419,-0.05238556116819382,0.38863128423690796,-0.1102796196937561,9.853777885437012
14.16,-0.11069317162036896,0.012604289688169956,-0.05285749211907387,0.23945516347885132,-0.042386945337057114,10.193289756774902
14.18,-0.13799193501472473,-0.03333123400807381,-0.0010156999342143536,0.22100631892681122,0.03562764450907707,10.017105102539062
14.200000000000001,-0.0656701847910881,-0.04529890790581703,0.0421820729970932,0.12601858377456665,-0.22309058904647827,9.790639877319336
14.22,-0.085906982421875,-0.024107689037919044,0.04771401733160019,0.0349486768245697,-0.36461466550827026,9.746402740478516
14.24,-0.08360587060451508,-0.03652321919798851,0.03744926676154137,-0.08148696273565292,-0.31313958764076233,9.76296615600586
14.26,-0.0685095340013504,-0.06806241720914841,0.044188953936100006,-0.025363022461533546,-0.20467159152030945,9.702672958374023
14.280000000000001,-0.006990731693804264,-0.10215526819229126,0.04701012745499611,0.013884061947464943,-0.20957966148853302,9.532575607299805
14.3,-0.04822385683655739,-0.10607448220252991,0.05768430605530739,0.06725846230983734,-0.49315309524536133,9.1586275100708
14.32,-0.022770199924707413,-0.11417130380868912,0.031187256798148155,-0.1029687225818634,-0.7162654995918274,9.713225364685059
14.34,0.025690477341413498,-0.09627627581357956,-0.0007614580681547523,-0.3332034945487976,-0.6380927562713623,10.44377613067627
14.36,0.02215784415602684,-0.11447472870349884,-0.02066042833030224,-0.3691313564777374,-0.3602103888988495,10.552837371826172
14.38,0.034541014581918716,-0.12173670530319214,-0.010755996219813824,-0.1363917887210846,-0.35024383664131165,10.140138626098633
14.4,0.023072214797139168,-0.1415637731552124,-0.013524306938052177,0.01975349895656109,-0.25526493787765503,9.73995590209961
14.42,0.05798820033669472,-0.09763908386230469,-0.003704590955749154,0.11183838546276093,-0.35304170846939087,9.625320434570312
14.44,0.011401014402508736,-0.05679171532392502,-0.004018858540803194,0.31239810585975647,-0.2780214548110962,9.637944221496582
14.46,0.004212005063891411,-0.034591350704431534,0.002641775645315647,0.6022312641143799,-0.06737542897462845,9.443072319030762
14.48,0.03175731375813484,-0.05403847247362137,-0.00038481689989566803,0.7671105265617371,0.03013918548822403,9.376507759094238
14.5,0.06099320948123932,-0.03987116739153862,0.0008601704612374306,0.7569980621337891,0.022073151543736458,9.144296646118164
14.52,0.02930654212832451,-0.021581221371889114,0.012441826052963734,0.8205743432044983,-0.19457848370075226,8.939207077026367
14.540000000000001,0.09821518510580063,-0.0030173975974321365,0.014568223617970943,0.8077240586280823,-0.66475510597229,9.427212715148926
14.56,0.05497672036290169,0.045888274908065796,0.008999072015285492,0.7439075708389282,-0.5211191177368164,10.067903518676758
14.58,0.10355325043201447,0.0638108178973198,0.004302548244595528,0.718416690826416,-0.2469252496957779,9.70967960357666
14.6,0.10209640860557556,0.06313501298427582,-0.012417151592671871,0.7465885281562805,-0.27127426862716675,9.591710090637207
14.620000000000001,0.08585231006145477,0.06324896961450577,-0.017119206488132477,0.7284137606620789,-0.17404213547706604,9.485260963439941
14.64,0.12453380972146988,0.10443341732025146,-0.01452801562845707,0.4528658092021942,-0.14687025547027588,9.856874465942383
14.66,0.18942859768867493,0.13040034472942352,0.006422379054129124,0.3014478385448456,-0.12605959177017212,9.860387802124023
14.68,0.20920789241790771,0.1463198959827423,0.002480576978996396,0.24005141854286194,-0.11934524029493332,9.428502082824707
14.700000000000001,0.16874821484088898,0.12182587385177612,0.0014813636662438512,0.20050840079784393,-0.3919740319252014,9.443907737731934
14.72,0.17748180031776428,0.13749773800373077,-0.020166875794529915,0.18718312680721283,-0.4275325536727905,9.893451690673828
14.74,0.14953193068504333,0.13440288603305817,-0.02772211655974388,0.23982159793376923,-0.2846188545227051,10.378783226013184
14.76,0.13045185804367065,0.10505811870098114,-0.020369546487927437,0.1403292864561081,-0.10604148358106613,10.033201217651367
14.780000000000001,0.0422615185379982,0.0772014632821083,-0.03529299050569534,0.0018894003005698323,-0.009465962648391724,10.0862455368042
14.8,0.07851442694664001,0.06212906166911125,-0.03673799708485603,-0.015307552181184292,0.27373772859573364,9.627439498901367
14.82,0.06132622808218002,0.045540083199739456,-0.03606739640235901,-0.2049230933189392,0.3481113910675049,9.75926399230957
14.84,-0.02079762890934944,0.03340597450733185,-0.04699151590466499,-0.372493714094162,0.4142054319381714,9.731304168701172
14.86,-0.04136496037244797,0.023068426176905632,-0.05434805899858475,-0.45781317353248596,0.8043544292449951,9.651066780090332
14.88,-0.09600623697042465,0.006190606392920017,-0.06324313580989838,-0.5377791523933411,0.8329869508743286,9.695792198181152
14.9,-0.1299404501914978,-0.0012181299971416593,-0.047677889466285706,-0.4732275903224945,0.8932415246963501,9.899313926696777
14.92,-0.10971808433532715,0.008279284462332726,-0.025592615827918053,-0.3848210871219635,0.6311607956886292,10.066064834594727
14.94,-0.06492997705936432,0.02692040614783764,0.012448018416762352,-0.22968091070652008,0.12028444558382034,9.903432846069336
14.96,-0.07655906677246094,0.051818836480379105,0.035176921635866165,0.1736137717962265,-0.13810639083385468,10.016007423400879
14.98,-0.04804876819252968,0.056192122399806976,0.04486722871661186,0.3806603252887726,-0.20832966268062592,10.106327056884766
15.0,0.008851495571434498,0.03985998407006264,0.0574471652507782,0.5361780524253845,-0.2206178903579712,10.05064582824707
15.02,0.01313534751534462,0.0141579145565629,0.05422190576791763,0.3788410425186157,-0.2842673361301422,9.868639945983887
15.040000000000001,0.012872075662016869,0.05203273519873619,0.031779032200574875,0.20240935683250427,-0.3043363690376282,9.502211570739746
15.06,0.04915294423699379,0.04559992998838425,0.016494864597916603,0.18272295594215393,-0.433414489030838,9.461322784423828
15.08,0.08279237151145935,0.043569378554821014,0.0158787090331316,0.062077365815639496,-0.49391043186187744,9.742118835449219
15.1,0.07176095992326736,0.03599683940410614,0.01641813851892948,-0.0873895138502121,-0.4085308015346527,10.305627822875977
15.120000000000001,0.11255408078432083,0.04867594689130783,0.021072935312986374,-0.3757874667644501,-0.14684852957725525,10.73042106628418
15.14,0.07393207401037216,0.011436957865953445,0.01450106780976057,-0.21538224816322327,-0.06383422017097473,9.819580078125
15.16,0.055303867906332016,-0.003653899533674121,0.007133081555366516,-0.18816301226615906,0.05882026255130768,9.407340049743652
15.18,0.033271271735429764,0.006238846108317375,0.01271513570100069,-0.24976465106010437,0.03699492663145065,9.642772674560547
15.200000000000001,0.05800523981451988,-0.035510510206222534,0.01901748776435852,-0.21240736544132233,-0.1304023414850235,10.034149169921875
15.22,0.05112722888588905,-0.06528659164905548,0.04232064262032509,-0.17931941151618958,0.10220082104206085,9.818184852600098
15.24,0.03261002525687218,-0.08132972568273544,0.05740668624639511,-0.12773321568965912,0.4582069218158722,9.487688064575195
15.26,0.016295239329338074,-0.0631634071469307,0.05933264642953873,-0.11725647002458572,0.6466577053070068,9.477591514587402
15.280000000000001,-0.04889751225709915,-0.07561010867357254,0.06452491134405136,-0.10277686268091202,0.7157754302024841,9.726812362670898
15.3,-0.021123746410012245,-0.10384713113307953,0.04927762970328331,-0.15570199489593506,0.7876617908477783,9.870115280151367
15.32,-0.006732911337167025,-0.09393899887800217,0.05310551077127457,-0.15452010929584503,0.5763904452323914,9.919328689575195
15.34,0.018121007829904556,-0.07438439875841141,0.061395227909088135,-0.147767573595047,0.09290845692157745,9.91015625
15.36,-0.027688581496477127,-0.05363411083817482,0.05669428035616875,-0.031574834138154984,-0.2615507245063782,9.859468460083008
15.38,-0.009175324812531471,-0.04095842316746712,0.04645153135061264,0.27273237705230713,-0.25869977474212646,9.300008773803711
15.4,-0.005927277263253927,-0.00898739043623209,0.030621398240327835,0.37262147665023804,-0.33341777324676514,9.741750717163086
15.42,-0.0025259805843234062,0.016251133754849434,0.028348542749881744,0.3887195289134979,0.035722166299819946,9.903875350952148
15.44,-0.013376398012042046,0.03684401884675026,0.021551722660660744,0.3912132680416107,0.2731475830078125,9.874734878540039
15.46,0.0032019014470279217,0.06983236223459244,0.02250273898243904,0.26871246099472046,0.21629644930362701,9.601935386657715
15.48,-0.016012044623494148,0.09360557049512863,0.02819480374455452,0.09783775359392166,0.21487267315387726,9.352021217346191
15.5,0.03144478425383568,0.06909529864788055,0.04001818969845772,-0.04335251450538635,0.0677618756890297,10.50462532043457
15.52,0.02170383930206299,0.04195043072104454,0.060852061957120895,0.24546366930007935,-0.031121153384447098,10.602533340454102
15.540000000000001,0.03735010698437691,0.052860110998153687,0.05941001698374748,0.6319648027420044,-0.09298208355903625,10.398065567016602
15.56,0.02802141197025776,0.06843701750040054,0.04821229726076126,0.7716308832168579,0.1870887279510498,9.462828636169434
15.58,0.014216762036085129,0.029969768598675728,0.039280906319618225,0.5163578987121582,0.22853538393974304,8.950004577636719
15.6,0.00709960563108325,-0.031021203845739365,0.014523688703775406,0.13302716612815857,0.1778179258108139,9.126604080200195
15.620000000000001,0.029747040942311287,-0.047342658042907715,0.019949300214648247,-0.28251999616622925,0.2766502797603607,9.58694076538086
15.64,0.002575980732217431,-0.08161000162363052,0.018796976655721664,-0.5942752361297607,0.25742900371551514,9.974432945251465
15.66,0.021926088258624077,-0.09030432999134064,0.018395135179162025,-0.7703207731246948,-0.06278359144926071,10.17424201965332
15.68,-0.016054313629865646,-0.09726227074861526,0.02327536977827549,-0.6070091724395752,-0.12558570504188538,10.083433151245117
15.700000000000001,0.022204577922821045,-0.10205485671758652,0.018284626305103302,-0.36665940284729004,0.029025111347436905,9.765963554382324
15.72,0.03056042082607746,-0.11833830922842026,0.007554659619927406,-0.12318328022956848,0.07769913971424103,9.496870994567871
15.74,0.015610002912580967,-0.12220175564289093,-0.009769503958523273,0.08068694174289703,0.290703684091568,9.445293426513672
15.76,0.042405176907777786,-0.11613829433917999,-0.010083675384521484,0.1920069456100464,0.3580699563026428,9.73334789276123
15.780000000000001,0.02802281826734543,-0.1152392253279686,-0.004485549405217171,0.20942382514476776,0.2986997961997986,10.036208152770996
15.8,0.017031805589795113,-0.10647263377904892,-0.013853034004569054,0.34177544713020325,0.31504830718040466,9.686199188232422
15.82,-0.014833122491836548,-0.10505116730928421,-0.02978864312171936,0.21286390721797943,0.17617084085941315,9.625321388244629
15.84,-0.007001288700848818,-0.0715184211730957,-0.04919798672199249,0.1856488436460495,0.2664126753807068,9.665164947509766
15.860000000000001,-0.03710486367344856,-0.017313823103904724,-0.05752846971154213,0.18160733580589294,0.1647319197654724,9.786028861999512
15.88,-0.09275641292333603,0.0028254434000700712,-0.05417866259813309,0.4002726972103119,0.07920986413955688,9.64876937866211
15.9,-0.09080160409212112,-0.003935361281037331,-0.02890617959201336,0.7363719344139099,0.12611567974090576,9.453073501586914
15.92,-0.0626237615942955,-0.0028155650943517685,-0.009815234690904617,0.9653277397155762,0.11158717423677444,9.480450630187988
15.94,-0.08014489710330963,0.006831452716141939,0.002233679872006178,1.0780664682388306,0.16604609787464142,9.308006286621094
15.96,-0.09684769809246063,0.0326271653175354,0.007874117232859135,1.1098263263702393,0.23301930725574493,9.705113410949707
15.98,-0.09473059326410294,0.038157202303409576,0.017988024279475212,0.8667877912521362,0.26155567169189453,10.342089653015137
16.0,-0.029182663187384605,0.007806247100234032,0.0181204192340374,0.2798008620738983,0.13962599635124207,10.255631446838379
16.02,-0.04271955043077469,-0.0193240474909544,0.017001096159219742,-0.3337141275405884,-0.19418451189994812,9.728089332580566
16.04,0.0045215068385005,-0.02304854616522789,0.02940811775624752,-0.5655981302261353,-0.39718037843704224,9.648719787597656
16.06,0.03796699643135071,-0.05740445479750633,0.043064557015895844,-0.7767327427864075,-0.3689923584461212,10.138165473937988
16.080000000000002,0.027910321950912476,-0.08577842265367508,0.03278305009007454,-0.5946885943412781,-0.3274349868297577,10.516592025756836
16.1,0.06059723719954491,-0.07646118104457855,0.009349257685244083,-0.2265634536743164,-0.16190719604492188,10.479979515075684
16.12,0.10650719702243805,-0.10615289211273193,-0.0036694074515253305,0.19249524176120758,-0.1641082465648651,9.937253952026367
16.14,0.07953525334596634,-0.12332658469676971,-0.005817577708512545,0.3792383372783661,-0.013808006420731544,9.365100860595703
16.16,0.10344628244638443,-0.12113222479820251,0.011190913617610931,0.20192600786685944,0.06327888369560242,9.521234512329102
16.18,0.15587440133094788,-0.09745331853628159,0.018114756792783737,0.15125077962875366,0.01707141287624836,9.869165420532227
16.2,0.09495141357183456,-0.09422490745782852,0.0028101964853703976,0.3265780210494995,0.007290995679795742,10.036258697509766
16.22,0.0479554682970047,-0.10246653109788895,0.00522447656840086,0.38671424984931946,0.2772515118122101,9.957956314086914
16.240000000000002,0.08128111809492111,-0.08721281588077545,-0.010518807917833328,0.48749494552612305,0.4905689060688019,9.8912353515625
16.26,0.048830702900886536,-0.040505047887563705,-0.0138908252120018,0.5645959377288818,0.3690541386604309,9.630102157592773
16.28,0.016965335234999657,0.019322263076901436,-0.026864290237426758,0.8140703439712524,0.21916918456554413,9.321273803710938
16.3,0.016625087708234787,0.03731844201683998,-0.02874518558382988,1.1596016883850098,0.17210997641086578,8.867769241333008
16.32,-0.008278734050691128,0.03229714184999466,-0.03680165857076645,1.4461488723754883,0.2008267641067505,8.585760116577148
16.34,-0.023528767749667168,0.034827522933483124,-0.030583610758185387,1.3632771968841553,0.44607701897621155,8.690468788146973
16.36,-0.014515668153762817,0.08632037043571472,-0.014939184300601482,0.9806979298591614,0.8470286726951599,9.796446800231934
16.38,-0.06300229579210281,0.1395050287246704,-0.009601009078323841,0.5814058184623718,0.7109696269035339,10.72801685333252
16.4,-0.011283079162240028,0.15663062036037445,-0.0008443070692010224,0.3060392439365387,0.6563209891319275,11.0379056930542
16.42,-0.06828828155994415,0.16940359771251678,0.003352006897330284,0.3106571435928345,0.3325869143009186,10.189148902893066
16.44,-0.10194981098175049,0.14940470457077026,0.009419859386980534,0.4651663899421692,0.19388657808303833,9.29310131072998
16.46,-0.09281206876039505,0.16144871711730957,0.007967411540448666,0.6902634501457214,0.020967619493603706,8.896890640258789
16.48,-0.07917701452970505,0.17407113313674927,0.01816309615969658,0.772529661655426,-0.10117650032043457,9.066953659057617
16.5,-0.02671423740684986,0.15865054726600647,0.006156716030091047,0.7284300327301025,-0.25164273381233215,9.744778633117676
16.52,-0.052735500037670135,0.09429176151752472,0.013749615289270878,0.22483670711517334,-0.07698798924684525,10.33426570892334
16.54,0.005662182345986366,0.08458220213651657,-0.009837012737989426,-0.28271445631980896,0.0459098294377327,10.360062599182129
16.56,0.0019353904062882066,0.044181108474731445,-0.005936024710536003,-0.45415860414505005,-0.07521919161081314,9.976044654846191
16.580000000000002,-0.02086741104722023,0.0056840344332158566,0.0045226262882351875,-0.5617129802703857,-0.031460799276828766,10.259657859802246
16.6,-0.01555963046848774,-0.017841439694166183,0.005130332428961992,-0.5118415951728821,-0.04347917065024376,10.090496063232422
16.62,-0.029234709218144417,-0.013692252337932587,0.009901111014187336,-0.4286555051803589,-0.1458134800195694,10.085127830505371
16.64,0.014187952503561974,-0.017445070669054985,0.013408624567091465,-0.3162561357021332,-0.18005578219890594,9.854440689086914
16.66,0.03968032822012901,-0.030383307486772537,0.029717905446887016,-0.15996654331684113,-0.1977713257074356,9.608424186706543
16.68,0.026363961398601532,-0.029842909425497055,0.03445668891072273,0.0015991219552233815,-0.15087008476257324,9.426098823547363
16.7,0.01184899639338255,0.011843264102935791,0.02789902873337269,0.07270299643278122,-0.007583825848996639,9.404598236083984
16.72,0.016333116218447685,0.05538331717252731,0.0009732003090903163,0.26882705092430115,0.04140491783618927,9.255830764770508
16.740000000000002,0.027202852070331573,0.08344065397977829,-0.018735501915216446,0.3644101321697235,-0.019720083102583885,9.309948921203613
16.76,0.00020162029250059277,0.11450157314538956,-0.020836565643548965,0.3904341161251068,0.1590903401374817,9.477380752563477
16.78,0.027991538867354393,0.11255866289138794,-0.0328841395676136,0.41412895917892456,0.24875816702842712,9.765542030334473
16.8,0.051442887634038925,0.14114898443222046,-0.04313445836305618,0.4049738943576813,0.22801946103572845,9.830669403076172
16.82,0.034404780715703964,0.1798335313796997,-0.05288711562752724,0.5604623556137085,0.3203144669532776,9.745450973510742
16.84,-0.024680625647306442,0.19513407349586487,-0.06468399614095688,0.7514871954917908,0.2977745831012726,9.774053573608398
16.86,-0.023133834823966026,0.18709895014762878,-0.052566830068826675,0.8039126396179199,0.22517193853855133,10.05374526977539
16.88,-0.030344096943736076,0.16911238431930542,-0.03030446171760559,0.5622046589851379,0.32138824462890625,10.270627975463867
16.9,-0.005814705975353718,0.1789984554052353,-0.02586767077445984,0.23616406321525574,0.3975057601928711,10.280001640319824
16.92,-0.053736671805381775,0.13438642024993896,-0.03320125862956047,-0.010683530941605568,0.4768739938735962,9.971456527709961
16.94,-0.039817847311496735,0.11084695905447006,-0.03170071542263031,-0.20305100083351135,0.3261321187019348,9.511335372924805
16.96,-0.025276532396674156,0.09145930409431458,-0.03995803743600845,-0.4667966961860657,0.06603923439979553,9.154935836791992
16.98,-0.02817556820809841,0.0691581517457962,-0.054402101784944534,-0.5350763201713562,-0.0313182957470417,8.99706745147705
17.0,-0.04951206222176552,0.046358805149793625,-0.04713363200426102,-0.5266305804252625,-0.19510719180107117,9.219537734985352
17.02,-0.01122800912708044,0.04005110263824463,-0.026415599510073662,-0.8758162260055542,-0.26953810453414917,10.195605278015137
17.04,0.01952296495437622,0.03884274885058403,-0.00440285773947835,-1.6558613777160645,-0.1482524275779724,11.227599143981934
17.06,0.015637867152690887,0.04087812080979347,0.027966037392616272,-2.09321665763855,0.056672997772693634,10.692687034606934
17.080000000000002,0.015914123505353928,0.020944908261299133,0.06919144839048386,-1.8290380239486694,0.15674279630184174,10.077587127685547
17.1,0.024486610665917397,-0.0014616318512707949,0.05751945450901985,-0.8140002489089966,0.09651178866624832,9.701345443725586
17.12,0.06243744492530823,-0.02730955369770527,0.04150862619280815,-0.00486674765124917,-0.03354071080684662,9.598368644714355
17.14,0.08828961849212646,-0.032433148473501205,0.028229914605617523,0.35791435837745667,-0.22088003158569336,9.877548217773438
17.16,0.07163390517234802,-0.05664258450269699,-0.01156699936836958,0.4245232343673706,-0.04384209215641022,10.13697338104248
17.18,0.1298075169324875,-0.048267997801303864,0.004477610345929861,0.3905321955680847,0.24128733575344086,10.079668045043945
17.2,0.1008555069565773,-0.04162395000457764,0.011935686692595482,0.3076474368572235,0.3200702965259552,9.511245727539062
17.22,0.11069895327091217,-0.03318179026246071,0.01950063556432724,0.22721900045871735,0.3234219551086426,9.049691200256348
17.240000000000002,0.08469856530427933,-0.024597203359007835,0.016298983246088028,0.027947470545768738,0.15422464907169342,9.281700134277344
17.26,0.06855068355798721,-0.009531792253255844,0.0009893110254779458,-0.038653306663036346,0.00945322122424841,10.052970886230469
17.28,0.05742191895842552,0.0024342304095625877,-0.027773398905992508,0.07443444430828094,0.021373992785811424,10.163010597229004
17.3,0.043718062341213226,0.02460121177136898,-0.05464936047792435,0.2636391520500183,-0.09755729138851166,9.646482467651367
17.32,0.022975804284214973,0.04649126157164574,-0.0571872740983963,0.3145337700843811,0.010644279420375824,9.093249320983887
17.34,-0.007876488380134106,0.06545300781726837,-0.06947337836027145,0.39750075340270996,0.2139291912317276,8.857782363891602
17.36,-0.03504560515284538,0.031653061509132385,-0.08315101265907288,0.3453317880630493,0.6717544198036194,9.218165397644043
17.38,-0.06861549615859985,0.0013516723411157727,-0.07015617191791534,0.14045634865760803,1.0195105075836182,9.961058616638184
17.400000000000002,-0.057602934539318085,-0.0018406263552606106,-0.04663815721869469,-0.1277502328157425,1.1734232902526855,9.976576805114746
17.42,-0.1338585764169693,0.0037337983958423138,-0.028028549626469612,-0.3212098479270935,1.0308091640472412,10.014361381530762
17.44,-0.09276702255010605,-0.017698515206575394,-0.012259742245078087,-0.6486425399780273,0.5035920143127441,9.719171524047852
17.46,-0.10107755661010742,-0.056293051689863205,0.00019597914069890976,-0.9035601019859314,0.10704038292169571,9.775777816772461
17.48,-0.0943971648812294,-0.05632815137505531,0.006047478877007961,-0.9934223890304565,0.03876214474439621,9.85982608795166
17.5,-0.0708286389708519,-0.06584157049655914,0.025581056252121925,-0.9072055220603943,0.03781954199075699,10.021368026733398
17.52,-0.0384313203394413,-0.08010248839855194,0.03348645567893982,-0.8075546622276306,-0.061826255172491074,9.97590446472168
17.54,-0.05063942074775696,-0.08736487478017807,0.026486877351999283,-0.5197122097015381,-0.07113590091466904,9.78210163116455
17.56,-0.009736995212733746,-0.0880260244011879,0.009374866262078285,-0.23116785287857056,-0.012584625743329525,9.663041114807129
17.580000000000002,-0.009243455715477467,-0.060456350445747375,-0.005123476032167673,-0.051531411707401276,-0.011039316654205322,9.79263973236084
17.6,0.012304441072046757,-0.04353085905313492,-0.01018412597477436,0.07637354731559753,-0.2775145471096039,9.815875053405762
17.62,0.056361183524131775,-0.025973884388804436,-0.00824577547609806,0.04697144776582718,-0.5265318751335144,9.568835258483887
17.64,0.03776929900050163,-0.014016394503414631,-0.022151760756969452,0.050499919801950455,-0.428881973028183,9.566664695739746
17.66,0.07472071796655655,0.01950940117239952,-0.0015249081188812852,0.0601603165268898,-0.22137971222400665,9.55406665802002
17.68,0.07515940815210342,0.02294173091650009,0.018557514995336533,0.21505539119243622,-0.03390258178114891,9.603754997253418
17.7,0.07793273031711578,0.03142337128520012,0.024591710418462753,0.5222041010856628,0.06913486868143082,9.52796745300293
17.72,0.05691121518611908,0.036422982811927795,0.041103605180978775,0.6057954430580139,0.1250060796737671,9.327696800231934
17.740000000000002,0.07678719609975815,0.046128131449222565,0.011410878039896488,0.44827768206596375,0.23654575645923615,9.527118682861328
17.76,0.05844523385167122,0.053930409252643585,0.005426312796771526,0.23352722823619843,0.18565045297145844,9.83143138885498
17.78,0.01042903121560812,0.06786729395389557,0.00898746307939291,-0.043827805668115616,0.35955214500427246,10.061681747436523
17.8,0.021457741037011147,0.037441153079271317,0.015043184161186218,-0.28788894414901733,0.3917126953601837,9.969773292541504
17.82,0.063618004322052,-0.021044349297881126,0.01109643280506134,-0.526176393032074,0.5429829955101013,10.152796745300293
17.84,0.038766540586948395,-0.06044645980000496,0.0296707171946764,-0.7315779328346252,0.6102756857872009,10.194802284240723
17.86,-0.040924444794654846,-0.05656696483492851,0.005278957076370716,-1.0055071115493774,0.5423362255096436,10.129900932312012
17.88,-0.05083892494440079,-0.07666076719760895,-0.019340915605425835,-1.0253968238830566,0.6238629817962646,10.427756309509277
17.900000000000002,-0.06709735095500946,-0.09670717269182205,-0.0297531820833683,-0.8766366243362427,0.6218546032905579,10.334746360778809
17.92,-0.08973261713981628,-0.1233527883887291,-0.02958104945719242,-0.6121159791946411,0.44004908204078674,10.062776565551758
17.94,-0.10751695930957794,-0.15357185900211334,-0.012355100363492966,-0.31323492527008057,0.3256664276123047,9.708992958068848
17.96,-0.09495243430137634,-0.1860339641571045,0.0007912529981695116,-0.06120239943265915,0.00015276091289706528,9.195368766784668
17.98,-0.09730976819992065,-0.20007620751857758,0.0016680522821843624,0.03809020668268204,-0.10358310490846634,9.165132522583008
18.0,-0.07872873544692993,-0.17843477427959442,-0.0016000118339434266,0.1658424586057663,0.07663856446743011,9.667433738708496
18.02,-0.07794565707445145,-0.17027336359024048,-0.0010600959649309516,0.2962680757045746,0.2027307152748108,10.019911766052246
18.04,-0.06989016383886337,-0.14890463650226593,-0.003344425465911627,0.33490702509880066,0.191282257437706,10.141310691833496
18.06,-0.04593976214528084,-0.14219745993614197,-0.019961947575211525,0.3577972948551178,0.0900312215089798,9.595268249511719
18.080000000000002,-0.03602434694766998,-0.1293293684720993,-0.004513172898441553,0.1381872594356537,-0.11994745582342148,9.660144805908203
18.1,-0.014622322283685207,-0.08091506361961365,0.004548416938632727,0.1551007330417633,-0.30190199613571167,9.733402252197266
18.12,0.0514661930501461,-0.04270901903510094,0.031043555587530136,0.435424268245697,-0.10116705298423767,9.60757064819336
18.14,0.03984050825238228,-0.018491987138986588,0.01713746227324009,0.6984330415725708,-0.053380150347948074,9.604081153869629
18.16,0.05912858247756958,0.012241353280842304,0.008694420568645,0.7527492046356201,-0.12149181216955185,9.716291427612305
18.18,0.060819294303655624,0.04851802438497543,-0.003229784080758691,0.5916203260421753,-0.1521080583333969,10.09037971496582
18.2,0.07857268303632736,0.07888578623533249,-0.014860043302178383,0.322992742061615,-0.15839144587516785,10.658730506896973
18.22,0.06957056373357773,0.09003959596157074,-0.028262419626116753,0.45359885692596436,-0.11809923499822617,10.329473495483398
18.240000000000002,0.06415040791034698,0.08454414457082748,-0.025607982650399208,0.6453340649604797,-0.10361076891422272,9.541874885559082
18.26,0.0638483539223671,0.07390210032463074,-0.008520656265318394,0.582797110080719,0.046793099492788315,9.244300842285156
18.28,0.021029483526945114,0.053370676934719086,-0.01629498414695263,0.3736272156238556,0.30479878187179565,9.318058013916016
18.3,0.03458014875650406,0.08318708091974258,-0.02590171992778778,0.2987513244152069,0.38953813910484314,9.560830116271973
18.32,0.03748495131731033,0.06155240908265114,-0.011937371455132961,0.24843807518482208,0.4759836792945862,9.617712020874023
18.34,0.031586598604917526,0.03022429719567299,-0.002249085111543536,0.10783771425485611,0.48343586921691895,9.84613037109375
18.36,0.017825230956077576,0.020984157919883728,0.007961609400808811,-0.2903713285923004,0.4948643445968628,9.866447448730469
18.38,0.019172359257936478,-0.031797971576452255,0.005714861676096916,-0.9640176892280579,0.5028418898582458,10.14890193939209
18.400000000000002,0.05103485286235809,-0.07457835227251053,0.015321784652769566,-1.1832355260849,0.200260728597641,10.009371757507324
18.42,0.022635582834482193,-0.07946916669607162,0.014066722244024277,-1.054055094718933,-0.010611960664391518,10.048479080200195
18.44,-0.011671408079564571,-0.10042964667081833,0.010979646816849709,-0.6129692792892456,0.1810445338487625,9.927179336547852
18.46,-0.0033174478448927402,-0.11335169523954391,0.00572546198964119,-0.15209819376468658,0.15512649714946747,9.77122974395752
18.48,-0.01601138897240162,-0.15216702222824097,-0.00416405126452446,0.16862519085407257,0.1438933163881302,9.692578315734863
18.5,-0.015441427007317543,-0.17262740433216095,0.02195616066455841,0.2691248953342438,0.22854849696159363,9.860651969909668
18.52,-0.03222498670220375,-0.19433487951755524,0.036854811012744904,0.2653425633907318,0.1600980907678604,10.294916152954102
18.54,-0.037905994802713394,-0.2157856822013855,0.03772587701678276,0.26612424850463867,0.23901528120040894,10.33535099029541
18.56,-0.0012588035315275192,-0.19640125334262848,0.025676967576146126,0.38802486658096313,0.25933411717414856,10.060379981994629
18.580000000000002,-0.004828040488064289,-0.16886772215366364,0.008498545736074448,0.5974818468093872,0.23610512912273407,9.456522941589355
18.6,-0.025793641805648804,-0.15007781982421875,-0.007951018400490284,0.7923099994659424,0.30683189630508423,9.062833786010742
18.62,-0.01521312352269888,-0.12118138372898102,-0.02415401302278042,0.8163291215896606,0.3824438154697418,8.553059577941895
18.64,-0.016057603061199188,-0.08781646937131882,-0.018953224644064903,0.8547260165214539,0.2660444676876068,8.813156127929688
18.66,0.015380551107227802,-0.03209394961595535,-0.01888781599700451,0.9971704483032227,0.10798496752977371,9.560426712036133
18.68,-0.018978768959641457,0.011796562932431698,-0.019797656685113907,1.3029561042785645,-0.01070230919867754,9.636663436889648
18.7,-0.025874782353639603,0.03418869897723198,-0.02257242426276207,1.5211468935012817,0.13564381003379822,9.28626537322998
18.72,-0.015481916256248951,0.04479756951332092,-0.031882479786872864,1.3041691780090332,0.3390182852745056,9.380020141601562
18.740000000000002,-0.03366413712501526,0.10427249222993851,-0.023103151470422745,1.0082247257232666,0.3802262544631958,9.6781644821167
