time,ax,ay,az,wx,wy,wz
1691521714.2980096,0.053714846007696666,-0.2219547461048692,9.7116197918032,0.0017433513243901963,0.0006407656699060367,0.0002933342159939
1691521714.308036,-0.041178895730267555,0.11392863437343696,9.896343650908209,-0.001537152918543504,-0.0005163077245338133,-0.0010254092946434
1691521714.3179777,0.07014770120020321,-0.008185987001769828,9.774737988554362,-0.0006445564607011837,5.665081121448508e-05,0.0006390491301407
1691521714.3280575,-0.007158265448361134,0.01898243437534818,9.842371014397834,-0.0010103827560836583,-0.0005926663959174556,0.0008938648364254
1691521714.3380089,0.09532199691824729,0.06385582598569775,9.811180558200853,-0.0016265477221791113,0.0002082677533909993,0.0023374227142175
1691521714.3480158,-0.02422932751870187,-0.06808276839104792,9.801030561650437,-0.0006345102312905943,-0.00022647134122627088,0.0017831034177196
1691521714.3580503,-0.11289457326124934,-0.1513835860998988,9.82303505896764,3.638471386911863e-05,-0.0013976925070914156,-0.0027580427437806
1691521714.368117,0.17572243219166464,0.08938423852250699,9.7620418618586,-0.0001327246644711527,0.0008177357294731642,0.0005585935116959
1691521714.378009,-0.05998893986663792,0.10212765449213534,9.902289865350047,-0.0013843926403852088,-0.0015712985013471127,0.0022156025782441
1691521714.3879876,0.05489879874968059,-0.10185496953219465,9.762784609084488,-0.0017684882249194504,0.0006419090954412566,-0.0023732037249738
1691521714.397998,-0.04931301685354187,-0.08316387386753309,9.84512576269001,0.001369706188983831,-0.00211109027571727,0.0003432685310234
1691521714.4079697,0.11118607779077416,0.05443100388989627,9.787058838825885,8.893703420396577e-05,-0.0003445427303348069,0.000372710897236
1691521714.4179895,0.00047333008012176295,0.004263155001109022,9.809425369073303,0.00011503232017156512,-0.0007744607193067361,0.001417269549447
1691521714.428108,0.09137634329163583,0.018934358680238572,9.773329845636296,-0.000677724073670695,0.0009615307216201009,0.0006725876567633
1691521714.4380352,0.015418734591205003,0.0047529322092178085,9.820518449335763,-0.0011046347382565804,0.0008490197681636225,0.0007180242367302
1691521714.448004,-0.00406788719733164,-0.07158185105492103,9.801814432936352,-0.0001140830548481905,0.0005454137984927904,-0.0001052533941129
1691521714.458084,0.0838291683399948,-0.043629158976307,9.756925657598726,0.001543661251495096,0.0014596083948328802,0.0013867394566749
1691521714.4680555,-0.13161278696454135,0.08205576615189628,9.922469989320351,-0.0007805309458266824,-0.0013172357967762892,0.000188297735176
1691521714.4780352,0.06070487866116471,-0.08758750890837581,9.77564431003503,0.0011480379392172257,-0.0007174610365668682,-3.9335197188932e-05
1691521714.4880192,0.1428972109350872,-0.149813823553329,9.713107912725478,0.003675675903945099,0.0018801692918700823,-0.0006889945095191
1691521714.4980452,-0.07850002676552524,0.1616250621615995,9.921562332343141,0.0005229328213680036,-0.0003631847939867813,-3.2614540659863054e-05
1691521714.508002,0.07648389397159054,0.016593766498569678,9.780560299717584,0.0014248341793753798,-8.564408252261054e-05,0.0030157945851077
1691521714.5179944,0.04052857796503429,-0.04259685153487603,9.795541976970897,0.0005203223558224381,0.0011165050458378238,1.6559524110477866e-05
1691521714.528098,-0.03871531559293514,-0.0996356563907357,9.817730567650818,0.002054788837454393,3.242100265709482e-05,-0.0005526768242726
1691521714.5380275,0.04659404888435542,0.0516181470846054,9.832075259193703,0.0012962924948134256,-5.6569580577811555e-05,0.0005995517397513
1691521714.5479958,0.04047476389233413,0.060362692005396144,9.812539554816722,0.001376040305230507,-0.00042839001157399904,0.0030243653139313
1691521714.5580003,-0.022258290279017656,0.06787672528441763,9.861739930929069,-0.002700543227298121,4.9939600101087235e-05,-0.0012355117093557
1691521714.568121,0.04002642829912724,-0.1892009576035137,9.734993984128078,0.001515740480683508,0.0003889407968481383,-0.0008328066639388
1691521714.5780575,0.09044496607126677,0.25259269294802617,9.848649222802608,-0.0038050969108589412,0.0018440439273948671,-0.0005999700831035
1691521714.588028,-0.15884938899126017,-0.14701202813159456,9.86242970516774,-0.0007432795420026402,-0.00205743879122975,-0.000408125316144
1691521714.5981069,-0.007123988722404471,-0.12591500055099092,9.79274389314412,0.0010519371444018435,-0.002229176964261679,-0.0017723246443802
1691521714.6080267,0.26176703736112306,0.19628475819930055,9.76117772296871,-0.0015732862118872446,0.001704717706114568,0.0012366029525855
1691521714.61801,-0.10295730438090317,-0.20065992479221653,9.79797117376991,0.0018442970511587074,-0.00020112883133807725,-0.0001089869498992
1691521714.6280282,0.027155003840119808,0.1896664620216701,9.870496639023601,-0.0013330002000794816,-0.000532688215561201,0.0015849081367468
1691521714.638003,0.05739865383843135,-0.07241620064388513,9.767735113389751,-0.0005011669191073083,0.0005267947017418334,0.0005682868334678
1691521714.6480272,0.002184518939692538,-0.05097458985900404,9.795215899861114,0.0004707890056431325,0.00020566491716152431,0.0002389648264487
1691521714.6581626,0.14019763762336734,0.12264898484510346,9.802072978034664,-0.0008170493217238571,0.0017300514540560504,0.0024026008589407
1691521714.6680334,-0.06056726742876486,-0.06384084725269834,9.830269429446185,-0.0008610172092328256,0.0011280486161012932,-0.0002836974769616
1691521714.67806,-0.10870232256439269,-0.14092830600276202,9.81888679907495,0.0003389009066254204,-0.00035833821399237486,-0.0031700537971938
1691521714.6881008,0.046506481136995945,0.1437264390394205,9.84185372349705,-0.0014335788338317513,-0.0005870757417529284,-0.0001778903849209
1691521714.6980095,0.12433688566298111,-0.024480474214499646,9.751527610612198,-0.0009898939781768726,0.0016167989106946354,-0.0001428902348289
1691521714.7081215,-0.15300349195268895,-0.10253383866491654,9.87593968292892,0.0009260323599119009,-0.002059678121369833,-0.0002944930190006
1691521714.7180388,0.2750120070721091,0.07337064925244816,9.696072453169199,-0.0005972646024445944,0.0033483200055772354,8.710337451618613e-06
1691521714.7280693,-0.15646511013873218,-0.08118214302653541,9.884038195597606,0.001014316039367918,-0.0005256040515949612,0.0002684165058871
1691521714.737991,0.04077197333026741,0.10124666735893662,9.823016030033958,-0.00025526649101007784,-0.0005960143594495536,0.0016743074787063
1691521714.7480423,0.03956568757171963,0.06010627878629883,9.814171997995814,-0.00036181613556451376,-0.0009040967319490875,0.0039262556504671
1691521714.7580986,-0.05893347148921361,-0.1621747855944954,9.80384976254108,0.0006231573516123069,-0.001072107912116087,-0.0004643728922838
1691521714.7681336,0.06546346867945461,0.05091766053381372,9.798736196446528,-0.00016437473025852824,-0.0004108706828855531,0.0004464724018452
1691521714.7780795,-0.10203432315672624,-0.026049874086337084,9.872276378168799,-0.0007194248787673988,-0.0024411731799741103,-0.0013889820281202
1691521714.7880344,0.2263010864470198,-0.029854849526032748,9.686827800181486,0.0011186009978457175,0.0010110941893237504,0.0010250050375451
1691521714.7980547,-0.08813586410931237,-0.09159375099700053,9.82990555632859,0.0014281986800471125,-0.00012252654302529113,-0.0019958297222638
1691521714.8080678,-0.005028520136440006,0.014000316089704517,9.841247146780862,0.0012385726019991789,-0.0007539441940325395,-0.0017529426574493
1691521714.8180296,0.028566092158813176,0.13737690114404083,9.857526075841163,-0.0015211083254554603,-0.0007249217267814793,-0.0011576543062711
1691521714.8280592,0.18512699586689638,-0.025663355419514897,9.713980827750062,0.0005739665141442979,0.0019144626029514243,0.001493253917315
1691521714.8380115,-0.13130667842803598,-0.1446450984259788,9.845742551831343,0.003212228846798945,-0.001107098747152716,0.0003805202698548
1691521714.8480492,0.04081030137875178,0.10621813287748084,9.846940489831363,0.0002927254689400764,-0.0004026709208894011,-0.0008339084185446
1691521714.8580492,0.07158200093796813,-0.008109362698806067,9.774743620102603,0.0004938858711349792,0.0006635078127465428,-0.0004405224196399
1691521714.8680444,-0.10497071929446265,0.008598696388787885,9.8963262989821,0.0011245831874741208,-0.0028766390647640603,0.0010298423488256
1691521714.8785684,0.2154052747257388,0.1190419660943485,9.739092733884965,-0.0029598397890754115,0.0022217934005935684,-0.0011203776545608
1691521714.8880894,-0.15562609136286099,-0.12304286270882864,9.868342214552468,-0.00040652108900855944,-0.0014908249503133614,-0.000743025421516
1691521714.8980572,0.09671303380954656,0.07936703967580928,9.79720928291326,-0.0004340853587881555,-0.0010400743851908395,0.0025803094297861
1691521714.9080582,0.10436817849489347,-0.09468509305588116,9.735461684233716,0.0002632736396747423,0.0016279806681198748,0.0003056316320998
1691521714.9180734,-0.04525732966246514,0.05542710130665688,9.863464058524526,-0.0013248009413013892,0.00041726525608951304,-0.0002848088940391
1691521714.9280818,-0.1191566876869077,-0.13701288009786833,9.842866659987543,0.0006179269542796651,-0.002178927354968413,-0.0018334221992427
1691521714.938048,0.07372255843076204,0.16016950157639098,9.830900610405566,-0.0015732729450228383,-0.001836166808085394,0.0001752579385628
1691521714.9480517,0.03887403696535183,-0.052390216427687084,9.787250468680151,-0.0004929354710384468,-0.0014956752165520006,0.0003127256325659
1691521714.9581544,0.0966892683742946,0.04616307016887338,9.805957691400927,-0.0014969051744068503,-0.00019778796304788877,6.127081460278929e-06
1691521714.968223,0.00648118024928541,-0.16609328045388147,9.748325317871874,0.0017981146070822959,-0.00028124085609472157,-0.0001142065472687
1691521714.9780602,0.1854166149604491,0.19289902769342432,9.79610417807759,-0.0013687440306360513,0.002529128484397815,0.0010786632313374
1691521714.9880545,-0.10431811004580313,-0.03054636554434191,9.855343986282898,-0.0005577728927070639,-1.6733219256540624e-05,0.0017894249443178
1691521714.998196,-0.029894481658167806,-0.06397530472058571,9.825205514800293,-0.001358321423590935,5.9914883738266154e-06,-0.0017987716443622
1691521715.0080867,0.06514281537178519,-0.1140388001778487,9.756848853084971,0.0019691027273907773,0.00012371134235183504,0.0003618932944936
1691521715.0180736,-0.008259189401858928,0.09548109570242949,9.870208846325735,-0.0013397016128432824,0.00010661209440624938,-0.0020025096334303
1691521715.028097,0.13266555147011497,-0.04320027297593666,9.727202338037172,0.00037652238418659374,0.0017460819843230033,1.7684212534647883e-05
1691521715.038082,-0.17582121940436188,0.038848706001111934,9.930173638116434,0.0002148720902863722,-0.0030599126647253877,0.0017003940568519
1691521715.0480783,0.13213299694578864,0.1013793981934071,9.788114342253897,-0.0017044241834021665,-0.0010877587944170466,0.0025497494764839
1691521715.0580812,0.09044775955547382,-0.07443126804931957,9.750324805192044,-0.0006199801579424342,0.0007439667036679001,0.0017566517611248
1691521715.0680757,-0.06735965519794468,-0.17736094690809392,9.807518611838573,-0.0006218431670106585,0.0010785278026803162,-0.004846791593709
1691521715.0781465,-0.004320660290862273,0.23452116918823823,9.91256627637541,-0.0032105272308080835,-0.001168218700480204,-0.0003034433781886
1691521715.0881162,0.16412679865131324,-0.21644523389535633,9.66412908574672,0.0011800639063591673,0.0019602862132791395,-0.000830207342633
1691521715.0981572,-0.09691705045064763,0.1913516965264115,9.934903154890158,-0.002235259908290616,-0.001015114190041652,0.000932981112155
1691521715.1081233,0.03975374072902931,-0.16269417377696324,9.765119104146763,0.00025844684526238766,-0.00022125193545216825,-0.0006819306606213
1691521715.1180656,0.10544655317896037,0.08570291854532104,9.788242968575645,-0.00137955360075648,0.001509143739160559,-0.0002181339975232
1691521715.1280203,-0.026256126056754127,0.025403368841298717,9.840079413008647,-0.0019830433231244394,0.0005875071805487466,-0.0001615219250107
1691521715.138043,-0.06748725126867597,-0.1312930946738568,9.816945786975943,0.0006455116495355387,-0.001245705449383261,-0.0002520292497957
1691521715.148037,-0.053894956717200834,0.09764630050691203,9.903540948044604,-0.0015259583095500785,-0.0030699894214043038,-0.0006774575182954
1691521715.1581082,0.23415092077108887,-0.1873459521821654,9.633170112152369,0.002793507363047329,0.0014443298721155114,-0.0001454963082233
1691521715.1682606,-0.14416280951492083,0.0992901019574042,9.927328089555486,0.000505070965850436,-0.002022794431596562,-0.0001257385326335
1691521715.1780748,0.04507954722779986,0.060021673810353844,9.822531328921233,-0.0007835182482454889,-0.0016141370759173094,-0.0003880052560726
1691521715.1880732,0.1384218480239407,0.01578744458211746,9.75397390877224,-0.0008870695819107808,0.0003680851351285074,0.0005053249454339
1691521715.198091,0.046954166580308584,-0.039886797420635785,9.778599404095793,-0.0007615390394992376,0.001293821737220633,0.000113063867784
1691521715.2080796,-0.020205575806589493,-0.061910442358291067,9.801850431165063,0.00010719360372253063,0.0007637217522657416,-0.0007176870446438
1691521715.218066,-0.036554277347334546,-0.05552445470125927,9.833729208069155,0.0016453771697004813,-0.0009569904115044056,0.0003622861962047
1691521715.2280858,0.10672031342242823,0.2562068483229285,9.845446209882544,-0.002781385001630078,0.00029359013490678197,0.0022677498903339
1691521715.2381344,-0.017103524706528084,-0.27399688090741764,9.740150892140566,0.00037204863581394786,0.0010531810037335706,-0.0026019346866542
1691521715.2481236,0.00018247847296812663,0.0914980759223927,9.856876621099333,-0.0008278367846467033,0.00012222404885058803,-0.0011155447888905
1691521715.2581985,-0.02039655727422362,0.01004595862761195,9.845457618343953,-0.0006918718232808238,-0.0011335769453590997,-0.0001700730960602
1691521715.2680988,0.029406058457920957,-0.0013446540063896128,9.801995314297116,-0.0004236513187126486,-0.0010717394414555888,0.0004758863627193
1691521715.278076,0.06371064911401556,0.05638564767180928,9.81241860007461,-0.0010711036363726752,-0.0007044252659999573,0.0015253013091841
1691521715.2881546,0.07801727496241631,0.07459150350276887,9.800246532273077,-0.002946424809585162,0.0007391167215275007,0.0008711403909818
1691521715.2981863,-0.011808384159739947,-0.1599667643986069,9.772678663523356,-0.00040168949802287646,0.0003934055914724331,-0.0007422914229119
1691521715.308182,-0.01585117817069443,-0.13473494352128013,9.798225432138537,0.0009345800966145489,0.0001997080117017086,-0.0031298174023414
1691521715.3181565,-0.0003988867544789926,0.1444664717948749,9.876104274159426,-0.0016969575501798555,-0.0007320099074520122,-0.0020178268629843
1691521715.328098,0.07353645120859038,-0.06230107503306417,9.780668074024375,0.00015301671582336777,-0.0004004248251538145,-0.000552652377055
1691521715.3381095,0.05258765549372783,0.014861839150813697,9.79243661609508,-0.0006233106264621805,0.0005249082165783317,-0.0009602153174365
1691521715.348094,0.02438026149259573,-0.04946156544053733,9.794709108593743,0.0016084994253834672,-0.00028087069287093105,0.0011777446118775
1691521715.3580625,0.03879205784710798,0.09254394185543793,9.834475235911784,1.1095983760662258e-05,-0.00018959612260137826,0.0018691516864327
1691521715.3681662,0.04876429314655751,-0.10391730050908674,9.759172317080425,0.0024552420496813995,0.00034389661394945405,0.0022640131913339
1691521715.378065,0.04837810495091068,0.12380127291065786,9.839565585387144,-0.0007093920993630093,0.0012036696175435036,0.0015383491384544
1691521715.3881187,-0.1020205462042161,-0.09851214235701469,9.845492972157604,4.3871745072560276e-05,-0.0006127689900993424,-0.0001879440121138
1691521715.3980498,0.1434089810267838,0.03665959027763405,9.75946602318801,0.0007162879374609212,0.000873962624726037,0.0028213559683626
1691521715.4081132,-0.09866116545430859,-0.18095655662529375,9.824881585631136,0.0031749767249520827,-0.0008750184408913493,0.0003462161669721
1691521715.4181468,0.15510521783934808,0.14069128988345098,9.778122218608434,0.0004283026862923981,0.0019036556149248393,0.0006055206443396
1691521715.428131,-0.08106518039592267,-0.049305430234974496,9.858584290455955,0.00020591424091626577,0.0003330689096697006,-0.0012224743574643
1691521715.4380884,0.039794648212017864,-0.03543786815013804,9.79090747338378,0.0013745347379918497,0.0003930529098049352,-0.0002486966283778
1691521715.4481337,0.09814094761246252,-0.006895054720983564,9.768795544799406,0.0012165764771810915,0.0021096602065890503,-0.0003977192997718
1691521715.4581523,-0.1551408987079789,0.03337169355908807,9.923453187813962,0.001542564935217033,-0.002520133261983305,0.0018959935089787
1691521715.468145,0.09411273641258479,0.023395845670978146,9.77553168686944,0.0002908587284433511,-0.0005703117832420549,0.0007582675291904
1691521715.478075,0.1145188132634412,0.0029031293845077338,9.752711028664173,-0.0005652180718366186,0.0018522430410867151,-0.0004487246939698
1691521715.4881666,-0.030489651303633555,-0.14367899588498093,9.797119957982794,0.0015809319697147912,0.0013266049198689097,-0.0020342085942412
1691521715.4981022,-0.09635658168121593,0.19344344983260098,9.944895493596722,-0.0026044230367531116,-0.0011850147171223603,-0.0019735033590132
1691521715.5081084,0.22034348115900454,-0.008555479421981621,9.709405300248799,-0.00046950532294588336,0.001512130111584391,0.0019082593183246
1691521715.5181148,-0.08533063570831566,0.005584294554913597,9.87340853660258,-0.0025761283797594843,0.0005148556938354378,-0.0015998409095937
1691521715.5280893,0.18751249660311364,-0.09833608819049394,9.686796625223684,0.0014177607127258524,0.002661368783073027,0.0020811409024735
1691521715.5381343,-0.1403893529396778,0.0011395725583115634,9.898732647926561,-0.00021280560928522182,0.00029470778586364484,-0.0003120003700042
1691521715.5481918,0.10413697090518044,0.048071793698714935,9.797569070907668,-0.00021393458226574925,0.001207400180703927,0.0016303571149454
1691521715.5581017,0.056780058997919075,-0.15831165671431058,9.738165734639903,0.003358994694040369,0.0018310158071766828,0.0021206554059153
1691521715.5681612,-0.012525514009126857,0.2093566469932206,9.900621994886164,-0.0012655664686954124,0.0012044064476558762,0.0018717710893814
1691521715.5781684,-0.01733615263908261,-0.13166703738369945,9.805761000112422,0.0007319300390339247,0.0006269961757108885,0.0008320220488803
1691521715.5881815,0.049529578826090014,0.03074747472479553,9.806325669335209,-0.0005380102475279551,0.0015042942473188947,0.0001472975393971
1691521715.5981364,0.05443551871258308,0.009345980270593995,9.80340825642857,-0.0002403849213459201,0.0018734757294555223,0.000877441835937
1691521715.608152,-0.013390836387241981,-0.038494331295690555,9.836085573249262,0.0003508334412141756,0.0008397038853748952,0.0009333238970702
1691521715.6181047,-0.10441167692431903,0.0441861458979504,9.883389111101913,-0.001907800089024841,-0.0009461926566081754,-0.0011718043558085
1691521715.6280966,0.10774464862105644,-0.05588700586997853,9.743886110418561,0.0009621382324184154,-0.00035236457058174724,0.0022837788831656
1691521715.6381302,0.0013429848190700552,0.06026220063352869,9.849413112328454,-0.001746884137752974,-0.00011248052629231413,8.137550076745123e-05
1691521715.6481392,-0.05507066202262741,-0.043514537822457545,9.847084299606864,-0.00019342646714325552,-0.0024061349050639703,0.0018825629643378
1691521715.6580987,0.05465675187359393,-0.13961116982133362,9.750605237443198,0.0017902937621828386,-0.0011346988306319406,0.0002799228216735
1691521715.6682074,0.11578584614779473,0.11044757068213967,9.798152762726179,-0.0007421765122873571,0.0009388060469383875,0.0003276282489513
1691521715.6781642,-0.055548264562519496,-0.05394554899864773,9.825234196838496,-0.0017874853055470346,0.000715613447924757,-0.003228570657202
1691521715.6881416,0.047857166272810836,0.09705764564060544,9.83919841228226,-0.0027255122953299105,0.0004299147205056051,-0.0009292954079593
1691521715.6981058,0.011083047233666439,-0.16345754203827123,9.762131278520739,0.001121601317419015,-0.0002413707528035417,-0.0001164341544518
1691521715.7081268,0.05048705298838326,0.009917787671685536,9.80342279540769,0.0009386795946454874,9.354283700902176e-05,0.0006267695837867
1691521715.7181013,0.03516896054692277,0.1470441276947777,9.86464595541022,-0.002573150340843443,0.0005517290907734612,0.0001942483625588
1691521715.728073,-0.11472339005816247,-0.12904069620375394,9.85272416038387,-0.00014462011380492044,-0.002247447289587271,-0.0001928036533082
1691521715.7381403,0.20251654618374973,-0.23241563928573772,9.63401688897538,0.003440571508495687,0.002379384576349716,-0.0025244772866154
1691521715.7481463,-0.06400948624026012,0.15922900093388956,9.914439644926803,0.0018159952836239912,-0.0005375325156939431,0.0008521420216401
1691521715.7581463,-0.16220802063948841,0.05127743349365901,9.928156041675532,0.00021895693224470672,-0.004355210991826853,4.41399436657843e-05
1691521715.768172,0.04435581394563145,-0.02098545695472589,9.791186011739274,-0.0007820065648510184,-0.002897864076103141,-0.0027725634597028
1691521715.7782643,0.16152096459166063,0.07123861015959834,9.768004776115886,-0.0007451367364930697,-0.0011831273475853043,0.0004546524408487
1691521715.7880871,0.10820371145177904,-0.04752300655456403,9.7505062704367,-0.0014887099049532982,0.0016194066872344925,-0.002537128372469
1691521715.7981336,-0.06947323561067686,-0.07362132489475563,9.836082280324145,0.002022374534176125,-0.0016897302349886273,0.0012224447976313
1691521715.8081732,0.10581221572034397,0.08627639806807381,9.800662002708943,-0.0003763474772523934,0.0002924654256229053,0.0001208638107617
1691521715.818071,0.020890987484503496,-0.04280040114466589,9.801610923893461,0.0005445368738834739,1.4191245113253455e-05,0.0005969536990141
1691521715.8280702,0.08289983646525574,0.0004357822829602625,9.796293933129801,0.0010578908765459937,0.0005711146594017432,0.0021425937568982
1691521715.8381398,-0.14726354401076674,-0.016141995373864824,9.905520009609823,-0.00030034537820090526,-0.002144987769558382,-0.001071222216242
1691521715.8481245,0.19362159623811487,0.04157747309878185,9.724690714488103,-0.0003499236056186403,0.001067707720079451,0.0006804161214949
1691521715.8581133,-0.08347987300116892,-0.007863508380667471,9.869420980488492,-0.0004441441583409664,-0.0010870060265166326,0.0006815290519715
1691521715.868151,0.06426878463879594,2.5241801292393336e-05,9.785636215602604,-0.0010133555116023307,1.7159194272172283e-05,0.0001167654093568
1691521715.8782573,0.09682155198976787,0.029991086673738756,9.775795226916618,-0.0011206451400902202,0.0013545567531734635,0.0010719244649498
1691521715.8881576,-0.07892487610865291,-0.09410057219473683,9.828966690284748,0.0007203857352096945,-0.0006533860140934661,0.0006733201710721
1691521715.8981674,0.0826771385326097,0.09139561514295008,9.809327004844173,-0.001603458766954029,0.0009380519513002846,0.0001048468087082
1691521715.9081511,-0.10402166855592782,-0.01569368134303714,9.882311183519262,-0.0015349009364653587,-0.0015858251172804422,-7.991804403908878e-05
1691521715.9181387,0.1968253175197453,-0.06502257943418902,9.69737732683244,-0.0006617411668089668,0.0023380001507785253,-0.00079224418977
1691521715.928176,-0.14640178734427264,-0.058045575946372906,9.885286559489998,0.00044544833972486573,-0.0012568693947252576,-0.0007959318779195
1691521715.938128,-0.06848252673970365,-0.00503564326823607,9.860248903551108,-0.0001211243519273071,-0.0027764299658560193,-0.0015826978221321
1691521715.948156,0.15200172995034705,0.05884408205855581,9.76613909240559,-0.0011027605051110603,-0.00033451263809959863,-0.000870819060483
1691521715.9581602,0.08271093755306252,-0.003507055091799769,9.78178220485203,-0.0015624868568004657,0.001046486413047009,-0.0013960347011471
1691521715.968162,0.04002627287022202,0.034214484782151895,9.820917436280482,-0.0020087720664203872,0.0011895054097750353,-0.0009129038978154
1691521715.9782822,0.00989829413354815,-0.07634598168686003,9.796342830173392,0.001108182220244691,7.305232751269712e-05,0.0016981571946506
1691521715.9881582,0.08058560992896978,0.044304163425084905,9.789478628866535,-0.0007768002020140866,0.0017166405157861564,-3.633983095832497e-05
1691521715.9981284,-0.025175992639173243,-0.1269713303510597,9.78994851480621,0.0023073427765299085,0.00047913170990072847,0.0009050561905586
1691521716.0083115,0.08612132129705481,0.10591721436075519,9.81355361142315,0.0010329046472565388,0.0011008685686706055,0.0028921218157028
1691521716.0181522,-0.14976164166393457,-0.04550247730217152,9.887515604281235,-9.694280149322508e-05,-0.0011942951538048336,-0.0007765512879724
1691521716.0281477,0.06203600322380333,0.07571493742925817,9.822308996452099,-0.0012491779768619995,-0.0005974982654378331,-1.2482140564400257e-05
1691521716.038162,-0.02062062528875626,-0.05891243222285496,9.812008612007272,-0.0007924561589031516,-0.0009640610786578692,-0.0013971713803494
1691521716.048157,0.11359424402662933,0.10970571224528405,9.802540868940563,-0.001338583321124867,-5.473255375963836e-05,0.0013468579248273
1691521716.0582054,0.023223275842414175,-0.029311399234805566,9.806756885222223,-0.0020102500162062333,0.0006407680494119309,-0.0007158406976396
1691521716.0682726,-0.06355081088574259,-0.1882789334379253,9.794847067981765,0.0016248794790491967,-0.0011402837707693138,-0.0009363797459537
1691521716.078121,0.13075248227191813,0.2515943335639385,9.853898364053602,-0.0025761369045943006,0.0003054939133771793,0.0006658821924337
1691521716.0881438,-0.12442175161878592,-0.15977662074150786,9.829176053042204,-0.0009776074815868391,-0.0017646401921237477,-0.0024097260053987
1691521716.0981498,0.12447095228885015,-0.14109774228522134,9.713035509496205,0.0025580654598802363,-0.00028644598042691346,-0.0008410192992324
1691521716.1081407,0.03183529485277415,0.1810050483517533,9.869256638759962,-0.0006024654763370097,-0.0006366231569176802,0.00077280000306
1691521716.1181395,-0.0031362118971253747,-0.08434094756608426,9.811829042711981,0.0013182943659090065,-0.0013127513806782478,0.0007683347769761
1691521716.12811,0.08953464890438456,0.04573459533135569,9.802742746586738,0.000559076397871827,-0.0001858625096836313,0.001548412107977
1691521716.1381557,-0.06952822318543148,0.00714920786729631,9.884607300770366,-0.0006333813265098295,-0.0018592677786263695,-0.0001566618181551
1691521716.148199,0.0990666644010915,-0.07617388723663138,9.743472960724057,-2.4299339844486078e-05,0.00031556083135833086,-0.0015782349243546
1691521716.158157,0.013603295990168017,0.03423029397425148,9.826726390327005,-0.00036589913256395736,-0.00017245485043731077,-0.0004356881569857
1691521716.1682763,-0.04401038107371875,0.007124317883632703,9.832365558869089,-0.00022436209185399105,-0.0014412902131618313,-9.5201784469515e-07
1691521716.1781998,0.07098030331377311,-0.01541075211124266,9.785484750011905,-0.0009626931879852707,0.00039900484393188705,-0.0015562512878114
1691521716.18822,0.0639360901692433,0.03507391217441401,9.803824508670624,-0.0008956430256806475,0.0005357250384546947,0.0002367268583019
1691521716.1981869,0.027382804948663925,-0.04363255204532682,9.79221134653808,-0.000918381116056481,0.0011261865172237093,-0.0012191108859861
1691521716.208246,-0.04906394132181308,0.0005357400825672584,9.852279079184322,-0.001435055729041513,-0.00019516612587732263,-0.0022618205718482
1691521716.218141,-0.010644165991711356,-0.10680448776608376,9.791629639054891,0.002224273685619023,-0.0017996298084685862,0.0005321266046939
1691521716.22814,0.13805227279861476,0.10941613024534919,9.790124423789594,-0.001065158818758178,0.0012025555101772645,-0.0008681952919597
1691521716.2382114,-0.13275994784144354,-0.013402987667077723,9.896047936604367,-0.0006140090681557576,-0.002229194059717745,-0.0004666080664629
1691521716.24815,0.14107358318500973,0.06269847824797009,9.770734020680642,-0.0006248094563824974,-0.0007100141126417961,0.002465939641579
1691521716.258144,0.019805236886567896,-0.0455592775655245,9.804516765818885,-0.0011172996661102154,-7.931550648919219e-05,0.000209918155915
1691521716.26825,0.027663746924208577,-0.049681312538010176,9.796073012956542,0.0004674326184895354,-0.00031437548927898136,0.0011769930927675
1691521716.2781966,-0.007761200278415924,0.019790501873195917,9.830539684596278,-0.0005287075685793722,-0.0004876059941506244,0.0002620559219484
1691521716.2881808,0.11301961362291789,-0.10777132929369518,9.732381182116043,0.0014896467478685545,0.0015058118629193075,0.0001797632697252
1691521716.2981553,-0.03338977103479911,0.08708282231494686,9.880126488488228,-0.0006080627525656766,0.0004705329885207427,0.0001860565074001
1691521716.308146,-0.04746392480223637,0.08061204096144832,9.873704063174278,-0.0021372872843952897,-0.0009901544850627094,0.0004740329143805
1691521716.3181474,0.04014631574701434,-0.03412247986279027,9.797156269777213,-0.0006207167251741785,-0.0012054647311702106,0.0020047448609238
1691521716.3282204,0.13110807391364548,-0.18196117548341342,9.70857319144932,0.0015898831701607827,0.0017553835286698335,-0.0005358917139256
1691521716.338179,-0.07834281733366615,0.11396318249529712,9.900501687021645,-0.0008263570646958781,-0.0004019273190164877,-0.0002971025848547
1691521716.3481157,-0.048032471636530225,-0.08536130462712635,9.821480296966184,0.001019529495625566,-0.002071975853259431,0.0001260891124819
1691521716.3582337,0.0730695531891031,0.00688626890072619,9.775550206710733,0.0004160287612553374,-0.0006753706911059033,-0.0008022606804753
1691521716.3682165,-0.013213217776240472,0.002519810513608256,9.83259030495884,0.001094034986782942,-0.0018655978035420938,0.0006289973073852
1691521716.3782134,0.15581729598625504,0.09513992398791088,9.775616334953533,-0.0007913385118602989,0.0007681808687238065,0.0012839010717561
1691521716.3881466,0.0039691311044776105,-0.05407541812832888,9.806844456260034,-0.00013420065263562497,0.0005826664152630694,0.0004948959370357
1691521716.3981235,-0.1672761572866237,0.07733876162945832,9.944259674205473,-0.0032790599781538474,-0.002580110541133374,-0.0018814917154396
1691521716.4081244,0.1483889986476105,-0.16769250636324945,9.673666844274297,0.0011778567195225387,-0.0005144456746892423,-0.0002371353063518
1691521716.418185,0.0037843285950485725,0.03708531637781301,9.832741285806486,-0.0002016157385125755,-0.0005282234797066256,-0.0009564832750494
1691521716.4281354,-0.023021693956469164,0.05357613583894283,9.857905935902558,-0.0008785070823957962,-0.0017184480465768774,0.0001882986082909
1691521716.438171,0.06673257411614622,-0.09217654358392817,9.758674601601049,0.0008910003838782522,-0.0007267598103935343,2.8861131167930067e-05
1691521716.443274,0.3622511015116157,0.2662610410337704,9.716228907981206,-0.0009597020529367331,0.0022731942100803313,0.0020230061757592
1691521716.4582276,-0.06565638778102714,-0.11179237173777362,9.817705446553788,0.00048531182962692325,0.0008151142994570876,-0.0013409439440602
1691521716.4633744,-0.07779023984721338,0.022557949687728132,9.87053176015403,-0.0004001737926389323,9.464010752453786e-05,-0.0023329822312826
1691521716.4771936,-0.001313808953349563,0.015750264507691035,9.82664641320973,0.0001340296799294967,-0.0009972256945791202,-0.0010332233238751
1691521716.4871604,0.1780059963792095,-0.012237895332361946,9.728248417690992,0.0011230697675246664,0.0016060163097598268,0.0002907598657747
1691521716.4971778,-0.007279168144040727,0.13253857398668992,9.886809608839426,-0.0018187716611025651,0.0009239055213622366,0.0001678181845908
1691521716.507224,0.005675058253523056,-0.16715077256894043,9.755238269983428,0.0013488268572416466,0.0007007695036520486,-0.0003228157026479
1691521716.517249,-0.02092850623248823,0.11627727939608903,9.884556963500144,-0.0012581112619227057,-0.0002894429749066226,-0.0001492284670258
1691521716.5271597,0.008680902424847401,-0.1589883087643147,9.781942533192412,0.0013920514975685062,-0.0004764252591792316,-0.0013278944849754
1691521716.5372443,0.04375144126417422,0.13153280377650367,9.850170854933548,-0.0012409874667821776,-0.0004004461029826854,-0.0003429375089491
1691521716.5472538,0.05760222943711061,-0.08835537594384865,9.753436101242945,-0.0005979775777231946,0.0011947427206529095,-0.001924661776402
1691521716.5571878,0.011218072755167884,-0.013733697558790437,9.807978556407875,0.00049463124601156,0.0004563742235486327,-0.0005835919607216
1691521716.5672612,-0.05085735495993596,-0.0036365005608770882,9.846876261147257,0.0001831948921650337,-0.0009953525580019085,-0.0010801640771115
1691521716.5773854,0.035980688888668066,-0.012395738893927416,9.797918186392199,0.0011256880090266535,-0.0011369336729262916,0.0003566473872614
1691521716.5871756,0.06281900167809996,0.0634577750151459,9.825762127784207,-0.0013907399390415986,9.054338493029803e-05,-0.0014530700597698
1691521716.597217,0.10820314856263154,-0.053075765442279384,9.760107329436622,-0.0006285491372504887,0.0017956296363661468,-0.0017805086415047
1691521716.6072435,0.058504584614413255,0.027656872620645662,9.803655480808219,-0.0007358165068480644,0.002319390732188194,-0.0003425575293386
1691521716.617216,-0.24587621462421866,-0.19657609501722906,9.87906737695768,0.002355034200485978,-0.0025134055018429316,-0.0021906877834136
1691521716.6271749,0.3288093451114215,0.25569587183751086,9.728880451821508,-0.00090869387490494,0.0026937866050521925,0.0016825126634193
1691521716.6372623,-0.09683151300085706,-0.12031607887481714,9.84259923092326,0.0003344514625099676,0.0008013412680715087,-0.0007351938135708
1691521716.647225,0.0022662594724088786,0.011235050234280971,9.822941959352214,0.0002353587636134642,0.00017846524946514125,-0.0001715523855546
1691521716.6572,-0.10174037480450986,0.01767681928374046,9.89214959654082,-0.0011802531013406087,-0.001819397767877289,-0.0016885025858665
1691521716.6672246,0.13764587568816405,0.08172354829860391,9.774104657459949,-0.002034844998748165,0.000149033622869205,-0.0001864715911234
1691521716.677219,-0.02209881129924985,-0.16306214158826793,9.789027791775258,0.0015723526485320446,-0.0010508544748334602,0.0004043589845513
1691521716.6872067,0.06238017487406824,-0.007173137052443749,9.798079808412973,0.0003638802596320433,0.00038709488573910586,-0.0020084950107867
1691521716.6971622,-0.009207339704773243,0.12356639837585703,9.879664626313101,-0.00042253188173041435,-0.0014617716283846353,0.0011531429311707
1691521716.7071683,0.14125900626988155,-0.03764059399874846,9.732883651712438,0.0005132457846794236,0.0008218354957727692,0.0014765000644819
1691521716.7171686,-0.0012770461914239403,-0.046374286321921004,9.811709206027496,0.0019247521893526202,0.0003088844623606519,0.0022603128139143
1691521716.7272706,-0.029686066484193138,-0.10830497551946475,9.811987273869129,0.0020022660294537684,0.0004485499922919786,-0.0019921114168847
1691521716.7371953,0.0020929366412140824,0.1631490828287513,9.868468326507651,-0.0009355092350663431,-7.820174436932495e-05,-0.0006383422029922
1691521716.747214,0.12521324940794484,-0.09520194564789104,9.71360166479647,0.001396876593145963,0.0019252681284828487,0.0001257008673837
1691521716.7572055,-0.1441878455037503,0.10587948226441173,9.93770998804064,-0.0006087930376442365,-0.0017843838632038735,0.00066214956797
1691521716.767277,0.1979508683351036,-0.0036308332332055672,9.724104480673482,-0.0011042792916244888,0.0020932716182410125,-2.8503566400188505e-05
1691521716.777307,-0.1239179725454798,-0.024437297830000978,9.890777360683273,-0.0010442748659856907,-0.0009487995817745664,-0.0008030004998455
1691521716.787198,0.08313542820953781,-0.13764074273429422,9.741063501202614,0.0026836156403889995,-0.000279364336072111,0.0007914276478094
1691521716.7971923,-0.07542317321575859,0.16121567803410225,9.918194197821233,-0.0025768521074505963,-0.0011183023781259887,-0.0022301632877225
1691521716.8072867,-0.025880542995545777,-0.17243065289951656,9.78888424192925,0.00033180945390884364,-0.0017571613695117063,-0.0036748371518934
1691521716.8171978,0.19196452671775602,0.08864477416562887,9.736014107450218,0.00045513600057820423,0.0006132111686167047,0.0002516052020927
1691521716.827207,-0.03968590427047903,0.002065631444406118,9.861435706033681,1.4177894145586861e-06,-0.0006258305526177719,-0.000237503993676
1691521716.8373342,0.014049942275069876,0.09192035098216507,9.847403097145445,-0.000761531625134955,-0.001467363431989314,0.001775269132222
1691521716.8472009,-0.009668635699111038,-0.17678660307521316,9.759550960027074,0.0006228049418580833,-0.0005379036707639569,-0.0023482403218532
1691521716.85728,0.04855558859006107,0.13371609123540068,9.84928127522558,0.0006525969636144971,-0.001876766187443366,0.002547141773275
1691521716.8672748,0.05887690249817902,0.0009600089471910337,9.796142950126475,-1.647603043023841e-05,-0.0009003715729974962,0.0018840397509028
1691521716.8772,-0.0267682103606187,0.02488322578450135,9.84356675411009,-0.00033461554518312105,-0.001925947812246076,0.0024040994733785
1691521716.8872116,0.15398065323059917,-0.06592265696529201,9.728128038888327,-0.00042064675075105377,0.001361240151663068,0.0001439712044065
1691521716.897221,0.02554801581391356,-0.06992600429104648,9.792666602887277,0.0005605656428900618,0.0018533745585846938,-0.0010779060855294
1691521716.9071836,-0.10467402314811383,0.08286140230577499,9.914162906061737,-0.0006032134747418038,-0.0011298471706384977,-0.0001220184810245
1691521716.9172504,-0.019930178542561797,-0.1529377130112965,9.768636378092586,0.0009237725608757227,-0.0009398338720628701,-0.0024730484898919
1691521716.927277,0.04571675337370305,0.19227214817625765,9.858244272626193,-0.0014253819106098326,-0.0014330963645352354,0.0012015729092217
1691521716.9372098,-0.07745591032574663,-0.30023254191368903,9.758120302609534,0.0027395199743122096,-0.0022347688325638254,-0.0023605274934107
1691521716.9472244,0.1760704888283281,0.18607404536763475,9.794230324326167,0.0001362622844520923,5.888596189042981e-05,0.0007716841330965
1691521716.957193,0.014261900356060822,0.09989779700506654,9.843231136765214,-0.0023127571516000714,0.00022428584490931768,0.0005548713064034
1691521716.967248,0.03362493310575505,-0.2772190816237278,9.707400855830212,0.0030680529559204994,0.0007123313132625173,-1.8914824076324627e-07
1691521716.9772696,0.04428579980363115,-0.004611233036859991,9.80369103619848,0.002701144217834391,0.0011537330021842889,-0.0003444159835363
1691521716.9871798,-0.06959247369265177,-0.06724438040475912,9.838759709692187,0.0036197982392801413,-0.0005114682757651391,-0.0010738159496123
1691521716.9972212,0.17807063307743054,0.15192830316151776,9.76762502350287,0.0010746413469320348,0.0025257817412104025,0.0001860438763377
1691521717.0072331,-0.09593473852914104,0.13500747364101354,9.910987748913753,-0.0017088786514656384,-5.287508217389576e-05,0.0004501889027868
1691521717.0172186,0.03212096410462338,0.038972821983796535,9.816851434373037,-0.0020646405086785623,-7.113518737193881e-05,0.0012634357238402
1691521717.027185,-0.05858728112323842,-0.23991814150931898,9.778250295413367,0.002041757074994872,-0.001196527621342478,-4.449565557487637e-05
1691521717.0372517,-0.14305655626243843,0.1264543568839592,9.947700335925605,-0.0008535315516405662,-0.004840983776450558,-3.149555658646256e-05
1691521717.0472467,0.2616811085532521,-0.023032803315744862,9.677142084676914,-0.0004791632867918785,0.00016431702916947131,-9.136946291703285e-06
1691521717.0572095,0.017019555089776185,-0.06434316883094171,9.797962775875229,0.0009178287625417296,-0.0005520628327316074,0.0007564223463395
1691521717.0672977,0.013868560463739951,0.09461927560976115,9.850104564735522,-0.0013281563970483838,-0.0008102247746659118,0.000750066186183
1691521717.077236,-0.026910012318086724,-0.015282443431579324,9.832865742735187,-0.0017487404935519189,-0.0014077729901855814,-0.0003347288317764
1691521717.087221,0.0798142640650291,-0.11754610369733835,9.748930331925058,0.0008950993186034124,-0.0002696772736880336,-0.0004889573635319
1691521717.0972116,0.015186025423157314,0.01692756461093831,9.8140320455155,-0.00026084823303217417,0.00020677357786661921,-0.001884829575547
1691521717.107387,0.020993993727301735,0.0847844273399593,9.841960596315054,-0.00023888233039854524,-0.0010508675465959137,0.0020557837245268
1691521717.117241,0.02027461260545249,-0.0673748355686735,9.802975140799076,0.000579569610506702,-0.00112277401310745,0.0012954544629882
1691521717.1272402,0.13961225534339644,0.04073368967635062,9.768081070676711,-0.000663560817255431,0.0014025990769462263,0.0011788307140795
1691521717.137226,-0.17986410753672077,-0.09941051807167958,9.883888245777952,-0.00014499477088022577,-0.001884206442634078,-0.0017481074634725
1691521717.147213,0.16182781464884394,0.11792345734573499,9.776832723664619,-0.001200744214143175,1.0083905081332436e-05,0.0010823613823139
1691521717.1572983,0.07146670796310681,-0.10887111817207751,9.752870298022215,0.001731428110059089,0.0005368456385924509,0.0024689062532251
1691521717.1672914,-0.009128886752206838,0.14457468912979546,9.874659515247384,-0.0028514140181318936,0.0008933616871329102,-4.451672674812704e-05
1691521717.177272,-0.008669830155930565,-0.1432648114891726,9.789615908534628,0.0008809492003538811,-0.0003315250464331607,0.0015845349965365
1691521717.18722,-0.09339290714227406,0.0026467054264136545,9.868488760621956,-4.1806853345012355e-05,-0.0021677136389745715,-0.0001227624913463
1691521717.1972125,0.12303958203030028,-0.05538117512784185,9.724996872559617,0.0014263250102741392,-0.00017952372239454282,0.0006114923428957
1691521717.207259,0.03241733088065267,0.09055165833756344,9.852959532209622,-0.0012368744586488244,0.0001684126050125538,-0.0005288185518021
1691521717.2172203,0.0794184298707643,-0.10743667044631891,9.756028570581961,0.0015068008029361733,0.000794620230016929,0.0002806681707715
1691521717.2272882,-0.008505520810374433,0.10134717654729924,9.859726879681455,-0.0006866617927745623,0.00019039048384454554,0.0008156259985388
1691521717.2372837,0.0321131276004715,0.032460831909621395,9.823023787325003,-0.002161508177907546,0.0007160292222736819,-0.0004680856097275
1691521717.2472296,-0.04835749797854727,-0.008426030029834322,9.846988202762132,-0.0018128119854694557,-0.00101623496349466,-0.0003153595341155
1691521717.2572265,0.035977084629036926,-0.08648285842471586,9.784713297098337,5.133017163918332e-05,-0.0009372540953289803,-2.813057170905501e-05
1691521717.2672942,0.04835071378390463,0.21248877216439238,9.864888709520399,-0.0033569425022558844,-0.0010978058636755262,0.0022781880373349
1691521717.2772796,-0.008936496218755896,-0.12412976152492756,9.80873919716811,-0.001150835617683178,-0.0016879020581656915,0.0011389919202974
1691521717.2872274,0.024408251694081822,-0.16306891676365737,9.751650051610525,0.0006656536347310762,-0.0006023557358376297,-0.0017637459993148
1691521717.2973168,0.1389150144527782,0.20135835198892013,9.806149823221412,-0.0034817537277439478,0.0017214811047807062,-0.0008730230353558
1691521717.3072655,-0.05047432043314229,-0.17283447521447753,9.801377612178122,0.0017198739916115284,-0.0010810364435782363,0.0023024085942869
1691521717.317261,0.09197428148221662,0.02980296356462136,9.779830646761312,0.0006529411916951043,0.0005845351072848399,0.0021388724247207
1691521717.327363,0.055443268927290394,0.0006397583510940229,9.806360700654619,3.6319207725732383e-06,0.0014692872690351012,0.001356166755895
1691521717.337267,-0.2078935746464766,-0.12430771700848842,9.889852715469019,-0.0004139387347805938,-0.0013332404173429957,-0.0042131225079084
1691521717.347227,0.1328562417740611,-0.06081832217304752,9.733166386218157,0.0013268636045368474,0.0006526941084074162,-0.0029852780014062
1691521717.3573377,0.00909848061538418,0.08756613031102473,9.859834709103268,0.0010701834299112437,-0.0007550746843973318,-0.0002509157372424
1691521717.367303,0.068434966982926,0.06432903181299167,9.807695137117582,-0.0005071014231645402,0.00019783711713883585,-0.0004006821861276
1691521717.3772752,0.056870559907412195,0.055150255994790946,9.819971880256427,-0.0010055585918927316,0.0005148600943139967,0.0005336331935813
1691521717.387226,-0.020804433982387627,0.078453654470878,9.861776763501629,-0.0025511650842383812,-0.00040975500557627136,0.0008506616262001
1691521717.3972473,0.07569319684754734,-0.19238455441189187,9.725520243430541,0.0016662367241658687,0.0006132153137038235,0.0007265999714126
1691521717.4072485,0.029061014021263758,-0.027509077315816467,9.801766523881394,-0.0006598407286436574,0.0022441368101385785,-0.0040518286138559
1691521717.417284,0.01950566890884514,0.061747136805728506,9.837633722450468,0.0005151290863788458,0.0003200221337593126,0.0010115691669033
1691521717.427322,0.05935723218592726,-0.07606207558811443,9.7666924219654,0.0024973478177012036,0.000616192861926949,0.002281178164876
1691521717.4372733,-0.07349406849898152,0.027465722216892714,9.865343349618099,-0.00019419371645742608,7.789687120338229e-05,-0.0018274568453217
1691521717.4472573,0.024208782298817916,0.05424912455820371,9.843672315146451,-6.230095911149935e-05,-0.0008064855315120286,0.0003272524020848
1691521717.457287,-0.06697865008272288,0.05719693003756198,9.870756492774726,-0.0016701291950035678,-0.002478780529256013,0.0003071331569207
1691521717.4673924,0.12912964034393806,-0.1287528471308516,9.691711972449067,0.0010619899962513453,-6.671568586962856e-06,0.0005373421857347
1691521717.4772508,-0.018747091140134432,0.02965854638970436,9.841954460692268,-0.0004702063273628905,-0.0004145872386791707,-0.0008640895563895
1691521717.487259,0.024446861880923352,-0.08990078656302598,9.784350462485852,0.001475511382785172,-0.0006060665370816885,-0.0009367222398305
1691521717.497295,-0.040799229782584504,0.031917642896895956,9.86076514517435,-0.0009447980626949781,-0.0010467933119359817,-0.0033741983085656
1691521717.5072818,0.17400218476904403,0.14216064457015704,9.778597854163095,-0.002107117864585441,0.0007935107481986349,0.0003671097486493
1691521717.51725,-0.016886208305315845,-0.08803120454498424,9.784715704900412,-0.0012804605563373817,0.0009022963079670138,-0.0016009552370543
1691521717.527284,-0.04643805599900695,0.06607588414006313,9.868983742975377,-0.001792320292038633,-0.0008541868766102408,-0.0003276597441891
1691521717.537247,0.004967591238546432,-0.09201431884404128,9.791726390625954,0.0003974008497267247,-0.0014412853618367358,0.0003592791302343
1691521717.5472791,-0.09560638954700483,-0.059533554954206966,9.854538783574505,-2.4263870175694214e-05,-0.0029608102163910825,-0.002411941388973
1691521717.5573452,0.17462176993605655,0.05361963433109057,9.75453041269631,-0.0007995070013667608,-0.0001184243905656355,-0.0016579342506612
1691521717.5673082,0.13852912814588123,-0.08019164479002444,9.723722743729653,0.00029907238240334754,0.0025116054192440645,-0.0025401160552883
1691521717.5772398,-0.08406651458317987,0.21556369614667645,9.954290005052746,-0.002614132059218229,-0.0009275835626689166,0.0009978050778135
1691521717.587323,0.01175979824319912,-0.08334234555720887,9.776535839819367,-0.0018090903034222881,-0.0005777611841536986,-0.0005478141562799
1691521717.5972447,-0.06651708859134556,-0.07888825490763902,9.838827708667411,0.0006510961809010374,-0.0030338455345318015,0.0011695417354621
1691521717.6072712,0.2522950310775201,0.01976829576316338,9.70331714471014,0.00036425723585088786,0.0015627878902042854,0.0018534916719635
1691521717.6172557,-0.20155241559157638,-0.05989071994234022,9.914252175664036,-0.0006389605444215959,-0.0018980085642645616,-0.0016002132057929
1691521717.627224,0.28908030870994844,0.1258237321733775,9.70526101067327,-0.0016224601619578324,0.0026814912530243153,0.0014199097034269
1691521717.6372294,-0.15694500931752756,-0.15200795429886751,9.864249077369536,0.00044807003503221336,-0.0006071947668210661,-0.0006621858071322
1691521717.6472323,0.132716258938781,0.11248678914576221,9.790445731264473,-0.0017039881537509642,0.0015240421767930932,-8.105937985428005e-05
1691521717.6572666,-0.11118623335664629,-0.0846271688018295,9.850132428797219,-0.00010774141060261186,-0.0012229895802299134,-0.0005154063425744
1691521717.6673713,0.09119866100015908,-0.10310262883917903,9.756624468353557,0.001743355675850229,0.0003170530769719439,-0.0012645568664903
1691521717.6772733,0.08247955266494274,0.03803938407291316,9.784723449530407,0.0012575733727896016,0.001379133216153422,-0.0003447956139007
1691521717.6872418,-0.008516455019248359,0.08533520547837298,9.86151126859434,0.0007799886146462865,-0.0002074759413697037,0.0021530217757662
1691521717.6972957,-0.0343235984051554,-0.029656787921600307,9.841078694754389,0.0007446026685100492,-0.0012181388531349478,0.0007642375106205
1691521717.7073128,0.060723887935151176,0.04571731559692644,9.804524922827284,-0.0011739131185598418,0.0001509018122074616,-0.000961323125639
1691521717.7173622,-0.012800544624646627,0.013375466784053183,9.850030986498174,-0.001129968840956508,-0.0011935475400753853,-9.705240035154252e-05
1691521717.7273805,0.18398185215291998,-0.006837712987262349,9.728317051096525,-0.0003629422399590663,0.0017572465797568632,0.0014273420359221
1691521717.7372775,-0.11035158902033629,-0.10466298989460524,9.860417930722873,-0.00020501338036157,-6.664698222547877e-05,-0.0023124912719959
1691521717.7473068,0.15255512842537514,0.12335048410453504,9.77947675035199,-0.002053847720194284,0.0021729856542504035,-0.0003213233746374
1691521717.7572985,0.0348234636023508,-0.0183801381205086,9.784123907746125,0.0009502223440366016,0.0007313253724229884,0.0049264863167171
1691521717.7673576,-0.020767819583113977,-0.10845551682246385,9.796031333170951,0.0005829241023200297,0.0014715188581438292,0.0002192264922177
1691521717.777286,0.10789027025691686,0.014708437261160133,9.782858792059757,0.00013698811399166162,0.0030935107005832527,0.0001122935475995
1691521717.7873726,-0.056391332853868846,-0.0009024224967810737,9.86456835063087,-9.661018477494496e-05,0.0013433784773726296,0.0001048731185709
1691521717.797249,-0.024531131347340248,-0.020141389460353043,9.839254179109647,0.00025136732916120297,0.0002429130469395343,0.0004155267063742
1691521717.8072894,0.08798962598739418,-0.11596385521937096,9.740154127170694,0.0017694096325676994,0.002081361574506469,-0.000999695012697
1691521717.8173437,-0.08240983771841878,0.057221050007884376,9.894115035930056,0.0010351712080792956,-0.0005490808921302812,2.773411443732351e-05
1691521717.8272498,0.015910015740249778,0.05667699044911622,9.831984935474086,-0.0005231137646470271,-0.0005494595352696812,-1.8834575430530607e-05
1691521717.8372788,0.044168107856180465,-0.05678308244732293,9.784559541163532,0.0011238274550787386,-0.0005211305022553705,0.0009415393408834
1691521717.847299,0.09077789947629018,0.027767911930695992,9.783005791551224,-0.0004940673724140633,0.0013321882804421539,-0.0004211695365393
1691521717.8573291,-0.04674834509533513,0.11412636417562297,9.888375721360356,-0.003638216445194924,0.00025220081733406296,-0.0014705835807854
1691521717.8673654,0.06550455781558835,-0.02954993483097841,9.789197598808599,-0.002496014923801308,0.0007190036774252057,-0.000594393439942
1691521717.8772607,-0.11770237613201678,-0.08980309158540313,9.85318005799527,-0.00012412560973703565,-0.002442648037613051,0.0001320520216812
1691521717.8872962,0.16365025189313218,-0.0780732196105263,9.716368340060692,0.0012240373536240954,0.00042323527810611837,-0.0001108373714397
1691521717.8972502,-0.03763723790017338,0.08484221788575423,9.873113747250175,-0.0006460512503912287,-0.0006608282298755306,-0.0003406838247338
1691521717.907334,-0.03169397941693067,-0.003596066570986588,9.847248240471655,-0.0006292823070884717,-0.001938617964505933,-0.0004204174935603
1691521717.9172962,0.2402165985377318,0.05994698481237407,9.715858167785543,-0.0025593672069616448,0.002823428380825943,-0.0009773192893499
1691521717.9273565,-0.1778023743483215,-0.08135974356457731,9.892721339624721,-0.00016101284784955067,-0.0019617063003734563,0.0008134052889635
1691521717.9372492,0.09831483290170982,-0.10087150116553738,9.732625397308496,0.0010236110566772146,0.0002820273846625454,-0.0007400555502409
1691521717.947306,-0.07440129190609257,0.05736668455732162,9.882899886833656,-0.0012875503920647942,-0.0012457244323602647,-0.0022897679324979
1691521717.9573534,0.004280929446687538,-0.09978839835505911,9.788152575456524,0.0006444016536366399,-0.0013425649209418758,-0.0026630341041619
1691521717.9673338,0.13133721376286028,0.09756621335295884,9.789846634117398,0.0005985712644212321,-0.0003315304523612694,0.0009929646160434
1691521717.9773042,0.010095719030625307,-0.06467220411651443,9.79085603930116,0.0004886690174073862,0.00028763508818212963,-0.0015368802439207
1691521717.9873936,0.16861522245187566,0.022422464963975812,9.751541103509805,0.0008254194468387375,0.0028688821790124205,-6.838338112183243e-05
1691521717.9972775,-0.1346195388879179,0.03732871963571017,9.90398437512941,-0.0007999141820101178,3.096009856860672e-05,-0.00173245798459
1691521718.0073547,0.03673251469998055,-0.11938030595735664,9.773026491114283,0.0018211984870873709,2.5005425295654368e-05,-0.0009855389095629
1691521718.017463,0.02965535093565981,-0.004334418462335403,9.804014130660049,0.001960154727388108,6.82037946683445e-05,-0.000486369567343
1691521718.027275,0.09172874042626178,0.12829906570085464,9.821100452079953,0.0008701530512697555,0.0002920766465200839,0.0027367737177973
1691521718.0373049,-0.07327709243837702,-0.13221063380818465,9.823439772336595,0.0009818798784566134,-0.0003281568833441316,-0.0017440212856764
1691521718.047406,0.04426756167786627,-0.05380299992242866,9.782051208339219,0.0028035592860891356,-0.0003702335106423969,-0.0003064135987097
1691521718.0572789,0.05988834581664217,0.13813178081344749,9.837153537557919,3.270461257974247e-05,0.00026191517251094833,-0.0001615109819705
1691521718.0673194,-0.025052610086397455,0.036534984085037844,9.851249223531852,-0.0014682245943422295,-0.00033189309899706645,-0.0017257545575285
1691521718.0773346,-0.02947540610767821,-0.1450022766105598,9.794716347847071,0.000991576597760121,-0.001213671923945534,-0.0025967358112121
1691521718.087293,0.054403700873312116,0.07819887676108732,9.827892969444013,0.0005456607923881951,-0.001406630513621743,-0.000215903130711
1691521718.0973077,0.17838189634902746,0.1482624885914869,9.786368500119346,-0.0018232385325748863,0.001258806080543571,0.0012254348014811
1691521718.107332,-0.042110445411293794,-0.11865939442403954,9.800524716380965,-0.0009004761495351485,0.0008523756323224815,-0.0012191052980507
1691521718.1173189,0.07696199518788187,0.04641246513886878,9.784516844632225,-0.0004981525107908001,0.001225645898388097,0.001660155857562
1691521718.127279,-0.12613966842064786,-0.07117262551826296,9.871257911722573,-0.00030629503559236125,-0.00123827153895244,-0.0001592798823276
1691521718.1372876,0.0033630879014855154,-0.08632296564233748,9.79713833624531,0.0010344256503183008,-0.0015891541221809476,-0.0005701861543367
1691521718.147317,0.15495335763662924,0.1322157481916145,9.781887821787745,-0.0022747230818321073,0.0014890143187571898,-0.0014698480687821
1691521718.1573284,-0.007329836626746102,0.006612122542858982,9.839997960232557,-0.0016138931038300623,0.0002809221236623212,0.0001499443581541
1691521718.1674397,-0.033456294069628405,-0.09184918707311895,9.817873399303732,-0.00034579190876621866,-0.0007312491567595542,-0.0012049610692793
1691521718.1774127,0.09982243909711921,0.057965084017132865,9.79739407847925,-0.0007116182676253347,0.0002775449811370054,0.000643875476553
1691521718.1873608,-0.0486977799678392,-0.03123223973267332,9.83091863839138,-0.0004679781730918782,-0.0008839814937857159,-0.0004397841136688
1691521718.197302,0.05900105776902644,-0.020117236228323423,9.780599127629632,0.00038772096898281806,-0.0003207156792277233,0.0005492863977541
1691521718.2073305,0.07809606289153588,-0.10286570550988201,9.742395428506292,0.0017940062659033526,0.0014026116519179547,-0.000725882916131
1691521718.217379,-0.14691892771452175,0.06355330659118891,9.926336013633714,-0.0001829960790320312,-0.0017634986103810364,-0.0018382608856792
1691521718.2273357,0.0692854044727408,-0.06520691638416033,9.764465399508246,0.0011700250929118049,-0.0007267660548957143,-0.0017827503349418
1691521718.2372854,0.11221713302579421,0.12062108028337439,9.798920539514281,-0.000833817284331847,0.0009492394105648068,-0.0006986828254321
1691521718.247321,-0.04091315358920129,-0.14042515957543525,9.798452534446826,0.0025073975846265813,-0.0007368093811620556,-0.0001358018222982
1691521718.2573323,-0.027815917800649067,0.10417355571802354,9.877996838684885,-0.001793446389147246,-0.0005207459238689665,-0.0038208494394803
1691521718.267395,0.025893947220398027,-0.01366607695969317,9.795394962875319,0.0006496089714090883,-0.0017601746935072612,0.0001789841019762
1691521718.2774062,-0.010259530909391197,0.11984040962607054,9.867029905974977,-0.001616109423638902,-0.002799156224693427,0.0008145221775611
1691521718.287364,0.2047479967316848,0.08859986560610722,9.737141665054537,-0.002558240020200396,0.0005219377509918311,0.0026548133731102
1691521718.2973075,0.0008408928714142357,-0.21622471512483502,9.750018730639974,0.0012516028868424798,0.00041764881278991633,0.0016370732021731
1691521718.3073294,-0.15108217280645603,0.15116761938185544,9.957624528743269,-0.0033114936353141637,-0.0027120045884241597,-0.0003343423329079
1691521718.3173432,0.06697246931546834,-0.11666160010981487,9.759041757439908,-0.0011582761457463128,-0.0017817712734627315,-0.0008283351514274
1691521718.3273356,0.19467489126659987,-0.009992508909382004,9.726858528615518,-0.0007265427937864076,0.0014819559750786756,3.26055135791716e-05
1691521718.3373463,-0.08629399024075525,-0.013155671836448696,9.860925157221514,-0.00097350407193391,-0.0005371558637342603,-0.0009281689733053
1691521718.3473184,-0.13496122223088614,-0.12079487173254684,9.860453101502753,0.000591509494833664,-0.003264787497708537,-0.0026749678388024
1691521718.357366,0.23130135205045535,0.04645614739112347,9.713335248498904,0.0011361347121042694,6.968497208796644e-05,0.0003808906452012
1691521718.3673763,-0.040562109019053855,-0.08131789414016687,9.813093307349419,0.0015209581750791022,-0.0003855372634720679,-0.0021258491057688
1691521718.3773134,0.11587789047564424,0.10106477561665284,9.805887987728779,0.0004238321246760276,0.0006240242063016971,2.587996760658592e-05
1691521718.3873374,-0.009811947163571555,-0.03418978909302926,9.807305697006536,0.0010422640607284607,0.00010282606964213555,-4.8645046890753805e-05
1691521718.397315,0.13651519322779118,-0.030206441015855522,9.732625445568827,0.0018472923960450808,0.0023514257700408265,0.0004196343045895
1691521718.4073434,-0.12263338773850167,0.06302606896289008,9.909057105813167,-0.0002064774168060993,-0.0001992555627885673,-0.0007936783101195
1691521718.4174304,0.1801186250590591,0.0176059625784773,9.744273126262376,0.0005501163584754606,0.0022337199182422187,0.0016966681262692
1691521718.4273024,-0.15960515577227344,-0.08536430558143594,9.886968366856868,0.00018133122800582357,-0.0004358571502007387,-0.001740308335402
1691521718.437354,0.02157528302618639,0.08154960190258678,9.847438889201419,-0.0008274682471620969,-0.000929048914280066,-0.0003764531308571
1691521718.447425,0.06834876925880808,-0.00736749260031687,9.785569793172153,-0.00045383186443436185,-0.00017617245783132363,0.0004427390206818
1691521718.4572997,-0.058167963300214724,-0.1312476491373609,9.815645996351112,0.0014188689692942956,-0.0015437180645620201,-0.0007609151968518
1691521718.467399,0.07674236171111005,0.049021882184649916,9.802953958859481,0.0011834353361437617,-0.0007755603373011016,0.0006789059819401
1691521718.4773648,0.04374317451841821,0.09069465398162455,9.833187366989272,-0.0009817047881333003,-0.00022498121509629797,0.000474397934622
1691521718.4874628,0.053376163403166504,-0.14235918291211613,9.753533419821519,0.0020428524591283134,0.0003267545276507853,0.0003689730340828
1691521718.4973743,0.016356797734431865,0.21591412725138875,9.885268241801212,-0.0020352132127993442,1.4552504762372073e-05,0.0013133406585529
1691521718.5073984,0.08057251038578589,-0.05393228377689612,9.765540566485917,-0.0024207865944535197,0.002104070535313709,-0.00140649345366
1691521718.5173314,0.00022156059713294326,-0.11335316220850225,9.793382622449466,0.0007065837084549142,0.0009920817754526098,0.0001610972952311
1691521718.5273268,-0.04077496456432739,0.042007345070806806,9.86435761463791,-0.0009854067569969166,7.862283307124176e-05,-0.0011531781371469
1691521718.5373456,0.07297057158676297,0.11756715297983283,9.834993896214026,-0.0021983682491032697,0.00012818693009660346,0.0013137283215745
1691521718.5473197,-0.053198670567093015,-0.11892433235267412,9.805187194935785,3.273208678933272e-06,-0.0011492154992167932,0.0008830751733602
1691521718.55734,0.048105433930721954,-0.106486986849368,9.75552535505136,0.0019962981812913262,-0.00045407715265502035,0.000576105752143
1691521718.5675209,-0.0352260156978265,0.16739157194757354,9.89418008890984,-0.0027031607567338787,-0.0010728634266740714,-0.0010008121341253
1691521718.5773735,0.03114954644672353,-0.1776342096646046,9.741026197835716,0.0009088812143435115,-0.000602348454738007,-0.001299586236828
1691521718.587365,0.09155809830160833,0.08472626112665818,9.809690243061423,-4.06912665123935e-05,0.00016543089034045297,0.0005604226292324
1691521718.5974236,0.014024090474662495,0.03664233333242917,9.820905473257936,-0.001502862018764411,0.0003792635629150215,-0.0001663437312255
1691521718.6074507,0.039446692610727564,-0.015682618822903602,9.807021546139266,-0.0005868277404575366,8.161460035419638e-05,0.0007523100624074
1691521718.6173446,-0.041452937502168344,-0.029156537805670648,9.824367542295649,-0.0010401779129358658,-0.0006552473938750001,-0.0004800141056785
1691521718.6274288,0.0851527530995249,-0.06761959464425535,9.756323132475826,-0.00011182952566425102,0.0009548041161623738,-0.0012142768561626
1691521718.6373916,0.000537572641967757,0.11732520529198993,9.866190138914304,-0.0023079084043372456,7.416667046511639e-05,-0.000687875991107
1691521718.6473503,-0.04623816042453844,0.011890427372437304,9.856884203782977,-0.0022337688955043804,-0.0019233427475451137,0.0004986181423281
1691521718.6573634,0.09909315223200732,-0.11228491064551642,9.736613242114617,-0.0009720132434154283,0.00014308575759818207,-0.0010574321228797
1691521718.667365,0.021194000764448242,-0.061009193499783655,9.78601374285092,-5.747565090823164e-05,0.00037443732667491773,-0.0020103618468875
1691521718.6778026,0.021958542239851924,0.21586097697918513,9.89333862274136,-0.0041873150858977685,-0.0004756971019455483,-0.0004416428006971
1691521718.6873517,0.034666931524662534,-0.15306552294035772,9.752406074085908,-0.0016243165186155019,-5.024899378154553e-05,-0.0011378935038829
1691521718.6973886,0.09805746639963052,0.03996169193913963,9.77888817842312,-0.0011001590560573802,0.0008378394853626077,0.0014094717892566
1691521718.7074995,-0.02992670191245558,-0.19169222325181784,9.778868694122979,0.0021713735551925945,0.0002473973377710747,9.588410949609846e-05
1691521718.7173538,-0.12003344542168075,-0.057228264333677684,9.86362681706017,0.0019694774149455335,-0.001742625597680969,-0.0025769847877109
1691521718.727403,0.157735282514503,0.1745573733753793,9.809545075378397,-0.0008926902202704781,0.0005618134870810209,-0.0006618060603524
1691521718.737333,0.08256072157537385,-0.08937802117862846,9.749715861768701,0.0015287755772232785,0.0013266073426043388,0.0008123012933628
1691521718.7473226,-0.2208969434146616,0.06915187789024463,9.968594082368664,-0.0006192219736866765,-0.0035226153744982113,-0.0003406868515322
1691521718.75738,0.21205229997929712,0.046544488512975615,9.73076324209479,-0.0015658183672825766,0.00039751033339796186,-0.0001842407243112
1691521718.767473,-0.10130580683191356,-0.1843692979107303,9.810306169067696,0.0023848484418854655,-0.0021792642870454887,-0.0001514530474106
1691521718.7773397,0.14577799461211174,0.10180894886668385,9.783545584358434,-0.0003331428559029435,0.0006929423964288576,-0.0012850513182366
1691521718.7873738,-0.07547123916912699,-0.1001402243685445,9.823333569926762,0.0017835802106018499,-0.0012676732020663207,-0.0012351356878662
1691521718.7975662,0.2103318356386528,0.1186428300571403,9.748978833253851,4.907425239971967e-05,0.0023179087524436964,0.0006755683546633
1691521718.807322,0.008244258807004062,0.043510869393800604,9.84416652538228,-0.0013933535774110445,0.002129777764758967,1.5826922490220965e-05
1691521718.8174293,-0.025490172422063084,0.07237190239996161,9.870765924338293,-0.002652872459731759,0.000893342190545463,0.0005466577979949
1691521718.827446,-0.077526625666327,-0.18080628547702648,9.810824391097874,0.0006462403615883748,-0.000964443526985268,-0.0001369293046901
1691521718.8373215,0.0835062019931619,-0.04636291218186747,9.764931830406729,0.0004372779587942431,0.0008944614583685775,-0.0020338316414291
1691521718.8473818,0.0362642843624499,0.22591652366357073,9.882557337369578,-0.003962689677911019,0.0007718898273153341,-0.0008447299212003
1691521718.8573973,0.03462766242092717,-0.07833932794309939,9.793190091969182,-0.0022773535485235597,0.0009861147898134397,-0.0008588734514797
1691521718.867457,0.039283888073459394,0.0403258317985426,9.81148271748429,-0.0019744802239789008,0.000501451600393096,0.0013871047242991
1691521718.8774428,-0.05610483833222833,0.030377581408365276,9.86016461268703,-0.0025452031159434118,-0.0010203364725184028,0.0013207904387944
1691521718.8873754,0.05932777566338782,-0.1494129411337115,9.737849850723418,-0.0004068892913694673,0.00027867175875541053,2.2137680671137277e-05
1691521718.8973677,0.05169315136932463,0.056217087740005174,9.818840908100775,-0.0020739743239281665,0.000997668618867215,-0.0007016474580178
1691521718.9073722,-0.018550000912479235,-0.05263768878812741,9.814341174198121,-0.0006918792353904228,-0.00010614124077505096,-7.098014129050404e-05
1691521718.9173665,0.06018992542220139,-0.10683648393741553,9.753299368982251,0.0015179659689508232,0.0007048703329431836,-6.98419486890021e-05
1691521718.9274037,0.0017685692203276368,0.09685938191026688,9.861817806580044,0.0003638758560991717,-0.000454082765002841,0.0014429719570306
1691521718.937462,0.005897338252804492,0.035333967759948307,9.833684924990838,-0.0012014899241641198,-0.0002693054187024478,8.92135115554151e-05
1691521718.9473886,0.005418244465223075,-0.05258738164273196,9.80462700628513,0.0007945191125653147,-0.0011738072422563248,0.0019056508584161
1691521718.957399,0.05003452750350795,-0.15296601665890844,9.74518669941926,0.002968219841218612,7.124514450052113e-06,0.0001693023635288
1691521718.967442,0.031074470518008598,0.14898671657548465,9.851105564759022,0.00041305581068330635,-0.0002607487991576347,0.0014142825360158
1691521718.9774263,-0.046538129811684245,0.0512997117121795,9.87326522517174,-0.000780161040477173,-0.0018968911044806528,0.0016843806054656
1691521718.9873576,0.1151890335735634,-0.010443139475653498,9.761424676605783,-0.0009075719156775516,0.00014680213850244467,0.0012976768314819
1691521718.9974432,0.027091178847082335,-0.28043636223717017,9.719834714936937,0.003990818432936657,0.000752196929234409,-0.0004680750159332
1691521719.0073855,0.008144061835787565,0.19086949207644446,9.881289370380069,-0.00011891713560981923,0.00047686797851198163,-0.0002177422599653
1691521719.0174062,0.04929725169736455,0.06482971761158801,9.826693470453025,-0.0015367613978463845,0.0008486391075275278,8.06168221151051e-05
1691521719.0274482,0.012684637256331607,-0.0832558923695062,9.789655645560941,0.0004495634917546498,0.0005029332477689639,0.0004561404614923
1691521719.0373914,-0.09088384590850365,0.14667551103853016,9.922396014990596,-0.0019577241883523893,-0.002207577568445197,0.0019503594060642
1691521719.0474358,0.05961239230263645,-0.17495722110482967,9.73419965450984,-0.001009265616510114,0.00011888128352327981,-0.0024007706403518
1691521719.057448,0.07416515598155245,0.010107697845049108,9.795238539617689,-0.0001997858780993237,0.0003982741503393353,-5.944524554260403e-05
1691521719.0673935,-0.05485065050136269,0.05428304012196225,9.85100195657253,-0.0020091401131948827,-0.0005434943993626114,-0.0004930502934167
1691521719.0773697,-0.07869429377195346,-0.2873171583057829,9.76733641620149,0.002908993778476411,-0.001922970679814571,-0.0023575705442363
1691521719.087493,0.3396998175302992,0.15725794198033766,9.696209061991508,0.0014557365046892656,0.003557692821771057,0.001437378171713
1691521719.097417,-0.04064388099922648,0.10509410030570181,9.888319257042083,-0.0009284538240255345,0.002152879989214289,0.0013308450264138
1691521719.1074126,-0.09756045251075239,-0.058708497511531656,9.865127375002393,0.00022379284407511162,-0.00037025723650599673,0.0011270705375044
1691521719.1173763,0.06142817368811864,-0.07269545336757305,9.758436041871805,0.00038324031851895576,0.001236455537229551,-0.0009147609550292
1691521719.1275256,-0.008063725404051052,0.17048518681263114,9.891517796769225,-0.0023771933153785975,-0.00015159041284305223,0.0010723080025035
1691521719.1373525,-0.024824069098555897,-0.24422499130008068,9.748174441512242,0.001705336369711705,-0.0005010088990978791,-0.0003958437325219
1691521719.1474023,-0.08193993301776428,0.09008979419862594,9.902269996200983,-1.2741076600761154e-05,-0.002962702167624622,0.0002024639664431
1691521719.1574328,0.2687954591855021,0.05214055406921233,9.698143911875539,-0.0015807471909634742,0.002640143901029384,-0.000143240412117
1691521719.167487,-0.054091893817177106,-0.03407979988504866,9.847686385594812,9.900220604203838e-05,0.0002622904386044669,0.0021653215201785
1691521719.177427,-0.01070053173485289,-0.039982853987764765,9.818920615733818,-0.0013147748598454066,0.0006910669018825844,-0.0014891948982859
1691521719.187421,-0.10701589591525787,-0.06715956251535389,9.865011522949088,-3.434219389007053e-05,-0.002077184728442809,-0.0016508743598843
1691521719.1975484,0.21971293852734472,-0.0018384301844503147,9.688507038695853,0.0013410280666245349,0.001451018501852499,0.0009132519601825
1691521719.207486,-0.06551842128723984,-0.12392335677038735,9.823627871548366,0.002726443612443121,0.00018221647502438367,-0.0008313193417871
1691521719.2175007,3.91653468348272e-05,0.1810311860663775,9.88601923413671,-0.0003566012869701851,-0.0008254947226276418,0.000505310160688
1691521719.227454,0.04530752031884405,-0.03814366484842331,9.782008412445325,0.0005493905854541064,-0.00029575301125539115,0.0008737576402471
1691521719.237414,-0.06327680871844898,0.07628158657413316,9.874132014575348,-0.00072614090560043,-0.0022116752337665822,0.0015655377040365
1691521719.2474363,0.10446660167198928,-0.07481711612121211,9.738479313771181,0.0005166247617701027,-0.0004149810142051662,0.0014481899827932
1691521719.2574532,-0.04545363445611406,0.00397577190519979,9.850414216000116,-0.00077457847432598,-0.001079931703962036,-0.0005694249145472
1691521719.2674696,0.17132454008946293,-0.11667398563850422,9.704057693807139,0.001528028406563794,0.0019472528115410392,-0.0005179984461302
1691521719.2774172,-0.009709590805490281,0.21573719993441434,9.922386799775593,-0.0024688524367478593,0.000631825902922297,0.0004345317987007
1691521719.2874413,0.11124033135544491,-0.21009990981568602,9.712665635271112,0.001444223292129123,0.002756734887950993,-0.0001778823522637
1691521719.29738,-0.11519565550982457,0.11808992565837251,9.93109858689111,-0.0009094348773106226,-0.0003590915904819725,0.0003622659399387
1691521719.3074794,-0.0513942579277603,-0.1103416476490281,9.802332608847022,0.000656683993553311,-0.0014520894708626698,-0.0005630958791608
1691521719.3174677,0.15830942185940378,0.08654933920112409,9.762045109522251,-0.0012588640713192996,0.0014279255131642765,-0.0005258547341237
1691521719.3274162,-0.03649725022356302,-0.021120635101222127,9.830883744227236,-0.0007488716778657451,0.00029321973970449145,-0.0002471636714199
1691521719.3373995,-0.046759915755675716,0.06689372348630433,9.870706352492908,-0.0003215683705695101,-0.00238117577099633,0.0031159996554469
1691521719.3473763,0.14538098321014212,-0.17068405807988352,9.6884419352485,0.0015224514787055606,0.0011332517208158947,0.0001689304165755
1691521719.357401,0.03847503061433871,0.04839388727618333,9.834951437150895,0.0008336299988638259,0.0009339631601428446,0.0012563178946128
1691521719.3674202,0.025338692906103834,0.024627362601887127,9.826719690529206,-0.00027351771059497726,0.0011492771120353415,0.0003004252478694
1691521719.3774242,-0.028118903894472663,-0.04186765245646537,9.810119031486435,0.000850387555037284,4.2881914287917393e-05,0.0009933233353057
1691521719.3874252,-0.006090148284302209,0.06499208693249905,9.85066171442879,-0.00040651846428681415,-0.0006373690919982917,0.001315209677441
1691521719.3974752,0.059528825222761504,-0.06000131265521717,9.778962921228205,0.00010865464182724041,0.000534638754528331,-3.545169138390123e-06
1691521719.4074304,-0.025770279156437908,0.0014565419647689852,9.855002104200043,6.500107795175548e-07,-0.0006623198895440699,-6.57688094089213e-05
1691521719.417378,0.10187944588684085,0.06780848417316895,9.787736182690544,-0.0011392845882890492,0.0007890438993955228,0.0008692702079405
1691521719.427515,-0.04851751110402473,-0.025133483460625387,9.840571197903516,-0.0019349932489247184,-2.644451469095971e-05,-0.0010097733199382
1691521719.437413,0.020402169671707465,0.022819899530339964,9.829229630119777,-0.0020564443012140105,-0.0005487145879193402,0.0002158560358201
1691521719.4473996,-0.11820178459982113,-0.07443212660562117,9.87820366067768,-0.00031262661925833855,-0.0036779507844631547,0.0004256051300307
1691521719.4574225,0.09940356322232635,-0.0770607155559734,9.755592818543217,0.00030241131676552813,-0.0015783793236821735,-0.0013487563434774
1691521719.4674325,0.1346849118971944,-0.058676038173603756,9.708712996324493,0.0012199583722229492,0.0014841839744492104,-0.0019511276356662
1691521719.4774845,-0.027311789004882955,0.19758646928638626,9.898890353953611,-0.0005629732799203031,-0.0010702478906020178,0.0030202626051595
1691521719.4874847,0.11327707592773978,-0.10441335543809514,9.73076869474382,0.0016018120772896653,0.0006791434678044703,0.0030392500605647
1691521719.4975233,0.008797340192804032,-0.07825871488656945,9.781552247135386,0.0008943603583701478,0.0018194571418326244,-0.0010634049273813
1691521719.5074563,-0.10621259185311745,0.2027761656548581,9.957115615330292,-0.0024043834435488057,-0.0016685345152996397,0.0005090410389219
1691521719.5174963,0.1437067407146189,-0.03503324179356695,9.732253034851544,-0.0007976739873054814,0.0003434968265633582,0.0024119311977391
1691521719.5275238,0.0013101683349652665,-0.11532212398892143,9.793454843309073,0.00013849964820297374,0.0005498766680293889,0.0002855238538449
1691521719.5375123,0.002394901421556854,-0.013478817102635854,9.81616947818887,-7.422183671132413e-05,0.00031480423212330004,-0.0009866681381846
1691521719.5475645,0.02680357167059983,-0.03876066016166598,9.799594599985195,0.0013644869072024614,-3.647495091719691e-05,0.0004125657990788
1691521719.5574615,0.01740152950058032,0.0006010725709169785,9.81725363789496,0.0015697433676010028,-0.0004562930860543281,0.0007251187028577
1691521719.5675285,-0.059823461146138984,-0.07382919349092645,9.826194201014147,0.0024060852834871483,-0.0017002073524417358,-5.9827087798196375e-05
1691521719.5775335,0.17836688279138518,0.16346003896913658,9.78849655052128,-9.43569680683185e-05,0.0009492367161763547,0.0016717164228884
1691521719.587518,-0.03400014204838358,-0.104296301492245,9.802506799355807,0.0012974314332541309,0.0001449420848985192,0.0005954660858241
1691521719.597539,-0.006183728812985866,0.04931688033537851,9.845081684950362,-0.0004925805055285381,-7.559728959146596e-05,-0.0005947614287743
1691521719.6075027,-0.005041758972708767,0.015597536414398852,9.840317415521335,-0.0003513760908540921,-0.0010050524205801469,0.0005038323263851
1691521719.6175137,0.15655307998111942,-0.07699396720309323,9.70996336919042,0.0011555130233175238,0.0018935806343853318,0.0004438130102334
1691521719.627515,-0.056283517090729325,-0.13582941702422707,9.808018835650248,0.003046091752739209,0.0007693146923758933,-0.0011382592808241
1691521719.6374958,0.20675071187818161,0.18719069318623868,9.7675792793905,0.00031653554025786455,0.00394250949266376,0.0013568857223707
1691521719.6474502,-0.23359952004328077,-0.1930206268672567,9.900366120371876,0.0025919807873699,-0.0005691850631201421,-0.0020219034947241
1691521719.6575449,0.060407404563460936,0.25257985953584433,9.872118572660582,-0.0027121069890500404,0.0002235404256309624,-0.0016415604356462
1691521719.6674972,0.04614693061456379,-0.0673749242296823,9.787935434474873,0.00017203021705904654,-8.157030954938076e-05,0.0004956309833777
1691521719.6775055,0.0014193652631100742,-0.1245385026519866,9.776160592318922,0.002985376435201541,-0.0006079511362852027,0.001263808260146
1691521719.6875808,0.04067834475086323,0.1288045264890142,9.847267605771181,0.0001507667453417665,-0.00026445709033483445,0.0011769839723546
1691521719.6975086,0.08046627306663946,-0.08587225753184831,9.754951135270415,0.0015373560068114368,0.0011805641113102649,0.0005369957337369
1691521719.7075024,-0.09260422706214615,0.07198554190463687,9.892630735250675,-0.0002388818855879158,-0.0010210745956404283,0.0002516221987297
1691521719.7175584,0.0812919856830943,0.0499593203328585,9.80818095889204,-0.001163501652096553,-0.00011433743243221112,0.0005258065332872
1691521719.7275014,0.023457696444977392,-0.09421431126839235,9.788776353461135,0.0004950094402040179,3.2433394618105865e-05,-9.893052873857648e-05
1691521719.7374723,0.006428596283514374,-0.03319964423854025,9.80950597087621,0.0003735562104738545,8.943769730896365e-05,-0.0010045413825447
1691521719.7475111,0.07679558232921914,0.09344191638451546,9.81747822154336,-0.00150993123737395,0.001086702225433406,-0.0005649547990197
1691521719.7575035,0.03487663978709003,-0.130692862970198,9.763735072065048,0.0010686919165305562,0.001350832150203318,-0.0008029970073858
1691521719.7676091,-0.06947146828518723,-0.0641543449211699,9.841749766988762,0.0026754154031916355,-0.0010031827913057252,5.417727271370262e-05
1691521719.7775662,-0.07756998351588629,0.029384154162149092,9.88443381086709,0.0005643073722805435,-0.0024113455941108066,-0.0024562807254279
1691521719.787503,0.14946701618792632,0.1903894734030181,9.812698184474826,-0.001958103853068594,-0.0007468931351696285,0.0003872383652468
1691521719.797525,0.07851928090581897,-0.09708928386496285,9.749673816190018,-0.0002921631443066218,0.0005156070454325777,0.0004293073700954
1691521719.8074555,-0.03660910427562577,-0.17562938306705225,9.782706145540155,0.0024272961742924765,-0.0003035627557879152,-0.0007922212559516
1691521719.8174582,0.19837138431593015,0.09658439446539703,9.759742660228053,0.0010720626779875313,0.002815222820720592,0.0007217526411385
1691521719.8274558,-0.20942830832247816,0.21689613767056642,9.995506886421072,-0.0037406460447509233,-0.0017851423978466501,0.0005246834746775
1691521719.8374617,0.1388678409805953,-0.035403689009681334,9.753622177961654,-0.0029050695746482527,0.00035466989926307644,0.0008748702505817
1691521719.847524,-0.0010502916328067454,0.01885659346244704,9.819387095528787,-0.0023462709119198987,-0.0006966043759908969,0.0030578903654804
1691521719.857523,-0.06387275345299279,-0.26974831726021264,9.77520783709582,0.0013723060552485236,-0.001439039335171225,-0.0002900374553883
1691521719.8674846,0.030860979056662925,0.0552240898071217,9.830647287989025,-2.467019260061842e-05,-0.0011935571799209736,-0.0006066813099915
1691521719.877506,-0.030790056764903827,0.010778361104239392,9.84131132961373,-0.0005942716014791777,-0.0021654831613354807,-0.0010291276000226
1691521719.887526,0.06632422110410169,-0.1716387525994145,9.737416692210202,0.0026392971782647993,-0.0013019566988142302,-0.0014716734610284
1691521719.897543,0.049421945353727285,0.12653876428367722,9.83763127086504,-0.0006673209002168699,-0.00022647154470772706,-0.0025807079825336
1691521719.907488,0.23947652452750817,0.06842195768004733,9.712823184488418,-0.00019158072752874393,0.003131135260710861,0.0014359115423848
1691521719.9175208,-0.22753472768218228,-0.19045160518106144,9.878299182085605,0.0012799335295087585,-0.0005636309937066344,-0.0030076260179067
1691521719.9275086,0.09035168314958288,0.08250412769702727,9.791514385863719,0.0012519729449693645,-0.00023054808928768338,0.000585780854917
1691521719.937492,-0.06730465379321689,0.030659065238923304,9.880989207240711,0.0002100231341885886,-0.002041418595570742,6.499388592593044e-05
1691521719.9475536,0.2519293543919047,0.07907023395307022,9.711939840702632,-0.0004784346668989881,0.0023886925249352615,0.0016731871558567
1691521719.957513,-0.14698216207448886,0.048294084575028595,9.935210456802663,-0.0021216401318310454,-0.0009909036925528877,0.0008595970842269
1691521719.967551,0.06250051389580466,-0.09535886357202497,9.76346881723667,-0.000129726069136332,-0.0003114039429890694,0.0008089233863846
1691521719.9775038,-0.09337116086578995,0.03239932331404841,9.884227531063413,-0.0012849288356366496,-0.0023808065550296256,0.0001201265525286
1691521719.9875154,0.0450500396391469,0.019619572487291192,9.8064571848459,-0.001166099520170326,-0.0021733025933253366,0.0010108458203011
1691521719.9974744,-0.02807418233072683,-0.10302736895534466,9.798193367178191,-7.198133790993297e-05,-0.0027007992828493523,-0.0005105712650129
1691521720.007523,0.15387058680418353,0.051462771622290876,9.771345048477903,-0.0013039380807920125,-0.00020711290034741155,-0.0002431040363172
1691521720.017508,0.03649597514462187,0.026454454764319076,9.803398010710588,-0.0020356124052392493,0.0004548822826440998,-0.000611900558115
1691521720.0274725,-0.05575486431432132,0.01788803331351856,9.860462810977063,-0.0026819427676215836,-0.0009473333691279897,-0.0011863162241662
1691521720.037459,0.18305426982861794,-0.08855480678406927,9.701204854417302,0.0001455809968516241,0.0016764056372324495,0.0010790318822818
1691521720.0475135,-0.08464026807824443,-0.02493794858034144,9.863745161933808,-0.0007391900124627271,0.0001233274356724618,-0.0011949088390702
1691521720.0574834,0.009546034064361808,0.04973837801180458,9.832653936059186,-0.002122020385017617,0.00018702948994082352,-0.0016903668608302
1691521720.0675273,-0.07708524092111978,-0.13276428227911483,9.82321633877802,0.0021512710118101104,-0.0027563195918479046,0.0005727371583906
1691521720.077528,0.06672604368964302,0.025284910659907196,9.798053346489953,0.0004104322981706538,-0.0011030308890078262,-0.0014340720105702
1691521720.0875833,0.12424091274696432,-0.012653936826509834,9.767688222125898,0.00032996987630074155,0.0009563110042892628,-0.0020405499696517
1691521720.0975077,0.008639269841757405,0.013939334539734602,9.828084022675819,0.0015671399907976821,-0.0005073386504468019,0.0009918482949705
1691521720.1075315,-0.03610724691945532,0.022366065372859865,9.8516450091304,-0.0010823093623815378,-0.0005885635287633496,-0.0021888069774741
1691521720.1174562,0.10496514533077449,0.02308480722005913,9.772268524571382,0.0002010914771140487,7.974147316459527e-05,0.0010399120195051
1691521720.127502,-0.035058492138397006,-0.0641940869824192,9.823938916068611,0.0013514468099668686,-0.0010199580271603298,0.0007891779217151
1691521720.137505,0.08415304973249191,-0.007003357819094901,9.776644495283266,0.0017563751035545767,-3.533560198985116e-05,0.0017410030389418
1691521720.1476276,-0.06672328384241528,0.045911600689862775,9.870304220297111,0.00010906840385407448,-0.0013600896413994855,0.0007023869814565
1691521720.1574724,0.06777846334832989,-0.04896304350919228,9.778215807162034,0.0006089986929925504,-0.00046004537299260383,-0.0002077027190262
1691521720.1675255,0.005982720943651883,-0.04704464323526748,9.80063119282445,0.0012933162971831673,-0.0005241026013291196,-0.0005772663013795
1691521720.177571,-0.02671243982310341,0.015619703350036514,9.838964077557605,0.00045514913058105467,-0.001395455115737726,-0.0010268875364
1691521720.187508,0.056298802354327104,0.12442753069634081,9.8383851520187,-0.0016552314330908384,-0.00106615558902349,0.0003924407913563
1691521720.197528,0.11672182271743148,-0.02112326254646896,9.770859722605296,-0.00026832404567388954,0.00010769620291193027,0.0022707450237338
1691521720.207475,0.1319307113566843,-0.16726792250807207,9.689606061502232,0.0020909387880694965,0.003028307007198388,0.0008975794456181
1691521720.2174652,-0.13323738991010042,0.2088173432719193,9.94552467071405,-0.0005022728814369523,-0.0011559136321168614,0.0044079331249212
1691521720.2275083,0.08298732430105853,-0.1270027705748783,9.740464270707886,0.001284753044552744,0.0006068882928145028,0.0028425723115196
1691521720.2375193,0.039923767922265756,0.05162888815771075,9.808972475156104,-0.0005979923598013001,0.0016324461698943252,0.0013334363005105
1691521720.2475047,-0.1290656977771001,-0.12347101171719556,9.857083074217915,0.0015410686135367664,-0.0015854482675948384,0.0010141942887547
1691521720.257457,0.044669848213905634,0.09503548075857064,9.83923271912908,8.859449698865105e-06,-0.0014319622822873965,0.0018225777578753
1691521720.2677448,0.03941388394638409,0.0943852970951382,9.83518212429277,-0.0034005299753270732,-0.00015270815431127216,-0.0006126344403038
1691521720.277506,-0.11743988932373797,-0.11080653563622417,9.860141751639853,-0.0003968239883758856,-0.003594879711784842,0.0008592287170448
1691521720.2874978,0.1066945063570421,-0.042046992349351366,9.746905978195263,-0.0003100361260817839,-0.0013820536681469658,-0.0005642242928753
1691521720.297572,0.09263801961831514,-0.10191336790444439,9.74523780079574,0.001601049227054289,0.00018926476473235393,-0.0007855037426362
1691521720.3074446,-0.07969847407363921,0.02759378185906033,9.876354816478628,0.0009815310566177705,-0.001979598100657076,-0.0007691033849278
1691521720.3174796,-0.05335486932467074,0.07559737869259572,9.87215316593721,-0.0011087139597771216,-0.0032722744877992684,-0.0017440096441442
1691521720.3275309,0.2674980024920333,-0.029792656024234695,9.665542553932854,0.0006499981476347698,0.001266989655704311,0.0002821780192879
1691521720.3374934,-0.13544615302939286,0.026233727493131485,9.905019839784805,-0.0009857987716440256,-0.0014401792450181295,-0.0017324600800658
1691521720.3474965,0.1364703584791689,-0.03067574681548718,9.742594885823042,0.0006034083590469492,0.000312211132752362,0.0003075059769888
1691521720.3574986,-0.022421283393288756,-0.0814518274529843,9.801614581784545,0.0015530047117808048,0.00015608533919860175,-0.0010250421207184
1691521720.3675325,0.14617633609103511,-0.017893961125360222,9.740418637870816,0.0028564456514937045,0.0021558679367172165,0.0007150300637567
1691521720.3775687,-0.015535201328519184,0.10038709523848384,9.858541853285882,0.0010835815201599523,0.001143705583457689,0.0017201359999579
1691521720.3875036,-0.06484838283686845,-0.0947855867016291,9.823011611919487,0.0008734930410551398,0.000717896428611546,-0.0021154120065058
1691521720.3975434,0.02212071087278279,0.09234061739606338,9.838958372502505,0.00028415443443739367,-0.00024360547167075073,0.0007284550495659
1691521720.4075823,0.020514480228215698,-0.09485303616511147,9.785514204616339,0.0023669571238058703,-0.0003694997392787359,0.0008648163614542
1691521720.4175053,0.01482316739409622,0.05013657106924855,9.840010161634122,0.0005918655090877551,-0.0001560598674563755,-0.0002784809063906
1691521720.4275,0.026586574994668804,-0.009688969314381348,9.798382080327393,0.0006399305089547763,0.00018591271267792158,-0.0002404603607738
1691521720.437562,-0.020337337173242518,0.10574709634418203,9.879340634282242,-0.0011806325116005614,-0.0010520026502806865,0.0008044509716545
1691521720.4475262,0.07403616146214934,-0.04662983243266947,9.765663939766917,-0.0003696493288910278,2.2382595249572367e-05,0.0003156871801456
1691521720.4576294,0.00036431379194866925,0.05963860467217104,9.846459881078562,-0.001561722835054617,-0.0004954356866818195,0.0006286324617666
1691521720.4675794,-0.054488154967958634,-0.13684191479329846,9.805179569814893,-0.0002228561184608388,-0.001099665198103993,-0.0017257566530043
1691521720.477512,0.08384846922904605,0.043207723798082846,9.786201584307802,-0.0003938539190353155,-0.00037920422881637477,-0.0003973182489881
1691521720.4875002,0.0120043153428319,-0.10619032881781669,9.780665767472355,0.0018852877796481358,-0.0005379081204789842,-0.000609663986952
1691521720.497488,0.005226914688682439,0.04658954500785911,9.838653145330303,0.000364236032872383,-0.0005810855937333267,-0.0017473482027436
1691521720.5075452,0.05280604709677875,-0.11158201184628104,9.771807661385951,0.0033307050314703435,-0.0005226084757995637,-0.0005325270782942
1691521720.517541,-0.08257195663719548,0.2303916874551663,9.963704416423452,-0.0020519678057126646,-0.0027555759667805277,-0.0012966027449602
1691521720.5275085,0.16386115022242273,-0.01800633286673168,9.730329442497856,-0.000954871878443668,-0.00023876308818261124,7.319185288898319e-05
1691521720.5375278,0.03979156665584417,-0.03226912439732661,9.797851788439441,-3.3244341836903546e-05,-8.006502207601838e-05,0.0007005298369312
1691521720.547526,0.027728436149829797,-0.023498714943802873,9.787585352286051,-0.00030258082129152,0.0007640873731563112,-0.000225576196217
1691521720.557563,-0.15648834701391842,-0.02734909867159317,9.89448823162349,0.00021375418068499287,-0.0030699873660580967,4.646744227927626e-06
1691521720.56756,0.1802295712188884,0.02758006462113932,9.730924126835966,-0.0003025693865524887,0.0003155663793711751,9.926772082499832e-05
1691521720.5775726,-0.07488091321527827,0.0058741182771723886,9.864511935373095,-0.0018265728929071304,-0.0008716884977401546,-0.0020859901293898
1691521720.5875835,0.15027895411911016,0.10554486712382148,9.783464962085388,-0.0017666188829483205,9.241481153803996e-05,0.0024342676891227
1691521720.5975685,-0.02017369435066707,-0.16350561992854035,9.770866813670727,0.0008682770074981165,-0.0002741521170038604,0.0012242915157093
1691521720.6076508,0.20648932605268672,-0.014932265364113918,9.706292026844158,0.0005024270029883414,0.004183533474287096,0.0001279341789176
1691521720.6175025,-0.2007272067712255,0.0697690502101613,9.955411557397694,-0.0003893780646177472,-0.0009406062798266697,0.0013707000446719
1691521720.627476,0.11064282850472373,-0.02549084812179352,9.761888205466583,0.0002267937657008868,0.0005632940009970051,0.0018050671472427
1691521720.6375716,-0.026673647314156185,-0.06311844772616718,9.822915777071342,0.0004499233659545182,0.00013898752055474105,-8.178942033745676e-05
1691521720.6475253,-0.0716238742583931,-0.06078144543013718,9.831818615723252,0.0005129025916984516,-0.0009327690179696018,-0.0025561108220154
1691521720.6575265,0.15733036085615898,0.33092183206384185,9.852724154660816,-0.0033669847056095213,-0.0002260929081314452,0.0038368458893363
1691521720.667614,0.017600950881557453,-0.1286376580270638,9.773568294033725,-0.0013553522979598987,0.00015537330891502278,0.002513251759692
1691521720.6775038,0.02430239126191486,-0.07937426983283752,9.790921106061987,-0.0005965167960277473,0.0007771262733686546,0.0010086030500223
1691521720.6875622,0.07988504750616889,-0.016187812155208054,9.781065389360366,0.0004566112291194395,0.0013977682524304183,0.0027028569286902
1691521720.6975255,-0.12870340265888583,0.06164025394192566,9.91927486604323,-0.0014387912887207609,-0.0015567730985407595,0.0016270053723109
1691521720.7075777,0.021568087133169756,-0.12111950289113206,9.782173665962357,0.0002878704885274551,-0.0011939178201404133,0.0005753448033919
1691521720.7176,0.04256464679655784,0.08350730535493238,9.818234713383735,-0.0014879663911101459,-0.0008586523428017515,0.0012414334608455
1691521720.7275813,0.0382704928595705,-0.13662238612232305,9.763677271674142,0.0004964969731067388,-9.085857632227795e-05,4.077868407867521e-05
1691521720.7375512,0.06016091013264336,0.09756917443106027,9.826136998311563,0.00045180912533797395,-0.0005870650343558835,0.0040659368071918
1691521720.747643,-0.09475208470019088,-0.08955428226580234,9.849450174766597,0.00016755270397969462,-0.0017247767217677275,-0.0003969444393897
1691521720.7575066,0.09801339924413248,0.00264365342803302,9.77826926215086,-0.00013680584862674135,-0.00023056097134741533,-0.0005522875314364
1691521720.7675807,0.07805453887292922,0.060758849027886044,9.796186038198938,-0.0015114488904032159,0.001044597360638229,-0.0003786909825886
1691521720.7775743,0.010656911118950193,0.010286041304734674,9.831892038297815,-0.0006929928330479735,-0.00015084391240453973,0.0016918183803772
1691521720.7875834,0.03984735050517259,-0.11406320632631903,9.769568673204507,0.0003083688188073831,0.0009857477252462206,-0.0010224148597354
1691521720.7976315,0.10287174697103417,-0.03172411927230873,9.764490602495476,0.0022306046803097605,0.0017613566363997141,0.0017804919892204
1691521720.8076184,-0.08176135194409587,0.018883221791332266,9.873713245494752,0.0005564672414604206,0.00018629037533534815,-6.466181611366898e-05
1691521720.8175335,-0.009686555211026605,-0.034542977776745226,9.808319997207317,0.0010411353935473123,-0.00010875167943932907,-0.0002781123354817
1691521720.8275633,0.0992870418811144,0.003442442263228122,9.76052316310201,0.0005732271714729717,0.001690948675540725,-0.0005086871994445
1691521720.83752,0.0024309121812701993,0.10140150873434718,9.858652209102177,-0.0002522765767784679,0.00038372395846730177,0.0020379147293259
1691521720.8475502,-0.1703783240863052,-0.07569316127168117,9.88504148764569,-0.0004452483410887066,-0.0025409931775765,-0.0011028850883031
1691521720.8676362,0.15313548172220473,0.021802653720745708,9.744064730768072,-0.0010804106203342904,0.003055132789080462,-0.0005701787037561
1691521720.8775997,-0.05217367860293096,0.09851327316733184,9.894274525127065,-0.0019059385612620187,0.0006594059535750087,0.0019343373399441
1691521720.8875628,-0.0031115518683885184,-0.057477776073322204,9.790324358069597,-0.0014369390473802691,0.0007625942469154951,0.000560450685325
1691521720.8976004,0.030255302687828424,-0.015417050125631838,9.807018137713815,-0.0012104367097566027,0.0009086243650148005,0.0005936098435176
1691521720.907519,0.13686905683457862,-0.07631714294998033,9.73791862273851,0.00034040955375740247,0.003143427336412085,0.0008234296959107
1691521720.9175594,-0.12314367142552891,0.01927358178344031,9.89768350842796,-0.0003345970995087442,0.00018217366051199326,0.0003376697107432
1691521720.9275696,0.1561285857450998,-0.09926654220447259,9.709842361934498,0.002923518297245117,0.0022594069706111694,0.0024786480037709
1691521720.937502,-0.06283592796836988,0.01783482171440023,9.861621719096178,0.00035601419647837365,0.0019211712724229021,-0.0010306186474645
1691521720.9475095,-0.126781911413734,0.08715457446947245,9.929864722778143,-0.0013918608335333014,-0.0014159665176767871,-0.0004971485784063
1691521720.9575446,0.0733974650413074,-0.07349257009934555,9.756493843611167,-0.0005123222536161863,0.00017994197284423044,-0.0017764357350552
1691521720.9675684,-0.009770012792188061,-0.020410458196698514,9.826028861686003,0.0007967667340825817,-0.0011265065850880928,0.0002270611269613
1691521720.977558,0.011710475257276424,-0.08663941205103626,9.793880599506718,0.001841336488190701,-0.0009450802548399163,-0.0007933050825978
1691521720.9875307,0.11243316292126687,0.21008340378663354,9.830548070936926,-0.0015501886111551895,0.0004377477010479649,0.0010324647421929
1691521720.9975443,-0.016677040002556584,-0.027700068294288387,9.827120198494312,-0.0025209928371516433,0.0004839401216167421,-0.0013804166544014
1691521721.0075235,0.017598930999142167,-0.06336276028827428,9.796302020454808,-0.0019562420331698713,0.000638937445375957,-0.002481971025818
1691521721.0175805,0.012211251740371354,0.1829687890124139,9.893082244164171,-0.0032902630947847554,-0.001350011157779219,0.0023873211151202
1691521721.027647,0.14731957377914082,-0.33574348494376116,9.624110369154055,0.002151272855394456,0.0023398856273355298,-0.0006062942290464
1691521721.0375724,-0.10486060624048119,-0.04085144101577291,9.866285106075257,0.0018465486694551102,0.000182570603859545,-0.0023717173341447
1691521721.0475445,0.07070395345379407,0.10806026834363498,9.820880326654615,0.000985637520625152,0.000378144663040596,-6.054408976532847e-05
1691521721.0575914,-0.04595538738815311,0.23448579474551132,9.933418437766743,-0.003975335306980744,-0.0011090047377434005,-5.870705598689944e-05
1691521721.0676787,-0.02856574986825053,-0.21149957839287492,9.775524243304954,-0.00019381144161482344,-0.002059312321978214,-0.0009788510821545
1691521721.0776467,0.2220461867817528,0.03599994158001118,9.717601452150358,-0.000763015803975975,0.0016913034560605052,-4.453698301412493e-05
1691521721.087584,-0.155607393711086,-0.0536473003019917,9.887141992303286,0.0005870236794759394,-0.002218005732204065,0.0008417126348921
1691521721.097678,0.13550657980935726,0.1111688796452129,9.79628330999404,-0.0015997186340773362,-0.00011470774295864348,0.001308881937175
1691521721.1075838,-0.000673932129741656,-0.11084644630255039,9.797301558311638,-1.535442670751574e-05,-0.00039597122172864413,3.443789074472755e-05
1691521721.1175554,0.13074710103004114,-0.06045714400832311,9.72800292695805,0.0006805217744396412,0.0021901311081635455,-0.0004129574833224
1691521721.1275818,-0.07147296355041675,0.08583875551315454,9.893915520428239,-0.0004393062507638123,-0.00044252741599824124,0.001125946402053
1691521721.1375582,-0.09963455425215487,0.09556294213888543,9.907117507012707,-0.002963921445349714,-0.0026408364769475935,0.0004870628738989
1691521721.1475832,0.07374290230377849,-0.24079241945830285,9.70153257387212,0.0009845231423936318,-0.0006556235141585464,-0.0016165795702273
1691521721.1576636,0.15623530629652335,0.21057391247000565,9.810936549751458,-0.0026305097853441756,0.0015553410042563583,0.0001689350731884
1691521721.1675982,-0.11011295815753407,-0.059683408089935344,9.862778086833744,-0.0013836548944502517,-0.0012121857824096732,0.0001335343379741
1691521721.1776206,0.16681619607073664,-0.10228439932663981,9.692466862257824,0.001684093035899904,0.0013787688038511456,0.002334844114839
1691521721.1876078,-0.07679075174338966,-0.032272414675117586,9.851910947101773,0.00021672357484370122,0.0005756125779692927,-0.0014761379886204
1691521721.197537,0.03881672771029898,-0.017380506434204072,9.7875659237104,8.00188393419126e-05,0.0013098520318792872,-0.0023538245320106
1691521721.207559,0.04635824978424047,0.07216037502162823,9.819077241096345,0.00015041798273737565,0.000869515687659985,0.0009020853879609
1691521721.2175603,-0.10664067024778205,-0.014252490811401246,9.88203420338444,6.213392303209432e-05,-0.0017057759837155616,0.0006651319538922
1691521721.22756,0.018096583380632997,-0.11963183080997591,9.777492850873266,0.0007509358865874657,-0.0007763170204159291,-0.0024048752117688
1691521721.2375922,-0.0031977522174571234,0.06942834059062042,9.860346428797131,-0.000509332126698314,-0.0015746583702050767,-0.0019239418640518
1691521721.2476506,0.08515652961635385,0.0691182566834885,9.788330267982412,-0.001680557245671625,-0.00038292990669920243,-0.0009691497277254
1691521721.2575831,0.02101795870707653,-0.08803690673191507,9.781587731476634,-0.0007455257715494794,0.00045262864574521555,-0.0026775860193903
1691521721.2727857,0.06769763308726726,0.06380925154898401,9.816216378922432,-0.0003975672872343526,0.00010732146827838228,0.0017964909468991
1691521721.277595,-0.10349084894205075,0.020843982744020453,9.89417109882068,-0.001308030240549413,-0.0007934623118999893,0.0004613604663153
1691521721.287578,0.08110344330086448,-0.10973673870006917,9.733596318455543,0.0007762669117567187,0.0006780311406373411,0.0001100673374002
1691521721.2976594,-0.06016060837822487,0.014329699685138489,9.857720483920097,-0.000246688002028604,-0.0005591298881945329,-0.0010026719853068
1691521721.307566,0.09562153820120226,-0.16579567025051514,9.687892661533581,0.0029644864610697966,0.0013009331920259958,-0.0011405091233337
1691521721.3175597,0.018663065239127148,0.23349146365723844,9.899488616678257,-0.0016373462058135962,0.0009768027967229592,-0.0005526564515913
1691521721.3275824,-0.0565091026539704,-0.07156157242533559,9.824321650309425,0.00031135556275728687,-0.0009417270133154722,0.0006841444385917
1691521721.3376412,0.06741730837019552,-0.03295466380526609,9.778531629199314,-0.0008133701283576163,0.0008732370234763036,-0.0021213866736526
1691521721.3475783,-0.09155933189861952,0.07588677911133418,9.891480682527288,-0.0022427144167912684,-0.0015090811841426991,-0.0020200520254457
1691521721.357592,0.17178140674133063,-0.1287642390239858,9.693293552548347,0.0013544167642653008,0.001186169722102478,-0.0004222852609837
1691521721.3676186,0.03635699852173863,0.0757322105063629,9.830853097613394,0.0003694596527045531,0.0008862772812821839,0.0009970670046731
1691521721.3777082,-0.16497654802646258,-0.18775721049662153,9.844413220764695,0.0032424115527264576,-0.002487703358868456,-0.0008793706971938
1691521721.3876305,-0.008393901046595332,0.06915406253284781,9.864582641654481,0.0023114600099386077,-0.0036783221710095606,0.0005030861041722
1691521721.3975644,0.1606742380328605,0.10795045203678318,9.766752395455295,0.0002312559754461751,-0.0006690323671435593,0.0008674324174625
1691521721.407605,0.09388005023546785,0.10912216513518525,9.820649697305885,-0.002427111307129611,0.000694420203926253,0.0005962209227708
1691521721.417596,0.00014384648694164366,-0.1411180224366662,9.76336792383868,0.0013235009246595313,-0.00017206968936016065,0.0018661746556153
1691521721.427629,-0.043248246292599574,0.09227972448982691,9.873780410678572,-0.0016567227205178542,-0.0010195885911348911,7.616358680925936e-05
1691521721.4376123,0.0066804163018517925,-0.09140409078333334,9.79191205652293,-0.0004370674254806503,-0.0009629565183510496,-0.0012064551435197
1691521721.4476073,0.018252847958262822,0.07385996204960045,9.8434695613159,-0.00037857909013129407,-0.00227798808766793,0.0020792624830482
1691521721.4576344,0.09581718482379056,0.017608425612407184,9.78692162106333,-0.001327041270613372,-0.00040938260426831243,0.0010797539992471
1691521721.4676402,-0.09558427056138288,-0.13688900713062271,9.830576069889807,0.0007226210919513976,-0.0023454069536515037,-0.0006953491562763
1691521721.477556,0.07446479534022017,0.11028037828580363,9.822510507588973,-0.0012998363270389447,-0.0013772129516213592,-0.0001294733689884
1691521721.487593,0.016588484541076105,-0.06263345924037851,9.791745033581417,-0.00037522502769011027,-0.0013205933032953531,-0.0009278036620254
1691521721.4976428,-0.0016101189114552526,-0.16640487192564757,9.755325446148065,0.0025297327788761726,-0.001344759003475753,-0.0020856457728678
1691521721.5076013,0.17443404775723878,0.29317623186098674,9.820633102255945,-0.0025828162406434773,0.0010539214804229963,0.0002058047369336
1691521721.517612,-0.026972630350757493,-0.10280158628908032,9.803288825125138,-0.0006199802721570923,-4.6538500684931904e-05,-0.0001767819946417
1691521721.5276668,0.0006781081492926873,-0.0229722211776963,9.824717170848556,-0.00015617335270697228,-0.0005993720964551251,-4.7885436915833055e-05
1691521721.5376112,0.032719981384855525,-0.11466440260735254,9.756910626348615,0.00016644951854970723,0.0011395832115261558,-0.0036223077647174
1691521721.547598,0.09676595609924195,-0.04335909143501264,9.761370951835604,0.0032248899892094486,0.0012450312454886435,0.0004427320357625
1691521721.5576415,0.10439716192113117,0.22695577067621386,9.84083490229714,-0.0016790953289472612,0.003027195714129831,0.0003935442921919
1691521721.567677,-0.19921537198003514,-0.15646799169611542,9.883564543683875,0.00143266567826782,-0.0016677703113057508,0.0001182703102221
1691521721.5775964,0.1396695039025573,0.11191760683864398,9.785475288878782,-0.00043668695535800846,0.0004973529722938034,0.0008439428032124
1691521721.5876577,0.017153646871631956,-0.08279907971803242,9.793673779214226,0.0010452123382588016,0.00021201433611393912,0.0002430678262589
1691521721.597572,0.030333397004942572,0.07502973235273874,9.828626792409247,-0.0008907961191982772,0.0005528497451571566,-0.0001794057631651
1691521721.6076107,0.020109518214758232,-0.0658697959810953,9.794509000308459,-0.0009232267349306305,0.0011831829802708249,-0.0024980118930126
1691521721.61766,-0.047837468627752434,0.03240311577817339,9.862039636909921,-0.0004445101315828522,-0.0012762557805091415,-0.0001134483342776
1691521721.627672,0.06777399066053315,-0.0012951972694046512,9.797450722517265,-0.0014861151533023505,9.50267515484613e-05,-0.0016415597371543
1691521721.6376846,0.041074027063525066,0.07604149177340362,9.833604012834694,-0.0010971780410840464,-0.0009651940262695495,0.002027469189952
1691521721.6477575,0.09761577490216702,-0.13743849084938797,9.73254550113938,0.0004897822023408349,0.0012446447065160352,0.0001573473248844
1691521721.6576717,-0.04759762372176849,0.03960323975475627,9.863324869424309,-0.0004925802968544325,-0.0001761711636698684,-8.513182064242989e-05
1691521721.667639,-0.021214415092617747,-0.09984156713912437,9.796559412113206,0.001767559530978071,-0.0011540437996103326,0.0005813080036295
1691521721.6776383,0.15154144991656526,0.23725209282018567,9.829063399199496,-0.002675225136233334,0.00115784426168036,0.0016143213700251
1691521721.687708,-0.18174620656564613,-0.12590731952112102,9.889590641872687,-0.0009690299614796648,-0.002832311861365187,7.802693045042127e-05
1691521721.6976578,0.19638359958641333,0.06046223860818887,9.738198695035244,-0.002297477967940999,0.0007424777240928279,0.0003578052540523
1691521721.7076027,-0.0021803561797752898,-0.03972701024170805,9.81028923049195,-0.0022393569035081278,0.000604640041802906,-0.0008320599760646
1691521721.717661,0.11663954631054949,-0.16691618077258635,9.704154964951588,0.001494469454342299,0.0023510648776183677,-0.0004275226698974
1691521721.7276127,-0.006103087542185127,-0.0656061291932446,9.810871967669845,0.00239303409244685,0.0019356964624377582,-0.0012042164768809
1691521721.737667,-0.07498031547261125,0.1117644755151067,9.913570792818682,-0.00022883347306104588,-0.00015271009889340615,-0.001285054345035
1691521721.7477074,0.011781248147397155,0.0053853654896422205,9.825165803562383,-0.0007350743117591786,-0.00030879388800507824,-0.0018155298627699
1691521721.757707,0.03701121614476739,-0.004615598467593,9.798438165748312,0.0012896082692729052,-0.0013261845043697285,0.0021772354642143
1691521721.7676258,0.045244576507158615,-0.0056211381857869105,9.796101395371931,-0.0007499944600434212,0.0007264651776716135,-0.0021437284037257
1691521721.7776124,0.09022632216685657,0.11029524297522401,9.811953534896919,-0.0010830406795853508,0.0007178870458220344,0.0018445910803256
1691521721.7881162,-0.07986719305296841,-0.060475469665134514,9.842999630705213,-0.0011060957240806902,-0.0006086924995184669,-0.0007948109147856
1691521721.7976394,0.08902026937775219,-0.1286647224312315,9.73187616010855,0.0018446665728473225,0.0004057310873970184,-0.0001376507304395
1691521721.807643,0.05444802817402314,0.1684022750446405,9.848966735392242,-0.002306791731034799,0.001427555791299733,-0.0005921520957509
1691521721.8177092,0.04470471884364263,-0.2206278869267521,9.730914079088159,0.001649470328640249,0.0023786193986197034,-0.0020904723521108
1691521721.82765,0.0004994801428840695,0.17360754717043772,9.87563663715237,-0.0008151897766898826,0.0011325207158812164,0.0003629958640066
1691521721.837603,-0.06877999273640974,-0.06302614531153755,9.839796100510126,-0.0006751215591966293,-8.826026853570314e-05,-0.001439277638101
1691521721.847688,0.0012731129066589012,0.0180917931079349,9.840567658338507,-0.00010886086477852003,-0.0011335741759262708,0.0002307680818466
1691521721.8576465,-0.09599607781447216,0.0023092761995835097,9.878399873090203,-0.001434683740134193,-0.002985809667439342,-0.0014605120256329
1691521721.8676212,0.19573205594935136,-0.06745897911908696,9.711153659388085,0.0013920577607717667,-0.0005554150340828898,0.0014083178514828
1691521721.877672,-0.05065434696143988,0.04715786575837421,9.86975815493679,-0.00031636847482624156,-0.0016689021729823317,1.0599292463582455e-05
1691521721.8876505,0.010201524159288013,-0.04757571746922275,9.807979480951321,-0.0007913298865704975,-0.0011332127129073,-0.0024767758756662
1691521721.897652,0.09501157922457089,0.12177580349141236,9.814287645097796,-0.0031718090905515977,0.00022282488135535536,-0.0018959865871603
1691521721.907642,-0.0015172989914026577,-0.1766010567382929,9.773420976412385,0.001890504931300466,-0.0012833379968677284,0.0008510255987038
1691521721.9176335,0.1350585019849774,0.12099265362076661,9.798852498025717,-0.000678090660963199,0.0012230391146809492,0.0009109998039183
1691521721.927656,-0.13896327440793108,-0.029093151748249294,9.895075114006811,-0.0009627052433068374,-0.0018086031474027755,-0.0006029593957374
1691521721.9377625,0.15249708464504005,-0.024060352727577977,9.741889211756572,-0.00031898364360290096,0.0007935150275120529,-1.3993677103001177e-05
1691521721.94763,-0.12007358573750368,-0.03172631343331088,9.877780784060132,-0.00041917390556485336,-0.0016282889817058302,-0.0012682868134016
1691521721.957659,0.13511670714249338,-0.04384345841989979,9.740004450214728,0.0013328193039358288,7.937683671967462e-05,0.0004810815128711
1691521721.9676628,0.013165100214063846,0.14526249947452796,9.872750514447876,-0.0029177205228266816,0.0004343999256444302,-0.0019738640136802
1691521721.9776196,0.06372647223062201,-0.1726453144180305,9.732481893707277,0.0009472572208327875,0.0013549226623744634,-0.0015554992448324
1691521721.987739,0.019572863908144347,0.12820922388212044,9.864850678405134,-0.00037112281079348713,0.00046605605115403805,0.0006193026468371
1691521721.9976933,0.009121116606655105,0.0722816225214662,9.830745597231903,-0.002172310735093449,0.0004641951456489397,0.0005578504326967
1691521722.0076225,-0.03804030808132189,-0.18067564521012286,9.770447093492885,0.00035870192217851173,0.0001054447646430308,-0.0014213850687975
1691521722.0177035,0.1257148277430678,0.003142579044369872,9.76122952981602,0.0005258992627984853,0.002157729985487813,-0.0007027880953411
1691521722.0276003,-0.15323114343358615,-0.010067689343849363,9.899077657418227,0.0004860450792983399,-0.0014032921132179793,-0.00089763323439
1691521722.037658,0.19150246141903665,0.05491537528678292,9.747208740113448,-0.000620744353298582,0.0020113141864715016,-0.0004964136484796
1691521722.0476513,0.009460747894165145,0.012299799464922405,9.826306837811345,-0.0007190796778511237,0.0016715774620266915,-0.0002009771730537
1691521722.0576222,-0.09722812732632996,-0.010774317412010756,9.879604601406658,-0.000508588978455451,-0.0010523667021016274,0.0001678078236272
1691521722.067671,0.11889920305703605,-0.07881442628638827,9.725264958671728,0.0019426444018625923,0.0004433414125821178,0.001834887746836
1691521722.0776825,-0.04793431585519454,-0.15708317281053924,9.796452957542217,0.003017392040989744,0.0002712370168850775,-0.0019042078371877
1691521722.0877523,0.002220615925332078,0.04803578696291622,9.840921553408103,0.0017828464173958165,1.4920264195090807e-05,-0.0021940303001339
1691521722.0976005,0.03210968371476334,0.2193433544698855,9.883711743708357,-0.0017658726981176973,-0.00048575466458737826,0.0001011237303008
1691521722.107617,0.030581142332711576,-0.14230209191611254,9.769931133227324,-8.502969143632218e-05,0.0001728892695232874,-0.0017566779594654
1691521722.117669,0.18119477577915222,0.09500741560816471,9.77176311527718,-0.001450716376535067,0.0029169305212868,-0.0001391500433693
1691521722.1276462,-0.14366391326948924,-0.06067338605832219,9.88165300315966,0.000848159924405169,-0.0013082787291966876,0.002227147252879
1691521722.1376886,0.09894828255465377,-0.07241988913826206,9.75817863510655,0.00045625819957390717,0.0014197346585693,-0.0014400350361848
1691521722.147634,-0.031068719842979278,0.09580514585189488,9.873697618370784,0.00016532252464300832,-0.0007554657962864959,0.0018069424816621
1691521722.1576624,0.07653995171012062,-0.11721224326721853,9.738400937456817,0.002673545439860222,0.0002630495461957174,0.002116897984988
1691521722.1677847,-0.1340329617324121,0.1458890912715539,9.94714069351244,-0.0019487863063530114,-0.0021997582913584972,-0.0002255789901847
1691521722.177641,0.12170948916799643,-0.042901802199615924,9.751535064665855,-0.0005778893089111894,-0.0006660477627864168,0.0007865877390121
1691521722.1876423,-0.01720450525270736,0.04578197246892526,9.851337310839519,-0.0010114968382759612,-0.0018257381425052142,0.0020226321333301
1691521722.1977324,0.024693785628164166,-0.06246577339508375,9.79428848170771,-0.0007760712914344211,-0.0013123894733021784,0.000239707556202
1691521722.2076628,0.07369217647465084,-0.09667405917616918,9.752324821691527,9.342381650432383e-05,0.0004817000106641819,-0.0016385869554961
1691521722.2177403,0.08614839710282124,0.13098792444401378,9.810787825366093,-0.00102827365891134,0.001060611337473848,0.001305161885566
1691521722.2276473,-0.09265317318551688,-0.0960570809543811,9.849350816534596,-0.0003722478193088004,-0.0005758965888590415,-0.0010522246327037
1691521722.2376838,0.004179500380025321,0.067055966555407,9.846886825320276,-0.0004977823895836019,-0.001837285688560037,0.0013643718969523
1691521722.247707,0.19170310167432006,-0.0026930003696027274,9.71995569750867,-0.0010245590825586168,0.002136855863632799,0.00048184799135
1691521722.2577589,-0.09478114267432526,-0.12004647179538659,9.843769567377349,0.001227384690825231,-0.00034045213458181063,0.0001189884763424
1691521722.2677224,-0.0246588339398041,0.03812750100967565,9.854919102365095,5.431498753677836e-05,-0.0011291159092133788,-0.0004904505064497
1691521722.277823,0.10966716754484246,0.00395673479154374,9.762156471275311,-0.0001252807288930268,0.0009089993079422369,-0.0003906252993056
1691521722.2876575,0.041992524714542574,-0.06002818646468996,9.774753479476365,0.00157161042421373,0.0009522174110882334,0.0005641783621375
1691521722.297697,0.04777029273324275,-0.03819512742855831,9.77782324146782,0.0017660667153703783,0.0018813134766076341,-0.0004371469573835
1691521722.307827,-0.10184435481126544,0.11240221801336966,9.914648431490205,-0.0014045100032597578,-0.0004764456022069868,-0.0013197035029316
1691521722.3176987,-0.007881710535396314,-0.11219929197420307,9.78228850667491,0.0015183467531282534,-0.0014409061329859264,-1.7334098347503244e-05
1691521722.327689,0.029772988617405176,0.16713824808162142,9.86488583800273,-0.0023172086794460557,-0.0012088428325751572,-0.0003611888702745
1691521722.3377447,0.09666662208103596,-0.048139207765666686,9.742361281526126,-0.0005629745597239693,9.204221685747223e-05,0.0011408666635451
1691521722.3476586,-0.00628533046219738,-0.1719284798262036,9.76933682127286,0.001962383886501188,5.368355032273731e-05,-0.0006122793735722
1691521722.3576505,0.12259299001215941,0.13497993900423708,9.80120245568632,-5.9699259511402384e-05,0.001499833317274435,0.0013945466465064
1691521722.3676982,-0.017783566844366723,0.029337300748307177,9.852057857212225,-0.0014328353199034227,0.0009380510070810223,0.0002318738527809
1691521722.377695,-0.21773919564750308,-0.3647012353673163,9.820707697944933,0.004264653071943993,-0.0028293379391367978,-0.0033361710108602
1691521722.387667,0.2354154652621172,0.4746687312117081,9.8521940329188,-0.004200356170074869,0.0006675819996111891,-0.0002829627798656
1691521722.3977654,-0.03508043624782097,-0.1417534642422365,9.80455836967983,-0.0004471232008834455,-0.0012501799777146637,0.0009821589022157
1691521722.4076867,0.09055405709504825,0.09685414597936604,9.822034297016424,-0.0015121813399694253,-0.0007565714202228331,0.0027073289068629
1691521722.4177158,0.00899373144396083,-0.093164939412723,9.788489067915393,-0.0010208153354073833,-0.00026148439077647556,0.0007150644644843
1691521722.4276588,-0.011634262777557566,-0.04665821083584026,9.810904104739144,-0.0011482094573168804,-0.00039709018513619463,-0.0012723899878347
1691521722.4376874,0.035439565130202265,-0.12250015076143951,9.757937563967769,0.0018331206147052049,-0.00033896646468444024,-0.0001075101051265
1691521722.4476469,0.04104075467445216,0.07429077276735614,9.825522245252134,0.0009033017390199975,-0.00028085882716831387,0.0011129139359672
1691521722.4577212,0.03102446189733518,-0.08626320166217584,9.79512973279895,0.0003113410155585807,0.0013377813799117513,-0.0036364559516096
1691521722.4677331,0.010483209046495419,-0.03582358221131751,9.803751705348773,0.002158356804236854,0.0003807345234075266,-0.0012731420308137
1691521722.4776356,0.08556540206424847,0.17905573432933936,9.835095100929431,-0.0003912347887935713,0.0008203369259361459,0.0012045440210476
1691521722.487659,-0.13786492134364997,0.0027556189116777793,9.90328490903255,-0.000698200073480263,-0.002416567930476697,0.0009516111870742
1691521722.4976237,0.15192844429376112,-0.08040445342226035,9.719640241494583,0.0010295718755293812,0.00023622379210715212,0.0012224457216779
1691521722.507722,0.053935700197251024,0.057940548363074405,9.82844109389045,-0.0007220677742240053,0.0007745231264424512,0.0006755238549066
1691521722.517706,-0.04836360044301684,-0.03523476522237389,9.840469753842683,-0.0016343536190945563,0.0002913563746639434,-0.0024894362747455
1691521722.527674,0.09811394291054171,0.09065907378043501,9.798406625412794,-0.0019156345527224063,0.0008538614248134093,0.0008230941869532
1691521722.5377786,-0.05626734274069771,-0.08796361415046226,9.83073928153173,-0.00017778316716793224,-0.0009111727817690059,0.0010808759300834
1691521722.547711,0.018368945264522568,0.05625358283527636,9.828912538858093,-0.002410720313152809,-0.0003833188087822672,-0.0006476653240407
1691521722.55769,0.08883933010861456,-0.17648351469236806,9.718140596475399,0.0006462463246802761,0.0010438526731117261,-0.0011930503848726
1691521722.567699,-0.04691234334095534,0.16845569793319667,9.910729310256867,-0.002021057661324129,-0.0010717468817380553,0.0004576348849786
1691521722.5776863,0.0021247306936505142,-0.1061404312368537,9.791632873032208,0.0009208105505034634,-0.0018402679772012008,0.0015253006106921
1691521722.587718,0.007305781994874898,-0.037691494376980404,9.806357080511066,0.0001541438377720909,-0.0014491063230000875,-0.0008182740736538
1691521722.597693,0.16527171057818235,0.30513225445759046,9.833381188847945,-0.0052955924342200115,0.001012923050028433,0.0011989851275847
1691521722.6077154,-0.051214836437949336,-0.35430519252483894,9.734306152392563,0.0010437357955398842,0.0001859277540501086,-0.0007806501550386
1691521722.617717,-0.0624995010781212,0.09528101002632712,9.894888872157372,-0.0020165932934147037,-0.0010993125629086512,-0.0026790526196146
1691521722.6277678,0.09860517188869725,-0.1931659898197622,9.705473149171938,0.001973205217233833,0.00046943948052517747,-0.0022651619244153
1691521722.6377337,0.04128903723408305,0.09219688451558192,9.826771901548808,0.001368193559226529,0.00014346403091566922,0.0001599716754844
1691521722.6476717,0.030499305231898432,-0.16547542471980464,9.747654299555494,0.0037225876488826983,0.0009667508197408937,-0.0019515313640023
1691521722.6576512,0.04365430089851195,0.3575517010414828,9.927343192428385,-0.002189066515305467,0.00020342920407495423,0.0014649535563056
1691521722.667723,-0.06122742064879351,-0.22811060500796965,9.778211184509889,0.0009673815444018336,-0.0004272513899860117,-0.0014031385969156
1691521722.677663,0.12696142345867592,-0.02839606307147627,9.751438634738276,0.002970810786740299,0.0007067526658303701,0.001054805446356
1691521722.6876645,-0.12241374194404436,0.11426306796861024,9.928786921977045,-0.0005644695027828479,-0.001839895620549289,-0.0005843286368782
1691521722.6976645,0.1575151351433554,0.05773101834674071,9.762340783389355,-0.0008367981152744116,0.00036324844473714115,0.0015465482695707
1691521722.7078378,0.082914462159837,-0.15609446898484033,9.733582742589347,0.0017157701241329948,0.0018123891861919702,0.0003432632341263
1691521722.717706,-0.37402363600558985,0.033944609570010865,10.045980739884609,0.0003016817640977152,-0.0061492996370144,-0.0004804037477607
1691521722.7277184,0.4182556944331398,0.07160223461567708,9.623088330365942,-0.0008308278660719196,0.0018745938452274546,0.0003976571873044
