time,ax,ay,az,wx,wy,wz
1691524746.599475,0.06661542290664137,0.022696918559712984,9.783721313624845,0.0008495878806459937,-0.0015474542496586197,0.0009088781260011
1691524746.609509,0.010057224938993156,0.06106526533973847,9.836721012748768,-0.0010774927323931717,-0.0013645363465026215,-0.0015837081993872
1691524746.6195278,0.039291305847798996,0.026846896772607876,9.802385305897653,-3.403925343038429e-05,-0.0017981585234058464,-0.000152450153319
1691524746.6294975,0.0044249853946762546,-0.034981407383571375,9.81179494929963,0.0019534011989558726,-0.0029164901501756843,0.0004599986312036
1691524746.6394851,0.15257213351848836,0.11474574487448636,9.782557714881332,0.00016749758289487333,-0.00040490300584614916,0.0001843158568312
1691524746.6494532,0.08757122110546071,0.12787172743250766,9.825422975026566,-0.001397886393471321,0.00020789878699896598,0.0007118082319443
1691524746.659475,0.027753307700367626,-0.1442302552368806,9.763544507052364,0.0018576636438269727,0.0003885907574580529,1.0741310479252426e-05
1691524746.669538,0.019204968524815125,-0.029197281551327742,9.801003111195158,0.0019757491790492144,0.0006069003000491925,-0.0014767802606279
1691524746.6798637,0.02607170836436802,0.19959900790478446,9.852244461800115,-0.0011266755578508113,0.00035207545898227887,0.0003493450528999
1691524746.689475,-0.049602996331631184,-0.03431152406838036,9.843228784278526,-0.0013755167315295392,-0.000359479979151025,-0.002053476619249
1691524746.6995308,0.06312921718268508,-0.031856757342791024,9.764021877126472,0.001327175060175031,-0.00021527624950276426,0.0003169449808133
1691524746.709627,0.012787706528517122,0.008455947802859702,9.816966841878086,0.0006905189904908778,0.0002671352803627858,-0.0016235722980404
1691524746.71954,0.040502693932271835,0.16717311178046387,9.85040601106986,-0.0018490173947464954,0.0005059296613247949,-0.0009448150924349
1691524746.7294972,0.03732725911012226,-0.061130520008028134,9.759152662670092,0.0013543695480595908,0.0003606523058204789,0.0012542244055743
1691524746.739632,0.008447105158457858,0.035176103411524294,9.822663646814831,0.0014158320181299649,7.120253499938216e-05,0.0015365971373917
1691524746.7495253,-0.018234670952474257,-0.003652158478025203,9.834779406246238,0.0018990062354954937,-0.0006712549212435993,0.0008801930123531
1691524746.759489,0.058198572302460054,0.1237370093770937,9.826258314304452,-0.0003153025729549527,8.90718841303835e-05,0.001204329364345
1691524746.7694747,-0.10507602035161048,-0.0747239669947616,9.850698685032839,-3.883044144737165e-06,-0.0016387012720617759,-0.0023429295799637
1691524746.7794745,0.03418173199745376,0.16873295103735772,9.856076146605533,-0.0028984111545274772,-0.0016543716886294813,-0.0022278141516203
1691524746.789495,0.24037070893145052,0.0511807027452049,9.706691896663177,-0.0020617139635353294,0.0018928563048521338,0.0001612120720615
1691524746.7994766,-0.020160981165743122,-0.09461386673830768,9.800883940037371,0.0006100668706022299,0.0004183858111148942,0.0004752657439616
1691524746.8096075,-0.001633895039704431,-0.06695646069533671,9.805802127233807,0.002933147525325403,-0.00040971840448310694,0.0006917253665683
1691524746.819517,0.008928578493431597,0.21096302840397574,9.900812651389044,-0.0010905451439422265,-0.0011019044919375427,0.0004082083649059
1691524746.8294764,0.12642802539789366,0.04686907051359407,9.765142667476756,-0.0015521026541700498,0.0009358228960620336,0.0005050456563999
1691524746.839481,0.04792776436756613,-0.11958698682193347,9.741916007729404,0.0015782429485667034,0.001419377841578177,0.0004964742290844
1691524746.8494906,-0.11711048125791165,0.20153902538843135,9.943483431200965,-0.0025635263667005046,-0.0014535869224648196,-0.0006516341638694
1691524746.859516,0.17860931154406404,-0.022426597253618157,9.707553310718682,-0.0006394045999486652,0.0011403498089712948,0.0012307486374715
1691524746.8694806,0.025537483449080762,-0.10228249151182574,9.762274196573703,0.0011688339769070988,0.0017829762641767889,-0.000343180592818
1691524746.8795576,0.07426423542496288,0.049482254893166586,9.787549876606514,0.0014631544592780142,0.0025861361293565447,0.0005576074070354
1691524746.8894763,-0.07532451523237392,0.07401935137472032,9.883285334751122,0.00010302985222229763,0.0006300009780352823,3.382239426126966e-05
1691524746.8994858,0.011896887406437807,0.05502179387744292,9.832010653664932,-0.0005946945414303763,0.0004064656433380658,-0.0004683512781689
1691524746.9101353,-0.06725378592981807,-0.03660732635161043,9.844116736515186,-5.713922580258825e-06,-0.001282206187555621,-0.0021238713345433
1691524746.9195044,0.2126855122461037,0.26000742947864236,9.78862456350523,-0.0023765075824990637,0.0010416238423498027,0.0016453796595392
1691524746.9295366,-0.081988229116486,-0.10405151170415568,9.829710429903031,-4.03737111239621e-05,-0.0010270284924881836,0.0008582166226637
1691524746.9424558,0.06698016272286265,0.05912232078619921,9.80119040110173,-3.0690987297774235e-05,-0.00043320712329191586,0.0017690521379058
1691524746.9495182,0.0711170803569056,-0.0962910357137223,9.751213943447635,0.0014657618681247096,0.00041578014573879666,0.0009696090599113
1691524746.9594991,-0.07575978282005205,0.2013642263546038,9.931802569477345,-0.0019503321950130794,-0.0017530922069878788,0.0008433218934164
1691524746.9695115,0.19206267745038658,-0.06315673647360714,9.700606339347521,-0.0005336155760605889,0.001719632032612908,-0.0001494673599431
1691524746.9795213,-0.11353171200297059,0.10396433006066474,9.910087756593818,-0.0010026112719114283,-0.0018596275558832851,0.0018972031719108
1691524746.9895215,0.10764633912385507,-0.07029762649740258,9.744149500611154,-0.0015197189063779852,0.0014063215587571726,-0.0024945412116999
1691524746.9995203,0.059801981174465176,-0.00985494748888026,9.76776291289029,0.0007724503030688804,0.001249137620105938,4.722144855758437e-05
1691524747.009533,0.028792679106266646,0.0688961508662523,9.829872087557867,0.0004301285690127927,0.0006921946362316176,0.0011219715122656
1691524747.019707,-0.04848550033085515,0.10906225102621805,9.885003840788725,-0.0022748035452324687,-0.0003195956822635948,-0.0006766007102037
1691524747.0295289,0.02922316987301754,-0.026771723649376064,9.79250398073952,1.7168407196635834e-06,-0.0008992447535473751,0.0011651870043074
1691524747.0395272,-0.033599723945527425,-0.10253074140162319,9.807607000260628,0.0009177530760156168,-0.0012214792932968052,-0.0017431585404033
1691524747.049497,0.09995823017302788,0.11264932584426492,9.792256697224742,-0.0006207774120168375,0.00021572861536715506,-0.001065521715855
1691524747.0595002,0.022666523292264682,-0.08972602760251015,9.768018790539495,0.001988051359460651,0.0002153495049213543,-0.0010521055485064
1691524747.0695074,0.0178492036260715,0.03540000714111305,9.824496740812478,0.002257013913867318,-0.00025626431539921697,-0.0005208771728853
1691524747.0795138,0.035761923725040196,0.10210885417653508,9.82318638841407,0.0005236298821054784,7.081937294320314e-05,-0.0008297129354382
1691524747.089502,-0.03751304935574489,0.04178816104185711,9.854820222438637,0.0002088592889568195,-0.0013854033480803004,-0.0008326934005076
1691524747.0995307,0.12681955244165732,0.11043949492556429,9.780775269801662,-0.0006829885777865735,0.00020343825192829727,0.0009178287762274
1691524747.1096778,-0.08600517905972759,-0.05983330387055536,9.833531085311154,0.0010105309998492149,-0.001980327505749825,0.000576966110902
1691524747.119507,0.15327091408545027,0.011182314929596707,9.732817369486064,0.0005996192617950148,0.0010885703975303854,-0.0004851205560321
1691524747.1295116,-0.021199532973849407,0.046110922452019684,9.844798064928527,-7.687680812624191e-05,0.0003643651834444695,-0.0013642962842191
1691524747.13954,-0.01420805739309166,0.003045039863583065,9.838009078961488,0.0006227307275175663,-0.0010601762868096302,-0.0009496575041616
1691524747.1495025,0.12355506588663676,0.1545736302864893,9.797649665109166,-0.0017234375951980555,0.000845306269059664,-0.0007764410513395
1691524747.159574,0.03566968638246361,-0.08970553129437438,9.771791932873379,0.0013797004277316786,0.0005975752480857769,0.0001425923726578
1691524747.1695025,0.035136120322116014,0.11204531419891448,9.839362154128459,0.0005862116907288781,-8.899005969012298e-05,0.0018718710814659
1691524747.1800284,0.07053860182527874,-0.04099613185596747,9.762889296860719,0.0009021138437588167,0.001366119762963198,-0.0005759907473752
1691524747.189494,-0.0030183341882485835,0.1464414952310952,9.879237406146961,-0.0012768201285990018,0.00039230796295302005,-0.0003878909449035
1691524747.1995037,0.07683511168585562,0.1654794387252891,9.822432173920673,-0.002745327318034324,0.0006206597048210346,0.0021322702121046
1691524747.2095397,-0.010468342636238264,-0.2915112187381269,9.717510771111698,0.0031879523838171564,0.00033309630961588015,0.0006633989576307
1691524747.219517,0.09218636259531605,0.21823918402102324,9.836749088640458,-0.001419475189572095,0.002241157285175316,-0.0010167378752435
1691524747.229512,-0.017574908065395193,0.0769148380583898,9.854291796680792,-0.0017767476859729973,0.0009853793711256445,0.0001407528941576
1691524747.2395122,-0.06975969352412245,-0.04392981142121748,9.84444974400979,-0.0005265243330371162,-0.0008057402628455329,-0.0004635095649341
1691524747.249503,0.1392369767804158,-0.07342703629581088,9.722934169017908,0.0017913353616092662,0.0014242000968374463,-0.0001919849130267
1691524747.2595267,0.047354343442159476,0.04992195709948118,9.796687717882623,0.002598605751842866,0.0013430328200110286,0.0024485190113132
1691524747.2694962,-0.02635103688377117,0.048859176745646486,9.855511727091855,0.000837295750451165,0.0008915197024125963,-0.0003930786444748
1691524747.279575,-0.008523260325651403,0.07902981843757588,9.847352708086401,-0.000871878294597186,0.0005763407065536855,-0.0017282473674918
1691524747.289529,-0.1017290746180474,-0.009937057046772472,9.852469747631398,0.0009796155094701697,-0.002592754704510011,0.0004681821626668
1691524747.2995248,0.14952587062302822,0.07159534627219855,9.776839974361158,-0.0008215773682000294,0.0006731783643566515,-0.001728629442578
1691524747.3095706,0.14301518637838884,0.05861899889756063,9.76788554199692,-0.00044271884848198003,0.002380129037702862,0.0001228660292049
1691524747.319534,-0.014822993481540897,0.04681354255078311,9.846952551802115,-0.001340147518208181,0.0017691790473454531,-0.0008066056582088
1691524747.3295257,0.006033445788367092,-0.07629517314219071,9.790783800752205,-0.0002307643239428339,0.00186454686169721,-0.0028819709370786
1691524747.3395436,-0.051838082860023636,0.12280559718707372,9.884959049483404,-0.0014600986439072677,-0.00033337732730593256,-0.0012197426806146
1691524747.350186,0.11268514519981936,-0.007791639321793101,9.752946635169872,0.00022411303214376049,0.0009548335748514165,0.0001209979125355
1691524747.3595307,-0.03629850761900886,0.17249112768362887,9.898907371517494,-0.0012834933651751149,-0.0012784835894676949,0.0027920273312424
1691524747.37093,0.02006599132321462,-0.08757383377748575,9.784869896447283,-9.091348905283695e-06,-0.0007614052576863915,-4.851338983872643e-05
1691524747.3795238,-0.055383800658847016,0.11973347641157969,9.890293679467007,-0.0026216189950783913,-0.0017221626155590707,-0.001665668776905
1691524747.3895206,0.005597073115067003,0.00033357287473413205,9.815489419605361,-0.00174916558385617,-0.0024564269144456887,-0.0010133629950637
1691524747.3995855,0.17513830804281055,-0.03032736458938007,9.713371621337526,0.0013741098185575185,-0.0005006386005098732,0.0022936073544492
1691524747.4095595,0.04106032576813926,0.08171022129108643,9.81772818969492,0.0003541257727116526,-9.533007190105428e-05,0.0023405192366858
1691524747.4198558,0.013460256776921805,0.05792783457587526,9.83062955306642,-0.0011620622327108024,7.119103771263666e-05,0.0010288533265061
1691524747.4295695,-0.0967786438364688,-0.007831328627585158,9.855247343163596,-0.000396512610201689,-0.0023059202000173342,0.0009740781568047
1691524747.4500887,0.031353205280145555,0.0418208000953328,9.813696893648428,-0.00292673948820303,-0.0009290380830507047,-0.0017457450560236
1691524747.454009,0.2596582373393012,0.08586919348983939,9.707098632613521,-0.002932702284333999,0.0006515749261304455,-0.0007645056868846
1691524747.4595387,-0.009624072883676185,-0.3491225084613988,9.701037531492677,0.0011118555743121605,0.00041207463824545455,-0.0013195688190812
1691524747.4695675,0.007030872778439623,0.11482411623462616,9.860400192095023,-0.0003745405819112232,-0.00038814273332583193,-0.0004061453330273
1691524747.4795396,0.09461570095012653,0.0843809762579995,9.796253135669435,-0.0004039655032876561,0.00029843645608921437,0.0016725660132301
1691524747.489617,-0.06576782126143182,-0.024163737885707515,9.84888817438261,-0.00043525476679983445,-0.0010516021372259092,-0.0004061336914951
1691524747.4995656,-0.011343145939771196,0.11030997511335998,9.864772212550358,-0.002346328070329436,-0.0019870267583665157,-0.0004106241797039
1691524747.5098827,0.060822113311935405,0.004455599932360643,9.78784317331818,-0.0005309971559206555,-0.0021654738530026574,0.0022101248212215
1691524747.5195234,0.08540637519472828,-0.17378268652516374,9.716384508386465,0.0032408601189093333,-0.0009823216569627253,0.0016721908939593
1691524747.5295384,0.042685219448889734,0.1392061276863004,9.836546834258977,0.00039995947455935234,-0.00011730846454623359,0.0005415827797783
1691524747.53957,0.07641075450793312,-0.1031274538006238,9.751645945463878,0.0017998754021556183,0.0015825868901356683,-0.0021097136015946
1691524747.5497751,0.030460312475456806,0.21380980920235493,9.878010382398903,0.0010768479998317776,-0.00043134258692645734,0.0039110891700779
1691524747.559533,-0.04944660533025238,0.0047609769856736435,9.839321790236161,-0.00028400659889146025,-0.0007826512013555676,0.0008179935282619
1691524747.569584,0.1771113331165274,0.13410980623529786,9.761161753261888,-0.0023012608224861593,0.0023249888781548553,0.0011953639475627
1691524747.5796187,-0.05765659494405874,-0.09986871176966933,9.809579008996876,0.00011422628030122055,0.0008236970111539915,1.929073529890069e-05
1691524747.5896392,-0.008461338283802602,0.11880688866790633,9.867144024783917,-0.0018542232396349088,0.00019300246847101624,-0.0004724585271383
1691524747.5998151,0.1401325190175588,-0.03531510185391945,9.741673312047302,0.0008987702784233095,0.0015419338984046663,0.0019914629117642
1691524747.6101966,-0.09078686596382865,-0.006269571276760473,9.843513698946776,0.0007326151601866119,-0.00023054732649300017,0.0003333525562716
1691524747.619561,0.08084532389171793,0.08676364160691884,9.7985153629415,0.00010602064340255071,0.0005115225518108981,0.0013555452858504
1691524747.6307526,-0.02146229008050859,-0.0014629872837632013,9.833307511427657,-0.0014116507067599288,0.0005830322239015455,-0.0026375988784188
1691524747.640794,0.07402641979476379,0.09480417148674539,9.797576776101595,-0.0016012850551431856,0.0008747298673023012,-0.0003446790908406
1691524747.6496284,-0.04268295950303227,-0.06476829852987126,9.822440320656117,-0.00047847086948894817,-0.0001195469010417366,-0.0015080836421752
1691524747.6595562,0.08462333107766505,-0.04335332570987068,9.753907257127763,0.0018040194240433976,0.00040347082154425115,7.515786616703758e-05
1691524747.6695957,0.01736619990662914,0.07604367332624556,9.835051021834708,2.7033406814344497e-05,0.0005420520275297809,-0.0013303938141966
1691524747.6796005,0.04167562502842041,0.2853613500502449,9.899663396567577,-0.003678119599602216,-0.0003143795758886351,0.0013089826786831
1691524747.689578,-0.04239205529742866,-0.3150867333063384,9.72676004872844,0.0026202296315365517,-0.0012765937052172881,-0.0003193319828192
1691524747.6995652,0.11584735559226383,0.25953877715682283,9.832662215408128,-0.002790357926089286,0.0010583958637296138,-0.0010763546272123
1691524747.7095892,-0.04228984589460993,-0.09784310697279783,9.802721863346544,-0.00011189203478094671,-0.00024953376324504,-0.0012536325777823
1691524747.719614,0.08098169675239911,-0.005518144729226786,9.777497112524038,0.0011811377017157739,0.00037071362239975505,0.0001232240063195
1691524747.7296002,-0.024513970069284453,-0.06370284299033618,9.80336759052141,0.002796047842505247,-0.0005278186198235418,-0.0006877832167724
1691524747.7395575,0.07639020406861415,0.1909149364235722,9.835044720892398,-0.00021957674966971354,0.00023995338015492306,0.0001343949877714
1691524747.7495508,0.02125640812897171,0.04991489552691969,9.815592529959781,-0.0008051996494041782,0.00026043137673724566,-0.000295507121546
1691524747.7595718,0.12091193215376697,0.051084606496971205,9.767781575513492,-0.0011896353905094586,0.0021055708323886833,-0.0004132187279815
1691524747.7695713,-0.07098735793029134,0.1135855422488261,9.894372584075855,-0.0019488449822429158,-0.0006589708589701738,0.0017347618884464
1691524747.779558,0.025437614448042597,-0.18305623080471936,9.743089417324146,0.0016766088058503955,-0.00026000604701600076,-0.0001327221800515
1691524747.7896426,-0.019179540852729195,0.044391615143221916,9.834611845704773,0.00035562384278108847,-0.0005043782349844764,-0.0020113761822635
1691524747.799606,0.23270473974519723,0.14716545469918613,9.744942171662643,-0.0010029717313200974,0.0029638768155022858,0.0001511513435339
1691524747.8095813,-0.11684952806108909,0.10373353112749369,9.920796645350672,-0.002272948987854913,-0.0003426967845598416,0.0003981465304327
1691524747.8195658,0.048062576008163674,-0.0012611661585381884,9.795668487064276,-0.0005004481230239694,-0.0006604582957916567,0.0022257764537875
1691524747.8295846,0.040902625627867006,-0.012177099150851202,9.782843724792947,-0.0018438190099955433,0.0011295544469548714,-0.0019841606083268
1691524747.8395696,0.013633598181001705,-0.045919040618449654,9.80196439535742,-0.0008819000729025295,0.0010382797037692235,-0.0030779212067777
1691524747.849666,0.023206286303605352,0.09149065499230497,9.833755012827849,-0.00021658764147597663,-0.0002752606630349239,0.0001228465878461
1691524747.8595643,0.057320615749430606,-0.03235083034705423,9.77000628590954,0.001447498406430592,0.00023772472518523419,0.000759523641836
1691524747.8696227,0.012254605210826832,0.1261549021479733,9.855203510629169,-0.000812268628424568,-0.00010128769432939847,0.0007203886232396
1691524747.8796582,0.02385745593919072,-0.048150315884885476,9.775370666620429,-0.00021250443659510889,0.0005379803480902901,-0.0009924904263521
1691524747.8896017,-0.014976697096015892,-0.10709827924436904,9.788993417234945,0.0022946518437983255,-5.254042912417987e-05,-0.001988660991838
1691524747.8995826,0.14757627835954953,0.07284871360470578,9.763123588059733,0.0022003792198797465,0.0018634445734298,-0.0003886066663021
1691524747.9095948,-0.1656374998121204,0.17169163449848054,9.974558559430116,-0.0013472043211973516,-0.0021144422193449808,-0.0012942501163984
1691524747.9269829,0.1133217698867128,0.05263506155035122,9.777167301923232,-0.0013650841529624144,0.00022542776188091832,-5.557886855104676e-05
1691524747.929665,0.2076880615980386,0.06173615057495015,9.712739100762414,-0.003099564713214457,0.002202407945157667,-0.0028231444123143
1691524747.939656,-0.027278106927631548,0.11424003156122585,9.876060385711261,-0.0023802241034806162,-0.0007714657589696031,0.0019400520430003
1691524747.962815,0.029646079152861746,-0.005492093108435071,9.794089501451172,-0.000706462977092347,-0.00041384159791310246,0.0017675635351856
1691524747.965207,0.13021487833031475,-0.34581098667890503,9.639197739568948,0.0017686145302188803,-0.00031065112447832793,0.0028251928922777
1691524747.9754865,-0.0018167792704388691,0.20601383943360504,9.900801322117736,-0.002861541420751411,-0.0007156032813643268,0.0007859472132345
1691524747.985946,0.003980932072495134,-0.10111764236311448,9.775307135708463,-0.0005310000253283634,-0.0007770471575206833,-0.0004173146846646
1691524747.9897645,0.320096699167783,-0.20577788778241873,9.57528314402764,0.0007788190363549342,0.0019509681265694149,-0.0014585424034799
1691524747.9999423,-0.056307958469606734,-0.04417453457962565,9.823222871998187,0.00216499254847407,0.0005119056667817317,-0.0018608614156896
1691524748.009619,-0.09448557076572567,0.1314808645495334,9.911916993808823,-0.00019683282139870744,-0.0018156699643845585,-0.002299337629875
1691524748.0196426,0.08500987974599045,-0.02516525380393929,9.772080318473375,0.001153598501697007,-0.0008608790066782213,-0.0023559543590004
1691524748.0296211,0.13533168714516236,0.0676141523483077,9.7550675502338,0.0008231278072441437,0.001317306376093786,-0.0014402877825255
1691524748.0396085,0.019233893438267553,0.1309244287386103,9.86129353320077,-3.405316756706409e-05,-2.044357015895573e-05,0.0009163415995949
1691524748.0496068,-0.0717739436797394,0.029622651896785486,9.872595596424969,-0.0009217718737992459,-0.0016290334362239714,-0.0009962287551666
1691524748.059598,0.1147225771245726,0.04813657132968936,9.772140465383446,-0.000306737239483097,-0.0005099534925669034,0.0013361794588213
1691524748.0695984,-0.01764433590592908,0.06792223932880352,9.850488326825866,-0.0018415541283806369,-0.0010721026490204137,0.0002331172761564
1691524748.0795736,0.1726362231971167,-0.05442118464108052,9.713217151576323,-4.5240979904142455e-05,0.0018474119499497018,4.42358612140108e-05
1691524748.0896242,-0.10220699896791517,0.030076654538620202,9.889680443629809,-8.340320273945726e-06,-0.0011030199057913725,0.000167549838597
1691524748.0995862,0.0388078348754445,0.12020918756870706,9.83362952338565,-0.0014355003278486986,-0.0013172263716517561,0.0011700246793857
1691524748.109726,0.09995100522861362,-0.13197700925543004,9.727071998484378,0.0015786136714235558,0.00043293703684015044,0.0004294276184459
1691524748.1195934,0.036635372906432526,-0.008438345577092833,9.786084044412862,0.001032867710099061,0.001402992800473953,-0.0018217488943541
1691524748.1296077,0.06757341041003422,0.16965764394972596,9.845078296636517,-0.0018002451371711724,0.0021290436632354745,-0.0015613362013305
1691524748.139567,0.009792189197637677,-0.0053006972474665395,9.814125081563363,0.0007724842848097328,0.0006392915330213644,0.0014397165539498
1691524748.1495774,-0.026673790825348966,0.11896050112415466,9.866623744502219,-0.0023630954209845315,0.0003576703580271694,-0.0006281671632955
1691524748.1595955,-0.045864954482516616,-0.09003825561945879,9.819072224122683,-0.00036521384005933766,-0.0009629593672057088,-0.0013493918633962
1691524748.169604,0.22316098784722402,0.16405369852824114,9.743029167213402,-0.0019957817031359707,0.002471761935579446,0.0008936058909689
1691524748.1795964,0.08365114618266083,0.00744044524455881,9.795090711205523,-0.0004777128197452258,0.0027716443823581956,0.002243301849166
1691524748.189617,-0.09793698943590438,-0.0929885940534042,9.830348500939122,0.0007672391347541344,0.001099756026445909,-2.133786277273408e-05
1691524748.1995971,0.08112997656601958,0.024926198364844936,9.770192526169659,0.0017440070432303285,0.0017382815246184094,0.0013060097260399
1691524748.2097266,0.05661488103760759,0.0799288000816013,9.79756481288405,0.000658105677589949,0.002514979551402564,0.0013250030058493
1691524748.2196298,-0.0860329023590606,-0.06372863894700641,9.836549212092761,0.0013927165239074175,0.0009742158688089829,-0.0006952342630306
1691524748.2296703,-0.08497185388122716,-0.009541399243886597,9.86760363819615,0.0017690169195444673,-0.0013853994117887358,-0.0014089764847362
1691524748.2396162,0.18900045184645753,0.06241116924264264,9.741534390003558,0.001661336980824141,0.0016693508618694332,-0.0005052130256722
1691524748.2496686,-0.0670409962811348,0.08896742769347477,9.884422658768742,0.0002628492702905441,-0.0003065428653334384,-0.0002325550706068
1691524748.2596314,0.035687973480271556,-0.012816926600203792,9.796704408267031,0.0005105820423186534,0.00038187863352044074,-0.0017025472882146
1691524748.2696235,0.11746064597444714,0.19556998732423475,9.821188816824966,-0.0015983086565917878,0.001222675248706967,0.0010746674559136
1691524748.2796168,-0.04621942751002667,-0.08061486762279331,9.810237265227302,-9.823766344012636e-06,4.6603919681924164e-05,-6.154992682287207e-05
1691524748.2896166,0.10375476556910151,-0.008108068523821751,9.759222285390107,0.0021683349565329003,0.0007283380570731736,0.0023848702146728
1691524748.2996883,-0.09740452219929094,0.013955150951699876,9.87370378342872,0.0013767265940334613,-0.0011995096310255852,0.0001329106924181
1691524748.3096724,0.05666709997402578,0.033116004860487346,9.797318429564392,0.0016251990871451313,-0.0007811451923624404,0.0006864822533038
1691524748.319673,0.04917651614833538,0.026665273521002824,9.804040963828578,0.0017049247096392747,-0.00042502457415208853,0.0005672738950756
1691524748.3299391,0.0819555287538935,0.08130433942456701,9.806352283685438,-0.0004189011783411934,0.0010759072957154967,-0.0010599256313348
1691524748.340438,0.0920880468167725,0.060170881794559344,9.788963229530548,0.00039064480917136543,0.001609731436496546,0.0014639659527979
1691524748.35039,-0.09732830084968408,0.11746850771333558,9.907719904193103,-0.002167136735300322,-0.0004887198508205424,-8.13077024126958e-05
1691524748.3599193,0.01099458400014158,-0.12332373717998468,9.772184056002743,0.0011137168150632134,-0.0011644829958759267,9.602542901983748e-05
1691524748.3697464,0.06967114534731891,0.12910354737686247,9.825791510452214,-0.0022662180285637906,0.00020568691999479406,-0.0018731581333036
1691524748.3802376,0.025838445399313147,-0.0842517861035467,9.771086642912401,0.0016348823860971523,-0.000733090435215868,0.000693936733814
1691524748.389638,-0.035540974953070834,0.0023175962893916546,9.834680906994643,9.969096004390702e-05,-0.0006481585886708679,-0.0031256058539206
1691524748.4002063,0.14283257895943188,0.10840283901633138,9.797536190877558,-0.00020802008965169417,0.0007026307406018871,-0.0005968744919578
1691524748.4096794,0.0005432221098260238,-0.007092156665751739,9.821873541228477,5.612082687791302e-05,0.0002991918154244068,-0.0014562883700186
1691524748.420144,0.05957695287413871,0.09581428688928764,9.81780401238852,-0.00031009325688035856,0.00032227413931573316,0.0003404012129699
1691524748.4307618,0.06737398287548522,0.043441935522390965,9.78729976452015,-4.595537938172689e-05,0.0009324752956436574,0.0010254904371044
1691524748.44004,0.025366583326793903,-0.031216092233088216,9.791740485124878,-8.062357961499451e-05,0.0015937158614423034,-0.0009615896089876
1691524748.4501493,-0.010079910700184857,-0.026276221388931664,9.809138098063253,0.0006394735575364497,0.0009660114792658065,-0.0016157498869056
1691524748.4597435,-0.07099089272606826,0.09952351547938572,9.8855096636403,-0.00044121219120922897,-0.0013198281185911142,-0.0009347591369355
1691524748.4696784,0.21308712153660422,-0.04395314457786214,9.696884734571704,0.0019470492498865513,0.0018578478166757578,0.0008041951694117
1691524748.4796236,0.048750023224607315,0.09202143850911061,9.820871143943801,0.0008127198468176662,0.002357015545836289,0.0008477716944703
1691524748.4897594,-0.15174346092836494,0.13474702732630323,9.94456830465094,-0.0026875728215039326,-0.0008861992293127282,-0.0009660436592007
1691524748.4997883,0.09327436696702128,-0.05413314795149255,9.75967340091079,-0.00032311352846448515,-1.6353037136278872e-05,-0.0002325351635868
1691524748.5096884,0.09594771356466396,0.14568268206892726,9.808068758279278,-0.0014708920984346932,0.0006128478932643981,0.0022496150520687
1691524748.5197268,-0.0755653492465194,-0.1173311117194514,9.817293912706464,-0.0008279030498701974,-0.00011356710754778287,-0.0026152285101766
1691524748.529676,0.00014418847775409094,0.03904895592391095,9.83535131084951,-0.0014142708743504885,-0.0005326822157267326,-0.003024275629496
1691524748.5397873,0.1743219697578225,0.03289538098294874,9.735639913153582,0.001221747125588711,0.0009719690650764247,0.0022052874153537
1691524748.5679867,-0.008285626607390881,-0.03395903437810691,9.802466760733672,0.003148830501337228,0.0004388960800936246,-0.0003517656407261
1691524748.5693047,0.105160654843221,0.9369639100490256,10.071469641866663,0.00017715942501294357,0.0009291301113495132,-0.0011679723213369
1691524748.5700538,-1.1024170567791722,1.2662068696548052,10.84999076111278,-0.001652683258620633,-0.0009368735861309252,-0.0009235902509594
1691524748.5796688,0.041895898919943664,-0.09511098291243354,9.759914511416815,0.0008160614635498983,-0.0005941418410346214,-0.0010949468526
1691524748.5896504,0.20726757800027323,0.16658383555140396,9.75951314131095,-0.0014597205802474279,0.002845414165954385,0.0002390778570493
1691524748.599672,-0.11627545296536787,0.01964059049235258,9.88882406516811,-0.0019406709604436973,0.000116990600916959,-0.0007838890707994
1691524748.6096628,0.06825962791021006,-0.007796057259114977,9.777579770829297,-0.0006599080092367683,0.0005785699239568791,0.0005672776785736
1691524748.6196432,0.030966730032064387,-0.0076396262158161055,9.821194298309926,0.00035932964399872867,0.0003032815917801435,0.0005933463287596
1691524748.6296487,0.003101397971827437,-0.07878038319836193,9.777733873798951,0.0029987078910583735,-0.00020148404888435643,0.0010105800791002
1691524748.639891,-0.04197056385686022,0.054403085659156726,9.852509741946871,0.0018915634077607412,-0.0013116197122392656,-0.0002466884727532
1691524748.6496797,0.05203549600782013,0.14725570389324114,9.841153151081286,-0.0015498592783089698,-0.00024658121192243024,-0.0020262724540139
1691524748.6596413,0.05352857194915356,-0.05236393119211787,9.764997434769949,0.0008935477280407494,-0.0001090945194718531,-0.0007615247561539
1691524748.669691,0.09656309425741583,0.030756484382649486,9.77013160348737,0.0007471213423263338,0.0015613254946393656,-0.0010759397230053
1691524748.6796732,-0.054396930798749375,0.09761223945718976,9.878798628600489,-0.00039575373942228034,-0.00020671428357711143,-0.0006985734037066
1691524748.6896403,0.07898838019300347,0.0947669692419022,9.819897503357227,-0.001800201711933672,0.0005707521703615208,-0.000568192434212
1691524748.699653,0.08564436388335307,0.044838470121205724,9.788072405596367,-0.0015036635861061494,0.001246149485349443,0.0003776620321964
1691524748.7096431,-0.08713197255837747,-0.0634803127712363,9.858286647291187,-0.0002750874861590132,-0.0008306893781632702,-0.0017695929675305
1691524748.719641,0.18779526008464556,0.041036955796605185,9.714249517408371,-6.945586957990086e-05,0.002322027606726989,-0.0006877509697283
1691524748.7296524,-0.07133383785217658,-0.005981959030745074,9.842263222497342,5.2755730917123706e-05,0.0006042786464399966,-0.0013501324976737
1691524748.739663,0.16628407706153026,0.011239080578568594,9.736457337790805,0.001264913824196621,0.0028532580098205593,-0.0001013893454278
1691524748.7499695,-0.08358214179037358,0.05269459135610272,9.874645459678078,0.0011069897895387665,0.00027050078830625926,0.0002211703865846
1691524748.7596405,0.0734858053274376,0.08156253092282462,9.812262676664721,5.760217805987111e-05,0.0011016007231953303,6.733382521769294e-05
1691524748.7696428,-0.15191611160253182,0.05081293041673236,9.915074902478347,-0.0016381406958900675,-0.0019091688220949526,-0.0025303063268716
1691524748.7796676,0.10624437960920873,0.002190112078825383,9.766701134384572,0.00011274028080380943,-0.001166352546365548,-0.0002731417591626
1691524748.7896883,0.09535180139147384,0.03838559935770206,9.772866512124425,-0.00012644877060194213,0.0003606476778442027,-0.0007648910215998
1691524748.7996633,0.13043250808045984,0.0271691255036621,9.750894403504025,-0.0004915098530618796,0.0028424411595626784,-0.0017002958158905
1691524748.8096771,-0.07038790650933764,0.08794397990804366,9.887701836721405,0.00033215448567379635,-0.0005814827260458943,0.0021397236448769
1691524748.819692,0.15693682264172254,-0.029156384998364628,9.728178632319521,0.0010187149712846532,0.0025041832200428664,0.0010269929514556
1691524748.8307106,-0.053155546931142154,0.04220615194380522,9.855429185351785,0.0002788679552344851,0.0008579694202994804,0.0001891466270258
1691524748.846513,0.07224317372192775,0.0008038284780866072,9.772829208283712,0.002599712257547242,0.0015706513198131423,0.0026210212561359
1691524748.849977,-0.26919364558990255,-0.0074042745369666575,9.951255124336766,0.0006733877852406283,0.0008344990428370919,-0.0015542844596261
1691524748.8596692,-0.014950664782932954,0.024984161441102163,9.840362084733806,0.00017121449893371484,0.00020640887650877357,-0.002337341644516
1691524748.8696527,0.2085068334589791,0.08874961520996272,9.743811647209418,0.0007646591843699163,0.002486297427159961,0.0012016939288237
1691524748.8796763,-0.12638560185192205,0.03367667365480684,9.89888479034956,9.000312516825567e-05,-0.0005662113082070191,0.0002040461584051
1691524748.889728,0.13170952198757468,-0.16663374023429783,9.681854429737806,0.0032367429375885163,0.0022780854050809436,-0.0019420613354946
1691524748.9009356,-0.01282071082008877,0.24444320764560512,9.910715205022884,-0.0007071868476447352,0.0003539294383954452,0.0003228915918675
1691524748.910951,-0.13289031509566399,-0.18901629915479543,9.826006391412237,0.00366665334492175,-0.002735452502508139,-0.0001699689130241
1691524748.9198444,0.23602218496965444,0.2301821752127144,9.767098636282967,0.0001995446462379744,0.0009034151903123173,0.0003813936671299
1691524748.9296892,-0.013678383378602313,-0.13658699906615918,9.783764018210368,0.00205061710152842,0.001021167215408306,-0.0027046350116784
1691524748.9397173,0.0940430795879722,0.13565219324235217,9.81690408480848,0.0009855685472351743,0.0014782426076680422,-0.000821128236776
1691524748.9496772,0.0824262444397025,0.0817789429855238,9.799398543694743,0.0008440098975025048,0.0018529933975399734,0.0012221893191685
1691524748.9596682,-0.05206082934204269,-0.019488047490630486,9.841057997056886,0.0005441315061173877,0.0008337650504858464,-0.0013143580692763
1691524748.969743,-0.010101021446009004,0.07142721512372528,9.841229218174359,-0.0006621367033734949,0.00015463944907234656,-0.001731229229545
1691524748.979688,0.14822448434393665,-0.06379961606577449,9.721148448091757,0.002317365195350404,0.0019565617745020184,0.0001962639105563
1691524748.9897556,0.07944272318791344,-0.028664124614914997,9.767723114400855,0.0028306738531607843,0.0034571177522496168,-0.0013687789726013
1691524748.9997346,-0.1396432203537468,0.26641202580126816,9.976407496085514,-0.00272854348708764,0.00040086506061126333,-0.0021693424607569
1691524749.0097983,0.006844040675489719,-0.05026281359299061,9.798461067762133,4.269737033921947e-05,-0.0009242062434851477,0.0001984738226105
1691524749.0198874,0.033382324044713155,0.1091147007138505,9.836501728074321,-0.0008543536425944243,-0.0011410156880259231,0.0016010401484613
1691524749.0392723,0.05756897032465271,0.04066455766291257,9.802698128150146,-0.0014742472383766883,6.150713207805893e-05,0.0007647239433658
1691524749.0507529,0.02778326935497105,-0.07794952046308559,9.779287459213846,0.0012120589353229844,-0.00021602382492454087,0.0012072987081132
1691524749.052026,1.2394925483560848,0.13312079182954378,9.185462429267671,0.0003097616199577225,0.0034656862153884752,4.3888245063035576e-05
1691524749.0643237,-0.09137998004319128,0.06672397909988045,9.887945214084228,-0.0004065848579675918,0.00012669835448771686,0.0005385868896787
1691524749.0752916,0.01707237490003428,-0.02270082033220892,9.808817520211303,0.0007255416769784022,-0.00032890164481626927,0.0006253904609998
1691524749.0879664,0.04832012663753929,-0.05452733164553882,9.780123093333408,0.0032240891845669536,-5.0984633139596576e-05,0.0004692822292504
1691524749.0954716,0.05297907326765999,0.16346334045051017,9.848209562870823,0.0009967460673815116,0.00041801686931006274,4.834928019544372e-05
1691524749.099784,-0.014133446423889594,0.12327917906263089,9.857367275728937,-5.3404642636720394e-05,0.00012894145078153936,-9.805148532042018e-05
1691524749.1097152,0.04422054430541429,0.06561343932502317,9.806166503662734,0.0009624733011377102,-0.0005550252058917259,0.0029093625669424
1691524749.1196823,0.09459559405501201,0.10170792433673193,9.811856310303439,-0.0009906705062629549,0.0012021914897780888,0.0018152556911168
1691524749.1310403,-0.14444076483998067,-0.09708971686373326,9.858157210945288,0.0006756273295350649,-0.0020846257398349534,-0.0005529179290811
1691524749.140236,0.10342347325775703,0.01920550792308296,9.772591227868482,4.306363813768295e-05,-0.00010015456619222199,-0.0022490320081765
1691524749.152934,0.024953567062715575,0.030584857136438014,9.823279128436303,0.0015972613988955457,-0.0015306917189257438,0.0011432122662604
1691524749.1598768,0.007976067550371672,-0.010797573591870321,9.811181231461413,0.000725537618539553,-0.0009491602676320226,-0.0014689697238559
1691524749.1697114,0.053468627383697814,0.025955428026009923,9.793278806516208,0.0007236805481529402,-0.0003300037536066456,-0.0016622948280478
1691524749.179726,0.044683703609790716,0.07389258115468347,9.817041476098947,0.0010287782287219827,-0.0007301171664336633,0.0004059641103317
1691524749.189716,0.12212572341285093,0.12866554192919472,9.795424806857532,-0.0015323649559997954,0.0014387464519576587,-0.0001297113305831
1691524749.1997051,-0.05251701230669404,-0.14838056047734954,9.798866130740459,0.001563345532899912,7.883468744628276e-06,-0.0010144815134758
1691524749.2098851,-0.05920693190991192,0.0367934942902871,9.847857727266481,0.0011241642155960666,-0.0014490836218395134,-0.0017226510501409
1691524749.219713,-0.05253205120676547,0.17371534650829432,9.904203774539486,-0.0011695109095016208,-0.003607538972563214,-0.0006646710500995
1691524749.2297156,0.24168554478258641,-0.08348638171738247,9.649761204604378,0.0013230526358601056,0.0010725633478293468,-0.0009098076081777
1691524749.2397094,0.043935782001458853,0.04841151000250055,9.81289645578816,5.6080897367173426e-05,0.0018123812186639778,-0.0025403734582419
1691524749.2496984,0.020324697602662287,-0.02996646270211227,9.784911851728332,0.0029346286252107502,0.0007067455139645554,0.0006641314428356
1691524749.2597096,-0.05880347017527701,0.02308996342766857,9.859342567317771,0.0024831349932320375,-0.0006634566878567623,-0.0004404294124747
1691524749.269787,0.06341801577010538,0.09966342727728893,9.821754670552108,0.0009069588350369553,0.00013079570130126815,-0.0005644722661877
1691524749.2797756,0.029500292967596937,0.0701094215532301,9.819303645353504,0.0006137875977986337,-9.943325579014304e-05,0.0004368866973613
1691524749.28988,0.08117254346192533,-0.00033758423771564116,9.76851517842799,0.0004144703260906876,0.0014942651955958878,-0.0011243708251918
1691524749.299831,-0.04120858450883264,0.015520620188206975,9.84097000162743,0.0016792233801729878,-0.0005680856851166777,0.0005233200097513
1691524749.3097236,0.13086722047881505,0.10191310666292973,9.784275683172414,0.0003984482457424818,0.0013899498069725917,0.0006797708517929
1691524749.319817,-0.05875136628258265,-0.0727815003108149,9.82667747375382,0.002333383648207009,-0.0003888765311291363,0.0001258396257703
1691524749.3296936,0.06501369245943191,0.13141459896189397,9.834011812555667,3.002203437693604e-05,0.00022989831981897344,-0.0005476999615261
1691524749.3415718,0.018769641682471912,-0.020955837879206532,9.79641417157385,-4.746147254575756e-05,0.0006798566044189146,-0.0028212766448909
1691524749.3497767,0.03835413363165836,-0.006764421732633102,9.785892977220477,0.0016665610317308304,0.00034201131593374794,-0.001021183776384
1691524749.359918,0.035767967799510636,0.1398872909010198,9.840595855048988,-1.6910685216771996e-07,0.00013901605758244925,0.0003199197997396
1691524749.3697724,-0.10743067769782207,-0.05639485814764161,9.859029425667963,0.0015823682306617985,-0.0026125039539297117,1.409826269945392e-05
1691524749.379737,0.11874229910747372,0.03705342233019337,9.768210072832208,0.0005247174297504463,-5.9176026120039634e-05,-0.001619468657946
1691524749.389683,0.04054410675939574,-0.09370915808861842,9.760901064063962,0.0017667493595668773,0.0009920465663685607,-0.0041918076860661
1691524749.3997176,0.05185406814151763,0.18961391677707434,9.849012484215391,0.0011763088879578286,-0.00019108205350431382,0.0008548597868589
1691524749.4099543,-0.03573422880756034,-0.08584644338979183,9.81405386913448,0.0019165362632681936,-0.0005743863839255555,-0.0023864852084721
1691524749.4197369,0.12305783111621162,0.21509515478376287,9.831249015503376,-0.0005701014543123235,0.00028539260974440447,3.7168869102506726e-05
1691524749.4297574,-0.006049717113864955,-0.018704392979270262,9.829755182300913,0.0002792513628675355,-0.0003900031779181069,-0.0002385135560239
1691524749.4399922,0.0003209164144600444,0.09166279631674384,9.855424677488111,-0.000981758485755892,-0.001168952327300313,0.0001347774121036
1691524749.4499505,-0.4515559849765152,0.029505382389657258,9.629933089500879,0.00021225069887675224,-0.007877828124496049,-0.0020430243859941
1691524749.459784,-2.602666596829564,-0.48417449381513594,10.239182334162528,0.0036589658729642557,-0.057710874098464794,-0.046088106679445
1691524749.470102,0.3246450253823724,-0.38826891063364577,10.317936081163968,0.0044520526025189425,-0.07802891075562526,-0.0762789135153348
1691524749.479804,6.394867749528237,-0.8093893533727046,9.26642800632879,0.018453558032393933,-0.024850021177160547,-0.0751434599335248
1691524749.4897103,5.284606002771027,3.351062460545594,8.679628388917479,-0.014994799642610595,0.05151326175003498,-0.0545648184890801
1691524749.499733,-1.2005725795476154,-0.8761992301785041,10.546607168188743,-0.016304795567444408,0.03060045456426254,-0.0360528451676423
1691524749.5097525,0.7794957265458305,-1.0691136216281083,10.106087851336719,0.00730341269621897,0.017754250359888594,-0.012930765497213
1691524749.5198731,0.18301444106645678,-0.19883244856324592,9.388385034741221,0.016483773796800823,0.017167053485762244,0.0128171902795379
1691524749.529744,-1.0306470956533154,1.367885473571305,10.14325410503722,-0.0009136669284408139,-0.007761073529346061,0.0326182174210493
1691524749.539835,0.9898257446481097,-0.16026125073668349,10.09126167340768,-0.0006029047754754564,-0.010555839503336124,0.0386040101473276
1691524749.5499227,1.4099603891518773,-0.31932002976343027,9.487435585408196,0.004363455247829683,0.0004772323075500896,0.0379390942578261
1691524749.559777,0.24617302191220977,-0.46848881298889833,9.917899102746656,0.010179774513862904,-0.004000284140343035,0.0321050530945008
1691524749.5697384,0.9899493480417126,-0.3286604416968105,9.928312896292278,0.010407268398140018,-0.0014376111129940636,0.0177315047656243
1691524749.579803,0.29405646880013697,0.6162897107685895,9.870269967009355,0.006154243462473647,-0.011351754990615229,0.0246645866607373
1691524749.5897744,0.9254154060717202,1.3560062245699362,9.991256143769712,-0.012403714107932359,-0.016191137010120565,0.007802077354217
1691524749.5997996,3.0704108137538184,-0.7520746971784245,9.44484558529801,-0.009166925194637932,0.0071019662885869715,0.0006468444078286
1691524749.60976,1.7899579774088983,-0.8476058752762973,9.231128469073056,0.005505510829219929,0.01579937715312807,-0.0038039011235291
1691524749.6197166,-0.14648882134416855,-0.4696793693437828,9.495589275080691,0.015481941279280594,0.008559481676652696,-0.0154028346116597
1691524749.6534028,0.6863657630074004,0.8724761468984633,9.715332614919895,0.0024014803242378277,-0.014690478147821146,-0.0226591506327445
1691524749.6595829,1.4126491375677905,1.1773261166481666,10.144882329631368,-0.009949474867487765,-0.015601006330072286,-0.0171449684823806
1691524749.6666353,1.4427519085645102,-0.7674980604201349,9.959000698315426,-0.002388299219282804,-0.019999346182933544,-0.0136493702704961
1691524749.6704133,2.0111603791557227,-2.1356335118394325,9.41264088616161,0.016250962834791317,-0.01973116709010006,-0.0047181641968841
1691524749.6768055,3.110484987373168,0.7851582316781169,9.85369008526859,0.011914361495300348,-0.011577427105132104,0.004191499687085
1691524749.679762,3.853063593772551,-0.007968707151122637,8.793141429275543,0.00983573011556514,0.003320805617032437,-0.0004440540035198
1691524749.6897695,1.60145815029034,0.24685366918345347,9.654124980087941,0.006367871778026864,0.0073698102492199035,-9.868012805828564e-05
1691524749.6997488,1.5884872906269436,-0.1759446866488782,9.762706448207137,0.008896837770764252,0.009279819862215074,-0.0031637071917707
1691524749.7099104,2.109702398641385,1.3679576707160686,9.772575380524586,-0.002211117546552899,0.019485339574252452,-0.0079341612110788
1691524749.7198858,0.9693683774382073,0.7669998911026943,9.920218228933406,-0.009108042317478861,0.022190768648427096,-0.0148859394068772
1691524749.731598,0.7970395531932399,0.251094146766579,9.617624526165697,-0.010429266345871388,0.02482237353921837,-0.0215970293904597
1691524749.73972,-0.2182607812305921,0.040336074156115925,9.90355756495883,-0.008575536245282818,0.011998247282336791,-0.0176901982451731
1691524749.7498868,0.9114619154716319,0.5250416247083428,9.46739773486305,-0.00948015313246917,0.016205101594568463,-0.0057049842837209
1691524749.7599106,0.32641189783822777,0.7180349891400638,9.723287436192916,-0.018095577388943962,0.014224120226294615,0.0049567655840014
1691524749.7697346,0.6395009124225931,-0.02702222084330341,9.809202821021659,-0.021167824369412686,0.01776066612724964,0.0204065463219826
1691524749.7797282,-0.32774765744320555,-1.8306857413370095,9.916676822965366,-0.0009451010735406919,0.013340321986858807,0.0244695937906449
1691524749.7897403,-0.07259548512590122,-1.534100384448543,10.014639294617865,0.015193995421197974,0.015407154008349414,0.0207469782506172
1691524749.7997391,-0.20236024777925324,-0.6458649536554187,9.962398075059246,0.025187610248305622,0.014630543181748484,0.0194417501513903
1691524749.8098357,-0.30742828022601704,0.941708894802037,10.221404045396454,0.005035944136244564,0.014359500915311017,0.010117952962691
1691524749.819761,-0.4042105568861753,0.4158057717122796,9.685440614238063,0.00020259543383201097,0.011780503143564653,0.010871068825299
1691524749.8297808,-0.8325115573742726,0.4828187867814022,9.394371785787774,-0.0009530346591703948,0.004144454039891648,0.0119733561475818
1691524749.8397708,-0.07506736706103147,0.7678087277658551,9.490047773495649,-0.006116056347294124,0.004125442755811626,0.0103360407699888
1691524749.8497558,-0.05603040919819632,0.7837956458562226,9.46404179348355,-0.006882277045507105,0.007006911324592047,0.0133941921119635
1691524749.8597622,0.031288740399033434,0.21813059882120284,9.798144242104664,-0.0048960562251723835,0.010036990424213311,0.0088345480796938
1691524749.869906,-0.6484786945148108,0.07315861969009262,10.16010794368386,-0.005665232556469262,0.005578635459725852,0.0015250912872665
1691524749.879808,-0.27921591999391854,-0.26394412819251784,10.237253097512069,-0.003554149967067619,0.006220852238130326,-0.0056640554505343
1691524749.8897915,-1.4267092646295112,-1.1861374606290056,10.374351201979394,0.0019231584754303638,-0.00936476529084307,-0.0164110266889388
1691524749.8998885,-0.46756409429968043,-1.5839165696708954,9.696657462281285,0.016308088158646043,-0.012658981772307884,-0.0225357746059949
1691524749.9099228,-0.16062508504986228,-1.0365650988786796,9.645472013167687,0.022701213669527986,-0.014149570802639526,-0.025782372551685
1691524749.9198549,0.18476189709156945,-0.23248657825130464,9.188623033239661,0.021912230876704967,-0.005086525073679505,-0.0263152939553315
1691524749.9299192,-0.19567538585724892,1.3567667218141137,9.963799912900434,0.009221399388670708,-0.007701232908343917,-0.0185096931929642
1691524749.9398956,0.28333822731918723,1.2226216988862,9.96795490341477,-0.004068871512337006,9.040010534511602e-06,-0.0149265823240334
1691524749.950062,0.20621325001542834,1.2972518667116304,10.132609954703025,-0.011856218830477456,0.005366015782731316,-0.0021994835517312
1691524749.961026,-0.10571433102724195,1.0080543533000927,9.89371593834597,-0.0142195292872951,0.00511352051091512,0.0086820556496327
1691524749.9698174,-0.20790543487414226,1.3030347258686454,9.771228177638479,-0.02337706623140785,0.006314418975410482,0.0164087165792529
1691524749.9797523,-0.5443170463273899,0.5172240341953556,9.707912733902285,-0.025675860726925164,0.003434597233552132,0.020530905825371
1691524749.9898686,-1.132296201631053,-0.2262837713789195,9.733708685569118,-0.025146773747157642,-0.00667981970521317,0.0203119295363371
1691524749.9997313,-0.8893901553424154,-1.1619498916908035,9.739219712819017,-0.01390712835432846,-0.015224171122080358,0.0133143274758999
1691524750.0099037,-0.592965190796118,-1.4235509697073678,9.729879224153763,-0.0010940549022328816,-0.02125644382240556,0.0045657884509359
1691524750.019882,-0.11553339242028936,-1.2585757583011172,9.880603666484221,0.005768760894910596,-0.02021184303574433,-0.0051490322041268
1691524750.029845,0.21912543926353126,-0.8201001513339098,9.789063412164753,0.012031167493312567,-0.015959376808531926,-0.0130244341964776
1691524750.039799,0.7707447220815872,-0.6121016659424179,9.818326975333706,0.013018379881413595,-0.0023524796021263034,-0.0157643088425452
1691524750.049796,0.6814426253382165,-0.21372805178760854,9.870745645946508,0.01662862439714202,0.007288097157319138,-0.0099627782876546
1691524750.059792,0.12502270198050902,0.4601157655938178,9.79641828439051,0.014898620330129553,0.010700351377905018,0.005565775343502
1691524750.0697708,-0.6260523998810555,1.4562269776400045,10.081863031942344,0.0027109295082991813,-0.0019789178606552937,0.0166318121080344
1691524750.0797777,-0.29687897762804155,1.4277576116072788,9.984089570676412,-0.0055250298814686705,-0.014593541050929281,0.0240004102413599
1691524750.0897813,0.4063572533356152,1.2235866520320362,9.778933331912931,-0.016760002770183264,-0.017477761393533724,0.01965231100964
1691524750.0998163,0.5252293695178826,0.024881110917183053,9.676969872599827,-0.014311951572911511,-0.01991971807831825,0.0045511364185308
1691524750.109886,1.2497624512141245,0.27397399669578554,9.49173616229079,-0.015193391012111025,-0.012763082920025554,-0.0102853660757596
1691524750.1199565,1.7431169213294688,-0.13138602491265775,9.262378510410091,-0.012871983384016997,0.004272566810223015,-0.0215654929454381
1691524750.129774,0.8689736773487753,-0.3652167792878942,9.745901942743435,-0.014027329040046804,0.00881831011557568,-0.0298746393348033
1691524750.139865,0.6659195141968791,-0.893697472408499,9.920324519141886,-0.0067883198877293155,0.01254167222790799,-0.0232487057621533
1691524750.1511028,-0.12169117010319559,-1.202936509577679,10.095034083496497,0.004035425899932862,0.004804773585640496,-0.012371487664705
1691524750.161553,-0.3505782339549409,-1.2860895212886967,9.981793602924007,0.016580351427096452,-0.004396681582925563,-0.0007485525968427
1691524750.1777978,0.1295315466805485,-0.5466401621505607,9.939078016488665,0.02123363975883914,-0.005204223696071983,0.0112491466750448
1691524750.1816394,0.5032919334506795,1.0305733604185763,9.7776336345154,0.01553389594020278,-0.0019317599883284832,0.0161837286029999
1691524750.189833,0.291961345037926,1.8163255047235072,10.13514445261673,-0.003806067706317647,0.003364976971607729,0.0103946190972869
1691524750.1997633,0.18345865603937522,0.8606582069856202,9.818972411346893,-0.010521410021481619,0.010965604686564765,0.002246225736389
1691524750.2098126,-0.07924417087346232,0.4867302016626622,9.563642905855106,-0.01084966322229919,0.016296997146823488,-0.0040232736903185
1691524750.2197676,-0.5142920557966082,0.9676314153682022,9.555397590617828,-0.013669855114562986,0.01243159305923556,-0.0018056612282002
1691524750.229808,-0.6162505591592629,0.8700840968571927,9.658599526741998,-0.020256840654869178,0.009577769449479913,-0.0043558205763752
1691524750.2399163,-0.9170026226987825,0.3111214064696356,10.061312773252299,-0.025706895140130852,0.0009593817962564151,-0.0012205657369399
1691524750.250559,-0.7677137723929934,-0.5069357763713945,10.03465416542909,-0.018905584685562506,-0.007987839646112882,0.0002619599870463
1691524750.262768,-0.3724533281113645,-1.0908005897232051,9.960287449411362,-0.007340110164880433,-0.012272171264783823,0.0016283628244941
1691524750.270362,-0.027819848311902727,-1.1932987438659834,9.660330275597573,0.00046628483545660236,-0.009528134312247168,-0.0015967441542948
1691524750.281597,-0.11913250146612396,-0.6856387499480757,9.825191594713989,0.005111361639386055,-0.012814959586301843,0.00025256713322
1691524750.2898946,0.6642152968696112,-0.6144181992744888,9.646433360244304,0.006314963704587393,-0.004173047050146061,0.0027898339501639
1691524750.2998369,0.4199735226770974,-0.4523219977318928,9.803551805713319,0.011224479194148354,0.0015769517862208773,0.0071838752080743
1691524750.30994,0.3829513189041573,0.28265821397095875,9.868770548019308,0.006405428903762586,0.005910948483772672,0.015127615322644
1691524750.3197885,0.16705042424555708,0.774456470388131,9.865094670832855,0.002354587804406363,0.005037300814493901,0.0203787705575173
1691524750.3298235,0.33557921377986555,1.1689123202159366,9.811937106013755,-0.007977939419173217,0.006485930294202121,0.0138964581017439
1691524750.3400085,0.2668666008228245,1.0993457632210197,9.626505555288238,-0.01774489098897364,0.007676916006722016,0.0086400506732111
1691524750.349849,0.03306789599997213,-0.33810905455684986,9.550513699265887,-0.008553951288819719,0.00544550873638694,-0.0040442354331667
1691524750.3598187,-0.0717336524070833,-0.19067777476754988,9.565690038229164,-0.0033588837443138918,0.0006895468433852067,-0.0161611435289437
1691524750.3697796,0.2967111337462825,0.447065555604066,9.654340271821317,-0.008112299650641462,0.0018180718101441474,-0.0229653843964392
1691524750.3799767,0.20949009287553394,-0.010031102798998794,10.097114535567789,-0.013757274601649688,0.00048450534932543857,-0.0241917536879832
1691524750.3899004,-0.06429311057178402,-0.9590276580119946,9.967015568360669,-0.0070045901850193,-0.00010595584964029464,-0.0198714954133088
1691524750.4006464,-0.09864829584072721,-1.434402110283159,10.07453411704114,0.008125098026720616,-0.0057273837679117715,-0.0095970963413769
1691524750.4108202,0.17228497446787233,-1.23683027109701,9.798027429433462,0.018697069156375465,-0.004521457824201441,0.0012262911384545
1691524750.4197855,0.20709650551678088,-0.2437269547660212,9.661237747611478,0.02210419620210158,-0.0012956020431210294,0.0073906865616386
1691524750.4306586,0.22061031120185312,1.4666870031137114,10.123845033693783,0.0023623418928157757,0.002794961060095976,0.0092774855618422
1691524750.4404912,0.1409584092713977,1.3571286397445905,9.796556537043882,-0.013135182614920162,0.009544886583522885,0.0069547414493804
1691524750.449938,-0.46809730692245843,0.645363354998176,9.941800944459608,-0.016754714402496786,0.005566185449273568,0.0031079354410116
1691524750.459925,-0.3775754632570616,-0.06617752784631237,9.53994025515655,-0.008439029857865635,0.003358346699411328,-0.0034948338109011
1691524750.4697907,-0.060563830905557205,0.9874571686364497,9.48542144609038,-0.013586286664060651,0.0015725073355412152,-0.0015039180691296
1691524750.4804268,-0.10357680377479964,0.4524570781947866,9.570465398504094,-0.016227529350672145,0.0011302673901443234,-0.0011328449292982
1691524750.4899669,0.24641425889181726,-0.21690293311620926,9.85226209867755,-0.01763714458988985,0.0028282777431726906,-0.0013874689868594
1691524750.499827,-0.1882688314798361,-0.37919659012349116,10.04670227597499,-0.015460842401270537,0.00013229803051417315,0.0016747989173104
1691524750.5099158,-0.15726936110704084,-1.4572265219978116,10.061734268461949,-0.0016128080954457551,-0.0035710355635960736,0.0008127906364911
1691524750.5198798,-0.19338788589676453,-1.0305920559593977,9.950180403324204,0.006634962971051802,-0.005786109473093752,0.0034100192313139
1691524750.5300426,0.13941411908154921,-0.8208532014979651,9.85873450477647,0.012536560588815401,-0.007081384700034911,0.0043264865123724
1691524750.540244,0.5386194305653913,-0.4888021792073284,9.656468365069847,0.017916279767614958,-0.0016356507278665327,0.008730835066462
1691524750.5499616,0.5790122401174457,0.5009256848998703,9.759795183975195,0.011164823647964228,0.004263594436768589,0.0126574563507979
1691524750.5600135,0.7301434498243329,0.964969295530972,9.786435235194029,0.003712487696383157,0.013844181721702802,0.020384833467478
1691524750.56994,0.34039351887346564,1.2350641936519593,9.937094617067604,-0.008480897759284019,0.015402425258795597,0.0206053632025664
1691524750.5798235,-0.23783398993423568,0.9498545788716908,9.730004949084266,-0.011140004906973136,0.011386997639082873,0.0169906283442919
1691524750.58995,-0.021026321232632872,0.6182742155713067,9.708522814682361,-0.01582381895425106,0.0106985347991972,0.0074147463490312
1691524750.5998948,-0.4880183319241968,-0.06405979762553597,9.512823009256255,-0.012530690195155837,0.0068096636351355705,-0.0060816022853309
1691524750.6099312,-0.27731132315507645,-0.0023298376698723975,9.73677876851901,-0.011562262698511305,0.0008057913851979521,-0.0138075507531816
1691524750.619879,0.030251713446153995,-0.6637808599620114,9.847638640130926,-0.008372679302903127,-0.0011571632351875154,-0.0213210617477948
1691524750.629973,0.10041722380252856,-0.8985164953247603,9.783924738150898,-0.003161042337984613,0.0017977274014221451,-0.0209582147474343
1691524750.6399906,-0.5468920968680357,-1.1357936931571622,10.243291562633773,0.005080573792402839,-0.006603202008066189,-0.012924249964481
1691524750.6499848,-0.4057298710536925,-1.497426225063291,9.9092042343762,0.01676955074807411,-0.010441739916187359,-0.0057217671821768
1691524750.659931,-0.12963184929808882,-1.4527738254766926,9.85082359566904,0.03274632881846702,-0.014241620284686817,0.0018441308236738
1691524750.6699405,0.2049295115345852,0.5500085514142653,9.626649678518682,0.027616638913222333,-0.00982105262302943,0.0035246028744672
1691524750.679801,0.269713577027811,1.9930560360261136,9.859351312676008,0.006986287043158318,-0.00292572715643361,-0.0009265309019888
1691524750.6899002,0.4899382100520729,1.5548202375099065,10.14116019164201,-0.01354528499011378,0.006762548127734912,-0.0049283036316687
1691524750.6998258,-0.10577994089572604,0.605164799637467,9.861426222428681,-0.013218199344475975,0.008328650792616656,-0.0056193705934042
1691524750.7098403,0.19958414975719985,0.45418125769386863,9.650776907168657,-0.008078738287396348,0.011561132350237542,0.0015887076040321
1691524750.7198768,-0.3630545469921511,1.0921803655712725,9.754206257201785,-0.0171807647042027,0.006277970413766342,0.003285297443444
1691524750.729837,0.14020370896531362,0.07474560797284084,9.713107627458863,-0.017009818162435693,0.006821420872742755,0.0054701140795891
1691524750.7398398,-0.3415872563036744,-0.3106973523158454,9.73374006554324,-0.01707911620213458,0.001277385924664064,0.0071945775014405
1691524750.7498407,-0.4421913373853538,-1.1671476711861386,9.894459846820121,-0.0071522799397671635,-0.007417775712061563,0.0038806297996138
1691524750.7598867,-0.12831475804138276,-1.3991098369637425,9.85680883196309,0.003576171575196948,-0.011137441224276323,0.001514017745439
1691524750.7698548,0.2371763474845027,-1.203981959766409,9.87964356068247,0.013837152967709045,-0.011795991303901847,0.0006147158744802
1691524750.7800417,1.0118530947346833,-0.8517716514766658,9.971166148064071,0.02084316812180863,-0.0038959013824152277,0.0053135908854251
1691524750.7899,1.0322189061494533,0.2691674358334281,9.68304037021423,0.016252543389311737,0.010765239283112555,0.0095078388874476
1691524750.8000011,0.5734780304113105,0.6984194307467559,9.929841809220658,0.008116903113322792,0.01646119494273211,0.0168641137604658
1691524750.810002,0.16225134961377133,1.0056648150722967,9.796733095444283,0.0016694116732304414,0.016976795263946548,0.0222538134728615
1691524750.8198843,-0.21990673597674193,1.1119876803652569,9.783048090937562,-0.005605742904826916,0.012412994525847047,0.0191222208266203
1691524750.8300395,0.010288655993148817,0.6531984851619059,9.587427538882228,-0.007122356408045634,0.012360083928558049,0.0084142575685923
1691524750.8399286,-0.4125139400304733,0.1550577179514524,9.66256111223306,-0.006720337038399528,0.00832001604855952,-0.0032537511835748
1691524750.849976,-0.22657292164250753,0.2262272556522929,9.811881716825516,-0.009121756192078076,0.003294957676323272,-0.0126822159911448
1691524750.859946,0.3846569304581308,-0.6828112259345812,9.594464499131904,-0.0011939940814556192,0.009382439734170826,-0.019312795000797
1691524750.8698504,0.07223279504523539,-0.4450609532030922,9.84129197049913,-7.870608683440611e-05,0.01150249981461443,-0.0191239451344067
1691524750.8798482,-0.5289028517369012,-0.8109419335247924,10.092906686696072,0.004541628262926588,0.005279087271598991,-0.0113354741881544
1691524750.890009,-0.7846542578387997,-1.1310198737987374,9.93930113830553,0.011290040027650137,-0.00418204788670344,-0.0064374569158012
1691524750.8998969,-0.3664973636972783,-1.6307593317391007,9.812496785974954,0.02710280639324207,-0.01000803655115892,0.0012848346266487
1691524750.905084,0.5375725006483597,-0.8081969836313526,9.084374286440797,0.03492148840324909,-0.004351385304275824,0.0076188633863871
1691524750.9198618,0.07098113412543916,0.9844084747562043,9.652075895841643,0.0217838506066441,-0.0018346959714483299,0.0078856710058694
1691524750.9252484,-0.08659466527133583,3.1240258221380777,10.403317674789028,-0.003629327955139382,0.00025442523395607724,0.0038060681142901
1691524750.938856,0.14227055320351917,0.8720733483819667,10.172613491001194,-0.0128028937741128,0.004832795240755971,-0.0002179492550844
1691524750.9488611,-0.10561791207596201,0.3907371270196582,10.024979481927424,-0.008643604626256124,0.003704033538478227,-0.0016556000157202
1691524750.95883,0.41235023698250256,0.41254824855749883,9.638229948339946,-0.00702218991758782,0.010798221777787926,-0.0057489496941621
1691524750.968838,0.22781581954326546,0.7665617888603115,9.844048384778773,-0.014435299669029024,0.010617823550183316,-0.0021536913520599
1691524750.9788234,0.38904976835204463,-0.33250128825352865,9.56248819617226,-0.010690117668892543,0.014284718685535658,-0.0004890177917609
1691524750.988933,-0.344922599288365,-0.5274564636771363,9.71877349139172,-0.008924076883849955,0.005912826795717584,0.0001899881933872
1691524751.0002837,-0.13068274929217047,-0.7465910049383485,9.587761303691721,-0.003467650744540152,-0.00038889995735199185,0.0015731123164819
1691524751.0089362,-0.21587296095131517,-1.2603514788785137,9.74000449749246,0.004920592830768174,-0.00546271691490542,0.0041439463564251
1691524751.018881,-0.010450180853613525,-0.8496149211229148,9.789305703664597,0.01283795759761906,-0.010090569095230678,0.008356196125323
1691524751.0288534,0.8657185179311244,-0.9941094252629108,9.75922837661355,0.02392092643508424,-0.000324852403346108,0.0090889467571919
1691524751.0388558,1.0618357026641547,0.16987782367108145,9.86325524010871,0.022835081682418098,0.011932778562494896,0.0138757249985878
1691524751.0489085,0.5080374754395743,1.1714679021905852,10.066223580139924,0.01077804546650993,0.019323603310951478,0.0186783282731716
1691524751.0588694,0.31905439482699977,1.878433903136439,10.0612353478935,-0.0054680755461710496,0.02603023944030339,0.0212896021728461
1691524751.069391,-0.6580542930334217,1.2907720074444433,10.121734971644416,-0.016554593260531564,0.01804657577282913,0.0184366537903492
1691524751.078858,-0.8807895303567577,0.6238805863320962,9.521911136205443,-0.01712840578450707,0.010502934038914913,0.0083427496899907
1691524751.088839,-1.1678038347686217,-0.04651884782928554,9.71017172692055,-0.013693555600919071,-0.00434342111548697,-0.0013231348532194
1691524751.098851,-0.6895595535359237,0.17893542442454574,9.502133374579346,-0.012264073133286438,-0.013156964059913914,-0.0114595207671577
1691524751.1089952,-0.021528199959255246,0.24753434496378846,9.788130538289208,-0.019095119596732,-0.011651503901450687,-0.0166906562919671
1691524751.118868,0.10398253045955838,-0.8107496589369501,9.904150695130086,-0.01971502281441303,-0.008839677383888538,-0.0197254696215445
1691524751.129088,-0.34317381622332416,-1.8525198163784888,9.967468132609417,-0.002553469230873115,-0.011681597605210817,-0.0162917596573884
1691524751.139679,0.032597858373519494,-2.3885834524611607,9.965071167917477,0.024675001402528745,-0.011496475281732603,-0.009164197119599
1691524751.1499188,-0.2797304511698207,-0.4473037476934297,9.777789156671357,0.029215143081041818,-0.012200897003049065,-0.0068381537969166
1691524751.1588702,-0.1576130599617681,1.5688485692209566,10.23388155639625,0.012700461726287074,-0.015682289802744106,-0.001791138649633
1691524751.1701615,0.7287063361051661,1.879917957694829,10.093872269501631,-0.015250751046736765,-0.0036841958973662897,0.0015388562058155
1691524751.1789231,0.7847756670447786,0.7341403428816398,9.811119154080338,-0.019351613768053395,0.0074829945506194664,0.0065800503541772
1691524751.1888964,0.34943831022076266,-0.11099816484765038,9.448603258115357,-0.010009922187199994,0.013113476182138822,0.0109507732738797
1691524751.1989048,-0.270400027857787,0.8217948333716945,9.417945614185887,-0.011304824718664851,0.010307856970701603,0.0110861596365516
1691524751.208914,-0.25239173903137924,0.7393954677239936,9.629122752972181,-0.018210508817179182,0.0060400557416260365,0.0113695759971683
1691524751.218975,-0.18917560726373386,-0.4855451998840447,9.694937863758161,-0.015888494687509438,0.0008854249819197829,0.007371614006633
1691524751.2289383,0.02336400699616451,-1.2656122792199966,9.783999212783145,-0.0051224059183500375,-0.0034287681238884342,-0.0004374355596432
1691524751.2388504,0.15463120435896083,-1.0208614195594643,9.889993707009284,0.0018055422558227853,-0.004642793908551645,-0.0086192784185464
1691524751.2490573,0.6950248009546822,-0.36614517282108305,9.906576486151664,0.0025740672660964433,0.0012547447718059424,-0.0102695745701844
1691524751.2588687,0.8172146020202649,-0.6131968770826404,10.085680313379598,0.0016453743296499432,0.00869437311204554,-0.0084532608563954
1691524751.2694664,0.7752023142603274,-1.0474181732041592,9.992071874951959,0.0172140469440547,0.014773055355292285,0.002360566886427
1691524751.2791028,0.7643836168890467,-0.1680745459752876,9.805087262838155,0.020320137364355766,0.02347935759776148,0.0064239700038974
1691524751.2889304,0.38999008050342726,1.0802476709832192,9.574946640022212,0.013952533990713036,0.02665943476404745,0.0213030299817269
1691524751.2989254,-0.21377949147531614,1.3581855189970693,9.563043295206658,-0.0009915571381399607,0.024431157420010417,0.0278316422079747
1691524751.3089025,-0.7479071871065762,0.9316271009513647,9.59653697955622,-0.006758434147224486,0.01409662431027966,0.0257992430304234
1691524751.3189292,-0.46282218108734674,0.7460870817400306,9.817262852305758,-0.011501576159846101,0.005833493158814833,0.0197990911726897
1691524751.3302698,-0.562934724378449,0.43967647011377414,9.743102682625281,-0.011943074565173734,-0.0007285279439163323,0.0083807117951159
1691524751.3388915,-0.17901554188963076,-0.3278732205171247,9.902520879764992,-0.013074841720743134,-0.0011742700804471741,-0.0048052503081912
1691524751.3488624,-0.480289402303286,-0.10132639466767525,9.816094181089268,-0.009475804135750112,-0.0040455811130141826,-0.0114795665542537
1691524751.358899,-0.3851048866396839,-0.08691682225431378,10.059414194647086,-0.013819595202680973,-0.008557871468439608,-0.0182289124752337
1691524751.3689032,-0.4375506420626781,-0.7093628947768773,9.707499615639417,-0.013169855413452673,-0.009184842155126842,-0.0225961149956042
1691524751.3789551,-0.06571997851443265,-2.5002072856526465,9.89494805069925,0.011904180028343961,-0.010781819677071938,-0.0226659772272164
1691524751.3888843,0.2786854190077141,-1.9534950551767158,9.714684485277752,0.03441959929612775,-0.007395910633326657,-0.0179150381411368
1691524751.398934,0.6826076119406116,-0.41733162800233403,9.537938178082099,0.03851611973893756,0.0033674413324944748,-0.0103680423746759
1691524751.4089572,-0.11878963482444396,1.7366508913677217,9.908472728006265,0.01650850732258954,0.004033482533815136,-0.0050506999070698
1691524751.419027,-0.15238954833390586,1.679881495932303,10.258399677096275,-0.0042600235769985105,0.004033428353976017,-0.0010166626709456
1691524751.4289286,-0.20475638627385817,0.8553790970112097,10.093443635937808,-0.011968396596019169,0.00464954623443562,0.0055945606616382
1691524751.438924,-0.220283180259622,0.48946894236493743,9.854953669295929,-0.009451265219192182,0.0028119556852765804,0.012747051445121
1691524751.4488828,-0.08739471897695841,0.5695225060260859,9.607322854633164,-0.00654131782907987,0.003963691850888729,0.0197164213930313
1691524751.458885,-0.4682299865218576,0.710865720164424,9.747960889078065,-0.012829823273694488,0.0024918450974762835,0.0201117957656328
1691524751.468956,-0.7992964322542375,0.22001592100356576,9.9217406181506,-0.018692013397244717,-0.00462721488708786,0.0169840345804636
1691524751.481184,-0.7186746831198465,-0.9115225878211219,9.866326428778349,-0.00809020129508354,-0.01710909111008052,0.0100460502033179
1691524751.4898531,-0.26091726379513086,-1.1370394948281224,9.695946061067517,-0.0017482979013524898,-0.020304678590721357,-0.001625667308172
1691524751.4988866,0.6338360207342819,-1.2463053554042294,9.305375967319229,0.009299825550727985,-0.012421843732348174,-0.0065576575982327
1691524751.5088956,0.6740192471649554,-1.2986903238927918,9.738040661035239,0.019955197248584983,-0.004785578033468806,-0.0092565088818723
1691524751.5189238,0.8656649757104334,-0.6493732380923297,9.974189201467745,0.025269737251203617,0.0036811114810799106,-0.0054253113741929
1691524751.5289536,0.7723918741651475,0.19941660642821943,10.06919700708547,0.021933661670228394,0.009956158558544292,0.0041790323046093
1691524751.5389445,0.5442312541504729,0.4809815411843942,9.78413177224803,0.01878168383026059,0.015022396920124704,0.0145731393893306
1691524751.5488958,-0.2626700669037879,1.0594511880090673,9.917670401335894,0.009575229189483978,0.007440991362705745,0.0226444995676224
1691524751.5589242,-0.1698055476106155,1.1438878256748406,9.811025765995346,0.0009848620843250252,0.0018498372862678879,0.0269360172276442
1691524751.5690246,-0.7829673607131088,0.533408946663935,9.991350467632289,-0.0003482317454187155,-0.012482671659941155,0.0197849183057492
1691524751.58126,0.028065006818017057,0.396450725455933,9.696525224221697,0.00016698284512302544,-0.016744007513456775,0.0036689914011453
1691524751.5889056,0.08045615289121825,1.032001876208427,9.600398869949954,-0.010437809192352241,-0.014201104067711736,-0.0116086534510309
1691524751.599012,0.2736504750829089,0.5689030982266156,9.757961933335872,-0.02192462264657713,-0.011031786085575418,-0.0204846297676617
1691524751.609029,-0.021003726026068044,-0.3603095088559376,9.6357280932131,-0.019099037592696436,-0.009926103113818665,-0.0223178320850188
1691524751.618907,0.35785239614808323,-1.2307456658201723,9.69819621829531,-0.00690629104431182,-0.005510371245626226,-0.0166469027574116
1691524751.6290298,0.11045031046140825,-1.9421386642818863,9.970543177376955,0.016434687844583316,-0.004719298395732294,-0.0044339380512888
1691524751.639022,0.24536946960160522,-1.164218027048054,9.81766511995589,0.025103511377587904,0.0007585146300574396,-0.004725449467724
1691524751.648983,-0.03386354646684734,-0.2698897413012627,9.88974024225508,0.02577923458944063,-0.0007415224726115237,0.0030259866214414
1691524751.6589592,-0.017070907834555237,0.7142626060428354,9.874109496083882,0.013518545254418462,0.0020416594331273967,-0.0020972804452235
1691524751.6688955,0.1429845879017092,1.0398471966473317,9.965015545073456,-0.0014894223328507643,0.008641289651376123,-0.0022191237478459
1691524751.6790042,-0.484335176465683,0.47605266732148954,9.946172206932435,-0.0015181900685266383,0.0038579516392162126,0.0024433308460806
1691524751.6889398,-0.6941412820868401,0.21376591665732528,9.842868937701768,0.0001455718804878228,-0.0009160180734605688,0.0067408022184913
1691524751.6989746,-0.9254286590350513,0.4799186802666964,9.77238842874376,0.004314567257482508,-0.012305013230967086,0.0107323781301324
1691524751.7090518,-0.7198058004061094,1.3544732035260763,9.950971843716664,-0.009169727304168063,-0.021065877537612254,0.0126516672496741
1691524751.7189052,-0.2887835152734953,0.6443463773159029,9.940558457886729,-0.018581594185451532,-0.02699289711971961,0.0103852267091219
1691524751.7289274,0.7758458600646988,-0.666226614258624,9.328905503032466,-0.01061121294480286,-0.016004567852764915,0.0050376965844129
1691524751.7392955,0.9690261167222088,-0.6976361941617335,9.438379189073093,-0.003642351974404367,-0.0038925307079636278,0.0016960285027102
1691524751.7491934,0.9194557757627313,-0.3956527960431531,9.603440839582444,-0.0002009235059911742,0.006046565979023123,-0.0007548366959149
1691524751.759025,0.6946557679598011,-0.7281821859176969,10.01878171121922,0.004133058051910563,0.014377419028402581,-0.0028149487736577
1691524751.7689064,0.45311919016816476,-0.5236345907301969,10.298609303145856,0.007863526231842995,0.016936712675812877,0.0014810164609748
1691524751.778927,0.3636097882686878,-0.3967456854306347,10.104967831815197,0.012063051713033833,0.01828790337469409,0.0051534411211555
1691524751.7889397,0.482769342108073,0.3200519457857145,9.7620412137251,0.008124960042073016,0.020300292881205315,0.0133502718706672
1691524751.799079,-0.02411916639511156,0.7434459626517874,9.535372991572359,0.0023708143617236694,0.016484704903204535,0.0194258878652994
1691524751.8089914,-0.22061111066067027,0.40872585216655527,9.580902115629435,0.00015212696944196593,0.010763052654645168,0.0179011302714293
1691524751.8189237,-0.6158034608738807,0.11627710088405396,9.781886243043054,0.0018551179270529094,0.0012458531572039832,0.0133740429480617
1691524751.8289485,-0.6363341235918362,0.7443216687825652,9.847477785043985,-0.0028346619423945357,-0.006943555288975344,0.0024015464766939
1691524751.8389354,-0.8529401345090987,1.0850809806389976,10.104425168025015,-0.016568304357440243,-0.017689519423926117,-0.0076217518473918
1691524751.8489437,-0.19958558303967863,0.36389263922540555,9.879487989870315,-0.022153121748264608,-0.019089207765264172,-0.0163326354051882
1691524751.859002,0.4499484037430553,-0.5843318731099485,9.630905704206604,-0.01546432023478637,-0.012749841163272026,-0.0156980024005229
1691524751.869017,0.7250627919644551,-1.8516074475401085,9.576600562383046,0.0038105174715500913,-7.853846726069036e-05,-0.0163094231213385
1691524751.8790913,0.48766378791222703,-1.2805900370350594,9.78593943720292,0.020232774429689064,0.006365087818711428,-0.0094747382502014
1691524751.888945,0.296028615884053,-0.46550424808314134,9.805048792964417,0.01977113347986581,0.014505942062543978,-0.0046885858575756
1691524751.8989863,-0.2760940010159398,0.22393250907008855,9.933875057585412,0.012545110478772038,0.013143288996234598,-0.0032007859374339
1691524751.9091754,-0.8158927189759805,0.6587306364641463,10.019280506677585,0.0018598339958177455,0.007005124962806272,-0.0017978432408476
1691524751.9189682,-0.4898672767704107,0.3069201605162702,9.985937192468516,-0.0014515038036312545,0.0012189587298716135,0.0028229247725625
1691524751.928975,-0.7402571321487156,0.3952469798083728,9.824322905864642,0.0011890105673595466,-0.005481702747282494,0.005218302150542
1691524751.939045,-0.49574922514761394,0.12200993626924585,9.76748776598938,0.004599433810274197,-0.011122952717632447,0.0084622970496361
1691524751.949023,-0.7581547445046455,0.7478907340257143,9.809734048113077,0.0012688048837563516,-0.018728895140055053,0.0062608036858086
1691524751.9589894,-0.4148502535801631,0.8506681322980407,10.032484266037859,-0.009209019088654631,-0.026599805693487015,0.0037383444321399
1691524751.969039,0.2504722000510619,0.07439335684566176,9.645481220078421,-0.011902413405853504,-0.024098502059997376,0.0020635662547369
1691524751.9789867,0.8240247231562502,-0.5081165075731142,9.41135887637097,-0.00407771288727988,-0.015396989195467307,0.0018413825489637
1691524751.988949,1.0812763509631018,-0.3888510861900303,9.539283515433159,-0.0008346152985168521,-0.0050451217893031,0.0032621605967228
1691524751.999065,1.1816614519936355,-0.8478235582071865,9.800727667200531,0.00636854948492465,0.009411652108160747,0.0060300475631897
1691524752.009054,0.49971692160814957,-0.7993889789078525,10.328865672477413,0.013117359428567666,0.011166946711633912,0.0050987466418241
1691524752.0190024,0.8662609724047572,-0.2248928976375741,10.10407249735688,0.014348881184962265,0.01979476887698435,0.0093764823575561
1691524752.0289657,0.5759919253338487,-0.32566450884609993,9.82337175618131,0.015770437436735934,0.02386504159313174,0.0073271666367595
1691524752.0389934,0.3047941818248885,0.0823161571195141,9.455069648559023,0.01616511771379488,0.02220827193426866,0.0154859547217433
1691524752.0490353,-0.2119210375270782,-0.11669917463443612,9.16784335930444,0.020824069970813677,0.018033742615197225,0.0160087051515524
1691524752.0589566,-1.0099399468182697,0.8128859183851546,9.849990048325697,0.014788638292824502,0.0009832470608384931,0.0102568802137916
1691524752.0689905,-0.4081939582747208,1.0088176816194552,10.003049320557913,0.0030460787936479722,-0.006122070332249558,0.0024325064330418
1691524752.079505,-0.329491584055082,0.9728885360056634,9.912318283339854,-0.004735714817794402,-0.008660856296912997,-0.0054155841755623
1691524752.089824,-0.533068665699275,0.6689748156112897,10.126291133294362,-0.010734187870451705,-0.016944818411909035,-0.0085522334377224
1691524752.0989769,-0.11911330248509215,0.5166843815458718,9.916541220451604,-0.01556398578888605,-0.016584560266091123,-0.0114800173143799
1691524752.1091294,0.31336624349177605,-0.2971490010122402,9.646187782476032,-0.011353905568008867,-0.011746667320537887,-0.0133806287596876
1691524752.1190588,0.642070257098496,-1.5235471507193847,9.599248154342366,0.003604941634465309,-0.00047362874991564073,-0.0133261594275886
1691524752.1291454,0.542621224458137,-1.4179224579365026,9.729576930319752,0.01809921738742066,0.00897283100086492,-0.0121783341566974
1691524752.1395104,0.5305168079491711,-0.25474966474500765,9.895979382873263,0.018648345862427022,0.0180241442191993,-0.0057341602916772
1691524752.149017,-0.08873394384737725,0.4564437782879405,10.06124092424141,0.006896806270673414,0.01909670420610616,-0.0060352461698407
1691524752.159392,-0.7402447813264682,0.4112627455163103,9.894434144053463,2.3543330199894318e-05,0.016446555427143943,-0.0100433134759719
1691524752.1691773,-1.0072985842379205,0.5918933626428571,9.93770307348371,-0.004591206433470671,0.0066251040195597945,-0.0018947087048495
1691524752.1789758,-1.4102953113783268,0.27787976497826533,9.739844102531963,-0.0008956780687359425,-0.008286124278181256,0.00323943190212
1691524752.1890287,-1.1532874107806819,0.42708503601654013,9.883951549476981,-0.0022635519249067978,-0.022460468200818665,0.007648390502954
1691524752.199048,-0.7605493224869438,0.8814366021179826,9.866950607841115,-0.006484968021138914,-0.03364086907528249,0.014715491113538
1691524752.2090344,0.08979193024627087,0.3912197056297008,9.822111032988397,-0.010383382292696428,-0.032605293420582264,0.0129478566994016
1691524752.2190795,0.6835614508700275,0.11202131691075182,9.724494273053555,-0.013260299878382077,-0.024625727372762814,0.009520750743622
1691524752.2291234,1.0557067631736168,-0.3771870465624562,9.677666752406918,-0.010445015648054612,-0.013192814220681763,0.0041821531665568
1691524752.238964,1.144313553972105,-0.5749925011208374,9.472882974234574,-0.0051578114593323204,0.0014532375239966718,-0.0030865075352544
1691524752.2489958,1.2454911319610533,-0.9069128218448534,9.763020154363815,0.0029804972880879688,0.015850362226383388,-0.0028928851063306
1691524752.2589576,0.4262157381491594,-0.744365741454361,10.19001832285371,0.010231298619627046,0.018606449950040498,-0.0060096031340713
1691524752.2689843,0.31097144656361964,-0.13375004044523728,10.218782327789432,0.00994121660177991,0.015867135190394472,-0.0007101353078092
1691524752.2789786,0.3377585273453419,0.04600495048597507,9.69534908649456,0.009034939600990092,0.01640056082863605,0.0069412368063872
1691524752.2889528,0.3026190946038395,0.5187127010064978,9.522790550613642,0.004828947382549706,0.01526214379328252,0.0129770117525999
1691524752.299186,0.2556929270395986,0.8152062771360907,9.564255335337538,-0.004333946034601664,0.014960598207253812,0.0164980127190296
1691524752.3089852,-0.33589257909475134,0.10436975743114078,9.670271685562016,-0.0013061813798393772,0.0076738955770435414,0.015093940560991
1691524752.3189852,-0.536154744638027,-0.04474885989868453,9.648498560737071,0.00383799514351313,0.000123052546941973,0.0024537499009688
1691524752.3290296,-0.9252070119761697,1.2973807849172563,9.942385153365166,-0.008526514541134475,-0.009464801232018982,-0.0073963317374641
1691524752.338982,-0.8468885413305101,0.6893624401074082,10.35102168000278,-0.01830978782893398,-0.022729707708494827,-0.0132201916824037
1691524752.3491018,0.17259220167173783,-0.5550155813025255,9.72203722897801,-0.01542846754329368,-0.018201889101628788,-0.0181759872759635
1691524752.359021,0.7746121655976198,-1.528712416183878,9.618759658137604,0.0036027660412627583,-0.006782116255775083,-0.0136836923013384
1691524752.3689904,0.6394583571698963,-1.6712622009422244,9.810915888985537,0.020758777149707208,0.0024623274831963365,-0.0124461275811249
1691524752.3789697,0.7202571640494525,-0.10809277633368175,9.754573051942325,0.018874066841048406,0.015898933758115606,-0.0077379995311553
1691524752.3890076,0.04241464668066672,0.4507705584201763,10.189355963670012,0.00476862710593758,0.01715871127591263,-0.0033223198081309
1691524752.3990705,-0.5517586667423839,0.42532507928839913,9.8033969781702,0.0011613736635543998,0.015453306645938306,-0.0008508188004548
1691524752.4090247,-1.1376958273965314,0.5553080454083579,10.01981403144216,-0.005192808715185871,0.0037406073510771647,0.0014941400038601
1691524752.419011,-1.304975365738684,0.26672125875520086,9.752431074885726,-0.0013702521560605301,-0.009961014193055406,0.0075413964402919
1691524752.4289834,-1.2091068758735615,0.3079274437287016,9.861864490849259,0.00043063052112942584,-0.025794228927604357,0.0107827952777092
1691524752.439063,-0.4699636327714957,0.6701853141798951,9.80838608467886,-0.002208997879573142,-0.03293162019778177,0.0101592608441655
1691524752.448972,0.13706959685742295,0.49007195391789066,9.759087285565975,-0.009283382417077877,-0.031858731149948596,0.0055536979523544
1691524752.4590542,0.7424999425826838,0.26765968773824333,9.55795146250627,-0.013348923892115715,-0.021709136365968527,0.0052215622452144
1691524752.4690063,0.8391375202321301,-0.6265081756387865,9.505512928863201,-0.007463371159938937,-0.011048818854138836,0.0029585136978944
1691524752.4789605,0.4187562244722094,-0.5536253047005724,9.578876509307317,-0.002580595940959099,-0.0051595184459535155,-0.0011832359998429
1691524752.489077,0.3698728722026913,-1.1316717786489874,10.039941960465391,0.008387731169634415,-0.004390169163595536,0.0020805503770766
1691524752.4990172,0.4334534183093968,-0.9787119488840197,10.142900134120655,0.017285213239641772,-0.002153394179462853,0.0046337950223182
1691524752.5090425,0.9898282289027297,-0.46014881010914094,10.001647146383078,0.02260451168891234,0.005139946715998799,0.006990396202827
1691524752.5190322,1.1140069027418975,0.5689778459920356,9.748038248450792,0.013651770022806759,0.01642926899097934,0.0140977914159243
1691524752.5290074,0.7939535109178184,0.33815270432513334,9.581554475370305,0.011122338316933055,0.0212071724667624,0.0187708700721209
1691524752.5389931,0.2191891820263563,0.918429054387211,9.53483710347538,0.005226228032794192,0.021632184504283128,0.0187469406698887
1691524752.548992,-0.5674398527154001,0.7769775660996966,9.769404549169211,-0.0010161698801172097,0.012664162982646667,0.0127079927076642
1691524752.558983,-1.032774731812066,0.11408466266266884,9.936411453816875,0.0016371265127621006,-0.0032293991927811656,0.0012586693790303
1691524752.5696375,-0.6065564286200626,0.5137921711467505,9.787509155733884,0.001500162445325877,-0.01277654838744983,-0.0093267408485467
1691524752.578977,-0.3499435054517735,1.0677947611422496,10.047141886696886,-0.010628680911649951,-0.016676113874030396,-0.0170668994362408
1691524752.5889888,0.24533352507025633,-0.07848741371098077,9.925939864897241,-0.014380261424843438,-0.014604318530850462,-0.0211255585129315
1691524752.5989995,0.7008782665344997,-0.9840303633985703,9.515032657161514,-0.005522252236290021,-0.0021250157185665522,-0.01923270125938
1691524752.6098635,0.3085639205910147,-1.7503486820213376,9.799050227565093,0.01188775068968044,0.0035615239545182353,-0.0171211303497607
1691524752.619009,0.13688959303667048,-1.1092595487533456,9.764912644689629,0.023130068857858663,0.006995439771153871,-0.0098887036840374
1691524752.6295717,0.11312392471306379,0.012464825550453022,10.05089198256279,0.01752440957406894,0.00868853208378747,-0.006960334936803
1691524752.6390054,-0.4753701000209084,0.7490963679355879,9.786039607276726,0.009117912499102324,0.007110125697347977,-0.002365930453589
1691524752.6490755,-0.44390330586986493,0.9153549789725937,10.174503431205636,-0.002504301136970226,0.002764616832411497,-0.0027224744955951
1691524752.6590364,-0.6305870145238028,1.0363280808726998,9.925271238008243,-0.009574887206868598,-0.0027689349844468134,0.0012203618714643
1691524752.668974,-0.2627466083709356,0.6851401620369367,9.759256389745335,-0.012190454363438732,-0.006331432962984567,0.007096540899301
1691524752.6790054,-0.24521348521487982,0.3497789413735647,9.431918804145262,-0.009005296467328242,-0.004664018566558613,0.0099371208523457
1691524752.68898,-0.4473711495055131,0.2654856598789411,9.66071840570232,-0.005615240853117132,-0.011682886298436848,0.0138657961686198
1691524752.6989648,-0.8547113263795136,0.6156562362921579,9.95132762743341,-0.015205857580615946,-0.020878843003849287,0.0069428042222802
1691524752.708991,-0.17994723793283715,-0.09704557255818276,9.898947223592552,-0.017505890391295412,-0.02564308375436445,0.0052563639071827
1691524752.720306,0.247412696463968,-0.9072408990502454,9.612876311826788,-0.007945999627695247,-0.02232494045483901,0.0017912233777401
1691524752.7290084,0.7862802066518391,-1.2820034013726038,9.618233815787324,0.0025816176186138177,-0.01590027314482102,-0.0010160808271671
1691524752.7391212,1.0858929193910554,-1.249479615400722,9.917873299626935,0.012605487328899033,-0.0027025862739921986,0.0037014612642174
1691524752.749082,0.8551776848270818,-1.235796306370373,9.927642067459182,0.025981482192729752,0.00497557118907638,0.0059236383711045
1691524752.7589934,0.8192219818658227,0.314759036339615,10.06513520040021,0.020680827443513714,0.010836298839211875,0.0148897248034422
1691524752.7689586,0.8221466595546771,0.3327998667396368,9.582573516591278,0.014265859831378295,0.020672055895519122,0.0191139897977059
1691524752.7789989,0.07190167620581757,0.871734534136979,9.698380428928777,0.009011351744111685,0.01719671863276276,0.0236193745111172
1691524752.788973,-0.2635237527275144,1.2707859089215445,9.704398191472013,-0.0031560303477668806,0.010981300252837145,0.0194825625692551
1691524752.79903,-0.37948988797766126,0.5234187260239295,9.561947526111146,-0.002371731379270761,0.0037934981268137754,0.0095955005561058
1691524752.809022,-0.545730174702119,0.15427170888121333,9.815894820203745,0.0012999887648698313,-0.005106946630668462,-0.0042487873981649
1691524752.8189936,0.11068603197409714,0.593502058525286,9.862507349376106,-0.0041671340737862396,-0.007055238371345186,-0.0129473756353313
1691524752.8484566,0.2743389191982054,0.3681465441218966,9.87880953700009,-0.0065423998560797565,-0.0024177157649395943,-0.0176665575529391
1691524752.8513937,1.1167031124925357,0.931813840810299,10.105421525164216,-0.013608436178823353,0.0025764071211323235,-0.0171421484376246
1691524752.8523047,2.737744200023849,-8.164326701332183,6.038205101047618,0.0005201847212866866,0.008042425697569184,-0.0167330538208539
1691524752.8589897,-0.19345806672034566,-1.8389132995612025,9.909944923219651,0.015022107555786715,0.0038919706435645873,-0.0092407630111033
1691524752.869037,-0.05095872349228034,-1.234669299937083,9.754049888012648,0.026685605969127148,0.0052745993158228996,-0.004392626444524
1691524752.879048,0.23604537860821254,-0.1192083454970438,9.820701124062417,0.021818208374508163,0.008914605268950538,-0.0040284392709786
1691524752.8890612,0.1052631512058866,0.9689205950282462,9.811144602240542,0.011538110574780098,0.011358157015363145,0.0015604728430566
1691524752.8990014,-0.6288907784089305,1.0344395500854071,9.730059652726816,0.0003463447299310371,0.009146007096934642,0.0001318841421102
1691524752.909019,-0.6478309405316622,0.8922395400604646,9.926941589387445,-0.004171346606836815,0.003095753929049419,0.0036555393778776
1691524752.919028,-0.7205385000355977,0.9955357406147107,9.784425458628533,-0.004315472843022689,-0.004145493675255385,0.0083490426366274
1691524752.932304,-0.42632141875416135,0.6286995624036554,9.780195513594784,-0.007547578243662281,-0.0074803015677294285,0.0060218873147909
1691524752.9427102,-0.49081670533244065,0.6955295120935975,9.819845821766163,-0.013309812593806255,-0.011684389382212588,0.0047165197500084
1691524752.9490678,-0.4678894001710663,-0.3138799104682352,9.758055276977672,-0.009766667739886313,-0.015481196783687937,0.0010467724530549
1691524752.964641,-0.05924443248374108,0.04390693799753562,9.812954023677516,-0.015007718634826053,-0.018447714303994642,0.0008269700808973
1691524752.9690626,0.7149448243292893,-1.3741496541172467,9.41145566405392,-0.00830641740666292,-0.013324955768477064,-0.0017919640342647
1691524752.9790125,0.35584979427800423,-1.4706999156989868,9.82836397768325,0.003835457091951134,-0.009278612878234775,-0.0068098257581646
1691524752.9890146,0.9408531177936851,-1.6263578571626025,9.845299780600755,0.01999358483647475,0.0007040240548981333,-0.0049488532642776
1691524752.9989944,0.7657492459094097,-0.4792073462042068,10.008656644232108,0.02359923301206907,0.007987028543222773,-0.0010500349855924
1691524753.0090165,1.1888640195161948,0.34904198059692565,9.796935772998717,0.018403951282091435,0.019667534896752027,0.0113225050916021
1691524753.018993,0.2546914778932788,0.39637537823012525,9.736936000428365,0.013189452663123383,0.019407242477037796,0.0176137632404511
1691524753.0290108,0.07771626749102716,1.0505555916908973,9.78727759466643,0.004424814997758299,0.015733837115828715,0.0201145729695504
1691524753.039006,-0.13736491768778214,1.0501858720763626,9.619167021084037,-0.002064576490615028,0.011409344592338168,0.0163179414992277
1691524753.0490026,-0.18349343585737127,0.8121333975288807,9.443082002901921,-0.005861603826490989,0.007875944165932942,0.0106587729130928
1691524753.0589826,-0.5266141411717765,0.06288352855145626,9.806108713962274,-0.0016597546418544587,-0.001694986427848545,-0.0008017655747885
1691524753.069045,0.017591564620852856,0.11530010147407004,9.78181517779438,-0.0005775339355838683,-0.004067564885924077,-0.0142586396361643
1691524753.0792134,0.48238418280808154,0.25348315005751537,10.035801321368044,-0.005187145397448863,0.0027083722652362524,-0.0209216920013482
1691524753.0890346,0.35583898825208343,-0.3634424081593703,10.082963082434572,-0.0062496368403173975,0.008148307491877158,-0.0202940122510249
1691524753.0990667,-0.45788993465970573,-1.2857492311612673,10.03926641402893,0.0037456091004747644,0.004776301354156896,-0.0191984546656663
1691524753.109072,-0.018823612872229403,-1.5899418785972506,9.807101941207764,0.01803402682958472,0.0047010278697598796,-0.0103900579090172
1691524753.1191385,-0.29647123389385716,-0.9073655026690071,9.748965489889972,0.027525292135368404,0.0003064065545005483,-0.0027024021658057
1691524753.129096,0.533076474936864,0.4323057245529321,9.688664788033954,0.021676625828611785,0.007897178752638557,0.0013126754090712
1691524753.1390967,-0.1142532383626883,1.819165912823007,9.801184744849975,-0.0006078114100801859,0.011935459099655267,0.0038095938687269
1691524753.1490264,-0.7519775664767654,0.6696121586022155,10.079919722817138,-0.006112644835494624,0.003920863325849459,0.0024161267972608
1691524753.1596365,-0.7707536560341673,0.31640890882861833,9.755297170185342,-0.001977538371085679,-0.003583694136552255,-0.0001185401163006
1691524753.1690078,-0.3629589656231019,1.2308570231987266,9.608038164902277,-0.00863573439302433,-0.005104742944097115,-0.0016921057651693
1691524753.179021,-0.4246635723716887,0.8106361160928038,9.783226223853262,-0.013994604773792791,-0.011331879085618987,0.0012520953921643
1691524753.189045,-0.28096116560663675,-0.08854629732560959,9.641350573862557,-0.013207083153289698,-0.014455919409999353,-0.002268776279589
1691524753.1991043,0.07244644425705149,0.12468973761663057,9.740922342420207,-0.012721976834795557,-0.0133831015719908,-0.0014980400266999
1691524753.2090995,0.11220296667610562,-0.23322828564530404,9.939165133941804,-0.013644354947753354,-0.013047078178068662,-0.0039466793934757
1691524753.2190492,0.0611375573452316,-0.7651049311844182,10.028090407302066,-0.009800215750703679,-0.013058707646837666,-0.0071767826850468
1691524753.2291462,0.4269496185891337,-1.2711364056246637,10.018018953970826,0.003865340822261524,-0.010826760559272666,-0.0043865365262086
1691524753.2390902,0.9995271927452207,-1.0491072539535027,9.895316018921257,0.013873591785535051,0.00017805084151168612,0.0005465023748633
1691524753.2490232,1.0904290646960841,-0.15433335268001072,9.889356146327625,0.013257418882319603,0.01127457444530753,0.0053723182243352
1691524753.259032,0.7659162632212217,0.4186768502555585,9.697652044487251,0.008739609781498882,0.018499014207437745,0.0167163575713579
1691524753.269065,-0.008346810480663245,0.5706939594260754,9.765194520343675,0.0013967970025571535,0.015756741478691844,0.0199735725943987
1691524753.2790587,-0.01116921903735678,0.5304654087955134,9.527885167540195,-7.718625721292685e-05,0.01375145105257875,0.0194557162647192
1691524753.2890053,-0.49062018064881263,0.4638767904538619,9.47115115478098,-0.0003157363866947731,0.004933805629718618,0.0123328708757703
1691524753.2990074,-0.1676955222746313,0.7054833732918204,9.429260563912418,-0.0058052997443284,0.002770117777266704,0.001466562116338
1691524753.309034,-0.026424282278253042,0.06024619778263688,9.617033387304696,-0.003330653834767836,0.002221669876752701,-0.0078604880074913
1691524753.31903,0.05991811686342018,-0.050480016350571574,9.957978021758132,-0.0010798276766069113,0.0009394777277463064,-0.0134741018812114
1691524753.329587,0.19976412611509178,-0.015887023863725442,10.275042585475035,-0.002763571192795604,0.0035025775260915212,-0.0169467923517281
1691524753.339073,0.06553061164956653,-0.6637085491595472,10.17616856629036,0.0008858269063159206,0.005916729457395069,-0.0168161184812838
1691524753.3496652,-0.6533603956049785,-1.3011517397070291,10.094261510545087,0.01229517542132529,-0.0027469323710691655,-0.0118271091307456
1691524753.3590038,0.017551565147392242,-1.2341043805150451,9.771697506350375,0.02096360913136391,-0.00268481372697753,-0.0057826775412018
1691524753.3690815,0.24114265016144867,0.061798157135017656,9.576804459678234,0.023298542059801332,0.0025300339232848176,0.000726738264138
1691524753.3792276,-0.01935436808103618,1.4940805617920465,9.835103352869261,0.003171935878776361,0.006682559282931701,-0.0041961131903285
1691524753.3890517,-0.5354304926268048,1.1743100740170562,10.153743922374728,-0.010957762233703495,0.0027600849364870965,-0.0076286864752824
1691524753.3990736,-0.6263217307738917,0.1492148888598872,9.707921323999173,-0.005674542258586081,-0.0029440617073334847,-0.0077460564027483
1691524753.4092352,-0.42700414147373744,0.8131833077119949,9.694423193690438,-0.008189091445648444,-0.008513682500694252,-0.0062485451164598
1691524753.419113,-0.1299717202690343,1.2746995024753836,9.536223950512046,-0.0172404576689952,-0.009574194687461212,-0.0020394010755176
1691524753.429561,0.13781568770943275,0.3621005570591357,9.603747565901205,-0.02124020693553124,-0.00814471362475981,2.82051221524764e-05
1691524753.439154,-0.2995640956795386,0.04406330867354853,9.756012448739908,-0.020518289245344476,-0.010677795956356612,0.0016371265117136
1691524753.4490728,-0.18540239630115424,-0.5134472603540258,10.104067514541855,-0.014243712160261521,-0.01623856763218788,0.0021256929210444
1691524753.459118,-0.14718577490334528,-0.7817610516025459,10.019246045325586,-0.009687705450763378,-0.019030298336640505,-0.0045485670964176
1691524753.4690723,0.5108874529672793,-0.9358254706331959,10.090899429972177,-0.0028215749479091807,-0.016131286214828077,-0.0055636872823292
1691524753.4790404,0.7095915440859137,-1.0495639375084467,9.729214302370524,0.00826973532484364,-0.00787400508448747,-0.0045981670084352
1691524753.4890542,1.090339448329687,-0.5245416598779419,9.814860841537586,0.012349954201539105,0.0010198625215118082,0.0030589328560104
1691524753.4991393,0.9047910289048758,0.3308823408133786,9.835764360498437,0.005207479289485252,0.011562883102591301,0.011631475081021
1691524753.5090566,0.6333607338950132,0.7990766957655877,9.927633652715231,-0.0020959534451283806,0.016015215203014816,0.0174583385412638
1691524753.5190854,0.3225979141065294,0.5976842138001204,9.717318284780992,-0.007564917245911083,0.020636335761564567,0.0183111953263228
1691524753.529184,-0.38984176504398005,0.23443769317610047,9.590721714635642,-0.004544436569862888,0.012763988606105642,0.0144920090858881
1691524753.539046,-0.6074779276673646,0.7393375338272821,9.47484815212579,-0.008542203881996509,0.004504204743247424,0.0070821826991682
1691524753.549147,-0.5341445799376905,0.30467605336008646,9.480857848356663,-0.009397567244948071,-0.0027195691787680987,-0.006384460470354
1691524753.559096,-0.42475282674003956,-0.019482665382109327,9.639803785033317,-0.008765335192247887,-0.007983181736548009,-0.0166129225219542
1691524753.5690465,0.007373077579059694,-0.07078411323185914,9.809209242579355,-0.008731710308174573,-0.007437202169854237,-0.0193824355776364
1691524753.579116,-0.08983945054869175,-0.3919017040161506,10.200942859159447,-0.00687557624896807,-0.008760458077018501,-0.0177104451979453
1691524753.589043,-0.07403977296909645,-1.0230402985308678,10.13406316917669,0.00038659725818484354,-0.008120907510440154,-0.0144418475503976
1691524753.5990982,-0.13848214456154925,-1.189000418470726,9.947844977814597,0.011740029171420483,-0.009153148805538544,-0.0080888035993034
1691524753.6090572,0.23852734027274236,-1.1514665873338834,9.67651638579239,0.022221585876306207,-0.004174549206155225,-0.0008631923521811
1691524753.6190555,0.20958168682620323,0.6269238654791287,10.039091483985246,0.016032730278555046,-0.002385326742856572,0.0025139398819824
1691524753.6291218,0.5206681057635788,1.5885266939921907,9.922913898583928,-0.004830445728050622,0.008199729577172889,0.0022146552398858
1691524753.639084,-0.28781996458064096,0.9049765409843974,9.901994050844472,-0.013140420048188972,0.008369550961197948,-0.002568724314397
1691524753.649201,-0.3429085507562257,0.22803391359389386,9.552910035885043,-0.008237900260304843,0.00589901663710602,-0.0016969442187751
1691524753.659041,-0.9065088316510714,0.9023615793622952,9.439110740309456,-0.010816900144516058,-0.004089590129044818,-0.0027146891045326
1691524753.669068,-0.13467447830363954,1.2078914091473836,9.771003116127929,-0.0208197052849047,-0.00821818408117128,-0.0010782857245708
1691524753.6791618,0.09412995898778635,0.21818247826199358,9.640558346617453,-0.024958096007891912,-0.007795862161253576,-0.0005659778655449
1691524753.6891296,0.13387175997783074,-0.4395246659810437,9.886804782168314,-0.018299877513024584,-0.0076804797031098295,-0.001261361623829
1691524753.6992424,0.12073391619730116,-0.9078361145310596,10.103515162964815,-0.011305262659562212,-0.009614626742965256,-0.005963864485448
1691524753.7091808,0.6211630376239465,-0.8700689296678447,9.816184161184431,-0.0036047021901845317,-0.0015754396818221867,-0.0055585990014428
1691524753.7191105,0.2712947520070133,-0.907602447691796,10.14655189010539,0.0026828504433782405,-0.0038508411963778045,-0.0047538934561366
1691524753.7290678,0.479395639214846,-0.4650790309411918,9.740402407075875,0.0037341008553632635,0.0017524033274357869,-0.0001215217455233
1691524753.7391536,0.7755499512680167,-0.6927271842555524,9.83200015089917,0.00987777416987749,0.006318216677930264,0.0065173164655511
1691524753.749171,0.44068155131765785,-0.0008605308982735036,9.599719598135145,0.011648212138142433,0.011479777791224359,0.0141534165193383
1691524753.759143,0.3429921351370112,0.9821552860901349,10.090364384369472,0.0017364221299719274,0.009367812707355823,0.0211719966207688
1691524753.7691898,0.5176041622578306,1.0567806253761478,9.713032614874274,-0.00931235544707476,0.0160672495349848,0.0199282767896597
1691524753.7790916,0.17446400089200714,0.5512399351284164,9.54431658218681,-0.009217758060913768,0.015656631525503117,0.0156915814329927
1691524753.7890708,-0.180362279352349,0.4269955185767463,9.356479787567238,-0.010788399841647528,0.015576080993475634,0.0039179611665253
1691524753.7990992,-0.5654794304875974,-0.046269067597042364,9.548704332011228,-0.0070268751472725615,0.007192761017266055,-0.0066944302345568
1691524753.8090703,-0.3743232751790964,-0.0186960805034194,9.675900422892498,-0.007018276534739145,0.003265472928770118,-0.0158407909150178
1691524753.8190658,-0.40285004745374536,0.07648329476914603,9.977507851175474,-0.010140740230963735,-0.0016956055832575438,-0.0224028692866618
1691524753.8291523,-0.3864033411064293,-0.8188047293567277,10.250832631438287,-0.00630527889686243,-0.006169994929574649,-0.0217061803962046
1691524753.8391285,-0.4654313752147776,-1.2957590810222166,10.091132420068865,0.007097577324553587,-0.011008406450422212,-0.01372658715648
1691524753.8495257,-0.1271894001044914,-1.1513969876677879,10.032058430580307,0.016142986636943423,-0.013919284239974133,-0.0061072001519555
1691524753.8592792,0.47103209165099263,-0.8263694608639438,9.715697888869077,0.02472721236247619,-0.007667904430814854,-0.001582001085108
1691524753.869118,0.9414614943657312,1.5864920658204889,10.073158066398896,0.0046047046359035,0.005194935459441614,0.0016206818288715
1691524753.8790538,0.5439985528567678,1.4689665239754786,9.850392331464256,-0.012815966830932703,0.0171474831547828,0.0044196916458254
1691524753.8891523,-0.44715493877544027,0.5035701448807399,9.615602536444452,-0.016461424253437593,0.017534298312602052,0.0063692669098322
1691524753.899079,-1.2578475584139424,-0.00500781777393284,9.463052109259984,-0.008605445558082424,0.004059400722840493,0.009429171932215
1691524753.9091115,-0.878547620832314,0.8395640102351583,9.54358452549479,-0.008348892709945727,-0.00875900726073442,0.0105200067807977
1691524753.919061,-0.35856737366310787,0.8429189226070699,9.7595369258362,-0.019744893634639504,-0.013209570108796026,0.0060168870438878
1691524753.929106,0.5168967397106555,0.005612464303265788,9.777419205213729,-0.020756666688010267,-0.008631627341427158,0.002587689803267
1691524753.9391062,0.5128409353339435,-1.1282117140886123,9.755356403299041,-0.008379412744597258,-0.0016913468898305884,-0.0038662350091094
1691524753.9490798,0.3753856356352635,-0.6711052038737992,10.10447626164369,-0.004154914613717634,0.00029915596101554205,-0.0062273067708069
1691524753.959061,0.12090655240166026,-0.7494110478992887,10.131981123972723,0.0014195396128960397,-0.0001918707039517475,-0.0070695837314183
1691524753.969081,0.02307471978361274,-0.967106520678232,10.019373047260693,0.006989664369231003,-0.002706814071956601,-0.0069953861932213
1691524753.9791229,0.42139415506011085,-0.7499296321569316,9.633993722602925,0.01569823904932887,-0.0012543073187233013,-0.0002403175278509
1691524753.989093,0.4656237095046932,0.19918516905613448,9.932352776380268,0.013351294339458674,-0.0027657138210238504,0.0099404708196466
1691524753.999051,1.2245811483450368,1.2083991917154853,9.762168778099896,0.0031617473437002964,0.009790806439169752,0.0223444572364037
1691524754.0090947,0.9031196370379876,1.102486565670219,9.843277337535186,-0.00828311590408183,0.020087850051889705,0.0266938696329539
1691524754.019231,0.07651924994129349,0.4415422161784846,9.764924646117247,-0.009439624987252742,0.02014836804917812,0.0217704216663782
1691524754.0291147,-0.22317286292654004,0.6702475398901572,9.311910272970172,-0.010356615873523808,0.01961026978398747,0.0130347071860974
1691524754.03912,-0.6752513520317615,0.46531169429222335,9.594235514599195,-0.012820055139910507,0.009351922038893758,0.0022075757331272
1691524754.0492053,-0.7937858595617906,-0.17815375649590953,9.506841891358357,-0.01279144530014626,0.002830416345447375,-0.0117257179046923
1691524754.0591571,-0.4080237235253195,-0.7547106130817693,9.794561091784763,-0.004268921291906847,-0.005408064283073009,-0.0173003168131167
1691524754.0691323,-0.1281335230919642,-0.8472039927693122,9.895180721945824,0.0017328251020265486,-0.006327662809771974,-0.0227839869732911
1691524754.079137,0.09637598444073854,-0.7226889387348427,10.147896134194951,0.005049067247277431,-0.0045341702719631505,-0.0131145992602164
1691524754.0890794,-0.5601708243784063,-1.1331034102643316,10.280696010178977,0.01135301693209333,-0.010126112305101496,-0.0095479988778884
1691524754.0992243,-0.12449211923584606,-1.5291253778586462,10.014434436336508,0.024860947949000223,-0.012403365046502938,-0.0023800788733119
1691524754.109181,0.45172020258147605,-0.28894655378171835,9.836131234403192,0.02978881718044553,-0.007945026054905147,-0.0001041093894223
1691524754.119128,0.6612808467176182,1.6864397695569058,9.742142803427793,0.01355955315402609,0.004534605416064118,-0.0018523516884947
1691524754.1293557,0.4274531345887781,1.9425339250047344,9.912781043545936,-0.011769879165665895,0.01571632253025371,-0.0052097479167337
1691524754.1390924,-0.2911617269118864,0.6268734108031897,9.687900016618137,-0.013425747571009398,0.01682602809946462,-0.0030213480169827
1691524754.1492558,-0.7845102330624494,0.33937148893950575,9.606999889601322,-0.008952701561862305,0.008549986264743315,0.0033810024795179
1691524754.1592133,-0.8642344862674192,0.8919087497925522,9.59096998097276,-0.012809123602517916,-0.001053864500433864,0.0085216036711876
1691524754.169356,-0.29898870652334225,0.31894730458026943,9.729394241023634,-0.016495692889738806,-0.005044096983030747,0.0055834420670812
1691524754.1791222,-0.033223573043180334,-0.1875495421872136,9.817394572220556,-0.016741210428761165,-0.004886101088056025,0.0028573039633279
1691524754.189089,0.022469084808579013,-0.8656836450968971,10.112551712768516,-0.008815249683777617,-0.009289769233529794,0.0013872789020474
1691524754.1999738,-0.0967143612862023,-1.2859850809582134,9.996277849055353,0.002380756010915484,-0.011510019061072473,-0.0031795080105716
1691524754.209117,0.3631039752907154,-1.107175544983218,9.947301230436693,0.010667645346109212,-0.0093761484597946,-0.0052247324312979
1691524754.2190964,0.4448966175148247,-0.6673412668651786,9.977417443795762,0.013290589058189828,-0.008100610948944549,-0.00175726132532
1691524754.2290993,1.276008976462695,-0.3647494640539571,9.636255174214746,0.017838395813523523,0.0030177954418013856,0.0053675088745599
1691524754.239152,0.9941394505097583,0.657204565704777,9.743025519735967,0.011311765553706773,0.012100725980511923,0.0171989447151367
1691524754.2491224,0.813719760140192,1.223414864530408,9.817788178623635,-0.0019008350982304743,0.019619754459519162,0.0232854748790209
1691524754.2591648,0.25732021111054787,0.5213218764459467,9.780781661619965,-0.0015439071172116108,0.020123787184043285,0.0221407006208842
1691524754.2690856,-0.1615954526938556,0.7986551492264412,9.570158522034568,-0.003962276617677812,0.016453032443467637,0.0158623589848225
1691524754.279085,-0.28302468060874486,0.8087742084486491,9.65447135837129,-0.012186503172463352,0.01172266121312734,0.0076858701829855
1691524754.2891695,-0.6342276568121366,-0.2615298167246617,9.563780459385455,-0.006373866373765929,0.004795111897275629,-0.007486060942238
1691524754.299141,-0.33144462091741755,-0.5808726154093106,9.779699738712296,-0.0028654092471848904,-0.0002603956345574489,-0.0218299364025647
1691524754.30915,0.2809960741333446,-0.3708323766390821,9.763210190957176,-0.00015012958001897627,0.002997462104975032,-0.0215594430739934
1691524754.3191998,0.23356334535479578,-0.6927625942759853,9.962570694035223,0.0027902568676936054,0.008338260749301702,-0.0179560163344199
1691524754.3291988,-0.5739353940951875,-1.0622324415797204,9.985012019967352,0.009317500529904366,0.0039457221550941975,-0.0118093609164411
1691524754.3391242,-0.551901202174872,-1.0735169070072026,9.98278913134331,0.019132938747836704,-0.0036125093506494408,-0.0004713061318675
1691524754.3492894,-0.49123734101134287,-1.2732184731873128,9.7941085245211,0.03236633980576914,-0.010698399901271811,0.0041263257333134
1691524754.3600051,0.5593181538484333,0.717225341320764,9.633104533395384,0.02669148745036273,-0.00286516520942742,0.0109226771344487
1691524754.369123,0.3000247074123428,2.007720357915323,9.809625642233435,0.0034594909501890923,0.0065397584929735,0.0034993188635503
1691524754.3791137,0.024920835620042967,1.5222909376537146,10.122196345284369,-0.013514108683605919,0.010516416142141258,0.0016307792864331
1691524754.3891618,-0.46495219070081484,0.1857810162715984,9.84127758901073,-0.009117793706615536,0.008669537842915105,0.0011492547089524
1691524754.3991966,-0.39474216907131005,0.5197969335381071,9.655255868239943,-0.007707430147161659,0.0057421828575289465,-0.0007503153576458
1691524754.4092538,-0.49695609949137887,0.9185915223994953,9.811909179014826,-0.014040758165079013,-0.001916646398797506,0.0023621326725055
1691524754.419252,0.44481914748280027,-0.15030667657144645,9.752215511932112,-0.017419972950106843,0.002030662700078029,0.0002437995460872
1691524754.4291418,0.12117728909491342,-0.9284004910109853,9.564865711885465,-0.00471670731115136,0.002515741080558278,0.0021523676293959
1691524754.4391477,0.23665491513772222,-0.9412778816786119,9.787437865653466,0.001708632617166426,0.0024404839836811663,-0.0008166692971194
1691524754.4491751,0.08254059226344959,-0.6785972307763092,9.671827127471344,0.005410771583479216,0.0038631723937399493,-0.0036986109155173
1691524754.4591072,-0.1332354226653988,-0.7132067076147212,10.00678983849479,0.009109296924568293,-0.002751095455089143,-0.0011508713762218
1691524754.4691188,-0.019091531949009363,-0.5741965910698785,9.895201077255862,0.014320634244306836,-0.006906248946629849,0.0030963185888772
1691524754.479104,1.0559391165415026,-0.39215465535361554,9.773157397495835,0.020804069569498748,0.0016321359501591164,0.0101258794491236
1691524754.4892533,1.3612519168282349,0.601018568288398,9.560092061954068,0.01732391888770933,0.019651081148830928,0.0183338953827565
1691524754.4991946,0.7138709914586097,1.8262795927811986,10.144470033560227,0.00025995208005913145,0.02652816017762679,0.0210543631290142
1691524754.5092144,0.027969017120680728,1.4523884740442772,10.018309558915568,-0.013913008856264288,0.029749053263947445,0.0180653801833336
1691524754.5192106,-0.8506791286718578,0.7027230658789986,9.928572059907252,-0.01797156930314451,0.01820119577452961,0.0111687437345331
1691524754.5291398,-1.1556910794710313,0.44704794718145857,9.53442718245144,-0.018882263364689945,0.005672636027507033,0.002050848288281
1691524754.539239,-0.8237151346275428,-0.2721868806959455,9.542453022950067,-0.013697731707781253,-0.005024086844962541,-0.0058612406539673
1691524754.5491376,-0.8490469685626933,-0.09165327819177183,9.673020106213224,-0.014101264626437472,-0.015492689630629932,-0.0128071231122071
1691524754.5591395,-0.14301555834333132,-0.2157304569479874,9.920348373498056,-0.015311022132885863,-0.01857012069746504,-0.0133721332351619
1691524754.56921,0.14699312147262172,-1.1222560170345388,9.951443420171941,-0.010160854565346586,-0.014119105968028076,-0.0129880595306808
1691524754.5791883,0.038144257109593585,-2.042055681230106,9.99049084755172,0.009347011946088613,-0.01277499460817228,-0.0099783760781342
1691524754.5891068,0.3753167395329658,-1.7840520245472462,9.922364767175061,0.02858624880956299,-0.006556589337399713,-0.0044036668079848
1691524754.5991883,-0.13418829197880572,0.550607710313043,9.982981896477316,0.024274311605903334,-0.006094009597070138,-0.0064051656338329
1691524754.6091232,0.5926584568485327,2.6669573216972267,10.301375755919183,-0.00758179006943459,0.0038096790697052696,-0.0051893696474785
1691524754.619383,0.12688263149652082,1.298342151561704,10.010077873644123,-0.023859805510232344,0.009597280409853118,-7.935728011080733e-05
1691524754.6291444,-0.40414758205206675,0.07491088788973507,9.574783379718152,-0.020261957518297086,0.006836811661670307,0.0065727669459824
1691524754.6391578,-0.5070703212796166,0.17373337664756527,9.279127861828881,-0.008821149134678371,-0.0006955792458038584,0.012918174517626
1691524754.6492646,-0.17196932323141087,1.215565684857637,9.324843696018165,-0.020351337483646804,-0.0026368336456428117,0.0142581782017891
1691524754.65914,-0.2521162917886349,0.03615521698355939,9.687379881830294,-0.024406728875275736,-0.007076613777950647,0.0076579970953111
1691524754.6694293,0.4023126363175896,-1.1779955964635804,9.574880894599227,-0.015551730000087185,-0.00309093699825888,0.0032863661360984
1691524754.6791492,0.33124112363716607,-1.421109688622053,9.965944707597245,-0.00011599446653009425,-0.0028106985611794284,-0.0007302393025661
1691524754.6891985,0.38748515563368247,-0.8180460722536285,10.23504116212968,0.0023170649623345642,-0.0010713200712057372,-0.008859925652569
1691524754.699174,0.7472229274797249,-0.12038429249547494,10.16264061232824,-0.002198804492314767,0.0060902201484420845,-0.0098940271238739
1691524754.709214,1.1858997033095888,-0.9582554148464875,9.97878277564801,0.0072106394404043905,0.016885577608682274,-0.0043662490609044
1691524754.7191525,0.8113875408846141,-0.8632180967038928,9.680890804437173,0.02055612709974361,0.023462188360995766,0.0020610593671967
1691524754.7297528,0.5337155441210129,0.38809035606017234,9.623861925244618,0.01867897258379851,0.027432985210103483,0.0111757901211326
1691524754.7392724,-0.01671248122281859,1.2502101450996057,9.398979900160011,0.008446800331478009,0.025431648290743084,0.0208859520678465
1691524754.7494738,-0.5174665901945905,1.5449576376120027,9.701883439457932,-0.0048893351522410625,0.01558328459480441,0.0282498321210091
1691524754.7592125,-0.3848936796057596,0.9098271817155145,9.714618128047606,-0.0115562658306927,0.011303991478711741,0.0228256045554821
1691524754.7691462,-0.39606710851785576,0.23759264681949718,9.857597531478673,-0.011313135929257275,0.004725522940559605,0.015553744760627
1691524754.779133,-0.5975489711514189,0.08672513966571035,9.817096045863092,-0.010714832352482146,-0.0003894111595491391,0.0044743891519551
1691524754.789127,-0.39753643427353125,-0.536489197916406,9.89235304636378,-0.0036159126135002083,-0.005927298168670173,-0.0051636902901286
1691524754.799176,-0.3905543988231632,0.1382951439218259,9.809986013701556,-0.00955658887468894,-0.006518867214782748,-0.0127663041750843
1691524754.809178,-0.7031827041714669,-0.37418667050137094,9.920744383038613,-0.011724307316473635,-0.013203528756327718,-0.0208811031009013
1691524754.8191657,-0.31354697712283675,-1.1827459408703553,9.740731100163819,-0.0031657344480238944,-0.015973562062139058,-0.0198046264524514
1691524754.8291614,0.09939680034353311,-2.3495840429751444,9.844558251188673,0.01909218078654878,-0.014307284025060304,-0.0203934365238005
1691524754.8454225,0.36693131169331544,-1.3331780832103617,9.876676930210742,0.04016339706631345,-0.007358857158512187,-0.0150518321718032
1691524754.8491735,2.1780695653826716,1.6012159022142411,9.46437897738901,0.03282014833448672,0.005727780861046304,-0.0076114672522003
1691524754.8591585,0.2616246684842032,2.228192109497466,10.21505552700125,0.004055279910575988,0.012672892688169901,-0.0061982476438338
1691524754.8692973,-0.0559792088924593,1.3171671187488658,10.12674906319785,-0.013121752026675019,0.01656973079625409,-0.0003917288088182
1691524754.8792162,-0.8958698291610329,0.23361967726897628,9.82328306338924,-0.007806757081011496,0.008894963294442108,0.0058013426785414
1691524754.8891256,-0.6660053422075138,0.7097628922394188,9.588756092776205,-0.009557966326104604,0.0033177548297658927,0.0128917929430549
1691524754.899154,-0.7111622410244935,0.7754384275491751,9.571299868838905,-0.011390873129963555,-0.00415967158039792,0.020718530071253
1691524754.9092112,-0.6008189889527729,0.4381289055498111,9.76614018012648,-0.015440074081181813,-0.008576560893340386,0.0240520092372839
1691524754.9191463,-0.9333005627432855,-0.4969767124705645,9.995956227057722,-0.012892684317368003,-0.019081505368556795,0.0178730974619334
1691524754.9292054,-0.15995414150877862,-1.105989161819473,9.889220503742001,-0.004417741704405883,-0.020429045177719023,0.0085824572195356
1691524754.945479,0.2540233466282502,-1.0220230375439407,9.796839579833035,0.009428450383380738,-0.01693613061694862,-0.0041275673831755
1691524754.9498816,1.2947255829494213,-1.173938209250505,9.281735132487604,0.0124659904148153,-0.00632773537685335,-0.0109928201238567
1691524754.9591866,0.7561677009646176,-1.0206323413489784,10.002600178377087,0.0196326510375051,-9.770838595439538e-05,-0.0140248841891939
1691524754.969242,1.1787221854119434,-0.32427180666208083,9.776672651695353,0.023607532304507663,0.013147156331694259,-0.0051297044667358
1691524754.9791777,0.5217554369799543,0.3661354781820511,9.912471438766264,0.0202886698011776,0.015069725144353964,0.0057668111001198
1691524754.9895127,0.07893347096699606,0.5938301842310063,9.644242689283434,0.016366700838600957,0.012299729500819902,0.0157566594605391
1691524754.9991686,-0.3078681317902848,1.3298026705538053,9.863672856916429,0.0056495993144573525,0.0030477069811546075,0.0217024239425604
1691524755.0092032,-0.17319564353155764,1.0755196015749322,9.903598962297263,-0.004301277980147533,-0.0032217325873679895,0.0233913886074965
1691524755.0191586,-0.528057299420966,-0.014598283050273476,9.948985824541468,-0.00038295089887885504,-0.014313960201544193,0.0141698646073286
1691524755.0293834,0.14363456854412116,0.2406647640260024,9.662737747355933,0.0003531717923827584,-0.015378689056319181,0.0012173661814535
1691524755.0391858,-0.002168351436417167,0.8032182169702508,9.662334234024343,-0.007566131098059383,-0.01591203194325588,-0.0101457617531473
1691524755.0493505,0.23692427495171164,0.43773205878936716,9.762173717790274,-0.01852219495701446,-0.012054295669376028,-0.0181430650229508
1691524755.0595777,-0.00806092522180011,-0.5028728875503393,9.668485012588485,-0.014641255455868446,-0.012776859441053124,-0.0160343197460229
1691524755.0691798,0.2982895570242052,-1.6217127111062835,9.573400018386375,0.0019143583681497521,-0.006717335609519523,-0.0135816249350959
1691524755.080209,-0.07965859604525462,-1.6788293061704507,10.14521443787197,0.021806192837631803,-0.01088538254852158,-0.0038869308593625
1691524755.0891838,0.5782802297712223,-0.9227837245762711,9.680033128482041,0.029232227065279462,-0.00019375151374170476,-0.0023935087776685
1691524755.0992124,0.3403755174152021,0.7159663420778533,10.116461332677243,0.018825970522342052,0.004327190570543564,-0.0041584509710724
1691524755.1092632,0.46826913849061913,1.17911689206308,10.01517456593606,-0.0009917379595263836,0.014957520673090736,-0.0050525369408483
1691524755.119213,-0.4204017668950844,0.528713691856416,9.949041407387147,-0.005182797329294856,0.013692717616051616,-0.0023834833229834
1691524755.1292553,-0.8849045516123669,0.1494947040334931,9.666174198432495,-0.00042923853323411325,0.006009292446748566,0.001340934486297
1691524755.1409338,-1.2530341504572102,0.4685619822196882,9.663970071852457,-0.0015687989732272969,-0.008593431314686,0.0086601313849036
1691524755.1491811,-1.3519204722938434,0.6582761645959891,9.85231273027123,-0.0009609399458627352,-0.02479708416606874,0.0137266724084561
1691524755.1591632,-0.6369185410235659,0.8856633475472875,9.905914234338004,-0.011534031339679576,-0.03330495069547009,0.0141969362919276
1691524755.1692045,0.330091559333282,-0.1933668517605788,9.65041762159339,-0.010310797785146432,-0.02840124538414406,0.0100873580847924
