time,ax,ay,az,wx,wy,wz
1691524661.591499,0.015970483451943712,-0.00798912266631504,9.81354045832304,0.00039362469094086656,-0.0005833516109210917,-0.0006717574835697
1691524661.601693,0.0626238878298182,0.011500452355643122,9.793930194033555,0.0003153739802709658,0.0002276643685081767,-0.001134806527471
1691524661.611543,0.006753140179666061,0.09751204249808576,9.856338878850021,-0.0011501541495532845,-0.0004511110450947003,-0.0008759100275988
1691524661.6215272,0.11272521590952114,-0.18015914908009673,9.702092647004866,0.004009760741010924,0.0006825090671051791,0.0012251834666762
1691524661.6319094,0.0830780884199225,0.32187891911875766,9.883497985289218,-0.0023973901310454897,0.0017315428936007142,0.0016260044538007
1691524661.641602,-0.008037142190208938,-0.21833481673909438,9.748778550079264,0.0015331742985882075,0.001628004223247402,-3.061953996667376e-05
1691524661.651536,-0.049464881681432746,0.06362914294550759,9.866628649099683,0.0006588576398764293,4.474817121300161e-05,-2.0571151463181885e-05
1691524661.661631,-0.06971215437393187,0.018796745665996543,9.869600755313822,-0.00026687835103059615,-0.001420042446999468,-0.001540866662463
1691524661.6714928,0.18981824371088685,0.018916155812102358,9.71591940972052,0.0004666594672105302,0.0016123379444332759,-7.980350003936997e-05
1691524661.6816063,-0.08036536174771966,-0.06611728685759877,9.853345299387001,0.0006797219684796326,-9.642863420164987e-05,-0.0028089440713579
1691524661.6916533,0.14163879331138798,0.13162764506701213,9.790922253652681,0.0012448462718716482,0.000350946004148597,0.0028039562928547
1691524661.7016182,-0.02609818774752995,0.07957795278308044,9.876267546449093,-0.0016824852564050405,-6.298593375982593e-06,4.7596655139832585e-05
1691524661.711563,-0.04789711590299883,-0.16059932878400793,9.789735210491965,0.001620357122106553,-0.0014759293081749757,-0.0006944831513742
1691524661.7215466,0.18270390986893925,-0.0791198305415638,9.695378547856194,0.0026295098875498846,0.0023738079219205567,-0.0025280804659182
1691524661.7315538,-0.025667910546349447,0.19812165276828617,9.898697910938255,0.00022969744870820328,0.00035059895383813985,6.639882275967686e-06
1691524661.741542,0.08019482458599149,0.11742727171414247,9.825714698247282,-0.0015290006691472352,0.0009779261883185732,0.0007423669046779
1691524661.7514875,-0.051600893600092027,-0.037115490759329406,9.846092496560875,-0.0004211001856539436,-0.0008180432199650348,0.0001206089689453
1691524661.7615886,0.1374997470924426,-0.12789846526412924,9.707296663849078,0.0020800616717557454,0.0017699403989872534,-0.0012614391564334
1691524661.771567,0.06435316960450538,0.19748830391430197,9.854710433932667,-0.0002147049663149105,0.0016525797489741112,0.0015909832034317
1691524661.7815528,0.07219219110499193,-0.024748233302274315,9.771880417959283,-0.00019277326353691137,0.0032805249155167856,9.003318315943965e-05
1691524661.7915366,-0.23179480732717148,0.02890314520757568,9.959401403251158,-0.0004497816425774909,-0.0023167174550173327,-0.0001364309393743
1691524661.8015068,-0.0018595582445371977,0.11747243547669388,9.861249452761026,-0.0021403233183433785,-0.0030550719170421682,0.000360142457584
1691524661.811509,0.1793339996608973,-0.01710073141742591,9.703091440299202,-0.0019201727973569961,0.0006925690775983018,-0.0004966546368727
1691524661.82161,0.011711471208865471,-0.16654338062097404,9.75154579931576,0.0018270930777179687,0.0006151099797334083,-0.0011403884093219
1691524661.831602,0.0592510462310384,0.10766739564876913,9.831495042971447,0.0011912016600018494,0.0004258411934341661,0.0011923879317414
1691524661.8415067,-0.024847213195074956,-0.04600239913843623,9.817487433257318,0.001494430813326316,4.8839593075953593e-05,-0.0007861365850026
1691524661.851514,0.15136678261850373,0.19685118236110566,9.811664988833659,-0.0012786600728124128,0.0020813564420443095,0.0008768420264182
1691524661.8615282,-0.19815482930352435,-0.1722844814978713,9.869647287806428,0.0003362695244061048,-0.0012796243523869274,-0.003361041872477
1691524661.8722637,0.19532383421398314,-0.009526169573097801,9.709682217558422,0.002967787327638453,0.0012733375763040447,2.4472497688739388e-05
1691524661.8815155,-0.16593089293761143,0.11224174411187741,9.955684734367445,8.517355388804206e-05,-0.002114791797111073,-0.0018310693378503
1691524661.8916686,0.020142617994032382,0.03554349518972722,9.82086255862763,-0.00032424881684072783,-0.0024049955007307187,-0.0020583120460564
1691524661.901553,0.3150958195371721,0.209450284477287,9.73168773132077,-0.002584027139456134,0.0022884700383357147,0.0012389207925202
1691524661.911596,-0.14759100794760385,-0.01914412318656445,9.895280240806857,-0.0018762044169258279,-0.0014356959344388456,0.0009897265297417
1691524661.921588,0.18162784624246403,0.0009893850792374336,9.719361159944839,-0.0011412273158359475,0.00158700961997363,0.0019556995428224
1691524661.9315553,-0.07878776164758582,-0.2100611186218887,9.793011408031013,0.0017961708651335233,0.0005178719046464981,-0.0010029391671473
1691524661.9415145,0.0631076207295358,0.1676376185269068,9.85052679016085,-0.00041365425647238517,0.0005290277089032496,0.0006827511422393
1691524661.951527,0.020043326373433895,-0.06883206936896849,9.78947101574986,3.7477476255703515e-05,0.0012714767013708252,-0.0020858796599263
1691524661.96154,0.10791259626486853,0.10099237073443608,9.783414056966842,5.5017029657844064e-05,0.0018805582192546494,0.0013879653886483
1691524661.9715545,-0.10030537051907987,0.03168773239312855,9.889078794430674,-0.0010707898552407761,-0.00030730589782421267,-0.0004881013703475
1691524661.9815538,0.1375242193549492,0.00012631224222222872,9.735426624763809,-0.0007414457547154596,0.002071295858494506,-0.000609175284108
1691524661.991598,-0.10264044848732598,-0.04313904580752013,9.851191081707078,0.0011643727663104813,-0.0010463785279317957,0.0007900413072725
1691524662.001527,0.18413421834571647,0.012665569494436198,9.726319866276183,0.001493333378854433,0.001930476269342909,0.0010340569604245
1691524662.0115335,-0.12385920826199236,0.23424466141120392,9.980228793463256,-0.0027080571515975794,-0.0018927874488558814,0.0017984752373827
1691524662.021603,0.16036248856254995,0.04447154387468105,9.752873964213853,-0.0024212067494929906,0.0004239566224106746,0.0034365132630859
1691524662.0315983,-0.048009583387018606,-0.15658484050201613,9.799042982398324,-0.00037938092800179354,-0.000157543318573513,0.0005892486258467
1691524662.0415325,0.012979759611161589,-0.012433132190443655,9.807193431116616,-0.0005902235462286673,9.689764027402541e-05,-0.0009578522114957
1691524662.051515,-0.09909948447713217,-0.07558575532635965,9.843318653238647,0.0003936187011667628,-0.0018357876900262956,-0.0025742607942725
1691524662.0615487,0.18846976091729542,0.12290695529572253,9.760757611482465,0.00030048342103986404,0.00018071519385497541,0.0011837993404419
1691524662.072803,0.05723620191748452,-0.00010652380967174856,9.78588735815706,-0.00041850920622392706,0.0015907386907146426,-0.000972013436904
1691524662.081517,-0.04114526643492203,-0.04095273447739629,9.833094032930912,0.0005701845263342852,0.0002309973168427527,-0.0011657394754643
1691524662.0916188,-0.006768633354041183,0.05531644014857319,9.843262162872497,0.0006085683873853947,-0.0010788036489980369,0.000676798535796
1691524662.1015835,0.14228727126863658,0.023014873971421244,9.761822983059707,-0.0002281342418368834,0.0013936692436266112,-0.0005767580407614
1691524662.1116097,-0.11600683788400241,-0.05829744646257119,9.875015953978822,0.001129363744555188,-0.0015198766674640455,-0.0011899436178559
1691524662.1216495,0.043759571276350114,0.0738923767878191,9.820273022058677,0.0014959359119421489,-0.0020876136906135827,0.0014978604920265
1691524662.1315508,0.13439651756569007,0.06860116294033085,9.779074290568872,-0.0005827833569543696,0.00061285350956969,-0.0003707452963049
1691524662.1415513,-0.019302161781140748,0.06616309522103152,9.858649109033093,-0.001310697996941665,-0.0005542861798961784,-4.740150709995738e-05
1691524662.151625,0.008380527261537322,-0.1623619525138999,9.771467004023695,0.0029033527576148395,-0.001238622874349817,0.0003996429911871
1691524662.1615613,0.0899951122640906,0.22436888629292898,9.843555427107654,-0.0019328222342134124,0.00042211483100773313,-0.0004545689846331
1691524662.1716578,0.07115049379272705,-0.08984555817587929,9.742918689998772,0.001408007224563119,0.000793533741972794,0.0017768860159499
1691524662.1815777,-0.02033694626300512,0.19300769880342333,9.8928433879806,-0.0034918621487677677,0.0008560983989938564,-0.0008103416587168
1691524662.191608,-0.0414694927216603,0.024599442700944354,9.852194728987497,-0.0027389759273463523,-0.0011793878612780175,0.0012214386095088
1691524662.2015767,0.03176869433687504,-0.2893166006547693,9.701702271200931,0.0027971841964448724,-0.00040524399313359295,-0.0007052623952681
1691524662.2116165,0.08831056175279121,0.14397205820491665,9.823624474579594,-0.0006173994370767254,0.001352695605328618,-0.0020497257175798
1691524662.2216709,0.061212566835293886,0.0759350236197878,9.80620704469682,-0.0010424839742230086,0.0017144173713429026,-0.0005052273447568
1691524662.2424765,-0.013013800916529499,0.08549827218385292,9.863527466098,-0.003636788464196067,-0.00021565915688790847,-9.87819914648842e-05
1691524662.2462811,-0.2190814405780305,-0.7732264287870766,9.672350688426024,0.003662191509803007,-0.0027849463137998936,0.0015608342835271
1691524662.2517846,0.004680001679493146,0.1616138972878072,9.873812496101717,0.0009363961714941379,-0.002448580845955898,-0.0004113639990741
1691524662.2615695,0.1842032278624676,0.08215489214907072,9.750454492885684,-1.3939234333090247e-05,0.00040199497342110536,0.0002781882247013
1691524662.2718413,0.04738554881886763,-0.060455826948052155,9.781639500452219,0.001434829036891623,0.0008982298373564501,0.0002573676354309
1691524662.2818763,-0.007672998664420295,0.13384029879441964,9.880949861004941,5.72278560278018e-05,-0.0005039957875656198,0.0019858671182823
1691524662.2917876,0.05232283341566424,-0.10735318422010823,9.768099554770377,0.0006219738889747347,0.0011418602689087839,-0.0017677075049782
1691524662.301685,-0.008783865645293924,0.1343017633095772,9.87395721059029,-0.0016530821305898251,0.00028204046714892366,-0.0016898643045628
1691524662.3116822,0.0335935197150863,-0.16564850741762577,9.756289760069713,0.0022890333313035074,0.0001516712389798186,-0.0013162356155867
1691524662.321612,0.008428506741356884,0.09311950551139844,9.854110017521936,0.0002900219551811205,-0.00015676318941115183,-0.0019767265587056
1691524662.331542,0.14772595630751306,0.10552505860944802,9.790850890146546,-0.00025048376964444726,0.0013709453791606525,0.0002692579471563
1691524662.3415775,0.028750039707680395,0.06910178901850757,9.833862349457918,-0.0020583669662344213,0.0017837101974319076,-0.0010759408871586
1691524662.351575,0.04029789937018425,-0.08031436339624205,9.781752334530083,0.000825738284653757,0.0013247555666340484,0.0004934902715553
1691524662.3616054,-0.0013448140845769584,0.003625032066431846,9.819678232617841,0.0008000646505865125,0.0009227831711239397,-0.0001103499491641
1691524662.371676,-0.02856588918371373,0.025650757321718138,9.840264650305848,-0.000870012756704345,0.0006638750218004661,-0.0026398319571221
1691524662.3817313,-0.0899111415999436,0.1736180856882951,9.91762551026946,-0.002301620212110883,-0.0027581823079226137,0.0005296503257063
1691524662.3915665,0.14471352399332377,-0.04538870503767293,9.728688453497563,-0.000402118762040103,-0.0007494864194026815,0.0011994545891588
1691524662.401579,0.057433911434570606,0.024071741320925495,9.801329456084524,-0.000938904805033065,0.00017587950501791167,0.0004052346519251
1691524662.41164,0.056308949718815476,-0.08839866951877402,9.768464219714172,-0.0002493327959401313,0.0017311762974645327,-0.0025384982402379
1691524662.4216015,-0.05673090705532758,0.06921159908520258,9.87866114437843,-0.0008085190820546144,-0.0001992543209110854,-0.0018806075497473
1691524662.431594,0.06626507857734029,-0.04822394360172655,9.776728368265003,0.0008577798288622631,0.00023811873957763717,-0.0014536732162291
1691524662.4416132,-0.002585368825974448,0.0195374055177565,9.824859408265256,0.0005735469162711363,-0.00028271450204365236,-0.0014611491753662
1691524662.4516282,0.07137437778705258,0.031877567262764174,9.802748863208858,0.000582108184697377,0.00029919740213069096,-0.000843107449537
1691524662.461618,0.020809867162990974,0.13678657676798892,9.864509949542237,-0.002276281295907185,0.00028501695019698985,-0.0015747758845741
1691524662.4721105,0.1551603614027937,-0.011362027123858894,9.743193376308302,-0.0009061431781577776,0.0024799553434156425,-0.0001498608437309
1691524662.4816177,-0.11675804280140206,-0.05093117785632434,9.858154086674478,0.000668914159479177,-0.0004749292166616859,0.0007546650774834
1691524662.4915717,-0.04573097633210682,0.03876812284038206,9.854096523794947,0.0004163414919032356,-0.0019799549964002374,0.0008969578082264
1691524662.5016313,0.14027109116990935,-0.07812670700420744,9.721318547182761,0.0015216481281744598,0.0010598741390798736,-0.0009708991094435
1691524662.51166,0.05301127282840361,0.21826670841233414,9.862396334613942,-0.0021168488832627444,0.0012942027060736658,0.0002573263079916
1691524662.521566,-0.0922833272599183,-0.07991221765944286,9.843596458016089,-0.0013032527077463006,-0.0005673249090147809,-0.0020620329125727
1691524662.531573,0.037109851425641736,0.08156763444825793,9.820749191021497,-0.00034286765507223556,-0.0016327544982438586,0.0021248212031145
1691524662.5415907,0.04380139445358529,-0.09092037825706188,9.764043207369026,-0.0005220546839799539,0.00029133667074264475,-0.0023015844455862
1691524662.55166,-0.049104959704234306,0.026901935109898086,9.860403867784473,0.0007039353986992862,-0.002368143306664549,0.0004722697956544
1691524662.5616548,-0.012880990257684908,0.0948220489930598,9.862583138225162,-0.0018635410326666617,-0.0027142030457288197,-0.0009600936721021
1691524662.5715418,0.1875969318746273,-0.09899100173121647,9.686094008854646,0.00017606288519251057,0.0009820092072427326,-0.001802766211977
1691524662.5815792,0.005058182731656524,0.13816615195472806,9.860594397546704,-0.0010823452041232114,-0.00021118098234723008,0.000410796976002
1691524662.591554,-0.03014659961764098,-0.020447867407916095,9.841071733897104,-0.0008625461261024795,-0.001308658167875204,-0.0005596217053885
1691524662.6015718,0.16612838570573396,-0.023759507092044344,9.731569925347339,0.0006018705625902961,0.001065468947040933,0.0005352355253939
1691524662.611681,-0.040731650848445135,0.011900276214234713,9.850548653935462,0.0007352296174347045,-0.0004067658906973236,0.0003057580504623
1691524662.621583,0.09749432380438454,0.16023490458426232,9.83205111763784,-0.0018326344062760682,0.0008218271043593381,0.0010303224587637
1691524662.6315775,0.0409949682744848,-0.19217204648049832,9.73243738296477,0.00236986167741219,0.001195523988545168,0.0003918233158124
1691524662.6415555,-0.055647288237508426,-2.557229877269811e-06,9.852153263983038,0.0024715903823035444,-0.0005997225894199997,-3.024060809412709e-05
1691524662.651556,0.02296217014594877,0.15735117945183624,9.868821651294812,0.0002468442063032414,-0.00133957964457935,0.001857715967862
1691524662.661638,0.1842357616726239,0.05037794926994261,9.751751402637614,-0.0016966221602937703,0.0024978397615155468,-0.0005648429325724
1691524662.6715634,-0.10618958150016776,-0.10710026479184298,9.848292137122835,0.0008704526560704066,-0.00036540479784010274,-0.0008744089684391
1691524662.68156,0.019133271698951706,0.04479396664714009,9.819790858631876,0.0006700318485053972,-0.000908181755977023,0.0001533962966
1691524662.691567,0.08788611437705228,0.021552482765992382,9.77905257259678,0.0015991190314305545,-0.0002558903889388608,0.0019449029530455
1691524662.701602,0.03844517397845517,0.01988472258313433,9.800419595281275,-0.0008420656376121206,0.001600790961131955,-0.0023779405566806
1691524662.7116086,-0.03455567883971832,-0.12126306027580337,9.79871422243856,0.002541240995319415,5.252632682989962e-06,-0.0010916103894765
1691524662.7217162,0.09969261749205464,0.1642370240781689,9.822430350619323,-0.00023446925992391324,0.0012353394996873143,-0.0004694848141575
1691524662.7316346,-0.030576255604158383,0.01765789532703687,9.842559345564691,0.0003671697828895312,-0.000454818804860613,0.0006455065629502
1691524662.7416086,-0.0022323346941086003,-0.032214529966704666,9.812310626943724,4.7540956539475187e-05,-0.0004455157405038715,-0.0015151735681051
1691524662.7516224,0.043589384470316475,0.030670489049693266,9.799705805182091,-0.0005250399442925606,0.0002887406011442793,-0.0020896051830554
1691524662.7617178,0.06998826476355549,0.011641613414279241,9.785149048542733,0.0006111668906577041,0.000633338789546153,-0.0004650082957873
1691524662.77219,-0.07956887019201313,-0.0222349325614075,9.8577231821401,0.000735230922940812,-0.0012058394373558727,-0.001612390606379
1691524662.78174,0.12042982156630518,-0.0026677282589575484,9.760977419916907,0.0014903583419552172,0.0004113317487300329,-0.0009224559000636
1691524662.791688,0.0404750062324477,0.09250339498102678,9.839214262098757,-0.00011264773198322866,0.0006888441599476535,-0.0011213973450417
1691524662.8016453,0.0971505982010575,0.12464220111906574,9.805527702107218,-0.0004438181486307877,0.0010054952848340308,0.0023583889885862
1691524662.8116338,-0.06254430052799693,0.014278712812354578,9.854542549457067,-0.0005194584786425202,-0.000673122354191687,0.0020175285933596
1691524662.8217397,-0.003226461106324461,0.037332490074632844,9.837354567806933,-0.0014820699872752365,-0.001171204603377015,0.0010277183353259
1691524662.842982,0.0544110537215856,0.0007172199703866821,9.792056114940454,-0.0017055799538601775,0.0007368987389463371,-0.0013285246497894
1691524662.8470423,0.06309197990188986,0.31405223078492933,9.904585747724168,-0.0024633146812870982,-0.00017356852808490719,0.0018390826478657
1691524662.8516662,0.1310040381225394,-0.5048015746513009,9.58254219240519,0.002020078833722341,0.0012722405246185543,0.0006522316432615
1691524662.8616,-0.12076035500356483,-0.010368135901622033,9.881954156364625,0.0012307141423545055,-0.0011376720621732188,-0.0019808083127195
1691524662.8716114,0.13677416696702246,0.12758687988080022,9.786628563450991,0.00020884891351426052,0.0004187591381220196,0.0003094850287829
1691524662.881609,-0.01662232017281516,0.034404820316202345,9.83525484724375,-0.0003302103736202985,-0.0005017537252467437,8.373627840182075e-05
1691524662.891612,0.0998276865849377,0.11367656726056666,9.811786352925452,-0.002855942853033283,0.001331828505142484,-0.0010867572675401
1691524662.901615,0.019867029508551615,-0.07101558391265221,9.77927869515808,0.0005798810966085017,0.00027906127083504183,0.0018309026670699
1691524662.9116237,0.0818677429962592,0.03646191480664399,9.785744399575023,5.0497235746514115e-05,0.0014301827173687847,0.0018897704610658
1691524662.9216154,-0.019256830032529107,0.040200309046410136,9.846118384688895,-0.0019626411069521184,0.0014823174696655095,-0.00110277834413
1691524662.9318163,-0.037876294990986166,-0.06098310786633556,9.825261678660505,0.0015048746281933999,-0.001078054117033442,0.0018919928877671
1691524662.94164,0.010771662646343742,0.06387151268114033,9.84858353220395,-0.0005339737929207806,-0.0008880795009655335,-0.0002452092996741
1691524662.951594,0.07189411655532622,-0.02874675520659603,9.771794718541086,0.0005754052333334483,-9.942264743158553e-05,0.0001723886414488
1691524662.9616878,0.21092045912076143,0.03488969668976387,9.721735066675938,0.0013338683910845118,0.0030629878456503324,0.0023583674517517
1691524662.9716213,-0.15077592246606383,-0.0883995422510673,9.891012473497687,0.002993134469208372,-0.00040639854598515323,0.0007226024352071
1691524662.9816203,0.08846856179836392,0.2010459362179033,9.858479708801939,-0.001636305756560815,0.0010736642344312257,-0.0006311371509859
1691524662.991603,0.006621282816101383,0.055209283687475914,9.823395014167296,-0.0013613569955394879,3.728850450481613e-05,0.0016815083688647
1691524663.001625,0.020659727704283967,-0.17062888365289477,9.739680600095154,0.0027275121116029943,0.00014979625319602803,0.001552262448758
1691524663.0116882,-0.02102969882144425,0.060981741881679166,9.860107584636756,0.0005970168077055623,-0.00031922833828591655,-0.0005391437846178
1691524663.0215974,-0.03288088653165073,0.06473925748580477,9.855925254285776,-0.0008722277914514383,-0.0012374956901205218,-0.0016772099590803
1691524663.0315826,0.1255883877017242,0.058613246708344995,9.77326669166616,-0.0009471155341567546,0.00029657376662652963,-0.0006169891969243
1691524663.0416417,0.17373804937339998,0.08370771088665953,9.770539865072033,-0.0009374424975192968,0.0019800301498692284,0.0021274086500575
1691524663.0515792,-0.12999065550068717,-0.16365369936782867,9.833100566084543,0.0008905687563584777,-0.00023316567001345877,-0.0015762590157742
1691524663.0616388,0.03988941599823085,0.05809231190074306,9.822005470036595,0.0004714805032769006,-0.0003348481151374277,-0.0006184647611285
1691524663.071609,0.0319481719795593,0.0693968966860211,9.829951910574175,-0.000954570344374407,5.888858426963631e-05,-0.0016455515108014
1691524663.0816133,0.06030097179837816,-0.0077659709153420345,9.790057168800491,0.00068419140295116,0.00016022595126368767,0.0004026094864179
1691524663.091667,0.09540223337669533,-0.005078493684889496,9.777987602584044,0.0015722829788610965,0.0013206657819258148,0.0009237710217071
1691524663.101631,0.03148129188600614,-0.002702583168040567,9.801635884694015,0.0013893857206794184,0.0017367737036731823,-0.0004258800583834
1691524663.1117089,-0.06862684927762598,0.0887849423056207,9.895395750690815,0.00017903340172428138,-0.0005334100072944706,0.0001630875228961
1691524663.1216238,-0.059434279135753026,-0.0636067155980514,9.837550530582028,0.0011163299101741252,-0.001968025807120373,-0.0010405580799038
1691524663.1317172,0.08281218910924487,0.10501510456468577,9.81457994762218,-0.0012392009165537953,-0.0005211219425361389,-0.0019148797548318
1691524663.141659,-0.02745017041851034,0.009990058866085436,9.835476854768833,-0.00043226905790139374,-0.0020186983465158674,-0.0007030454982946
1691524663.1516888,0.14003208035135367,0.06934116242390284,9.764388460687897,-0.0007299338194662967,-1.8968106306762006e-05,0.0005438045079877
1691524663.1617076,0.03766784910779832,-0.09221502450714777,9.770551631172193,0.002348657150615616,-0.000318098768896177,0.0017492956428845
1691524663.171634,0.052272204718534575,0.21185644753407748,9.865591464264405,-0.0006092222827712153,-0.0005214961759053675,0.0036354230430965
1691524663.1815856,0.04717382649949613,0.04529098534947107,9.813198040079213,-0.002867117796685023,0.0009823985737982372,0.0004417350462695
1691524663.1917026,0.007796314105300778,-0.20438851507262112,9.752606608123962,0.0009349222978664134,0.000994320744243768,-0.0012141445006186
1691524663.2016313,0.07375258954663988,0.06828126851580955,9.794718539145405,0.0015477233683150414,0.00112097409144198,0.0019277712742855
1691524663.2116897,-0.11043275797499506,0.09360524718181354,9.926282972902335,-0.0012153274457792967,-0.001389872236956299,-0.0001777859690541
1691524663.221661,0.02917982582181053,0.06185517645869268,9.830543280452115,-0.0023452137012460934,-0.001256907255330466,-0.000637871195277
1691524663.2316258,0.09188321478174391,0.005719780121754376,9.775026933095905,-0.0017916163062571583,-0.00011245813135463982,-0.0002414778393636
1691524663.2416468,0.004873074793011999,0.07274614337768656,9.840240094301308,-0.0023735280593528293,-0.0010601836555747652,0.0009841434837376
1691524663.2517076,0.11996127394785659,-0.006305492099574471,9.746805920346059,-0.002322893222701789,0.0013116996150178712,-0.0001297247183451
1691524663.261663,-0.04775472275031312,-0.11143431854770562,9.814134271954265,-0.0005906198179988601,0.00027012561716203027,-0.0013691298483813
1691524663.2716422,-0.012264235273148327,0.004809753930913791,9.83341440548541,0.0006093165198690627,-0.0013161056867635357,0.0003858563320768
1691524663.2815964,0.14887068531533412,0.08484768845052545,9.782283577076578,-0.0012842563432112577,0.0012301159524604065,-0.0002262174204866
1691524663.2916186,-0.04676896705439862,0.02788947117160287,9.876759106093782,-0.0015975441532284915,-0.0006433238239235245,-0.0004929440149048
1691524663.3017356,0.1055388880053456,-0.10699589221336471,9.716223365354436,0.0009915269551371334,0.0010248743284935165,-0.0004929436656589
1691524663.3116577,-0.02675777086605989,-0.02453755676481563,9.828246110568397,0.002039435805795479,-0.0005319058740351343,6.472356087168941e-05
1691524663.3216498,0.051927784426254564,0.10019911838437127,9.824904935167009,0.0006827037925056167,-0.0001698398954027823,0.0007803595106174
1691524663.3317134,0.013287971129641573,0.15139566367707508,9.863925756353108,-0.0018985551500089646,-0.0005874407280086364,0.0011067133052797
1691524663.3457215,0.052955702118984156,-0.06896216662554978,9.762961085265268,-0.0004084513246287815,0.0009745705797621652,-0.0008561610995734
1691524663.3517692,-0.02019734328556525,-0.01190455862872095,9.844757791446664,-7.541772021859489e-05,0.00027795312072218605,-0.0008256088296825
1691524663.3617272,0.054394812838822,0.03269680013043143,9.813678208707607,-0.0010246363980896422,0.0011764896905547544,-0.0021145543835068
1691524663.3717067,0.06574781346165126,-0.1415793444714967,9.749462499344908,0.0033898551782696805,0.001219363430825595,-0.0004072260164598
1691524663.381723,-0.0544044434546991,0.1734448040408673,9.92428539469763,-0.00032799447121944445,-0.00047791803146846377,-0.0012298053882027
1691524663.3927126,0.0258291923254604,-0.0325280918355587,9.784730276949135,0.000211811141686426,-0.00012288153243994896,-0.0013333638018871
1691524663.4017816,0.02857150012824656,0.17301399905993095,9.86540239328543,-0.0018508635905501994,-0.0008452409346576087,0.0003970279538129
1691524663.411839,0.1121720357405034,0.043982825354872995,9.788873330905357,-0.003116729946639657,0.0013351849981714258,-0.0011023892841244
1691524663.421635,-0.061368865094369326,-0.0005894973083244194,9.843653126306192,-0.0018840220407351498,-0.0007830206420047146,0.0007337997265217
1691524663.431688,1.1813989624354803e-05,-0.1274597114691403,9.782887116627391,0.0011423995264689814,-0.0012792007897835804,0.0003180561650601
1691524663.4416726,0.06811635827087292,-0.03841427551361159,9.761362397288183,0.000649546136878587,0.0007555312071466592,-0.0022415891109908
1691524663.4516504,0.08219429493918898,-0.045102377892213164,9.776399218174387,0.00316299219354856,0.0007894328962433807,0.0003478296746557
1691524663.4616666,0.08302488473431814,0.1088734166345596,9.814639201161608,0.0011405350371219952,0.0019602925567098355,-6.034603057296188e-06
1691524663.4716823,0.030951882187122887,-0.02784382151479867,9.806646098478188,0.0018770036070966025,0.0020109579933932946,-0.0004028127116093
1691524663.4817348,0.004748932109701361,0.02924663915705611,9.82916957228809,0.002046147091410074,0.0012446692546327198,0.0003139579964858
1691524663.491701,0.062329136588980275,0.06168925086123422,9.805634233380712,0.0012806148587656827,0.0020258543123870512,0.0001232387910654
1691524663.5017686,-0.11459024205264753,-0.038720061250936806,9.849594207473395,0.0023043327661521765,-0.0006004793835990053,-6.488650636175385e-05
1691524663.5117104,0.08093816013954869,0.20629159929252125,9.845715028790165,-0.0012362030495030561,7.192984543628193e-05,0.0011238466356821
1691524663.521653,0.03178832764630097,0.011174156978088814,9.807693730781084,-0.0009516000115798257,9.723724191591404e-06,0.0013119581815494
1691524663.5316937,0.017952058392738394,-0.16779842301033976,9.748783252337716,0.00339059644130846,-0.0003337104418874649,0.001761974552
1691524663.541666,0.04290088756829308,0.08225411627391012,9.825677137100273,0.0009859300123263766,0.0006463852849776935,-8.20269162709426e-05
1691524663.5516737,-0.022147152998128167,0.05991997165374264,9.849995544417737,-0.0003797564053804617,-0.0002529131959326117,-0.0007570665149892
1691524663.5616446,-0.045563832993746216,-0.03719675152846993,9.821341197962083,-0.00027095508927350994,-0.001050875327841359,-0.0026837808365876
1691524663.571641,0.06539407738458916,0.0067512660758387326,9.781874139747602,0.0021079967926140994,-0.001514277258457358,0.0010176739049434
1691524663.581701,0.007924749189406178,-0.010619723068888968,9.818954713757176,0.0011748053138603215,-0.0009104262426963154,-0.0020881176280731
1691524663.5917823,0.05424453266063498,0.2767027384153012,9.904105437420242,-0.003938517162290669,-0.0007517107214664894,-0.0014082465606684
1691524663.6017077,-0.02321084301316737,-0.13998361012438307,9.780738665364446,0.00015818713441016394,-0.00228505518154748,0.0001712823466455
1691524663.6117067,0.10902309684563921,0.00903017659971347,9.76909689782884,0.0003015963573992792,-0.0005673066805650817,6.614898388672755e-07
1691524663.62171,0.054530966887438456,0.07112242297877892,9.822916317033053,-0.0004345175957542046,-0.00022906985352156363,0.0006846172798482
1691524663.631651,0.037947433464225654,0.0018647673034393139,9.804587826698604,5.201499580836561e-05,-0.00010352825846550253,0.0010549147734941
1691524663.6416974,-0.03626496466196655,0.04922883596671677,9.860393207315692,-0.00015809269808329617,-0.0017772989149435277,0.0018629275907819
1691524663.651793,0.08857958725018933,-0.04268076226799481,9.772018411485352,0.0002188949720072467,-0.0001947910251045223,7.329964480003604e-05
1691524663.6652706,-0.054714827368609886,0.024276406507039664,9.846844040904971,-0.0010830948143817063,-0.0014789138911946518,-0.0020504875394458
1691524663.67165,0.1902167432957067,-0.0034410854348770714,9.710377869221697,-0.000770889464156868,0.0008062020961621246,-0.0020769273216778
1691524663.6816683,0.0946145546932128,0.09010193925507068,9.811815201370994,-0.001115503138810883,0.001296449384978121,-0.0003193222039321
1691524663.6917026,0.0020987291501347416,0.03921890354151641,9.840599532932522,-0.001863153556065281,0.000843784117223811,-0.0004762066348398
1691524663.701748,-0.037717594933961957,-0.0127868855313817,9.824855208223768,-0.00021844460338240853,-0.0009473048422449052,0.0014676807802693
1691524663.7117193,0.09613528774133277,-0.02214473037656578,9.753830513254913,-0.00046805678589716566,0.0010848453008560099,-7.91226578304282e-06
1691524663.7216978,0.09623137616122009,0.03380791757508894,9.781467040517262,0.00025091340088600117,0.0019018068636231355,0.0018361211002861
1691524663.7331378,-0.01246788326703514,-0.023260357920490766,9.821673525636292,0.0007035561120865979,0.001275210278426808,0.0009237825468239
1691524663.741919,0.06418580520772382,0.23916800315207204,9.880753146812314,-0.004421348060224073,0.002487374244358972,-0.0014253975643719
1691524663.751989,-0.09112541542582432,-0.22586043410153112,9.790543588811447,0.0004878558875295599,0.0001266889700190498,-0.0020814174606407
1691524663.7618458,-0.01618770557997047,0.012107358281781597,9.824961518555462,0.001401694242976033,-0.0013079291330499686,-0.0003837880033011
1691524663.777028,-0.021608898930248737,0.07812295038066805,9.851665665016148,-0.0009653620380520563,-0.002471679141625353,-0.000680702138407
1691524663.7816482,0.05373568712245392,0.09681337378361343,9.833045202617601,-0.000325726886913444,-0.0031496928514732317,0.0017653268476074
1691524663.7917247,0.09865156797877143,0.1555978414518211,9.82623505627656,-0.0026320628497811184,-0.0022034795139931718,0.0027815743994956
1691524663.8017676,0.09875105146238473,-0.24992251712262065,9.682100148047557,0.001760799994437428,0.00014346639878199847,0.0004015000484009
1691524663.8118167,0.08006360932658751,0.1466838307796116,9.839383430210505,-0.00034624236561477844,0.0008039582699352231,0.0010571615018939
1691524663.8217092,-0.050517865100951034,0.10491852134637031,9.877310858694704,-0.0012909561186861477,-0.0011659751274363853,0.0022797940944378
1691524663.8316934,-0.06901505822104985,-0.15231263132896763,9.787242980225008,-0.0005697291256271177,-0.001295233685618253,-0.002928163605457
1691524663.841874,0.03300697515924367,0.005096130983088663,9.797125628285722,0.0005526776350838065,-0.0014777405951752714,-0.0017357074941451
1691524663.851764,0.11047117701436826,0.01250540600999226,9.771946905983848,0.0018569098827081545,-0.0006310251573556099,0.0002711035374609
1691524663.8639474,0.018876365939422785,0.05843918690546206,9.838016408481366,0.0012660840088823838,-0.0013500071997979495,0.0009752011572068
1691524663.871742,-0.06750400859574573,0.03420810223956093,9.87449993513076,6.54081241064214e-05,-0.002586447361790676,-0.0004765539017448
1691524663.8816972,0.17464886617723635,0.17748860921355125,9.798426695089574,-0.0018803083577663676,-0.0005326845001369419,0.0021989522099552
1691524663.8916605,0.0023300576851292268,-0.09435280519176074,9.77706284261364,-0.0006081017532721928,-0.00032517861289185074,0.0001686703360696
1691524663.9017084,0.023925254625863524,-0.0018505709353070132,9.806584673761794,3.859779373787575e-05,-0.0007006902334390554,0.0006544531968479
1691524663.9117038,0.07496051623539798,0.0029217821159169357,9.786526936282453,0.00032729322658764913,0.00033531271690814607,0.0005359572421816
1691524663.9218192,-0.06912897499358553,0.039582459751963596,9.866747062441606,-8.097466919827313e-05,-0.0016379643057097227,0.0004737734741588
1691524663.931708,0.05696486128239471,0.14625531530915792,9.84730160638959,-0.002398487545308423,-0.0015273292171582471,0.0013439961656053
1691524663.942073,-0.006610859408248218,-0.03671059681860027,9.803253649191081,-0.0014977069538639229,-0.0018503164515493006,0.0005825477017146
1691524663.951759,0.13010712035508057,-0.08908366696320508,9.724007975542605,0.0002058553483248274,0.0003103617972264439,-0.0002981022519002
1691524663.9616785,0.027294040025225286,0.11885756842218737,9.849088783835992,-0.00202000322277438,0.0003777789885003956,-0.0006143976754451
1691524663.9717062,0.03532675629376375,-0.0018807464169833471,9.800834499272039,-0.000207267734008801,-0.00040229082559055986,0.0021665382262376
1691524663.9816732,-0.0017938910959949326,-0.1647563115265527,9.76625679863606,0.0010928500537838246,0.0004198935064878268,-0.0022978379676992
1691524663.9917378,-0.09055784979132055,0.06693542474208164,9.888355832220977,9.559059962072898e-05,-0.0021911922930083747,-0.0017949314608181
1691524664.0022192,0.13317038341371143,-0.019014591986267343,9.749707480535085,0.0009013922740791338,6.036232134859311e-05,-0.0018083485594893
1691524664.011715,0.08704637531580353,0.11659212542486054,9.820924362456475,0.0005485841840672419,7.864417860298727e-05,0.001088070439227
1691524664.0219145,-0.02820549012941171,0.04376752053237448,9.850974768302423,-0.0004490408005772699,-0.0009253228653472431,0.0003802731114496
1691524664.0317178,0.04086554640895464,0.10410724453280988,9.837078997263722,-0.0027676554291447887,-0.0003877562983750635,-0.0004541785276437
1691524664.041758,0.10292050097936759,-0.08289370036521973,9.737488528884416,0.0001764420897406622,0.0005282849152091884,0.0011961131529183
1691524664.0517902,-0.03845010755133019,0.1306374566045268,9.87376250718915,-0.0012641339803601429,-0.0013157431931692602,0.0028356068248917
1691524664.0617747,0.05835562741705915,-0.142894357059262,9.740159264409266,0.0012131773785935332,-0.00018770684266005154,0.0013708440271961
1691524664.0717905,-0.041323279510497656,0.17562175309664563,9.904279536449375,-0.0028540856600580136,-0.00139545669206569,0.0006712068168503
1691524664.0817134,0.12406917166233918,-0.08457409873204458,9.735397897902217,-0.0011806997274898421,0.0007450964689117774,-9.39537824074339e-05
1691524664.091672,0.08150166617816568,-0.04761859363177105,9.757163211613628,0.0016039490907081035,0.0011526601629369946,0.0020726669643131
1691524664.1016853,0.010799765150026813,0.0004418854751852583,9.814655583479913,0.000790721189852901,0.001392928286175083,-0.0002422346553708
1691524664.1117198,-0.08248635706070324,0.02815764799783004,9.873903308454066,-0.0006375420482188296,-3.089449444279047e-05,-0.0027996462124342
1691524664.1216953,0.007205147906320224,0.10192656451057908,9.853255203008517,-0.0012045262445643781,-0.0012412355410031186,-0.0008300817391777
1691524664.1316843,0.1236996681022953,-0.0748821587070896,9.727696114755217,0.0013744782038561673,0.00027124236521888794,0.0006451118568015
1691524664.1416805,0.028535767812383223,0.014666514296220632,9.805982158773555,0.0015015127508150926,7.604773522471032e-05,0.0009111250872315
1691524664.151687,0.04456650013290796,0.06941377963701736,9.825876057673815,-0.001154628751573169,0.001129937419546708,-0.0018619689910615
1691524664.1717744,-0.011361270986188087,0.015001036535898486,9.827359615070511,-0.0002724565016366597,-0.0010493839351375866,-0.0001394132670889
1691524664.1817253,0.1944327373594656,-0.06311044919967779,9.683737443183078,0.0017533481219099251,0.002297421313344169,0.0006458620371354
1691524664.191829,-0.10831962649552399,0.01280594628811284,9.88718759121508,0.0016695305291836958,-0.0006138865252427894,-0.0002575014770905
1691524664.201726,0.05684275605323233,0.21511409152507763,9.862078315413365,-0.0010864432370883948,-0.0008545418873973936,0.0020804858247806
1691524664.2117517,-0.005313987737277177,0.03043979616255436,9.8336012503714,-0.002956536867062679,-0.0005107109372126523,-0.0011452415312583
1691524664.221763,0.10527937975469125,-0.06725913910650091,9.755463659386354,-0.0005541087924435495,0.0005740891461368852,-0.0007239372755343
1691524664.2317383,-0.011664246770248427,-0.025185547784742218,9.81516363716821,0.0008052648310465948,-0.000534169585322544,0.0001478106894587
1691524664.2417588,0.01939183691660319,-0.017690004788323496,9.805720395345169,0.0016639448655492324,-0.0009435642541009102,0.0005344924463947
1691524664.2517662,0.07356144938871248,0.13002056182284827,9.824568979635043,-0.0005313756074807198,1.1581198016639884e-05,0.0004506824950744
1691524664.261762,0.02917880828054664,0.004362460345281928,9.79908805321133,-0.00015102080495391174,-4.876085983968961e-05,0.0004294424613994
1691524664.2717526,-0.001515981363666573,-0.01149674912222715,9.822178345835384,1.698233101150568e-05,-0.0004194342493071365,-0.000460171471996
1691524664.2818382,0.0516311497952006,-0.03619014514484882,9.772205383203367,-0.0004606077196577329,0.0011839159236510246,-0.0031744155387336
1691524664.2917914,-0.024805513846927044,0.08358889680971524,9.869398383970443,-0.0001934850104140061,-0.0011346791364067437,-5.89446683357071e-05
1691524664.3017812,0.20332256222122552,0.025186348659533352,9.72732296589957,-0.0006863312585270863,0.0026781474241819067,-0.0007861216838414
1691524664.31179,-0.11517165202416661,-0.0014665773906939053,9.881780103348374,-0.0010391413810119986,2.9466249906084544e-05,-0.0020303702733422
1691524664.3217354,-0.014408407457572043,0.08466626706929964,9.853461715078293,-0.0019380342046165084,-0.0012237074936485928,-0.000795433978265
1691524664.3317122,0.129378836693866,-0.04067832389682818,9.739966554099862,-0.00016667187043883374,0.0005491470273807592,0.000269621395791
1691524664.3416958,-0.06597997740264405,0.11483578531868303,9.89825927998124,-0.0016467194776980927,-0.0017918313210978072,0.0013011593362257
1691524664.3516915,0.039627052629896395,-0.18304080184912716,9.73630866866234,0.001472461056868098,-0.0007070127863881576,-0.0008837226598466
1691524664.361744,0.03463532768405362,0.10118556784033765,9.834948951893999,-0.00018566955090085107,-0.0007085184783769198,-0.0005756467400992
1691524664.3717113,0.07456855012028249,0.09776894674104362,9.815485221691198,-0.0016243771631155423,-1.5977441868308422e-05,0.0002711372396965
1691524664.381707,-0.05291284874757254,0.019600415215912884,9.871124621615953,-0.0010346546934801222,-0.002272765005290736,0.0008436942478233
1691524664.3923335,0.23514783425298302,0.02375180258130076,9.695425052287256,-0.0010950047172214301,0.0022571913299702056,0.001527273521578
1691524664.4017024,-0.07790024890255488,-0.1729045067810097,9.799560021441886,0.002035332404882408,0.0006940855224896394,0.0002070504886155
1691524664.4118156,-0.028016868852075653,0.07109671591218256,9.874901720183905,0.00042418041979966917,-0.0002197631967075412,-0.0010629109858478
1691524664.4218266,0.02475485350360968,0.00846654375652978,9.805695472984366,0.0018289770741106073,-0.001025914734265316,0.0009327380573899
1691524664.43181,0.08937971822042284,0.14741228761821112,9.829271186665093,-0.00034547533243805287,-0.00017281889788622445,0.0018204747064096
1691524664.4467108,0.04919302988427048,-0.060106310679001795,9.781676944704877,0.002737931558620553,4.589397629963088e-05,0.002623640600877
1691524664.4539196,-0.09342009761652016,-0.04539536546629027,9.867982346154633,0.0020606899907488897,-0.0008854418041418907,-0.0004567919352034
1691524664.4617257,0.09463214035072925,0.029939626526708934,9.773687252618348,0.0016937451239651775,0.00036068999362574345,-0.0008255753020698
1691524664.471739,-0.02441528917358317,0.1449427137529589,9.875727545137027,-0.00013052873938072825,-0.0012334031203771732,0.0006917032476571
1691524664.481878,0.2319689055086745,0.07390839562231391,9.72260967017811,-0.001376290892670057,0.0033144237793077042,0.000686470204318
1691524664.4917357,-0.24900216722445645,-0.16740464205708144,9.897724061780444,0.0012884302614858238,-0.0017381872281131284,-0.0016924873745943
1691524664.5017292,0.25407624972170983,0.11079801838612055,9.72992008136881,0.0005173002747171214,0.00208508323845577,0.0006555527395625
1691524664.5117445,-0.09173004394746415,0.03773555413806338,9.897463862611495,4.7557477907195194e-05,-0.0006831848377205674,0.0005117777216305
1691524664.5217557,-0.0191235039417256,0.042430067141794515,9.839950349648511,-0.0012760365812877002,-0.0011265086639320142,-0.0012417309737707
1691524664.5317075,0.06877839377860355,-0.1289837164190346,9.751665415882771,0.0023773290237545934,-0.0006477837410141478,-0.0001651316235716
1691524664.541782,0.1425508960752376,0.04420205473261975,9.756287762752455,0.0026295520241004333,0.001059865670300844,0.0014926830370036
1691524664.551749,-0.0895680532681229,0.0065069135256274925,9.866019004764897,0.0014918311730236652,-0.0004451393789202931,-0.0013099077443535
1691524664.561782,-0.022936023527951807,0.24392775112945364,9.921381420234038,-0.0027754764783836784,-0.001953885226277634,-0.0006047069148103
1691524664.571864,0.09458470766099206,-0.19050904301103633,9.714662841725909,0.001522384748386127,-0.0006738784085973427,-0.0009466807643825
1691524664.5818431,0.0627691626696665,-0.042041119780618315,9.789500567523907,0.0032676750077060704,-0.0005497922737126872,-0.0001129659178609
1691524664.591843,0.01945345110074966,0.2460454533350433,9.880180006305455,-0.00045686934518673954,-0.001213284915810103,0.0020696825993304
1691524664.601786,0.03374846481481984,-0.1383245936180437,9.75276655348998,0.001436703695439539,-0.00020706669960946674,-0.0003588202928135
1691524664.611799,0.03021804871159572,0.2156766464809942,9.873088988590426,-0.0030656914609646685,5.180283517729333e-05,-0.000876653455844
1691524664.6217914,-0.004990423061054315,-0.26043479890912574,9.729504512429118,0.001710857598970494,0.00022727854588236272,-0.0029576092312986
1691524664.6317863,-0.17345004753352777,0.11686005486512374,9.818330332425067,-2.4361213122509877e-05,-0.0026419369631506683,-0.0008416324674094
1691524664.6417944,-0.5760244513929563,0.02960738631700273,10.005066138617597,-0.0004642587435308567,-0.014837454973849902,-0.0065911866079027
1691524664.6518185,0.7074558271776636,0.0841383942874925,9.803325742015202,0.0001571773051838601,-0.011920548227139878,-0.0080038334528858
1691524664.6617234,1.069380024178206,0.15290833002130266,9.787032004848573,-0.0024148439011819293,-0.002403557207283491,-0.0071843087027723
1691524664.6717544,1.0862880122855398,-0.0915017651417047,9.549124804818033,0.001314142766689963,0.009811353031639276,-0.0023864577344561
1691524664.681855,0.1771439448876094,0.20669454088136038,9.808784204285388,-0.0006784918532602118,0.010619720837612234,0.0032871088658516
1691524664.6917517,-0.3335049839718773,0.027471026932376373,10.010079340720905,-0.00199761897339893,0.002429268009930734,0.0050398898490761
1691524664.7017906,-0.2864768604635909,0.07149240072777774,9.846539405477724,-0.00224643376898466,-0.003062506597483003,0.0069114568357413
1691524664.7118075,0.04541797690388256,0.0030061692145305517,9.861177131163412,-0.0012584960539950467,-0.007190874992038501,0.0082018978607898
1691524664.72174,0.11099358439419495,-0.1605028828586926,9.800743528071068,-0.0002854493837226417,-0.009296790191570604,-0.0010383359442407
1691524664.731734,0.4623931251625701,-0.020251887653926333,9.710916858730359,0.00013251321626492986,-0.0075812537844734745,-0.0116028922895843
1691524664.741783,-1.3210881916544377,-0.3318790717806697,9.683852424192548,0.004111607274003196,-0.02875734486553145,-0.0377176066215092
1691524664.7517354,-1.4136760667002333,0.67161110638171,10.61534806647458,0.0020777248379902024,-0.06801769856786555,-0.0285328512365872
1691524664.7617378,5.343506501281383,1.1907807980826894,10.259348880179639,-0.01929476210263353,-0.031829149108751245,-0.026119701313501
1691524664.7825296,3.4799818211069176,-0.5514686912452331,9.53798979853455,-0.010936672435041192,0.03680428042478664,-0.0179413256521279
1691524664.7842054,-16.129313604428567,-5.215257050030617,16.01060890597556,0.01283658019081542,-0.024136518192932704,-0.0064988203632588
1691524664.7917657,-0.4424239882715012,0.07980001858238044,11.165599617223041,0.010618294677088766,-0.06908358576721865,0.0153399820153658
1691524664.8017542,1.7315994978331763,1.6507365796617817,9.870085379182441,-0.005790296953477871,-0.07448615705844734,0.0459113309805338
1691524664.811761,2.409193055640992,-0.2933841498209377,10.626359509561288,0.008934631380781105,-0.07375187816785951,0.0414409043912833
1691524664.8218195,10.136017472365863,3.10096824936313,9.111432534424425,-0.03669078557180058,0.029930544843767774,0.0388025457684939
1691524664.8318808,9.036552192101555,2.300943651362752,8.769503449860803,-0.059463351258706554,0.14372028496963452,0.0366154352848475
1691524664.8417442,4.438785621851647,-2.5958192914525533,8.720060928450648,-0.044432600248330366,0.19636326633018183,0.0293698033963387
1691524664.8517432,-4.478394903628911,-4.539690893801776,8.60122808999772,0.01145956846269049,0.14716510009735834,0.0195582455669586
1691524664.861753,-7.256738404277203,-1.9456831572037603,9.309133653006684,0.044979263825553284,0.05105673383361726,0.0293686243419592
1691524664.8717566,-10.397692994250454,2.1549321145715834,10.910075306920223,0.022176666579593288,-0.09201191967103087,0.0189616142486279
1691524664.8817546,-2.24460638210727,1.0475906394873857,10.820210470389414,-0.0063355802794348,-0.14800918819068495,-0.0059654598410184
1691524664.891749,-0.7038958059775614,-0.30335073066145535,10.31036329991583,0.0016525853525499773,-0.17469534365114073,-0.0142364704335982
1691524664.901839,5.929600091891026,1.1820739819991852,10.423368744129055,-0.008563230856037208,-0.13779838201009245,-0.0142272028426582
1691524664.911909,9.326489365305543,0.7862620869325835,9.921685174132506,-0.024329245057319107,-0.04063468702606373,-0.0138312920282537
1691524664.9254873,10.559272561541956,-2.2536978850593434,10.096545058937618,0.0028509762941741077,0.08845079176058221,-0.0090000626916939
1691524664.9317513,7.695006134074783,-2.6234380887997504,7.04288436324742,0.028326464460657227,0.16658269899534067,-0.0214097180689627
1691524664.942032,0.1591148042356658,1.8681555305932698,9.47837504683629,0.011895788649845576,0.16090215393401805,-0.0107674922148639
1691524664.951804,-6.015690519888261,1.7804468866321934,10.029452508853593,-0.010396138464739685,0.08280510896315722,-0.0052688980760926
1691524664.9617724,-7.0305606281108695,-0.3515929381811335,10.071362343526665,-0.008676537322873703,-0.023245415060010825,-0.0103344225610549
1691524664.9717565,-4.9159375440747395,0.07271167315273164,10.629835536499236,-0.005660612382919486,-0.11388127298404489,-0.0183849592979008
1691524664.9818208,1.9025546724885984,0.5515106608051699,10.153847726003375,-0.013148072629231707,-0.12012077412302816,-0.0209871285880858
1691524664.9918988,5.549849153787365,-0.6058408180612243,10.257907944346186,-0.01472868353239262,-0.07378112488478876,-0.0324670781667287
1691524665.0018983,7.718778773539409,-1.6120705551103716,9.365496482125785,0.009768272036847617,0.004219451628792032,-0.0329751816864068
1691524665.0118785,6.196164693115499,-1.1200904527614917,8.745265997780358,0.025719501599197392,0.07780837606435878,-0.0340733041341359
1691524665.0219295,0.9234800434566827,1.6045672142023253,9.225047791866011,0.014923176328036159,0.08552583016101481,-0.0272586026514823
1691524665.0319424,-2.5180793649601463,1.3094423466399978,10.542822650262945,-0.0022994308490383976,0.03736237045764571,-0.0194619314099604
1691524665.041854,-3.665067496480015,0.4526700989579758,10.602909902595222,-0.011164094427660238,-0.026894423602064715,-0.0139218966762478
1691524665.051905,-0.31143986863490525,0.3563824289349372,10.754131066252388,-0.01087000318544047,-0.06412039009491437,-0.0109042411024625
1691524665.0617814,4.185265952622391,-0.5399133971530591,9.730800425513165,-0.006114657902292818,-0.029416087145646468,-0.0110373652826006
1691524665.0717869,5.4392979257654055,-0.5081947673309956,9.018607122059958,0.00218568662068077,0.022854174099316473,-0.0102235039050633
1691524665.0817587,4.859772180947991,0.32872848989838066,8.57666205131898,0.0028675584947603435,0.077833230166192,0.0102988828619067
1691524665.0917685,0.3490982644367709,0.4621696788443544,8.936164539578181,-0.0032713279087000667,0.07865244246564328,0.0206798969482128
1691524665.1017582,-3.816609014188342,0.11375728190143646,10.595155852113855,-0.00540277338793677,0.0138662503676541,0.0297250414912646
1691524665.111807,-2.1657620388944103,-0.8470239944219398,10.433458545545463,0.00431235658725862,-0.03505151100209679,0.0337816106800978
1691524665.1218717,-0.17553753742451197,0.039432172346054555,10.521837255492335,0.007463678818628968,-0.05259309371788504,0.0312535634909813
1691524665.1318035,3.3474131186874283,-0.1819068356241339,10.385985402955725,0.008562548374342335,-0.026692106618891008,0.0201439189438765
1691524665.14175,5.695953482237642,0.037103744080248156,9.340221820864745,0.006427192084076712,0.04432888018776709,0.0102238629658763
1691524665.1517527,3.525928612847067,-0.412278566720872,8.633280782788654,0.011182993970032229,0.09718746898645134,-0.0068506940553838
1691524665.1617813,-0.8649563555709173,0.44046786622507106,8.444962898702666,0.0088240898628018,0.1024515288866312,-0.0162585952605063
1691524665.1717534,-3.778679263541419,-0.3873809641970847,10.08482029957052,0.007355504224807266,0.05255160789353206,-0.0153400001401955
1691524665.1817915,-4.394834948861802,-1.250924258192792,9.926499021654685,0.023807293827715684,0.0004062475069733389,-0.0190489401395375
1691524665.191828,-2.9493208903632393,0.5799572052216149,10.330648078964032,0.022368885883887572,-0.04214174850791771,-0.0153688730026538
1691524665.2018127,-1.2636370081144144,2.611284456880816,11.16749101306333,-0.00904105452081069,-0.06435734723223058,-0.0115499074856693
1691524665.211843,2.8626756449129434,0.4397154317350827,10.732632967241974,-0.020579652274935904,-0.03733328011019047,-0.0066993913899118
1691524665.2218866,4.150846137838288,-0.17400369691296774,9.259171580707434,-0.009749421019629978,0.016974527926224454,0.00972604776668
1691524665.231853,2.441455622648862,0.398372024013804,8.649751094489325,-0.007563046423971341,0.05791613907252462,0.0255182704602425
1691524665.2424283,-1.3300161368872498,0.3358296057870631,8.953977053626096,-0.013234838040890097,0.051730722790843994,0.0341080727701132
1691524665.2518058,-2.6828314458195104,-0.260935043701799,9.603351607783667,-0.007565070816532537,0.022880839929794655,0.0360336045448725
1691524665.2618585,-3.1592076602112744,-0.34259580404616047,10.269844237897013,-0.007737177832431153,-0.013619321109398777,0.0250690656428282
1691524665.271813,-2.3988317743753953,-0.7894493421561353,10.992567109851377,-0.0030492727960991606,-0.046945197817557245,0.0173494091902916
1691524665.2817898,0.7943425208960205,-0.573013599298001,10.81168038458075,0.0033554794146014554,-0.04170559727007001,0.0087686500226204
1691524665.2917924,2.106402086588222,0.2696686665790177,9.396835676855533,0.0010221952486073119,-0.010365539911960516,-0.0021090160409862
1691524665.3018942,1.594659352824498,0.12494459064961097,9.104809269392032,-0.005079397720715588,0.019138211275646636,-0.0098447275633866
1691524665.3118129,-0.08154885537530573,-1.028492323173931,8.743299887669629,0.006691998857556056,0.02814650481858796,-0.0141350028390938
1691524665.3218358,-0.8297171899832098,-2.3670037450585464,9.111081038069475,0.03377733301985984,0.023546387065721153,-0.0172623933578784
1691524665.3318143,-1.6165402697882085,0.5009065852927665,9.695445355521736,0.03539022517563768,0.0074842909277067615,-0.0187663321669156
1691524665.3418095,-0.35550484898913265,3.520295101458608,11.09265425027423,-0.012828470029700431,0.003532576657784402,-0.0162116919930035
1691524665.3518095,-0.23557528206788114,0.5027625284351153,11.352902553151855,-0.02782988536605592,0.0014498620860777473,-0.0047632448661083
1691524665.361804,0.4841081917211747,-1.0392249773720337,10.225552257841212,-0.008055000521561913,0.00884746052778748,0.0101424802740161
1691524665.3719454,-0.048171041565584195,-0.04127500816295285,9.432008181407594,0.005955457571055302,0.00960997522292666,0.0271699095790331
1691524665.3818786,-0.802870365174956,1.3263764923718617,8.643503274435059,-0.0074870846441636016,0.008485938443819983,0.0368691238288824
1691524665.3923256,-1.9400553653391124,0.6658366936722748,9.418216856450945,-0.015635365069010247,-0.016262219467878515,0.0351794401829188
1691524665.401827,-0.5065703087556427,0.20588388148227424,9.107260415936718,-0.01807866603079888,-0.02102439213113038,0.0284834357623999
1691524665.411898,-0.2911772604567906,0.22449824509037203,9.69033517170459,-0.020638311957756887,-0.022819098502864305,0.0180162175272648
1691524665.4220486,0.6101782910404322,-2.003637405713569,10.617371684329482,-0.00445854645985345,-0.015156627956727743,0.0045237296906357
1691524665.431831,1.4977750068753832,-0.98087005044282,10.83254545963338,0.01259320759701797,0.0026537703696434883,-0.0020759771398211
1691524665.4427156,1.121916965163588,0.79093207027165,10.650963609384588,0.0023362479435517784,0.02487593983524588,-0.0110883002455289
1691524665.451813,-1.1173219763638311,1.2346621867670067,9.890722451337192,-0.021207428440513557,0.020760571519002936,-0.0220376008476073
1691524665.4618957,-1.8189169161572922,-1.2620867135255287,8.841203294645014,-0.010096444449708216,0.005241973873446915,-0.0147964411701018
1691524665.4717925,-2.481217610106234,-2.3251181083169454,8.921585316344238,0.021817846933646693,-0.030360653511672556,-0.0085225335608179
1691524665.48184,-0.3498558538684289,-0.34939719735630775,9.077262697819236,0.031143584377597896,-0.04030466536799978,-0.0016528183880204
1691524665.4917958,0.23830071424395854,2.617277711784949,10.033816657394786,0.003530064334933346,-0.04508569053034075,0.0021887937507649
1691524665.501829,2.571205062624381,0.835612007880594,10.963159297333377,-0.020914734427861945,-0.01988247152053981,0.0003179752564114
1691524665.5118723,2.397261423555544,-1.3243283278980027,10.616701511254252,-0.0021016288917299055,0.004552415914482851,0.0054837956738715
1691524665.5218709,1.7039576408149666,-0.7603692221639293,10.069324731725272,0.014399914655062983,0.021980847590647643,0.0147899242763464
1691524665.5319538,-0.821762819418777,0.22829784363386788,9.713160295021723,0.012990288633966162,0.009140733972744914,0.017118815583462
1691524665.5418546,-1.8816395191029638,0.6692894669345748,9.435923357985288,0.004997512475675344,-0.024358720895939264,0.0194566811149065
1691524665.551869,-0.27458450464540896,0.8237898501083528,9.151600808799284,-0.005606386890668801,-0.040416484343399735,0.010301207443053
1691524665.561836,1.9945778651105495,0.877547584971255,8.568189025129078,-0.0121979005271086,-0.023087526112318325,0.0094525919009988
1691524665.5718236,2.9130205498776074,-0.9265692412385462,9.545607469878272,-0.006279324022240484,0.008102284245429593,0.0085044319455569
1691524665.5818503,2.453702743790742,-1.42519967613876,10.219242408788713,0.019491914553334683,0.03663071793838198,0.0061347943444793
1691524665.5918674,1.310908872491713,0.04740135320950298,10.626244628016126,0.01946646900623097,0.05907441472743766,9.80522197728444e-05
1691524665.6018684,-2.7747004236429675,1.7461766527115878,10.785537585131154,-0.0031275567974055466,0.031603456888887875,-0.007953429343825
1691524665.6118426,-3.3618575741420695,-0.30620518429462873,10.21260781903331,-0.006301160681844529,-0.009995432196215565,-0.0124824947963411
1691524665.621837,-2.4277546548135063,-1.769229770856485,9.260446628021999,0.010125384101646174,-0.048130732769621556,-0.0161478181655461
1691524665.631874,1.3108715752212972,-0.18236663005609732,8.573460310334541,0.017689830858711158,-0.035446240791406784,-0.0162810978765542
1691524665.641853,2.853034967498472,2.587276481062425,9.412500469152345,-0.007026848306942186,-0.0043258319289344776,-0.0084359382565076
1691524665.6519418,4.140794265353817,0.7677954567329869,9.997761433432773,-0.026731359994096735,0.053169561727945555,-0.0013652695163095
1691524665.662014,0.31404057095253146,-1.3060577998861005,10.52747180368119,-0.005814366545066374,0.06345343011361819,0.0091743834962194
1691524665.671909,-1.713995100868802,-0.09810908911579408,10.407122372225961,0.0017060808477760167,0.04909857662113969,0.0226992669229452
1691524665.681874,-3.4920751167649597,0.7325614439080184,10.379491789815216,-0.007575982974803725,0.006855939300467642,0.0334558899228518
1691524665.6918857,-2.7597143042503576,0.3487405474753021,9.75872953734261,-0.00872039128031644,-0.02839471445525467,0.0326347167317812
1691524665.7017968,-0.6315869216476658,0.24903378965417786,9.039163055225323,-0.012852518601863936,-0.03894926818528411,0.0271506665919964
1691524665.711933,1.304867509621167,-0.78643255109748,8.855798311143836,-0.005279622099500289,-0.02024391171283269,0.0131975414876883
1691524665.721821,1.7317404430264942,-1.8425263454547693,9.872187081926688,0.016764046818633044,-0.0013870578005337503,0.0009802838792615
1691524665.7318575,2.2657435899113274,-0.3543323477334064,10.026734996889765,0.019112044026219372,0.03272539080234167,-0.009315011772042
1691524665.741812,-0.7877419844604294,1.5629153740966446,10.432889896636333,0.0028967041071723968,0.036379447774352335,-0.0136064437503869
1691524665.7518454,-2.8157805927768527,0.02710257083885935,10.534339293961223,-0.008032951625201857,0.004347292676270663,-0.0181673501904065
1691524665.761814,-3.502261036814616,-1.4957979508603656,9.673400322072771,0.010234061250569438,-0.04012872323843581,-0.0187127103383595
1691524665.77183,-0.3580396339245162,-0.7719181034331696,9.30995017444803,0.023094801099627194,-0.05180310443150691,-0.0188935769076401
1691524665.7818294,1.745266281488783,1.8197431876862278,9.121321676195077,0.008199282375182524,-0.033045826742833025,-0.0064896654623503
1691524665.7918851,3.5726023646889535,2.505406450067331,10.30584884018498,-0.027237917077234424,0.005271827566945613,0.0002276859193166
1691524665.8018618,2.75518944306726,-1.0537938394777728,10.21358720247516,-0.018445981368868086,0.04419970307340343,0.0130368585412447
1691524665.8119829,0.2557545883827648,-1.872493897882017,10.049043765723916,0.012459127824357175,0.04759849035676431,0.0267960245435183
1691524665.8218915,-1.9377515734560116,0.7092444397004581,9.858078309103362,0.009830855103444234,0.02420489151642708,0.0353876913611834
1691524665.8319306,-3.046388933548257,0.4681842937835801,9.770257369132459,-0.00186932208737842,-0.016078069778671017,0.0325764382903521
1691524665.8419774,-2.02575028082632,0.30353477074603913,9.42071619229934,-0.005255574115250754,-0.0517700432045683,0.0196396524732058
1691524665.8519804,0.7565618669162025,-0.5163382459766686,8.726465557851958,-0.0007252048870641875,-0.04768884900097719,0.0038608135835324
1691524665.8618586,2.4301802022220347,0.15780393389188807,9.07280678662944,-0.0031853885488991166,-0.018718081266049843,-0.003722409932589
1691524665.871848,3.5168549157222224,-1.271178488225115,10.58869338676926,0.013381308216750456,0.021747457313129673,-0.0066607387090975
1691524665.8820724,1.9012408502053186,-0.21097469742071012,10.477669955556422,0.019584675796059565,0.05571421436775636,-0.0108482723410184
1691524665.89195,-1.638060692133333,1.8789888883360124,10.890991662631308,-0.0009077881350190098,0.040781229519597756,-0.0136136140028888
1691524665.9018388,-3.964971871680368,1.020107782545417,9.971697613292232,-0.01948414015656232,-0.0047565863094157,-0.0159647331858927
1691524665.9118776,-2.8266503111819086,-1.3156182844467381,9.456441917212302,-0.0037742843888942425,-0.047991056366286,-0.0198024732346589
1691524665.9219682,0.00959286518457576,-0.5159392483569235,8.821364200572164,0.004377155777140614,-0.05123121028093459,-0.020668113353377
1691524665.9319105,1.703313272931905,1.5966587566997552,9.319893313034312,-0.0075624209033747685,-0.03742322622966748,-0.0078719861159975
1691524665.9418924,3.894146026567565,1.7925346460099891,10.11849815662084,-0.035443511101851906,0.009306181564559464,-0.003406148153072
1691524665.9519455,2.769772765126618,-1.5729126233819353,10.133551330655884,-0.017246112194567752,0.04991493114928515,0.0075993652169649
1691524665.961899,0.0058301148377666485,-1.5123674073121909,10.344888938112751,0.002207992010612921,0.05462368637983488,0.0165245963905995
1691524665.9719265,-2.6701609213099893,0.7660061714380525,9.824411997571326,-0.0020801684702191235,0.026987234529903897,0.025698986155266
1691524665.9818485,-2.9868140717562324,0.1766596693254369,9.88070127988221,-0.009626417934565997,-0.011298294246750556,0.0311671628330891
1691524665.991917,-2.095940869662073,-0.3349132745172069,9.37799034544344,-0.003908968806983556,-0.04367670862205211,0.0264970997993891
1691524666.0018885,0.9393775016768139,-1.2995251010851832,8.889624418710023,0.011112176721600598,-0.03462118840107696,0.0138745506008212
1691524666.0119658,1.683294117708939,-0.8255866292358764,9.367634359388775,0.01836736512900193,-0.011890456369836726,0.0100250190769379
1691524666.0218182,2.172513192909059,-0.15354439417087679,10.683761671635502,0.021559402302587037,0.013443387843977334,0.0029601076564808
1691524666.0319316,1.1436987309436946,0.4790119337672192,10.303159811249792,0.012976656129565065,0.036091543109950726,-0.0042986899900192
1691524666.0419314,-2.105954534324173,0.4163972210773318,10.362550550241503,0.005536649363671184,0.018169535446162014,-0.0152299252624566
1691524666.0519907,-3.594621130655367,-1.2013932179579494,9.944065800963482,0.017952991985566442,-0.026710093479098848,-0.0228824724729115
1691524666.061972,-1.8178129080243213,-0.3669419052620146,9.314716746763215,0.02516820331245502,-0.05835702077810653,-0.0223049127782637
1691524666.0718522,1.0887415594038108,1.091754149184483,8.977708555007899,0.018047496563978024,-0.04689715637105074,-0.0205314901943261
1691524666.0819569,2.809773541499568,2.7544102771927053,9.846648650280624,-0.013013083993496297,-0.0176187257488683,-0.0098905430461222
1691524666.0919342,3.694280739524026,0.31470505758217343,10.348334719015282,-0.023509956904998394,0.030978366145500185,0.0002294528710713
1691524666.1019258,1.3323959379722765,-1.6902028940520264,10.220625020136751,0.0027269749691432804,0.04919825692269026,0.0102662251045053
1691524666.1121523,-0.5372597286870651,-0.21705018906708903,9.789949346941082,0.014750069793916711,0.0447173792708858,0.0220128002290671
1691524666.12198,-2.759241503024034,1.5523232739319899,9.812170687030488,-0.008231099725718902,0.010455126783928192,0.0221150967006628
1691524666.131914,-2.6471903575458646,-0.3422789394013854,9.845743210642741,-0.009811016847144085,-0.028294540567911287,0.0186496714775507
1691524666.1419306,-0.30651501632356415,-1.1836996907940585,9.10082219893128,0.004867641093243799,-0.03810432532355503,0.0108814567972963
1691524666.1519954,1.635592402095021,-0.8907473953859184,9.16046438033791,0.01896878151122546,-0.019584787634361642,0.0022772997797524
1691524666.1620464,1.787707480238867,-0.12889234387513,10.061096085803122,0.016710486206901843,0.002216999855280246,-0.0035368169012422
1691524666.171944,2.3663913952937436,0.04870698280958941,10.45207298089279,0.01531963161693503,0.03195947222933922,-0.0057338785665983
1691524666.182022,0.7175789783808865,-0.3551245405658496,10.106881775310471,0.01678104241174102,0.044632041984806206,-0.0112445137749368
1691524666.1919408,-2.346030099736271,0.6573314761107897,9.278145247222955,0.013265186985738617,0.025335179783324592,-0.0174661574239785
1691524666.2019513,-3.164486549392227,0.240634256615522,9.839553463647063,0.0048959431895628765,-0.018676377548360875,-0.0160788853938634
1691524666.2120192,-2.3466112196214324,-0.7652198034213659,9.123174132452938,0.02070291309775563,-0.049632048845548254,-0.0161188614840562
1691524666.2219903,0.7495061091088179,0.8093833099306453,9.828630294315243,0.01423800130855541,-0.04711333017474783,-0.0143219341809804
1691524666.2379694,1.648794015377265,2.6086011588314,10.56731367218623,-0.020864453474176373,-0.022957968612052616,-0.0093438343430812
1691524666.2421782,6.675531964900017,-0.12935509504616918,9.484265438541282,-0.02264780304887454,0.02162367648080302,-9.543260624060144e-05
1691524666.251991,1.6053890338544496,-1.5863341948144618,9.823409599746984,0.0014993688933143724,0.04621047771349289,0.0081994359095638
1691524666.262293,-0.41463413615720646,0.3968118888678885,9.048517035319101,0.0074479831484108175,0.049221593492868164,0.0217915813152735
1691524666.2719507,-2.8793069456996085,1.4412193151439292,9.510811635930217,-0.01454676514611444,0.014880205419012173,0.0243291484837477
1691524666.2819595,-2.4113778524777496,-0.28997139527078025,9.472067809712978,-0.016519355172448253,-0.015509023063305882,0.0218395891313498
1691524666.292066,-0.9246952570709155,-2.0246578976320557,9.74317475229558,0.010221964971561059,-0.03652054119788217,0.0141979374636953
1691524666.3019445,0.4848909639250034,-0.4069543740734637,9.613707865329662,0.014213541063714972,-0.03062212201410852,0.005185447418416
1691524666.3120866,1.7835324251501739,0.5637394151661405,10.798616200593559,0.005822976699769616,-0.013991723817868925,-0.0013307151204849
1691524666.3219495,2.648403065991858,-0.8659814610043286,10.164800743393293,0.006568080517570411,0.02176044980998564,-0.0098677908356244
1691524666.331948,1.3152771572778985,-1.1595791622847458,9.17416697845642,0.023311448993560083,0.042991411664055686,-0.014645466330176
1691524666.341927,-2.031772496735278,0.7445741525265124,8.898565012404788,0.020032801545669207,0.026457683588082464,-0.0175281872327382
1691524666.3519547,-3.1760697264776896,0.27029228937931854,9.567122186076647,0.013003158523744594,-0.015756491194321137,-0.0201175955410058
1691524666.361977,-2.3575605370781965,0.1396128611017734,9.767270046371493,0.013342511146206071,-0.04878383095194386,-0.0180807744438702
1691524666.3719945,0.4308796788448363,2.333609532868903,10.720873848294891,-0.006294777805752519,-0.052483860012150226,-0.0168390457804257
1691524666.3819869,2.512544879454247,2.22252360885521,10.677119250235284,-0.03345842172268179,-0.022102135211655004,-0.0088760924811417
1691524666.3919616,3.4615183953709736,-0.9616062431060054,10.653383797022716,-0.023672784348854725,0.019268899136805514,0.0031795985012372
1691524666.401939,1.6150696874240653,-1.5053616813288584,9.387319491741485,0.0022764935667762367,0.0464686647450891,0.0137621474166457
1691524666.412045,-0.6567781491055843,1.2606488537077303,9.140884656491513,-0.00578943340700307,0.041078178081856626,0.0257556180183832
1691524666.422015,-2.6094387125173246,1.227465629124399,9.310634499152123,-0.027917574774633438,0.011201660904138861,0.0233175421779101
1691524666.4320424,-2.5798102486738355,-0.6943400948788456,9.475650876435006,-0.02199116432481335,-0.02416393375317417,0.0170010815088694
1691524666.4420638,-0.9256591785014509,-1.644383537609886,9.955440842300366,-0.001648565064386108,-0.04529117265871119,0.0110455921565239
1691524666.4519565,0.6164798648446651,-0.41986435460150984,9.888194044540601,0.004930522623277277,-0.03864086754251174,-0.0018967569160217
1691524666.4619367,2.8306332105220156,0.18331803712460065,11.048099622800013,-0.006159110142271672,-0.010558895946754685,-0.009221886965161
1691524666.4719405,3.1788908925198713,-1.209509597543312,9.693081334815185,0.006419588800702158,0.03606829479988251,-0.0125260564784462
1691524666.4820044,0.9893657829436895,-1.348907748155266,9.088029217284708,0.025407489192561805,0.05421307566457017,-0.0151789353514964
1691524666.4919913,-3.2436512921501044,0.9955770243944788,8.827413501851685,0.014370501790399908,0.02332257786881919,-0.0206375473464781
1691524666.501915,-3.8759669953077687,-0.0019199442491816337,9.498913443652171,0.012129326215744796,-0.02969119612562239,-0.0195663661981875
1691524666.5119345,-2.45070812971874,0.6294347741142519,9.676833822595917,0.008852257340109387,-0.06446785891619897,-0.0214927212621028
1691524666.5259707,0.8972885828847086,1.979340469203514,10.601258780478572,-0.015026618990237153,-0.06228276384940376,-0.0093823687459284
1691524666.532042,4.415366845115033,1.9650025850321828,10.340616058338407,-0.03389358671266088,-0.02390958761457974,-0.0042239937285835
1691524666.5423849,3.7487121769752254,-1.5472642060785349,10.659571968040215,-0.01436517057304866,0.02481674535717296,0.0080046977561955
1691524666.5521712,2.277699801497077,-0.5774732316523424,9.601142556781106,0.0020650850322270855,0.06048470757895092,0.024636736390466
1691524666.5620484,-1.414991823257427,1.313931291116672,9.291154000258574,-0.009040841797511587,0.04815921242916474,0.030842751515383
1691524666.571993,-2.6847009381302893,0.8334008085442144,9.228485300543067,-0.02675292926346108,0.01731007558242661,0.0254918898169939
1691524666.5819938,-2.6804814134567456,-1.0634127318006668,9.249069459754605,-0.015274420639359874,-0.018413736638900037,0.0137509743397181
1691524666.59195,-1.2794594161038573,-1.1059841548772864,9.764681329635675,1.592502603932843e-05,-0.04145272225054606,0.0043569228326027
1691524666.6019762,0.4266395189127382,0.16524417705375286,10.11904178112471,-0.0023265647428986507,-0.04277334387736245,-0.0050801255094761
1691524666.611981,3.077631039257854,-0.1875561985315853,10.718138075820997,-0.008541060093062902,-0.008528611138561916,-0.0112123673136288
1691524666.6219828,3.030581329928821,-1.7869509580794407,9.673912277701774,0.012455064958135162,0.031267778802365635,-0.0121756417031342
1691524666.6594503,0.26869502697433895,-0.4017311709901178,9.376966825709385,0.03042387591702696,0.05272799454793515,-0.0186613870139176
1691524666.6616025,-7.132773904667016,4.586603363569261,12.912543701553238,0.01000802359519051,0.026935596830567198,-0.0231361405278498
1691524666.6633706,-12.349743240066607,1.4920054750606369,14.835044786668753,0.0030768699675748096,-0.013412096423563679,-0.0254748815025145
1691524666.6664872,-5.864643542293114,-0.26109712406383284,12.21909365543408,0.0071309878536240075,-0.05111777160909568,-0.0212575287843997
1691524666.6719728,1.478818350080969,3.7508810745755548,10.79066562527304,-0.017092003541475272,-0.04376037264632902,-0.0093177694181854
1691524666.6820412,2.554525149731554,0.7905938724097127,10.81281954178533,-0.02940216038136022,-0.015592130291319789,-0.0007614074095095
1691524666.6919262,3.215400847320964,-1.6677683502641778,9.914375847311524,-0.00879213664107924,0.024599389456802956,0.0159330361236875
1691524666.7019284,1.6242014181405815,-0.8729952373901592,9.125289830640787,0.012194397131580319,0.0480957861068017,0.0242754856769984
1691524666.7119513,-0.6743158993103625,1.4005183964709254,8.99732080489997,-0.004069058884837389,0.04482391361336759,0.0314164033805077
1691524666.7219982,-2.5974062717464386,0.3163165448323213,9.296575800890864,-0.014635700646724138,0.015500238775001717,0.0234849772130196
1691524666.7320087,-2.797504591300328,-1.2948869824023526,9.896113603153792,-0.003144966225654991,-0.02534752954285552,0.009860656475002
1691524666.7419338,-1.098840154026769,-0.6701913147843509,9.989752698069692,0.007857322718469666,-0.0427375950448305,0.0020378871884254
1691524666.7518947,0.9784199615816391,1.1572993209908777,10.805025091065227,-0.004977180022967948,-0.03821584938630526,-0.0027957691165561
1691524666.7619212,2.434661671429697,0.10581276408014333,10.4081462548652,-0.013959948146654563,-0.008618916776015962,-0.0062229276920611
1691524666.771981,3.146111151427063,-1.7354065624709256,9.248365290939649,0.010326556656323456,0.032105318996112985,-0.0063167123409862
1691524666.7819524,0.5867330742694749,-0.8752373133325413,8.285889458993154,0.02683647413739394,0.048983271066351114,-0.0154323389108235
1691524666.791929,-1.952264641867128,1.5342158481468486,8.999843935858202,0.00872134370490202,0.030449583386346946,-0.0215553676064069
1691524666.8019657,-3.1404514905601992,0.4319569579146829,9.750543335719643,-0.0038726045499186844,-0.0060613622687803485,-0.0251345315302664
1691524666.812033,-1.9226742748315808,-0.30043851340345,10.70540754099807,0.0020959777083992114,-0.039543870531420375,-0.0226167959446961
1691524666.8219633,0.47458738542669715,1.3771139201763956,11.130025564729907,-0.012803397603075585,-0.034481750917393895,-0.0152673439408595
1691524666.8319378,1.52527272594656,0.3146975532151626,11.295653343399849,-0.015308967299168084,-0.018345819100496066,-0.0127320110152418
1691524666.8419814,2.8191610070119006,-0.9943448628270394,10.213830362882444,-0.004865266554715187,0.01735222571838742,0.0047788256959115
1691524666.8519125,1.2380796559056473,0.23035796954821636,8.698304619689424,0.0008152521106225355,0.038200382775378676,0.0184958449279015
1691524666.861946,-0.7631147544723849,1.363006621229018,8.534458760932448,-0.012267428707854395,0.034230872432350914,0.0319703428720181
1691524666.8719664,-2.2695945227326715,0.4139913625499014,9.207675118187765,-0.02195430940417743,0.005784187281480309,0.0290575719152634
1691524666.8820622,-2.4913785406786975,-0.5951204398915317,9.889293712439118,-0.014870932721738322,-0.029943926274502215,0.0196149742876236
1691524666.8919315,-0.883259902978172,-0.23541634539758613,10.284575492497199,-0.008981111079681251,-0.04567881602241742,0.0092597094078605
1691524666.9019885,0.932559382393145,0.2221652645476626,11.077132060176512,-0.015520474126860627,-0.040552573154181905,-0.0070735260198766
1691524666.9120457,3.3720646806286507,-0.934541377728926,10.271162915992694,-0.01000950256671905,0.000982629913780912,-0.0131428993592912
1691524666.9219596,2.8036107982566003,-1.8406353651562288,9.014325881508201,0.0142177363046899,0.03830580680261771,-0.0168446709687764
1691524666.931955,0.417861574280127,0.15594804286520633,8.229376087046694,0.016106137084370295,0.05378429242098444,-0.020108487206226
1691524666.9420292,-2.940369119991459,1.2936335582260141,9.002370831774806,-0.006354319156888044,0.019653545925967738,-0.0194906068320328
1691524666.95194,-3.126531228270784,-0.7365399623034908,9.873269951629641,0.0005714334763278134,-0.027118055165017738,-0.0108309478784854
1691524666.961972,-1.5406685978517767,0.1761967337209298,10.63008805073416,0.0061224213578347925,-0.0588289352134555,-0.0036063662084693
1691524666.9719238,2.0357318437289105,1.6812773001161916,10.865929975333605,-0.014968847272779752,-0.035928394919925534,-0.0014230070921535
1691524666.981913,2.831100030075581,0.07395280676265363,11.203774162697064,-0.02051053862931633,-0.007224487685022399,0.004305708472902
1691524666.9919505,3.7041898512758507,-1.5585377347175375,9.500146841496681,0.0032440501114517815,0.042632910980891565,0.0150954046000783
1691524667.0018952,1.6110012887435117,0.018198075650593844,8.60459927722737,0.006436620811042037,0.06976750185308202,0.0218318256263678
1691524667.0120127,-2.0470208835019283,1.5480718989682904,8.30791458155432,-0.010688368616727067,0.05603910600941183,0.0269338286195938
1691524667.021914,-3.9189324152972906,-0.6853120463951076,9.84953855058323,-0.008024098566256568,0.0008728383042778168,0.0213389529560749
1691524667.031978,-2.841697946126248,-1.3098328757055782,9.853092637758246,0.010148321381692785,-0.03890623592689694,0.01596442821371
1691524667.0420673,-0.7172686129422042,0.8135712497869285,10.913909187254637,0.006419279127050838,-0.05570623591005216,0.0096272102271263
1691524667.0519538,1.8231712841502798,1.3606836139403844,11.2011941604806,-0.019117819097336796,-0.0336209238658164,-0.0016492919350917
1691524667.0620117,3.2872218615729785,-1.6373167492210472,10.41181269649289,-0.003675658781358073,0.005640313385791032,-0.0063646600867564
1691524667.0720594,2.1741636741522212,-1.414837678193447,8.642450486040893,0.020787067217813086,0.04028628168985404,-0.0139120125497634
1691524667.081982,-0.8786200158032964,1.199596706425183,8.30262807529446,0.00877940864316115,0.041767317215708824,-0.0224464272434766
1691524667.091958,-2.8560529578382163,0.5000335099752979,9.520036907453118,-0.006070514914214938,0.008252316209681537,-0.0239628420497233
1691524667.1021123,-2.967241712300058,0.48846560111058485,10.160990038169416,-0.009095737257512285,-0.03447550494282463,-0.0132369946042949
1691524667.112019,-0.30261471918185506,1.4848905488303497,11.247622302315804,-0.025438242910114383,-0.04576678399451908,-0.0053007455828542
1691524667.1219585,1.52013847020593,-0.024412363228154647,11.033755794445652,-0.025928734083841724,-0.0321185416750417,0.0043879826732968
1691524667.1319954,3.755163958721093,-1.6244486283987234,9.878787799121106,-0.0025354615800150288,0.013037756207910334,0.0163148569588606
1691524667.1419396,2.454433000913475,-0.690813276555075,8.787140635123638,0.0074682287342506745,0.0462270487424848,0.0243242497270052
1691524667.1519678,0.47132801426342014,0.46229137083481564,8.127825786265511,0.003529197863129963,0.060508717234789164,0.0285765885089581
1691524667.1619704,-2.8104244751619945,0.6729225776271378,9.540123984812563,-0.013722977501948935,0.026726174406095767,0.0199185165290777
1691524667.1719809,-2.8870302153319294,-1.263026894005218,9.856942148904247,-0.0031901582717624947,-0.010312095036680936,0.0117266497288887
1691524667.1819384,-2.179837182306836,-2.109627275438808,10.54080379866582,0.023828943393425863,-0.045936906476837264,0.0026049519836028
1691524667.1919563,0.39406674201152514,0.8080509128597467,10.80781358864589,0.020360743185283674,-0.04958083073721306,0.0014138669391918
1691524667.2019868,3.498209195452686,0.9059974022674837,10.706777034482977,0.002613203435164125,-0.011166526189636351,-0.0014275295945758
1691524667.2120838,3.766369902465626,-0.7184273930311955,9.082158580620815,0.011808304695789388,0.04023280367340857,-0.0021211476816738
1691524667.2220263,1.4384199323991615,-0.9438938002772475,8.132688388054712,0.027977141428345082,0.06576737209260759,-0.0068021386216337
1691524667.2319393,-2.4235679226591715,1.4158913581088428,8.536014818989845,0.01408896801854381,0.04423519829209997,-0.0103968900914246
1691524667.241944,-3.2540137609861013,-0.4087424246645508,10.167060916111808,0.010908156446364316,-0.0033491595545883813,-0.0125532026688511
1691524667.252061,-2.365710302206826,-0.4808312718510398,10.181834101318746,0.018729677475798845,-0.03783397775004912,-0.0159792674059922
1691524667.2619202,0.7349033186600438,2.2881104485859227,11.18121515611504,-0.0039056226251257668,-0.03707340804170786,-0.0098189764941985
1691524667.2720516,1.9906503003133442,1.5907707740223833,11.003839657195643,-0.028753346617981047,-0.013652589703345878,-0.0047050078685338
1691524667.281931,3.1112465335458186,-1.3498317853282173,10.00305909317665,-0.010731648004324254,0.023360065909509637,0.0082464351032917
1691524667.2920015,1.3868007601021433,-0.6339732302269345,9.002020978362665,0.008507143462963506,0.045105433645692875,0.0224716181580965
1691524667.3019538,-0.7672234168446703,1.7965166447779573,8.539704092851933,-0.008595164831761157,0.04482568601699206,0.0342722127859537
1691524667.3119504,-2.837725261806621,0.8145276719888233,9.470580955619658,-0.02491443219132212,0.013379367410962437,0.0357911030476038
1691524667.3219552,-2.9700921373589027,-0.9973925966495674,9.617551687108799,-0.014123206106104914,-0.024096857649468013,0.0249487071012203
1691524667.3320663,-1.4926271165269043,-1.0140955755241665,10.24508273584663,-0.0006124898489530095,-0.047016743002097745,0.0194197485868876
1691524667.342037,0.44747474216952465,0.11138919818567956,10.740718024785703,-0.0036572607968284425,-0.042419523061225074,0.0052186565187816
1691524667.3520863,2.4510724196141864,-0.8887647121660512,11.09562201553703,-0.000985651706739235,-0.016613647763371202,0.0002818960527015
1691524667.362143,2.316008065412562,-1.0841257438281406,9.278541569462117,0.013451635551248635,0.01879918638908539,-0.0144918260450417
1691524667.3720565,0.22082061679092396,0.4404614615098452,8.852088317056566,0.010158182834269208,0.0317595482796843,-0.0210059021885449
1691524667.3820567,-1.7418132752526454,0.0173879359546787,8.91912353342207,0.003915575190306614,0.017165679030411198,-0.0271356289560849
1691524667.3920586,-2.120683446138601,-1.3119087508909428,9.307600934832186,0.021532535425937447,-0.011093020711384724,-0.0212418192352111
1691524667.402001,-0.2595037175592696,0.41916120928734374,9.98480050403291,0.022622488594380038,-0.020324560987554224,-0.0126999418537075
1691524667.412031,0.7895661226197439,2.748262956319667,10.751451726375546,-0.010538902669963022,-0.015150454521668,-0.0076471247996146
1691524667.42197,2.4429622192630394,1.2265702174475146,10.89997585430334,-0.031191626951819637,0.012871067488925698,0.0044531943456327
1691524667.4319725,1.3561993528751946,-1.6056008109974103,10.172570712966273,-0.007168875504341519,0.02920625911072006,0.02057451593625
1691524667.4420292,-0.17132658214990282,-0.6233616413823597,9.508985452658786,0.006909658491261582,0.02981285941164281,0.0264443701778595
1691524667.4520009,-1.4141271434368032,1.0352320126667562,9.145409804483679,-0.0014347230151243193,0.013705678533626005,0.0303046463702862
1691524667.4632018,-1.9542535167139619,1.0494567627118943,9.43903885480983,-0.014797802593027773,-0.014107517718596495,0.0229628926788513
1691524667.4720037,-1.469329693321123,-0.25362814533400946,9.50523671933273,-0.016798431872205737,-0.03680407768832304,0.0105835993488376
1691524667.4820447,0.1824432803482917,0.02374531623090247,9.211139273007095,-0.010896146064266154,-0.03720037703448086,0.0015324267913178
1691524667.4920266,2.1862739219011402,0.014451465836057898,10.54580423422572,-0.01763792397279905,-0.016525439824500013,-0.0074351883779222
1691524667.502007,2.9945540865554223,-1.2731475765651772,10.230033358519712,-0.0010339323450218791,0.024425912098823784,-0.0056723768177385
1691524667.5120816,0.8969958592926298,-0.6556430190341256,10.313110493164622,0.011878921676249415,0.040090520123137165,-0.0066438342730457
1691524667.5250263,-2.0557669492278166,0.8656196565229465,9.782083654049288,-0.002096817223595542,0.01824387943501115,-0.0139813606913144
1691524667.5341108,-2.6611738481442524,-0.22695861342087356,9.712493405295241,-0.010726672241458087,-0.012678878575118015,-0.0156984717871005
1691524667.5419984,-1.9758127681326276,-1.4195576017473088,9.397101204613925,0.0018315972792197217,-0.03618362213085005,-0.0173761730368191
1691524667.5520797,0.6263988460036172,-0.7345423591811593,9.342037495325885,0.01766280741545914,-0.03677947755745651,-0.0062343289430196
1691524667.5621228,2.2352114063901456,1.784876052608207,9.94847127072832,-0.008321567045098103,-0.009534369087512543,-0.0038128683629388
1691524667.5719626,2.5706034164750955,-0.6447001129408246,10.269913026267735,-0.0030615933202694182,0.024498389691580764,0.0055769931239133
1691524667.5820134,0.6805498960425909,-1.0792777732678651,10.171675253243663,0.01029877869399927,0.03890001745882159,0.0166092955221479
1691524667.5934722,-1.9003971261369856,-0.0011943145835952337,9.893170204107243,0.01645999869282412,0.017982528782234844,0.022151557979459
1691524667.6036725,-2.631998074312276,0.4630263481661933,10.047587395522537,0.009269553056205389,-0.015284511477574635,0.0232598597829287
1691524667.6119812,-2.358397683558717,0.5992287818290785,9.822440290344694,0.0033370890194947727,-0.045728948094126635,0.013256083493406
1691524667.622127,0.3827559274113979,0.3657420492776518,8.97014440080579,0.0001928865980847204,-0.044757478958804074,0.0065994544600193
1691524667.6319458,1.7280504499668026,0.24242358538729014,8.699075697557682,0.0016129389615436292,-0.02413462386343331,-0.0003458461544419
1691524667.6420214,3.0620891943018327,-0.10656259622829259,10.225014208823499,-0.0006595591541368882,0.014611000638928303,0.0016320871543662
1691524667.652059,1.2979480867467938,-1.1498391344301475,10.33063674709761,0.016152410039967226,0.033706259334856194,0.0028580702089761
1691524667.6620245,-1.1853752898130796,0.3952876317817877,10.47570568160451,0.016129467328653793,0.026879491576021312,-0.0066842397029454
1691524667.672019,-3.0133195491056104,0.763249795489633,10.417844688714421,-0.0016346055562013594,-0.008867910878501242,-0.0149563883717114
1691524667.6821294,-2.832187608041139,-0.8585769731935959,9.621541900999844,0.004472915841614261,-0.04862924376495379,-0.0183528975869471
1691524667.692073,0.1793995004702361,-0.8039689466520367,9.28940932314335,0.01163407991670847,-0.05683342413591287,-0.0241205987806374
1691524667.7020895,3.195810534689189,1.8194652614420217,8.922965435542006,0.0018861459821903016,-0.018977049989827584,-0.0116295374284441
1691524667.7120132,4.237041235699167,1.8417725948858488,9.900030652463991,-0.029629035418329435,0.031162301017624343,-0.0066917033220584
1691524667.722061,2.8215825342759384,-0.9879855719762718,9.905188804432214,-0.01850892600508126,0.07097445206628135,0.0057683696684484
1691524667.7321675,-0.7052230514046219,-1.8399674866241114,10.347539453866913,0.010421612134976084,0.06437918548467475,0.017178677273268
1691524667.7420957,-3.2071674586892076,0.7189312980794503,10.367260421207316,0.006452715327887152,0.024016885777317292,0.0217246117715781
1691524667.752066,-2.9018794408961575,1.2415597132441236,10.22322549268215,-0.012150414306493804,-0.015696559347360653,0.0200996308301632
1691524667.762194,-1.4291181069116037,-0.08310307188188526,9.483013835686858,-0.01270221991387173,-0.03929580919117837,0.0111275075648968
1691524667.7720056,0.5994122016756102,-0.2603024055766764,8.760304396616322,-0.005255893006419314,-0.03688665909681871,0.0058138703641538
1691524667.782038,2.3737594438677063,0.10343850191057938,9.384083021549193,-0.005974169575511279,-0.010706823008460407,0.0049197233927493
1691524667.792156,2.9542564887434932,-1.161002413795478,10.070573410713562,0.007126880713046645,0.02890573876186679,0.0013048525759308
1691524667.802148,1.103103077434136,-1.156023436223803,10.272651026066852,0.02109586116895647,0.0497692920860973,-0.0029153462785238
1691524667.812071,-2.482791049396283,1.1365549782195843,10.319907667810062,0.008865759572241583,0.028920486212494132,-0.0070134389500076
1691524667.8221056,-3.8012294791205563,0.18166441373052247,10.361958165112684,-0.0032401730182971874,-0.019638984349079295,-0.0150151119853312
1691524667.831975,-2.4996943628605073,-0.7197885979044029,9.655828533718044,0.0031629876628758787,-0.054710820906129345,-0.0195735466952378
1691524667.8421285,0.9798090879883948,-0.8477666117505943,9.03192570764385,0.01607418197290174,-0.04885964453665491,-0.0149298065627867
1691524667.852,2.856033620325168,2.1861108162040397,9.560244282095429,-0.004367316095749054,-0.014931151725356884,-0.0110529630730802
1691524667.8620071,3.7720470607688594,0.8870602627420221,9.917982376003168,-0.02069082171498639,0.036116167346115245,0.0022997128724177
1691524667.8720393,0.9497046510260029,-1.852821688404346,10.263874046868727,-0.0026408914235694606,0.05170819054478503,0.0124155397241061
1691524667.8819852,-1.56491458309319,-1.4199094245887698,9.975552514047035,0.02245643772301894,0.0357478618065942,0.0200533291970436
1691524667.8920112,-2.614139548013749,1.1865964686243675,9.915291138124072,0.00981392978722268,0.002943276724093979,0.0338159057025854
1691524667.9020522,-3.038215227710701,0.8156883570664983,10.050595224668356,-0.001041095136026787,-0.04101710450910154,0.0288416186993067
1691524667.9120564,-0.8437580146258106,-0.16894380894838965,9.043978536187876,-0.0019540945785427697,-0.0562570273990195,0.0135177050431316
1691524667.9220283,1.4117692008478933,-0.12025344914590617,8.678087223845425,0.006655819180050254,-0.04252670582404108,0.0054793551278357
1691524667.9321003,3.0199068475883086,0.963668301602786,9.841221130687327,-0.006704866740933821,-0.005580180788676996,-0.0074349248136336
1691524667.942094,2.8779621805095754,-1.281070041272945,10.352055460624358,0.008484238711047237,0.034502754481262825,-0.007285655225342
1691524667.952077,0.41207409249433496,-0.6887883686773775,10.449552071910185,0.022395597562398423,0.04649624057766321,-0.0117229667778069
1691524667.9620788,-2.7186876912986677,1.665116176020001,10.372277341676522,0.0034450945894219805,0.01828826421107183,-0.0152932011808211
1691524667.9720323,-3.6284962936009006,1.1713130151787632,9.944028995820329,-0.018059624308316848,-0.029410339054789285,-0.0147500184650475
1691524667.9820492,-1.6069747752408543,-0.7606381651482644,9.49092137485582,-0.011398582560453388,-0.05542263586273187,-0.021181769418245
1691524667.9921503,0.7483072622097403,-0.587949135078902,9.028676698863082,-0.0006886442759722463,-0.05099596419056066,-0.0169010681386048
1691524668.0020344,3.091213891536445,1.843876257364227,9.647778269773534,-0.017243485852455533,-0.017475434370062985,-0.0079247176001722
1691524668.01204,3.6105158610860673,0.8195801495382857,10.118670768655928,-0.03335953458085066,0.025889084958918777,-7.759614912220946e-05
1691524668.022165,2.295629033585501,-1.907047850383374,9.856223834348617,-0.011115729583557587,0.06177532177812423,0.0126513682951276
1691524668.03203,-1.4828716008390905,-1.7034701263799172,10.148862291616767,0.012721421782426742,0.045846125672253116,0.021876013157243
1691524668.042061,-2.8478894688499756,1.0774304444277234,9.822459177218322,0.0010798528996580727,0.00940043053826643,0.0269629175488894
1691524668.0520988,-2.2323822166964558,0.715703671204246,9.762894989479731,-0.013204707406613461,-0.02250660142689114,0.0251477121089642
1691524668.0620985,-1.020614011707249,-0.8700219662302725,9.19457295985304,-0.0035190690735977803,-0.041448384217192005,0.0163386885722225
1691524668.0720532,1.3052737306488098,-1.0609046174274228,9.045474142813516,0.013094444483305065,-0.030691095008317727,0.0095069736887758
1691524668.082104,2.788571642618135,0.28468869186075946,10.108600122017169,0.010430837491810695,0.004837108381101235,0.0049157599167024
1691524668.0920837,2.0187129407856044,-0.6235755660601535,10.760945508412892,0.013551562290257448,0.03195377901932268,-0.0029549661378318
1691524668.1020606,0.35552805237114216,-0.2212822999472006,9.946222018394872,0.01794358053781534,0.04540137712098542,-0.0077844250301773
1691524668.112079,-3.507108582794169,0.32440311852293247,10.01966865791084,0.011514724781786783,0.008306156065604099,-0.0156866141880805
1691524668.1220574,-3.371211838962491,-0.349210362062423,9.88834294113105,0.013178720216721881,-0.03643983611342104,-0.0189795603330189
1691524668.1320038,-0.9864313038136584,-0.11366225266786201,9.400937274747244,0.012574275808699222,-0.056360313498402585,-0.0187246554817015
1691524668.1420546,1.6866769941811017,0.9176060008739404,9.32481774054918,0.00952908103484494,-0.038464187172709156,-0.0153069307382161
1691524668.152064,3.4090655939493852,2.006992138622316,9.994622275610324,-0.01707241201649838,0.0017811944352505962,-0.0076003202523047
1691524668.1620867,2.722765223536355,-0.7303274529019685,10.26644997398112,-0.009304303732350229,0.03941959500814557,0.0013689003860867
1691524668.172006,0.16013044384134598,-1.8924933475503232,9.782483387851752,0.017401442386739102,0.04835202539089295,0.0085074866836016
1691524668.1821525,-1.6046110275863223,0.8154239265994918,9.856521940414483,0.014450568709786617,0.026411065393492524,0.0213646295194571
1691524668.192131,-2.4940078621082633,1.6110370742778104,9.69660952137137,-0.009027047133002135,-0.0037517029464213454,0.0259322135423367
1691524668.2020698,-1.9670098133002358,-0.6154852516477826,9.935605618916616,-0.006759011923608018,-0.03595735961820265,0.0178669805352633
1691524668.2120793,0.38494065331857513,-1.5142323274064367,9.063823377998576,0.013364183525218969,-0.0359874922467852,0.0121520480786507
1691524668.2221546,1.645098570611297,0.06958306626101661,9.529179050880263,0.018256418264067882,-0.017404457206725506,0.005645308428729
1691524668.245055,1.7035792410459307,0.2623373571187245,10.907655324909458,0.00400852282855048,0.01075469588592743,-0.0085869820143038
1691524668.2485998,4.1593213866261065,-1.3068231762078102,8.46151473854766,0.011797337054048652,0.038623847039103286,-0.009317989210313
1691524668.255138,-0.10941027236589432,-1.7798245310711238,9.491460082102465,0.026481214437608553,0.04027860035002826,-0.0162518729741627
1691524668.2622106,-3.5398329613531083,1.4652825983315894,9.32177468955981,0.017396452388096152,0.010437141100829946,-0.0161659379775578
1691524668.272763,-2.8521403765789737,0.23575381151227437,9.874497584093922,0.007461925570489076,-0.03345280548871305,-0.0164252777869755
1691524668.2821612,-1.3612010585945675,0.18845344270753278,9.613431985811687,0.007289495947401595,-0.05384469113754454,-0.0176110563154275
1691524668.2935848,1.9332997076946155,1.7897129529720002,10.556287929169596,-0.008021512004995974,-0.03661009343329768,-0.0102901260654384
1691524668.3020897,3.337926446841896,1.5119178032385188,10.351155295748713,-0.027446085325217705,0.004202882903082311,-0.004818303725397
1691524668.312061,2.4803853378159237,-1.696747672306514,10.522424683831522,-0.007902556403773879,0.036880921422815835,0.0044837687344347
1691524668.32206,0.38095393476856926,-1.4813141740805136,9.358771687787314,0.017612275259418726,0.044816639775427256,0.0159899073367064
1691524668.3320618,-1.5326619321617205,1.6253283817221023,8.884740155001182,0.0041095219431869605,0.03234844474585398,0.0217374025558178
1691524668.3420682,-2.4187565203286003,1.5500274174286632,9.703906492934884,-0.022700378686575363,-0.0013081163738904937,0.017422257242078
1691524668.3520467,-1.6054899902040711,-1.1702665977448579,9.546458838000131,-0.014812036357893967,-0.024149158827841223,0.016871042800421
1691524668.3621466,-0.1660531842232737,-2.3159623161421625,9.66665697993092,0.02057904378609242,-0.0329047339122276,0.0080028174159174
1691524668.3720448,1.218375979591494,0.8466262396405393,10.356164174669965,0.014147467400957141,-0.022179550802716295,0.0022316796419267
1691524668.3821385,2.394055845797769,0.7803759573625056,10.683584410693829,-0.005153136524880177,0.009815853715942372,-0.0043081098522002
1691524668.3920789,1.6011216790997298,-1.7356535338572332,9.999560136746737,0.009924571740341346,0.030356417068855755,-0.0106646490569169
1691524668.402113,0.05283247351646204,-1.6133973031176305,8.565723587538434,0.03387633936371038,0.03925137862443247,-0.0155741849268729
1691524668.4121192,-2.6635357201908936,1.29703721354326,8.81996628660878,0.020372902337110713,0.010859253260924137,-0.0193778851355368
1691524668.4220798,-2.813586516437041,0.712599157990079,9.680217419377739,0.009745697117295412,-0.026442680392655498,-0.0175065395708138
1691524668.4320612,-1.0620775638610545,1.2120813487154891,10.506726465514717,-0.0015448833850776938,-0.04899140265421977,-0.0172599477047974
1691524668.4421284,1.5616497674009666,2.1046365656278474,10.800131870959166,-0.024845906026969424,-0.0306349549788086,-0.0116766949470097
1691524668.452049,2.2172182326868723,0.3264174240212622,10.781527995654384,-0.028467996189367045,-0.005471441901589489,-0.0022821293498332
1691524668.4620836,2.19043546903019,-1.8791945803440588,9.938823761406567,-0.0025507935454837233,0.027233519673270867,0.0063371446629112
1691524668.4720693,0.37723462460058244,-0.13364926777297567,9.439074100386678,0.009132110753753708,0.030884687207345125,0.0179435706411545
1691524668.4820366,-0.924572082083824,1.9887684120449833,8.831455021118375,-0.013430807419397324,0.0283977054877404,0.0228616523270552
1691524668.4920895,-2.069665907329433,0.7789278007421162,9.648137198082974,-0.028983886299230384,-0.0023873027318357604,0.0188761765782778
1691524668.5021791,-1.705225696612609,-1.3696502834468165,9.332995324060397,-0.013262356164496236,-0.023249795131767913,0.0151572211359684
1691524668.5121982,-0.7145919913840555,-1.0356792666776724,10.274447605596874,0.0014430918122806447,-0.04159949862648106,0.0090472081390266
1691524668.5220542,1.1767653930481108,0.7198157866445967,10.671052476281703,-0.008748081916820222,-0.02923894912940043,-0.0046625432844216
1691524668.532086,2.6838657003321194,-0.6693086472547665,10.521761242373202,-0.008605331416795033,0.003161530789743615,-0.0088028448919708
1691524668.542123,1.9375394187175854,-2.2690725651075048,9.414918958968844,0.014667967433292876,0.03234173743877754,-0.0159463228012377
1691524668.5520322,-0.21275505092929725,-0.8446681921871108,8.447485726959542,0.03109003986047923,0.03725465660894721,-0.0195758470619971
1691524668.5620587,-3.216510475585753,1.3392231191074087,8.801508038521645,0.011987359761002885,0.0030610701171265887,-0.0218575314904505
1691524668.572096,-3.1734402355916016,0.7912523713467995,9.98972351250767,-0.0003480904668792964,-0.04376583046862301,-0.0234416720743233
1691524668.5820627,-0.8991440777430123,1.1381789707975747,10.363308887282273,-0.008088575703364742,-0.06219635968195161,-0.0153298859770352
1691524668.5920904,2.241269356048854,1.6670766782331985,10.860097114909054,-0.025828481177091318,-0.04185400087085409,-0.0049278961780423
1691524668.6021025,3.1992327474423625,-0.24673174315416976,10.616863659812072,-0.02456581458616007,0.0002871580525014598,0.0024255790229012
1691524668.6122072,3.0673931970226502,-1.5797623380760808,10.194998264852671,0.0009057747706902692,0.038607106485085814,0.0176274182920401
1691524668.6221237,0.6373655727649049,0.05879445060377584,9.23983304598359,0.007609416207106837,0.05258143696673021,0.0279923065279667
1691524668.632144,-1.8009862087417126,1.7394498207107334,8.984987589605398,-0.014250093186324773,0.03695910959829289,0.0244415516679232
1691524668.6420946,-2.4159826693364788,0.703805708381245,9.54594878012124,-0.028689996034078003,0.0017297655438695428,0.0190715643291418
1691524668.6521962,-2.165100623543699,-1.5213809674572072,9.140421050961974,-0.011591058654202657,-0.026070567472319128,0.0070234497723226
1691524668.662115,-0.7136738719292128,-0.5022318720722584,10.20761710585324,0.0007161373382946948,-0.04715430327131799,0.0022477732452621
1691524668.672132,1.9532632181425864,0.848154480593956,10.609900573607964,-0.01400529998937356,-0.026809425604782992,-0.0058781553345675
1691524668.6820543,3.2737272362888845,-1.408858956518701,10.332118149493853,-0.0027462041220437895,0.013461187976494466,-0.0068199930067116
1691524668.692109,2.041507109317512,-2.149640263472516,9.372989921222294,0.020294449133393205,0.04261687787272813,-0.0115694559465105
1691524668.7021484,-0.709609223890434,-0.3116397261721354,8.561576840602257,0.03145300919259705,0.0430973022934091,-0.0175236870820576
1691524668.7123148,-2.6090565830019714,1.4614619033066722,9.33406805354551,0.006386855561510472,0.012570333251395088,-0.0230137833679969
1691524668.722056,-2.957781513963426,0.6355562112919938,9.906925204382611,-0.005209514694931982,-0.026825406111499167,-0.0229544711585099
1691524668.732074,-0.28535343703043314,0.6782995373571514,10.583320623397007,-0.008647440682309786,-0.03896168832045821,-0.0176887882227952
1691524668.7421985,1.2907928138602698,1.0487261018156366,10.495401577353938,-0.019227503093780365,-0.025796322551310685,-0.0075646804000193
1691524668.7520504,2.177399273553966,-0.24976724679280204,10.458858894906736,-0.015154026797293291,-0.001182510526579201,0.006971428421611
1691524668.7621734,2.369252512831514,-1.4280664769840428,9.75283331547933,0.008592766004956929,0.027029081097739428,0.0236791933600848
1691524668.7721136,0.7983098566201045,0.4219968578069615,8.899384578529403,0.008566107272921435,0.043382587621952066,0.0292138031398003
1691524668.7821448,-1.2869555836341884,1.4963342001251851,9.245297206494175,-0.013805372157241794,0.030091057550712896,0.0278187638794129
1691524668.7921538,-2.1536942770179475,0.0724628847940751,9.448499652049822,-0.018477148153268758,0.003866545585300264,0.0206320753966515
1691524668.8021424,-2.2281207210215497,-1.5377972459768088,9.868773015417148,-0.001517455950501513,-0.027949569717080024,0.0079044273768608
1691524668.8121574,-0.24258921421425297,0.6554155052913972,10.630624929301227,-0.0036373886568392424,-0.03778599948466865,0.0009186938293801
1691524668.822075,1.1544999229103463,0.5552993066062467,10.711267847183276,-0.012009922999214202,-0.027416238434525016,-0.004207905131107
1691524668.8321702,2.5682507185457277,-1.1786042036184377,10.041618981767346,-0.0035146428719330033,0.0050204078122661235,-0.0080521532620246
1691524668.842082,1.845753716445167,-1.9323483422246985,8.730200620375232,0.021500105602786132,0.03146435284563096,-0.0167336200649792
1691524668.8521345,-0.07230978009485894,0.2267579834162176,8.200233571091719,0.024584735799301167,0.03902644329184789,-0.0191340853745991
1691524668.8620903,-2.3084658242130836,1.2973056731449186,9.267764430810116,0.0004559470494255244,0.015561878359774526,-0.0226449162985141
1691524668.8720872,-2.2625187120709693,0.4667481529301785,10.37192321695449,-0.008760979309499439,-0.016439201875352655,-0.0214993932570273
1691524668.8821113,-0.008172649902355817,0.0838582254016777,11.046479922551411,-0.008034396300237464,-0.02120029790003966,-0.0212096141005809
1691524668.8920877,0.7600377936536706,0.8470496979888928,11.299374453791279,-0.01742555592826791,-0.011770360446021895,-0.0113015246863419
1691524668.902088,1.3548437701914566,-1.130677180576545,10.563674412809675,-0.0026827070080483913,0.003149074234040052,0.0039366963499282
1691524668.9121408,1.1982262602985525,-0.9411075600854911,9.332900448019553,0.016316558161364472,0.0187188171279349,0.0176273866270726
1691524668.923288,0.07492279635475264,1.4619296330505989,8.594406380087428,0.0017638188255651836,0.02587102109697612,0.0251487142120545
1691524668.9421487,-0.8212278559798188,1.0841609118361766,8.741519211241807,-0.020756453078982037,0.009141011363829948,0.0274329895799105
1691524668.9450834,-4.098847168818221,-1.0142707345315585,10.300146248410451,-0.019094594098784886,-0.009633136028407024,0.0195978472654764
1691524668.9544957,-1.590312816678939,-0.594533436737179,10.120891092515532,-0.00781855580010875,-0.03558022521585084,0.0109736139600222
1691524668.962113,0.4959777666922853,0.8813802548399043,10.772109962999124,-0.016461298895680408,-0.03181232376684975,-0.0012547396874929
1691524668.9721112,1.4887913054072697,-0.14259056534665823,11.023174789271337,-0.018609329273806395,-0.01775391462013303,-0.0101663672651107
1691524668.9821122,2.658313266661892,-1.8732406257145253,9.888124271469493,0.0008389779283963844,0.01669387588859834,-0.013315778906172
1691524668.9922144,1.651450777637699,-1.4806429295268557,8.54051588230169,0.020856187942059876,0.041054012049723594,-0.0175936219568307
1691524669.002114,-0.9738521010941089,1.0789316134853137,8.115190280985642,0.009938315420333691,0.038020125285541925,-0.0155456771428639
1691524669.0121038,-2.9586060019834237,0.3854914530906265,9.488376607168238,-0.00647480605274492,-0.0028717560626272663,-0.0146618985856826
1691524669.0221672,-2.1871928107364433,-0.24311329810558174,10.036615877824609,-0.0005785988093753549,-0.0366988920541554,-0.0091614171217138
1691524669.0322297,0.25963735108483654,1.0689574862328606,11.033219035662297,-0.0110538188616949,-0.04215704755835454,-0.0068409514899308
1691524669.0422869,1.6798923717045937,0.8633680389889378,11.015049182807635,-0.02183077189970357,-0.022077467149253124,0.001130769367382
1691524669.0540154,2.497169131938514,-1.5238209192014107,10.696869117393671,-0.003648454312875132,0.00798280440300018,0.0082939781894033
1691524669.0621705,2.7642686379701873,-1.2007685008402982,8.852703878274516,0.016294586550252416,0.04042184425848557,0.0197891614113991
1691524669.0721798,0.15123730103283572,1.1223012695619479,8.44311807866861,0.007654915884765055,0.04945541561285678,0.0258389825646822
1691524669.087143,-1.7737829132209502,1.1822882510540351,8.575529092253586,-0.01664380476677941,0.02721574430644387,0.0251119735364859
1691524669.092173,-5.0497781271001285,-0.7055516077179985,10.697314396916886,-0.013326720982262648,-0.014055571160995163,0.0224471877043192
1691524669.1021042,-1.8679534124660524,-1.274173020584071,10.471047466100972,0.0062443726361246605,-0.044154297423126064,0.0100582756747548
1691524669.112143,0.593553904785077,1.3052139013151591,10.956993402766193,-0.007355709727753562,-0.03845322747047594,0.0039372954231744
1691524669.1222022,1.776681654396978,0.1133837622797355,11.267340319818649,-0.014476043599002694,-0.019052338684460622,-0.0011443234800303
1691524669.1321828,2.521422132062136,-2.3725658881845084,9.667966549144065,0.010297128086004009,0.013745099953439883,-0.0080932841922099
1691524669.1421075,1.15401612982134,-0.5878853630093323,8.195021725921537,0.02397799222891564,0.0362004439119568,-0.0165692267293984
1691524669.152123,-1.5289074383879777,1.4493366346238075,8.538602058736354,0.003527096795996763,0.02629071325572842,-0.020870502787357
1691524669.162103,-2.649903929339064,0.3034743351280776,9.69138785057506,-0.00659978581249814,-0.006383111187147744,-0.0222786587948853
1691524669.1722224,-1.3274451407647563,1.4351933945268118,10.979690856724966,-0.022041763590966285,-0.030990828245268404,-0.012439706111973
1691524669.1821923,0.5901248885191496,0.6823917867071807,11.070795011516578,-0.027917312450864543,-0.02728819398987885,-0.0016639584029967
1691524669.1922443,2.0920829118837574,-1.4774480035003237,10.857784398235623,-0.012088686917139359,-0.007371493231737772,0.0136701951448862
1691524669.2021394,2.3836653540670913,-1.675599408309666,9.213732980428503,0.017620554683249953,0.02166557364307434,0.0260417277638857
1691524669.2121391,1.6685995837921177,0.2571889221679491,8.61270485350353,0.01369521920944395,0.042678476662615775,0.0327309447054808
1691524669.2221577,-0.4037775519497526,1.0135249745484838,8.330407183065956,-0.0025573771546815146,0.04608801293115175,0.0217759332333748
1691524669.2532828,-1.144106795522356,0.052468477549874694,9.12571049801756,-0.0134179344179843,0.019876219448137764,0.0096177023549621
1691524669.2552068,-11.055107402884362,-6.434521507934512,13.173311337403435,0.005012296999180206,-0.01936138361968911,0.0015500057668482
1691524669.2639096,-0.9763973953557933,-1.5579032373779527,10.457518970134851,0.030661756787453923,-0.03664215121491715,-0.0039503571863228
1691524669.2681935,1.3820839351627887,2.9266171402594887,11.395539575993121,0.011302823440164856,-0.031236227079856363,-0.0076593214000518
1691524669.273529,4.880176100670329,0.9899692360754171,9.683073581608394,0.0007278973867183916,0.005971282189445699,-0.0027106331947202
1691524669.2823305,2.9348916443079474,-1.5363475465885499,8.566252941472895,0.018498522117269652,0.04330128344071034,-0.003318956802314
1691524669.2920938,0.1300258406245908,0.07262432559663576,7.759640484452697,0.025942077230664495,0.05437623362234981,-0.004261560952937
1691524669.3021648,-2.587244773306087,0.9811986838641774,9.090934978074227,0.008410120688563468,0.02594640694420847,-0.0114030975202972
1691524669.3121345,-2.647766422421512,-0.21731548040273754,10.138532870633442,0.005894994439589842,-0.012398092865849674,-0.0114248941938335
1691524669.322266,-0.9467331047159174,-0.025178179127767753,10.830854069911558,0.00980518674644136,-0.03258562433233496,-0.0159718745673949
1691524669.3321602,1.3904522530594503,1.8502529002836423,11.060207665332658,-0.012576120952056452,-0.017791799713969637,-0.0097060182417685
1691524669.3421364,2.144323702228662,-0.18921361877543177,10.771900893127304,-0.012806431142312495,0.007366841534859068,-0.002200189959904
1691524669.3521466,1.7471920720891758,-1.252921686699921,9.52710429820739,0.0075970849818330285,0.03171725943869354,0.0114732424442713
1691524669.3621368,0.1926167314025655,0.6393405651248845,8.77295215459236,0.009677237095392626,0.03827170834776433,0.0279150756721442
1691524669.3722222,-1.801720865134555,1.872198273016585,8.79478166548178,-0.01305254124003497,0.023056904939546867,0.0353446568076556
1691524669.3821468,-2.5186921546487717,0.0020013317474643,9.64506349928378,-0.017120997701651052,-0.007876648033657585,0.029452422884578
1691524669.3922117,-2.200167111393771,-0.677007136580704,9.690901498003068,-0.006522453841580556,-0.034661054824153076,0.0223434663091843
1691524669.4022672,-0.5705446154087634,0.44596734270703353,10.751151074963074,-0.009103757728609569,-0.04714005774215786,0.0152302582462375
1691524669.4122484,1.152376494336499,-0.08855552970442558,11.064265051306466,-0.016359343880356363,-0.034396887064546446,0.0021394520479311
1691524669.4222372,2.7223255204822685,-2.0173751861697133,10.274682776344422,0.006546752225919926,-0.0012002427743955395,-0.0029123660462851
1691524669.4322848,1.3868410731030152,-0.6657892874373142,8.958292511657552,0.017578619354438624,0.024373792523561214,-0.0124865274230892
1691524669.4421446,-0.6751004188475085,0.7276453244700571,8.607732427316076,0.008131258858442939,0.025809570703625186,-0.0217604019964987
1691524669.452179,-2.2016498069580224,-0.003317304618467826,9.19731995816594,-4.850471878998435e-05,0.0025187923736140413,-0.0276138034935052
1691524669.4623368,-1.3167786862380955,-1.086836284527709,9.586737862939515,0.010103005485808239,-0.01729624612085166,-0.0242448167229945
1691524669.472119,0.2978789244415248,0.6369905902440036,10.451136859595017,0.01003702329675656,-0.019108631691117,-0.0157768369938189
1691524669.4821353,1.7346824473151756,1.7894809808242518,10.66385080649132,-0.012391391723632135,-6.749837259763498e-05,-0.0067915494839603
1691524669.4921706,1.924807610553457,-0.05863035206189574,10.68748576330492,-0.015168586711767072,0.022890011906993912,0.009682606225187
1691524669.5021677,0.4920693406597261,-1.1116556890245624,9.96919002797786,0.003508430672542159,0.029483616680180732,0.0229050035302584
1691524669.5127945,-0.768079514047524,0.07970157882299046,9.290188670611197,0.010000584135175686,0.020639025466666558,0.0321510250394289
1691524669.523162,-1.3936673166573006,1.453747524873683,9.343342617728288,-0.005594354155696542,0.0009797992332758617,0.0337667952005808
1691524669.5423102,-1.1537622684192865,0.5087278951762984,9.104401510889303,-0.014730077139909608,-0.023461337773451055,0.0209835379098599
1691524669.543296,-9.428164204913008,-5.840438446409891,12.167517945602217,-0.011169821002249399,-0.03782260927396587,0.0039592413411532
1691524669.5529096,0.7009058762805211,1.4365500742144979,9.729418034197932,-0.01947283428637859,-0.032688534937591794,-0.0013408853958303
1691524669.5630708,2.948997121286628,-0.414161410065117,10.549920750260979,-0.025622525954855774,0.0014076066205437022,-0.0128488528828079
1691524669.5734909,2.044603745418457,-1.8299494049692948,10.179661371325244,0.0011137093542812114,0.03226897262883949,-0.009529521438008
1691524669.5836396,-0.36201188538585327,-0.9778010536687044,10.174670964905978,0.01757771468026174,0.031879749558397404,-0.0148971506680304
1691524669.593897,-2.275787313531457,1.8490294250779011,9.674637444726441,-0.011296496299889072,0.009405321598964532,-0.0155033615703637
1691524669.6021323,-2.5633686221519,-0.048126284853165995,10.003402709950924,-0.017395238237180508,-0.023483158283038017,-0.0167606191064173
1691524669.6121943,-0.6578308962782711,-1.592937362098987,9.157126281562633,-0.006917937746145758,-0.03234149641867906,-0.0159240939940268
1691524669.6222034,1.531059624455329,-0.11710471345056774,9.669068683242795,0.005028619903461252,-0.02202347416101999,-0.0055832618202025
1691524669.632279,2.427191597548959,0.7539279262985444,9.890676808256545,-0.006700863737972594,0.008742187417276058,0.0027348571636771
1691524669.642164,2.092797708337653,-0.9062315270305674,10.234746873724898,-0.0007910545669573504,0.03690816844061612,0.0105115950753038
1691524669.652208,-0.6476233622530343,-0.8814399543131108,10.020838536282648,0.014635925373994817,0.03335925942058624,0.0209903905813639
1691524669.6622803,-2.264947363882291,0.25446277860845107,9.887051131339597,0.012905513008973591,0.007433002001642069,0.0217482357000057
1691524669.6722252,-2.428750461647219,0.7972978022038093,10.105502279619955,0.002861842616953003,-0.024078102307592015,0.0195141567562763
1691524669.682207,-1.355894968783449,0.050721769456595324,9.551757215380825,0.00223941524266746,-0.04836355826237065,0.0109238198672478
1691524669.6922474,0.8605937373606093,-0.027126553370133106,8.780818344570532,0.006294312513009261,-0.0396038328392771,0.0036352775239442
1691524669.702135,2.449323936627446,1.263436391209468,9.126362927567776,-0.0016952222139068997,-0.011099847475507343,0.0021985075034258
1691524669.7121627,2.7713963461065694,-0.41860897751703025,10.313264199545932,-0.0048802877529026106,0.027140254574416784,0.0003183314290886
1691524669.7221825,0.5103150760804789,-1.6898344691186529,10.178432372702892,0.022348407739745235,0.03796291540610984,-0.0035599793593342
1691524669.7321491,-2.1690226740568996,0.5658005695191406,10.350381859520407,0.01899606363090853,0.019740034342473865,-0.0105711228500063
1691524669.7421808,-3.147748417278773,0.8624051982625845,10.434820678399443,-0.003739087905986276,-0.021207271421362868,-0.0183623169834668
1691524669.7521462,-2.098043209027539,-0.37941590351107635,9.689334173139962,-0.002115024921339768,-0.052171837231851925,-0.0233257540787512
1691524669.762138,1.396591417924544,-0.39204485228529146,9.246791807818203,0.0035805796989235635,-0.04384294100330302,-0.0219203920389468
1691524669.7721417,3.447556787919464,1.842525717850732,9.200196598121169,-0.015758632146928676,-0.0004627068246619514,-0.0135424786533171
1691524669.782428,3.6661329561247173,0.509322856178821,9.796261749190268,-0.022097560958264807,0.044806450040973146,0.0008180053153132
1691524669.792205,1.5071038249699442,-1.7747672526410918,9.899414636120046,-0.00479307738306105,0.06796769490390908,0.0159816008706634
1691524669.802194,-2.1442400307745935,-0.924052036670967,10.331915641648013,0.015367555061761455,0.042696586011159686,0.0236729944770281
1691524669.812265,-2.6433514353104024,1.3626485083977886,10.3207260702171,0.00039275352367545844,0.007281373697150178,0.0278607143734638
1691524669.8222077,-2.5353008175581224,0.7005163479099584,10.301060464523447,-0.01419493475675284,-0.029343050056698097,0.020004019392008
1691524669.832281,-0.540123932742087,-0.7689118302485775,9.273846690535121,-0.0034600457009485823,-0.04368187068314805,0.0124026297305767
1691524669.8421743,1.3497830674242735,0.027481670613586407,8.57078522570978,0.0029605532196969988,-0.029238243781941734,0.003007350740308
1691524669.8522282,3.1945121158737173,0.8754667006689334,9.668658993502596,-0.011301724693147025,0.010087781729255124,-0.0039696839923913
1691524669.8623447,2.357261765998803,-1.3249714572025544,10.113846560973942,0.0044133330792110355,0.04350100358078138,-0.0038350850629563
1691524669.8722262,-0.04035038318730429,-1.6014267759978529,10.066151118952277,0.02646869891031674,0.050963828128191405,-0.0067702920461947
1691524669.8822424,-3.854488033492113,1.4988508098408926,10.405192766865923,0.00972036025691843,0.00944253341451761,-0.0122177495907003
1691524669.892393,-3.0662575353665815,0.9248772375808377,10.430023329555791,-0.013149605845346463,-0.033334250665449316,-0.0148846038903052
1691524669.90225,-1.4880315205136059,-0.8622174960140937,9.574880740055434,-0.006745221986918994,-0.05660537338206522,-0.0178669539566094
1691524669.9073944,2.7597384718807603,-0.9041057921232706,8.633364781683518,0.007022809597018887,-0.03935386020182669,-0.013332461687451
1691524669.9211805,2.7114559297512284,1.3959402725700205,9.709922872654534,-0.014156300687431705,0.003291248363070072,-0.0080288105930144
1691524669.931218,3.284490901197019,-0.14938352198494284,9.913953999501414,-0.017703424039710786,0.04740717999083297,0.0054679585334902
1691524669.9412987,-0.2142947614568159,-2.6235586107307096,9.861837526868028,0.015083703542916556,0.05296152581783434,0.0154641617734973
1691524669.951192,-2.100003115052617,-0.11420253180584404,10.164667130746839,0.020782694927648077,0.02579513897311786,0.0261226559703295
1691524669.9612262,-2.7384757294678987,1.4132796871092876,10.0358162257726,0.003708313597940906,-0.010230727566718506,0.0327386784081404
1691524669.971201,-2.1029406249842997,0.3172924076900574,9.889572100479109,-0.003306538347333581,-0.04403840663439866,0.0249927288566773
1691524669.981841,-0.10603977543514768,-0.7148728109624777,8.901939483235058,0.004702523018335851,-0.050323970844704295,0.0092111670126264
1691524669.9912822,1.873650032248331,0.681928769656037,8.84821620380924,0.006755564232073841,-0.030921662595097772,0.0011040046554348
1691524670.0012114,3.605372667166438,0.8077048602671705,9.986217751646885,-0.00877468804038025,0.015020677218505661,-0.0103918404604251
1691524670.0112245,1.8699601426294175,-1.589453538578124,10.343479122803311,0.01193408279527455,0.04472309011901956,-0.0113663512567932
1691524670.021203,-0.9393820735562229,-0.5250086441842071,10.478866751531388,0.024984036529951164,0.03906334707712497,-0.0090376341069991
1691524670.0312076,-3.524685601990852,2.1883128889741874,10.265866401607695,-0.002653140387145369,-0.0015161404305181897,-0.0125422968815023
1691524670.0411818,-2.7614635743253384,1.1189927722408435,10.096582774563824,-0.02313136615688551,-0.04016982349748927,-0.0135031703214103
1691524670.0511837,-0.7245295114056626,-1.334852269450573,9.252556714238604,-0.012217165989033751,-0.054628152823541304,-0.0187576447899396
1691524670.0611815,1.7875260912230877,-0.04066179699270341,9.256601848870414,-0.001565307640312734,-0.037408763640011486,-0.0132815770159418
1691524670.0711644,3.2482011418653207,1.7291827095182766,9.561319248696906,-0.021041893017007467,0.0017004035428909439,-0.0039938513475413
1691524670.081189,2.9831203133686626,-0.4070747383409783,10.240794218379865,-0.02595735830882134,0.03913743458346633,0.0040225503214692
1691524670.091273,0.4614354069701593,-2.366109755911814,9.674444401217228,0.007321711276785489,0.053569990412753524,0.0165841488813107
1691524670.1012137,-2.233713713635093,-0.6925442144565518,10.21941018329523,0.016714487788059874,0.024445479717014364,0.0225013627384846
1691524670.1112742,-2.6568879495307876,1.60532497275492,9.785834867253723,-0.004795508077825899,-0.00882788543404737,0.0254186692361777
1691524670.1213005,-1.8116092665946648,-0.1584462687776202,9.896578481283672,-0.007392879341642357,-0.04035932450438776,0.0235876983677094
1691524670.1333487,0.2100488037210225,-0.9797484846347796,8.852945993941823,0.0072649216726240855,-0.0414111138737904,0.0136157705162709
1691524670.146136,2.0808377686481916,0.18602686317301742,9.429929578715607,0.01476373814112708,-0.017149710635159437,0.008975606196845
1691524670.1513238,4.501082002089215,0.10094879801608121,9.502728320582298,0.008084994522557608,0.023336095169315604,-0.0010477858415747
1691524670.1612449,1.3576261706382915,-1.1330078561620773,10.340486335569567,0.02236750346260077,0.044323740608009546,-0.0033686479839439
1691524670.171971,-1.3888284300504905,-0.1604996271775541,10.060616895212949,0.026326846021360158,0.03530358278020309,-0.0121327924827987
1691524670.1812384,-3.9922129549887817,0.9688177259160433,10.030812765603953,0.010243407704333657,-0.009832655506286887,-0.0172751021857316
1691524670.191253,-2.7068432124578607,0.20681040349647342,10.07239086646341,0.006106490979609986,-0.049488518615652004,-0.0204130166496093
1691524670.2012365,0.058210363954235414,-0.6594429179394846,9.256764345350627,0.013994296899888185,-0.05637314708061766,-0.0179784146423394
1691524670.2112052,2.5102667161501073,1.8913324004983199,9.628300274183463,-0.0015743252548140818,-0.026694672303333816,-0.0132467362384254
