time,ax,ay,az,wx,wy,wz
1691524969.5927184,0.0762555010311644,0.04031363248927041,9.784777839362906,-0.0009351884840574094,0.00059535185910068,-7.419472624907008e-05
1691524969.6029031,-0.0854788865973007,-0.02538553073004945,9.850386068111833,-0.000354046229625129,-0.0013596915493843485,-0.0004452578543628
1691524969.6127434,0.12341911742789884,-0.042921766873053484,9.751618446956872,0.0005832300276676479,0.0005379542871352427,-0.00071907041659
1691524969.6227612,-0.05089334304325038,0.0158083002968733,9.852583469360635,0.0001768100504027045,-0.0008649673690166003,-0.0013586953102553
1691524969.6328716,0.1657488394461714,0.10860761823835394,9.75497206509277,-0.00017000869982973827,0.0013452373643586858,0.0017172925761492
1691524969.6428518,-0.1307099303491877,-0.08676227609218502,9.85483671620485,-0.00040699039261509655,-0.00044291692684601125,-0.0022933843831474
1691524969.652747,0.09101606634517677,0.004996536248535792,9.770141411110998,0.0008961640854533371,0.000270869265431524,0.0004272189869602
1691524969.662779,0.004550657585927034,0.028887524932280948,9.824710912061052,0.0013126541404825812,-0.0006649364057749117,0.0020700503553321
1691524969.6727335,-0.022408769812147893,0.06892373657107076,9.851915624401503,-0.0010734009233982918,-0.0008269701643821461,-0.0001245047717297
1691524969.6827743,0.045325921578176324,-0.02471330437160427,9.795476779326583,-0.00013723300223131423,-0.0004577933906581058,0.0001228549697493
1691524969.6928642,-0.02477680278234241,0.06414307566137845,9.857320460618123,-0.001356890253065662,-0.0011812554536725854,-0.0004512191337476
1691524969.703035,-0.06106742654163483,-0.09337968241036067,9.816895885753691,0.0003083001204949992,-0.002536517524499378,-0.0014469979616756
1691524969.7127633,0.16272674881151686,0.04383183063143146,9.737810083655528,-0.0003495781766441217,0.0006240241785299155,-0.0015989804926271
1691524969.7230115,0.019293538762042525,-0.02987181983626183,9.774474379316779,0.0017015660868171425,0.00038002194272203864,0.0007978654064295
1691524969.7330165,-0.03382723312906455,-0.020394217311838235,9.832912033176934,0.0006256771757795892,0.00022094779502544553,-0.002215902535891
1691524969.7427764,0.04635845346417194,-0.021648191567172924,9.790395786067114,0.0019552542640587007,0.0003427641249861653,-0.000998473475402
1691524969.7527833,0.006026392565464551,0.21608553952350054,9.88689688048272,-0.0020784893542469154,-0.0001467462316745527,-0.0001878426230455
1691524969.7627556,0.06732755479578342,-0.12084455189652071,9.737720101078942,0.0009568711384707122,0.0007264819760829444,0.0003266223536861
1691524969.7727308,-0.03668808452321131,0.0054107628506649755,9.847166987500492,0.0005355567032126743,-0.00017543671963691625,-0.0007503640192503
1691524969.7827742,0.08194899929274076,0.14892348360294824,9.826813609767404,-0.0012939503895107241,0.00036250978606012965,0.0011994696794949
1691524969.79276,0.05210220988335575,-0.23346766788969073,9.700914713132487,0.002458534590673245,0.001962168012515005,-0.0010878613504523
1691524969.8028738,-0.10553909746315841,0.08479428963081079,9.910189171750261,0.001896779354870504,-0.001515378351186699,0.0008951113448069
1691524969.8136263,-0.024916794333772856,-0.11171988597701672,9.781219796183466,0.0019794777547475877,-0.0007189378414490652,-0.0043344569678361
1691524969.8227692,0.17789324344834756,0.23400204071772873,9.807217549344763,-0.0008118909339362333,0.0015467899315284503,-0.0017528277642036
1691524969.8329415,-0.04986709179205339,0.10194462452464256,9.88114086319098,-0.002199542317007987,-0.00018920089246350858,-0.001053232914483
1691524969.8427672,-0.039919801472852234,-0.05601895193397931,9.814759503163117,-0.0006889474610463777,-0.0015221156480611099,-0.0004471203830967
1691524969.8527515,0.11542051268481406,0.09067844340475398,9.798004672618426,-0.00176406671498927,-0.00012066312654705453,0.0007710503594075
1691524969.86278,0.04087791737591565,-0.06599313221509842,9.767449279752412,-0.0019387981759209085,0.0015166227999708886,-0.0022922307073081
1691524969.8727753,-0.01801977550252787,0.03913693325990691,9.838778615680564,-0.0006535644205993836,-0.0003322542239611456,0.0011651785059889
1691524969.882781,-0.08369100975032183,-0.06740641792489986,9.836911220690505,-0.0013252178277072155,-0.0011510809838706543,-0.0028700504737848
1691524969.892757,0.11741086776585855,0.03588364094512943,9.75701909887719,-0.0004218681044206657,-1.0806567045624997e-06,-7.347679295936337e-05
1691524969.9028566,0.0471344328366548,-0.026988819304289046,9.788591862414302,0.001017599038184381,0.0001699163160571197,0.0009357099659332
1691524969.91279,-0.025857922821276007,0.08902989147525187,9.856158419912287,-0.00019609861845334354,-0.0009055807166975809,0.0016520835813657
1691524969.9229069,0.05740032407375783,-0.026124629628064153,9.786880454884482,0.0002259824379322512,-0.00010128982868046585,0.000627256715024
1691524969.9333217,-0.1300615585232224,-0.09530013988822991,9.856087825282343,0.000875293053511941,-0.002282449184308623,-0.0029963378149027
1691524969.948069,0.0749647466766092,0.06879787662789688,9.795776173139064,-3.181841149682193e-05,-0.0009815875533480678,-0.0012964932068193
1691524969.952941,0.24960715442154965,0.14744536710632228,9.720883754805591,-0.0011907347674547236,0.0011656833467951786,-0.0004154527380073
1691524969.9627762,-0.07989627047511574,0.027307409940429385,9.870651876175913,-0.000874091557177545,-0.001382788041199703,0.0009655059727897
1691524969.9727807,0.14141108240573527,-0.022565825081773374,9.756207567842926,-3.2554462438456614e-05,0.0009324746327122939,0.0010184075979573
1691524969.982817,-0.11401161735625048,0.04328538774214331,9.877013276270569,-0.001190748723535916,-0.001526592537579634,0.0004193844686319
1691524969.9928527,0.07810405327074584,-0.2504995853261517,9.689460068375276,0.002191823486471509,0.001038249210283888,-0.0033346067468578
1691524970.0029137,-0.15911488061693096,0.29439024004798203,10.018219010471269,-0.0020088036738387595,-0.003982671413500348,-0.0001491108962277
1691524970.0128114,0.17041829612120044,-0.033435372369289326,9.719201580247228,-0.001717134046381514,-0.0003643030411239619,-0.0017953042226786
1691524970.0228252,-0.027774540571619908,-0.0875048881446746,9.801649280693649,0.0009091979380934211,-0.0014375356468273924,-0.0009742548975104
1691524970.0327957,0.01317926700098912,0.08694682103491347,9.811684214349217,-0.00012158238462733737,-0.0016107878095581462,0.0005117729486023
1691524970.0427692,0.037829545031869236,-0.04936536598615929,9.774181571084613,0.0005184025503628481,-0.0007435224645012012,-0.0006043355499337
1691524970.0528135,0.056378079523430755,-0.07723486113399194,9.77110376471484,0.0023497652198409785,-0.00024098118224114432,-0.0004046573123837
1691524970.0628316,0.13270623683590352,0.17306974428928243,9.797494944423097,-0.0004822051024802331,0.001824685355452186,0.0009457614394427
1691524970.0727775,-0.014245187495295662,-0.03911244142786918,9.820492571091402,0.0010887444740766941,0.0007998656554571401,0.0017347710270491
1691524970.082872,-0.05903639717089675,0.008454596916662116,9.855702926696493,0.0002774008677122249,-0.0002745197656524553,-0.0001930483669916
1691524970.0927973,0.08625236076355662,0.10364341449791595,9.811832115381916,-0.0014478029433713836,0.000773776071645411,0.000521080761036
1691524970.1028557,-0.13383579801205284,-0.14784534288913867,9.843524701423524,0.0018863495372991891,-0.0025923758694666485,0.0002632948051263
1691524970.1128442,0.0026449014254401174,0.1413548558768379,9.86670693091431,-0.0018739510005423075,-0.002277987993961569,-0.0014723220194632
1691524970.1228013,0.09248995365771899,-0.09570097235059073,9.741567885385319,0.0009479475282619646,-0.0011499626034221632,-0.0003431836196164
1691524970.1328375,0.04761498475050811,0.08738719933820092,9.821312986067095,-0.0010976171103344236,-0.00017058071372406158,-0.0013262892427797
1691524970.1428328,0.07478512830605083,-0.039826778146857054,9.779566951062337,-0.0005153647951072069,0.001313184050197263,-0.0029907624523098
1691524970.1528635,0.032604591083609635,0.10946225598335697,9.831630896203244,-0.001159437521861899,0.0006922046208445631,6.920007924190053e-05
1691524970.1629095,-0.0019680606601666863,-0.06828004186883538,9.790974234337218,0.0016441964567415063,-0.00043729630720450375,0.0023777603817229
1691524970.1727686,-0.025089789618127092,0.01556980475931021,9.829880715696415,0.0007650270309259722,-0.00083814389260403,0.0010910555027016
1691524970.18285,0.0113781815415223,0.12703013968057378,9.842279059311338,-0.0018750773937453284,-0.0006045797950489624,0.0004562600695585
1691524970.192911,0.040983772451133264,0.01185396132791757,9.797015542536553,-0.002202158136466239,0.0003248803142201896,-0.0003830513271445
1691524970.2028968,0.08100366966982488,-0.02983235667157413,9.768180904928451,-0.0007027311594758567,0.001189892043777357,0.0005929786309657
1691524970.2128022,-0.04307662917296623,0.09740201755968976,9.884953505605733,-0.0024081680056070955,-0.00031996809952676694,0.0013607652106379
1691524970.2228394,0.00936003026350878,-0.07171370059049977,9.79262575080197,-0.0011918749757194552,-0.00021342343209272192,0.0003363008325045
1691524970.232914,0.10590454803589655,-0.1460498378208,9.711739256801959,0.0016747424998524102,0.0019092533062366262,-0.0002399945917482
1691524970.2427826,-0.08588117782409908,-0.060577939707512095,9.842967024946075,0.0018058695116429046,0.0004854449081490134,-0.0026431889093423
1691524970.2540562,0.04081830108423388,0.19696547646456714,9.860485281758374,-0.0010465835891206366,-5.472754247913334e-05,0.0004849464346711
1691524970.2628229,0.01282006294441844,-0.17962351189445055,9.751530314499242,0.0018874513946632845,0.00017663625401917823,-0.0005521668174246
1691524970.2727914,0.08087514238504445,-0.014668695267486749,9.75218705906557,0.0023892388111833103,0.001620559406754129,-0.0004404097382853
1691524970.2828927,-0.11474014970227667,0.14220730715503713,9.937972122668457,-0.0005470262951140628,-0.0011670938254473024,-0.0002467030246684
1691524970.2928045,0.15718265164621611,-0.0627819464428737,9.711405448536436,0.002043164310305081,0.0009768197101040993,0.001643899293203
1691524970.3032436,-0.12349355442729668,-0.010717683810520821,9.878768907933699,0.0010950983890447102,-0.001293388625195446,-0.0007965478400642
1691524970.3128994,0.011563937046332391,0.01373542586775795,9.813136394898512,0.001111093749900369,-0.00134180123310849,-0.0008256223338598
1691524970.3229258,0.029487888128119897,0.07976683623934903,9.820817805727916,-0.0006219012711554741,-0.0009193650132539025,-0.0011508269055689
1691524970.3328695,-0.11539928228486802,-0.04287184662495781,9.873168853727583,0.0017395721156716329,-0.004590634897156452,0.0008429655461163
1691524970.342816,0.1883986038216041,0.1010037441182909,9.738836853808179,3.6362091256882525e-05,-0.0009841804073033907,0.000812025904242
1691524970.352836,-0.08639748465163623,-0.0022260089475085744,9.854125455702125,-0.0003342998184896477,-0.0024512025730727164,-0.0002623467992002
1691524970.3628623,0.1304328275456717,0.01874310302124426,9.752484107447431,-0.0010313168507290113,0.0004537703164074288,-0.0015829682636017
1691524970.372808,-0.012703887428676107,0.05884366803841127,9.83619264100946,-0.0009310935108557043,-0.00080462642686897,0.0003877136221212
1691524970.3828578,0.1450750770633154,0.005487366480798967,9.751075456622866,-0.00010148495717954647,0.0011273148158205224,0.0022559493261446
1691524970.3929293,0.04837716349439726,-0.04970791377454538,9.765899460979101,-0.0008472821450470596,0.0031892531007447766,-0.0010882541357482
1691524970.4029777,-0.1480397575361587,-0.15608707133468633,9.856278398061136,0.0032583679502294076,-0.0007684900055792699,-8.130316221514455e-05
1691524970.4128027,0.0964660203780152,0.24217843950143234,9.846665735717007,-0.0009359422196939139,0.00050592952311476,0.00101021377829
1691524970.4229016,-0.01745607483871752,-0.042655998106115305,9.811517616986453,-0.0006878312366375683,0.0003349535594687302,-0.0004821249569709
1691524970.4333162,-0.015065676543360452,-0.013632527551353144,9.83538544536707,0.00040591507624911143,-0.0010486421410244888,0.0006674876965639
1691524970.4441388,0.007284485893952145,-0.03256300468782788,9.803247325561411,0.0013916251020066016,-0.00151577512540327,0.0007844594254215
1691524970.4529262,0.0032467001210849437,-0.0254434228760134,9.818950500321456,0.0007233084501962645,-0.0010627742934855209,-0.0015714103176201
1691524970.46283,0.11870898383503106,-0.05445007566439309,9.738820101743682,0.0009754766933594772,0.0016697259946896756,-0.0040844997676963
1691524970.4728303,0.08794260847194398,0.1831030596925884,9.831511246132246,0.00028556622376764505,0.001178727875812867,0.0015522455685363
1691524970.482849,-0.09739809923175667,-0.040335567921122806,9.875011430739006,0.0007422999438117837,-0.0010929557301808937,0.0002983004849461
1691524970.4927952,0.18653867529653692,0.21311281310154004,9.772373697533226,-0.0030735037815414865,0.002303377816901245,0.0012292354474716
1691524970.5030522,-0.15822110226563602,-0.16594310183107636,9.844450189421055,-0.00022365708202877864,-0.0010635348447116948,-3.5104090994090946e-05
1691524970.5129056,0.14472355813457033,0.043602060452201746,9.766344707153172,0.00036567770242930744,0.0006802770287100138,0.0015898737654147
1691524970.5228534,-0.10834934790445495,0.006465930021046611,9.89067584832721,-0.00047846595368525633,-0.0016539937857955945,-0.0001453796687478
1691524970.5328398,0.04576102208763253,-0.050577586098266215,9.748995915757405,-0.0009288399190032923,0.00013638819493315147,-0.0027091123449558
1691524970.5428283,-0.008719548854478296,-0.01734091550069631,9.812604640581473,0.0013495329955095974,-0.001496399653010086,0.0003064978116249
1691524970.553513,0.06937904932105521,0.054773960830869606,9.807245196210463,-0.00047437829099460224,0.00017738971308233338,-0.001252131984284
1691524970.5629184,0.06573499738549941,-0.12343800748564449,9.74124007984647,0.0027166971921956233,0.0007398739422882457,-0.0003506621398905
1691524970.5728378,0.02736568548936519,0.24823530835253171,9.881412680575973,-0.0010532914925011532,0.00032152175400797803,0.0018040661996287
1691524970.5828176,-0.041252133629645485,-0.10634755730238585,9.786650645575905,-0.00016033512738426007,0.0002548451524954397,-0.0008669625787938
1691524970.5928986,-0.09065094603506355,-0.07253051243533518,9.84428001470043,0.001093582930325738,-0.001745641545366144,-0.0020050448185707
1691524970.602923,0.08100283632345172,0.05016586641219839,9.800088188199938,0.0005262621775953647,-0.0008612650747641893,-0.0008311846579367
1691524970.6143236,-0.011647911797747618,0.10483819591285999,9.858161305155356,-5.229333893707509e-05,-0.0026799395967207064,0.0023151776001845
1691524970.6228695,0.13686870085566416,-0.17367369536686905,9.684485214684633,0.0027532113567845977,-0.00015006882570857305,0.0016137008967866
1691524970.6350768,0.0670385172952599,0.1340272012050242,9.835882373666985,-0.0007306719723777287,0.001025607598793723,0.0008935932599065
1691524970.644612,-0.10098397819866656,0.02319797770627892,9.884153040636255,-0.0016735551459897999,-0.0008646045813327981,-0.0003968204657489
1691524970.653486,0.007288889839145492,0.0011651985678342892,9.826333641967434,-0.0016694443876090527,-0.0010903472090021266,-0.000385650532035
1691524970.6628988,0.14506664383282952,0.009325690041427406,9.738428508587688,-0.00028065358312007134,0.0005253081266388659,0.0026124513422196
1691524970.6729114,-0.11408520248579478,-0.11010157089479339,9.838835013117798,0.0001146037421825705,-0.0008597546888058065,-0.0012324068049843
1691524970.6839492,0.016422800496170842,0.022827140965379453,9.810685224793268,1.5126399094104476e-05,-0.0009093062613988432,-0.0004482401820773
1691524970.6928103,0.03370939787213765,0.13504051754737476,9.847799622055184,-0.0017763669698336625,-0.0009812090016326153,0.0005452969524135
1691524970.7028365,0.029543986353814524,-0.0442823676309056,9.782594332058165,-0.0006252462156725155,-0.0005747761351823998,0.0001358831248303
1691524970.71288,0.0979101599047051,-0.022858003835985477,9.757467894891507,0.0006081940880580159,0.0008605849823241544,0.0008578545710129
1691524970.722918,-0.09427059747965176,-0.055561699188922495,9.850689776656138,0.000611547325099106,-0.0006787062406760496,-0.0015315527382249
1691524970.7328763,0.06905446201139673,0.044996934687331895,9.806190501993129,0.0015342990132176583,-0.00053154434790287,0.0008071674563047
1691524970.742868,0.017463837545620683,0.15564830521535084,9.848951595083795,-0.001149774570215684,-0.0005580104610933288,0.001802579575969
1691524970.752845,-0.04757002146035725,-0.16704334227358913,9.787420422934076,0.0007683777835153627,-0.0008269820990709679,-0.0010875104746724
1691524970.7629144,0.013563362349989106,0.040071905405835245,9.821338187131843,0.00014552206433257782,-0.0008757659044641188,-0.0011817412271107
1691524970.7728744,0.02620861131103821,-0.07487789714827008,9.77753457365681,0.0017116468283747339,-0.00044960355604242936,-0.0017535674671585
1691524970.7828796,0.1208854888630132,0.1448500189044168,9.788652544808567,-0.0004032414713355698,0.0016633863158314038,-0.000689250631904
1691524970.7928233,-0.02252120193320788,-0.04090813675492027,9.827096480208436,0.0017417878917834401,8.723507033672703e-05,0.0007721690233388
1691524970.8029523,-0.14483872923397786,-0.057336071268143336,9.890361989271197,0.0024410424538259565,-0.00311319314791512,-0.0005033708696196
1691524970.8128426,0.2346459835778013,0.13526516466564695,9.742729620230337,0.0004029354428243201,0.0010069818271240237,0.0005408236354646
1691524970.822932,0.023267887872628856,-0.14629798509083036,9.74512125484581,0.002279357908291939,0.002136864559939204,-0.0017871106794978
1691524970.8329742,-0.05711610677122651,0.22396454585146977,9.916807389446276,-0.0012779172460111318,-0.0001377922346973459,2.161384845285504e-06
1691524970.8428466,-0.06129564484225949,-0.09005735148211715,9.82087130319958,0.0003232007704286935,-0.0013786907700389886,-0.0009388651053363
1691524970.8528807,0.0990367211251822,-0.017564019878983605,9.753318803047897,0.0006238510927983265,0.0004373790074486323,-0.0012801042578125
1691524970.8655505,0.010907854182964418,0.05852286775282682,9.837437571380635,0.0005154283265077868,-0.0005948713987063481,0.0008369729801138
1691524970.8728738,0.05426495725903373,0.12537070002621897,9.832305590727353,-0.0008759676336558588,-0.0003244364775294143,0.0016133378847093
1691524970.8828452,-0.09454194957630639,-0.32974251262527265,9.759671677445665,0.003052736601196514,-0.000775586065105944,-0.0042901339295263
1691524970.892835,0.1964209691886453,0.28232531567130686,9.813113511841738,5.087476906157115e-05,0.0011675504508200786,0.0008962231402342
1691524970.902867,-0.0878227548802042,-0.05038244419680518,9.841840250929776,0.001565223604885764,-0.0010676339124734767,0.0009546975377538
1691524970.912933,0.0316212368664393,0.12769726625615296,9.860344425926693,-0.0015945632736800162,-0.0006679067738625795,-0.0003767171694839
1691524970.9228234,-0.04427383767427023,-0.05954378430713966,9.807404874473136,-0.0008860082601814799,-0.0014748080691949685,-0.0012935059896613
1691524970.9330113,0.0852059620098058,-0.001238529134397557,9.770172529276834,-0.00017634766772810787,-0.00019815659313246884,-0.0005909241556132
1691524970.9429266,0.08519347548899293,-0.11441942268245701,9.727696524455467,0.001506334002238191,0.0018206007291328439,-0.0025958758599067
1691524970.95286,0.023477864459383414,0.08846824134158611,9.837343279988108,0.001780892679491901,0.0006326094083136646,0.0012024429159005
1691524970.9628437,0.045558593226176024,-0.12557380882550997,9.748850548457904,0.0027569551953092577,0.0025116630932645106,-0.0020057286421711
1691524970.9728563,-0.1273712079112515,0.2706761944761298,9.981773200510565,-0.0006680833680048955,-0.001980327128867979,0.0019441432266553
1691524970.9828365,0.18893757198573338,-0.13825625786611848,9.68930297611106,0.00126717475831409,0.002183078291124591,-0.0003625368519628
1691524970.9928403,-0.0037684662804431134,0.05322060490068318,9.837144886608353,0.0005791306306807132,0.0014834587982115535,8.635888277193794e-05
1691524971.0028949,-0.07950066101923088,-0.053059553080486384,9.855627611672196,0.0002520380725032444,0.00041653059780722324,-0.0029788331414515
1691524971.0128624,-0.1274840763789615,0.04559597357267041,9.906771859926064,0.0007687588578640134,-0.0035646886833909917,-0.0006397212675715
1691524971.0229962,0.16565305531794672,0.074095149554988,9.74932505423937,-0.0001331378810325777,-0.000669393361204379,0.0001183790334557
1691524971.032932,0.12469105851217618,-0.071217796083149,9.738016769115116,0.0007967245779794129,0.0019759136492445654,-0.0013739757525677
1691524971.0428655,-0.09386593639739642,0.14738497245225324,9.897638321734584,-0.0011058160548564982,-0.0007070264965819858,0.0002476400875543
1691524971.052884,0.030291824582382616,0.005171398449715527,9.827496795768734,-0.00020094109165879684,-0.0010359606513046776,0.0016468634310235
1691524971.0630138,-0.061214371812278796,-0.01494556774923557,9.840799928701749,-0.00060922461357266,-0.0020999076416607096,0.0004864443506171
1691524971.072897,-0.0029214663480077886,0.004213862614633802,9.815672283600993,-0.0016791272847281975,-0.0015530571171111925,-0.0016611986613775
1691524971.082929,0.18328485898918337,0.12834396355017386,9.761163244916697,-0.0028980349833192844,0.0011846852474236185,0.000884669588931
1691524971.092868,-0.10212897724234654,-0.26233703353314397,9.780326923875455,0.002020822312208848,-0.0007647533308887308,-0.0007373224764073
1691524971.1028795,0.17229531716971005,0.1694065788706834,9.794369572956853,-3.552549658540601e-05,0.0014365068678733623,0.0019419038615246
1691524971.112942,-0.027567157985284443,-0.00449381632963617,9.82164857219487,-0.0007727824939533962,0.0012230690604574678,-2.948367567160836e-05
1691524971.1229317,0.027891882445524083,-0.05158719196935321,9.780321769518029,0.00029822685906762385,0.001660030060867194,-0.000467996444268
1691524971.1358776,-0.11346733972500817,0.05258738204821845,9.907892297900348,-0.0009240138013134387,-0.002188945679979499,-0.0003621832986305
1691524971.1430445,0.3204203550712641,-0.044749613726286885,9.622951082422697,-0.0005593164148521525,0.0027187552881257422,-0.0011810001271719
1691524971.1529627,-0.08168774724980317,-0.014734138204890945,9.861014638197963,0.0015726723072538732,-0.00035982710618298407,0.0019486105482151
1691524971.1628644,-0.09996431811610015,0.01828915535743845,9.894768027171848,0.0001779200707446613,-0.002400541805989468,-0.000595013476623
1691524971.1728544,0.13987255747287425,-0.013838191998242943,9.724582198592415,0.0003961949764072713,0.00035618546845679963,-0.0008155533398444
1691524971.1829004,0.03892713748846011,0.0015810780032677562,9.797521856409539,0.001323443027843171,0.000307384996268193,0.0010835912287525
1691524971.192888,-0.08747634564029615,-0.01894799103971072,9.849299168767676,0.0003627078214343961,-0.0008515409294845252,-0.0021275875444466
1691524971.203091,0.18126614886187012,0.1676814409592321,9.770137479304582,-0.001184048465518689,0.001488296996845517,0.0016725477360246
1691524971.2129576,-0.14324342579593352,-0.09518309161714568,9.85919873995088,-6.79391285277248e-05,-0.0012844409447783003,-8.287239534647377e-06
1691524971.22301,-0.05219223539416377,0.01975625186739561,9.846807831403705,-0.0004754919107429945,-0.002677692157775009,-0.0004244011181349
1691524971.233065,0.33475216639773375,0.11216843833567483,9.673956604434979,-0.0022572727538711476,0.0037011205443635907,0.0003508553088699
1691524971.2430434,-0.22999127195381167,-0.007089630362632275,9.958357765054574,-0.0026823476184989667,-0.0012438365137418422,-0.001478283648094
1691524971.253016,-0.0035002256405490223,-0.1475732044620496,9.776882364189543,-0.0005958021298753497,-0.0010363468591961995,-0.003940326376533
1691524971.262878,0.24073125504643664,0.21580471747193242,9.76000347400715,-0.0016460003875034602,0.0016328288855229206,0.0018223119730187
1691524971.2728944,-0.13607465837827845,-0.07374563376665468,9.861933190816448,-0.0012596660701308356,-0.0007040353803118055,-8.763091703304759e-05
1691524971.2829614,0.11182613891164281,-0.11339334641293454,9.706479729098165,0.0004007123893050843,0.002010937312115587,-0.0018873186602199
1691524971.2929237,0.004161604514115689,0.15716977614570726,9.86379517508235,-0.0004062050643845346,0.00041615678773135236,0.0022246486221497
1691524971.303034,-0.030100381668332163,-0.1237366091149074,9.7830731126834,0.002006291308880355,-0.0003098935613591513,0.0013901972595426
1691524971.3130014,0.00942749025373777,-0.010103338993370166,9.797937348896086,0.001808868681148708,0.00010508940058893982,-0.0001874534466246
1691524971.33461,0.04708196620099568,0.043457181590651595,9.804738187517799,0.0008309649456147638,0.0008125283972937591,0.000918205816351
1691524971.3371484,-0.2290705423734897,0.2415435561111581,10.019208058626687,-0.0015886262430703404,0.00024440542728677644,-0.0012856880023086
1691524971.3432126,-0.009445169449558435,-0.02508145797462353,9.813687321168608,-0.00044085503526954556,-0.000505854864979003,-0.0001342005382234
1691524971.354588,-0.045044596714419245,0.06271470408303359,9.87464744287203,-0.0008286388662224443,-0.0027682231788628844,0.001462099131249
1691524971.3630226,0.29321865659596863,-0.11507846982069724,9.620127778052197,0.0010463093997380576,0.0024017219775752997,0.0005881469294486
1691524971.3728795,-0.14704876797218747,-0.020962414049517382,9.89572234386941,0.001641961907674027,-0.0011115771749946545,0.0004901641693954
1691524971.383041,0.039334469077621545,0.0585951385247588,9.815840434029063,-5.454624746277074e-05,-0.00029613291817050816,-0.0008162939741218
1691524971.3929017,-0.05154306693924764,-0.0861591443876545,9.811798740977302,0.0010220864064243698,-0.0012427116577410195,-0.0021685722569877
1691524971.4030845,0.053483000671419874,0.14026588651960453,9.851396868461014,-0.0008957079305762751,-0.0011689510512195378,-0.0005469575810188
1691524971.4129465,0.03908665727968181,-0.04849051026024174,9.79019138608772,0.0003433354645936667,-0.0010586924418184427,-0.0005320536258573
1691524971.422996,0.14219929633521658,0.13156061747088046,9.784810795088275,-0.0018642740053144652,0.0012204491476520245,0.0003895990264659
1691524971.4329352,0.06174867415092758,-0.11016386872677827,9.726757495763986,0.00110292962112275,0.001875346990550788,0.0016952619951275
1691524971.443085,-0.07059344637255835,-0.053608055409509074,9.837186042394245,0.0012448443065098274,0.0007406216139122537,-0.0004583039374033
1691524971.4529035,-0.10888968540042374,0.13073354183796979,9.92652209280307,-0.0004490375564324498,-0.0024769039463470974,0.0011659360932476
1691524971.4630358,0.1456757079918911,0.001067937617318765,9.742559546221345,0.00010714039283146275,0.0001792289884646839,0.0012102491089258
1691524971.472931,-0.038184542983292616,0.013374312372022806,9.852909255204299,-0.0008845281410405462,-0.0005371385855102382,-0.0006005866273249
1691524971.4828973,-0.03015944297986992,0.049176120203590565,9.834648044508885,-0.0017610976331621127,-0.0012050940186088474,-0.0006132658856863
1691524971.492892,0.026536830191167943,0.05233952549534103,9.820884203906777,-0.002667816840328108,-0.0009119120036434487,-0.0005711784872169
1691524971.502974,0.130277242070237,-0.06183074892817763,9.724797108060752,-0.00021212294745752707,0.0010878255137462417,0.0008932382222787
1691524971.5130408,-0.0437106227752411,-0.06592890031429356,9.818654029072828,0.0004681005405915757,0.00035209924863785643,-0.0008334212290997
1691524971.5229557,0.05817884965809952,-0.10794108506826043,9.750752110688241,0.0029674320261053543,0.0012740803051144228,-0.0007682358666265
1691524971.5328803,0.031085034729058658,0.21059745978082836,9.868502346732587,-0.00029108769632487215,0.0009574343229935311,0.0009263995050509
1691524971.542921,-0.03368512379137191,0.05098313423991792,9.851707261426995,-0.001416127424440651,2.2014203281530094e-05,0.0003586578711924
1691524971.5528908,0.04601451647735297,-0.07225972024538176,9.77213084681696,0.0003153707761322993,0.0005577199666703364,0.0004804742236678
1691524971.562895,-0.03746988912222326,-0.04897475299448471,9.819210081772393,0.001643823886734549,-0.00033411240259868845,7.367426930567512e-05
1691524971.57302,0.021658285164210887,-0.050037205011417306,9.783251633447323,0.0020826482269701995,0.0004388930180526235,-0.0017308625212813
1691524971.582955,0.0011187842146587008,0.13829470174506983,9.867150035789274,0.00021294666428574768,-0.0006083065295074468,2.264326373687276e-05
1691524971.5929277,0.11051075463783243,0.0555188543201561,9.782237402887505,-0.0011278224189478158,0.0015184622185769865,-0.0005663231533894
1691524971.603124,-0.07418467458828143,0.015322800229508942,9.86129988003684,-0.0009653699966265354,-0.00047605265387024595,-0.0002768722881505
1691524971.6129646,0.20240751453761058,0.0806071079172417,9.726837139784305,-0.0007388772646561798,0.002338398946880265,0.0029265168302749
1691524971.62296,-0.12642654781878218,-0.12635745697120085,9.846757435849511,-0.0007299055477100266,0.000996531477217297,-0.0024986543978507
1691524971.6329272,0.0033711080911165386,0.09185779270513227,9.856249199067554,-0.0006867136572551835,-0.0006273013781010605,0.0009543364756332
1691524971.6429403,0.03456480438044812,-0.08854132138553626,9.77239215320427,0.0005206382259444295,0.0003397805515261787,-0.0013475271227712
1691524971.6529765,0.05038888932715154,0.12520766162151745,9.836650678334031,-0.0017134059125168705,0.0008892614615725896,-0.0007712214539701
1691524971.6629322,-0.051893218969087655,-0.12019960541776803,9.807382674331059,0.0009334234419404677,-0.0005378975623389755,-0.0006635517167801
1691524971.6729944,0.04267025915638934,-0.007300508013963309,9.793193770422986,0.0008559185712137216,0.0003733050957880988,-0.0015393921459967
1691524971.6829586,-0.09882003531744418,0.03935300508067655,9.892030501191387,0.00033476907303716486,-0.0024299575625418603,-0.001332622934779
1691524971.6931124,0.16473138418156744,0.10587776558274181,9.765267064308789,-0.0004482933361592939,-1.1512587399914256e-05,0.0007885536940825
1691524971.7030594,-0.013562983795404899,-0.10262752611103207,9.792962320368675,0.000904744200321245,-6.36684162767719e-05,-0.0011325648340339
1691524971.7130322,0.10908119026045926,0.052674968397482626,9.774495787945513,-2.583241713291327e-05,0.001922662399819931,-0.0009582317254448
1691524971.722937,0.007591030099987132,-0.021621682825165866,9.807708105176486,0.000517650017589132,0.0017662123596730217,-0.0012022249686474
1691524971.732994,0.1421054015638786,0.17289025683060397,9.812948730982374,-0.0013706482034347082,0.0032011731065622875,0.0020354070764092
1691524971.74291,-0.23395046013433665,-0.07992112961581971,9.906153064926302,-0.001324858690093239,-0.0007438983713911168,-0.0011169246683771
1691524971.7529397,0.060521754217180375,-0.08822784276747023,9.750281536012142,0.00042789482430849435,0.0003289834828156967,-0.0016384627490247
1691524971.7629285,-0.18015735617187903,0.07517069549412352,9.938320892312898,-0.0005242761353291656,-0.00403556985604061,-0.0008576549409831
1691524971.7729046,0.3548181781037148,0.08029842437804303,9.648113415234706,-0.001954828397571068,0.002944859942320485,-0.0008051486040408
1691524971.7829063,-0.06631233220572964,0.012256248290124543,9.86795085617101,-0.0008018294449034883,0.0003416485349531718,0.0015842780883481
1691524971.792959,-0.057113462842670236,0.07803343811163092,9.86656848805853,-0.0025206751367841274,-0.0010702504789211835,0.0013756752776039
1691524971.803002,-0.012651356838392002,-0.08015618604993738,9.806492439620735,-0.001266745195923048,-0.001385020066368899,-0.0002034858155007
1691524971.8129642,0.10922078637721636,0.03183587304586004,9.775209812602338,-0.0019637391496573394,0.0008293001544611554,-0.0011426280072833
1691524971.8229446,-0.02063666197479697,-0.16423425613176396,9.779136993020366,0.0013703948081510912,0.00010023453304622869,-0.0018195342092717
1691524971.8329904,0.10036736330066633,0.200768227221581,9.824502217526357,-0.0012499619414911717,0.001167922554761262,0.0012020520114397
1691524971.8437123,-0.06749620753424453,-0.08037946597338376,9.819024563959049,0.0009803507163711565,-0.0006790713882102359,0.0013644775861116
1691524971.8529785,0.021940982654597704,0.010577751521014936,9.802249124300708,0.0002580161148497434,2.201096236049797e-05,0.0003251136111152
1691524971.8630688,0.030622009770213014,-0.08043850148495375,9.772099550911078,0.0018990213907334505,0.000724606697022231,-0.0004906875367219
1691524971.8729427,0.02762690626853204,0.2628777786455076,9.893222820887978,-0.0024882836313869514,0.00029357687190498645,0.0010090932953694
1691524971.8829827,-0.026995061701419475,-0.18012789183046704,9.78027454396433,0.0007926008872312328,-0.0001635023029066511,-0.0009943626175577
1691524971.8930054,0.02874088345538466,0.1488274384148894,9.83783102829061,-0.001606862143578538,-0.0001858542418760379,0.0002122601906826
1691524971.9031212,0.031186898761430028,-0.1052828452057583,9.774241725348466,0.0010492741555649524,-1.3748793508026942e-05,0.0005806865699646
1691524971.9129665,0.0241384537175621,-0.0150453169344676,9.795089117271724,0.0003165160462934056,0.0009615174565078353,-0.0018612476817274
1691524971.923033,-0.025517760782533497,0.060685053154923174,9.856393048233901,0.0006357661589841206,-0.0009506603426473567,0.0007051079480966
1691524971.933112,0.08657913269477388,0.05095209706545592,9.785972135549734,-0.0009363131931471928,0.0009630179851403579,-0.0004042900220433
1691524971.9429464,0.01256342293249513,0.04540917098782702,9.816723629561102,-0.0013699249363017878,0.0006866098404221888,0.0001504197896515
1691524971.952952,-0.09896773937152113,-0.08018115110953221,9.843317556657553,-0.00015956899005565122,-0.0010862675602026678,-0.00112400481542
1691524971.9629586,0.030897379823358048,-0.05782411050117059,9.776754249366778,0.000986293723972528,-0.0005933729317686299,-0.0018165344192589
1691524971.973532,0.04210452428054832,0.01397414942575343,9.799954357339935,0.0012575281173124783,-0.0002730226248951843,-0.0014585251740122
1691524971.983089,0.02627607378531088,0.019702958992412072,9.801229645761813,0.0007970502391771508,0.00024703296527984916,-0.0020549609146023
1691524971.9929204,0.008097515315939765,0.14099153525791885,9.856762300781437,-0.00019274303286389053,-0.0010486318552547368,0.000830655848194
1691524972.0031872,0.15857151962627314,0.059706768734171516,9.770924839005236,-0.0008539656526035104,0.0014543902804531811,0.0017515242978056
1691524972.0129476,-0.07526075166953655,-0.10593656039836079,9.82076675636904,-5.4183004261938526e-05,0.0004832185351615343,-0.0009578445280844
1691524972.0229616,0.03490351110546918,-0.025205458400850568,9.78239945150262,0.0012388914516936146,0.0005051888391875899,0.0006063942162377
1691524972.0329764,-0.01980418242529725,-0.046559729837077415,9.814552118990006,0.002369137365007882,-0.00048051135984596095,0.0009219122182635
1691524972.042945,-0.018956319573951573,0.20530625162223898,9.901662419474427,-0.001550607478406652,-0.0014096026133186411,0.0015585782419016
1691524972.0530546,0.0835944019317089,-0.08033973128820761,9.744800181714622,0.0003735029634158948,1.1540669259898635e-06,0.0013670840524077
1691524972.063115,-0.12314443826203221,0.010327363107870734,9.884738305238862,-0.0007835780250198961,-0.0020604142646009037,-0.0008911739389354
1691524972.0729642,0.2101482661827792,0.019132414130397096,9.71250988327208,-0.00035255079075539533,0.0015918501664033246,0.0003635056380239
1691524972.0829463,-0.04823801287079141,-0.023692362673191195,9.836699811185365,-0.0008152445200851999,0.0009253882177794206,-0.0016027190542722
1691524972.0929186,0.010680721824856257,-0.032820220028077836,9.797290053152134,0.0003917321539193256,0.0006787797639784352,-0.0010033191467578
1691524972.1029418,-0.040206039415577516,-0.013739825106400578,9.82811465702282,0.0008089942439066443,-0.00028904256340354917,-0.0015568849450851
1691524972.11296,0.05940072715029057,0.06573415215439653,9.811889743918284,0.00023117172962842692,0.0003077513672291258,-0.0010614322784299
1691524972.1229806,-0.0722089019517381,0.04186377814922748,9.864171097670045,0.00027143128338523974,-0.0021460993701235727,0.0005005923046787
1691524972.132968,0.16608872176105377,-0.08906424811461619,9.68737478747027,0.0011584070698430144,0.001978187501744842,-0.0017103520042205
1691524972.1429486,0.05451080372397893,0.18932188283714946,9.855177486574776,-0.0010611232696294004,0.001761726878857925,0.0013767721864219
1691524972.1529694,-0.11192565121370192,-0.17437720044983332,9.831361533019846,0.002339332240096651,-0.0009159959539754695,0.0007956325896607
1691524972.1629498,0.08391516131057149,0.21487210013557975,9.839160628221505,-0.0016154260723352614,0.0002567095243656663,0.0015641673123986
1691524972.1729484,-0.027799254510688542,0.011683377921943263,9.84446655740533,-0.002497570142868184,-0.00025365921718833236,0.0001939964893331
1691524972.1830275,0.15764801593748012,-0.07704795858859981,9.703589786309314,-0.00015215947918662334,0.0024140266908153586,0.0010568018658609
1691524972.1930358,-0.17633294172874853,0.07332188089044916,9.94043918091115,-0.0028488888960774084,-0.0007752401396095265,-0.0014477481420094
1691524972.2030706,0.043630490957804816,-0.041868545893985795,9.786354429102387,-0.0005887382346295893,-0.001130587022531251,0.0008466731994935
1691524972.2129834,0.08501635175513401,-0.08277851259372176,9.752339623521975,0.0009133016467940255,0.0003353163674099088,-0.0001498430321867
1691524972.223005,0.04980893043866445,0.07924804089587617,9.818468551954453,-0.0010570130251402231,0.001197708858180642,-0.0009910303453857
1691524972.2330043,-0.07828744806532494,-0.05886561823824284,9.838412598199643,0.0005728149240066363,-0.0007755742521798948,-0.0010562001082057
1691524972.2430444,0.03882592360450855,-0.009480042512860777,9.801751227004118,0.0018021525370030456,-0.0009812009026935764,0.0005248101840784
1691524972.253017,0.13837689356639257,0.12325544810790562,9.802115242865138,-0.0002411693832464173,0.0012845230927348089,0.0005643036745545
1691524972.2630036,-0.15599745794341127,0.02640533159948993,9.915938029418973,-0.001408289963550071,-0.001964302093853189,-0.0005052384042123
1691524972.273002,0.030718500184571663,-0.04980588654892432,9.77746594358396,-0.0011750961937984378,-0.0010311430599124966,-0.0022751269682253
1691524972.2829866,-0.0041140894842172,-0.15857022095037723,9.767953128137185,0.0018289796475654144,-0.0011182983829933122,-0.0033521025727445
1691524972.2929714,0.11527413891804804,0.16156129526900856,9.812668073945789,0.00037276906207256324,-0.00029872377139147335,-0.0001636165945733
1691524972.3030262,0.06887397835337557,-0.011737375634316387,9.781675720980965,0.0008630074764397151,0.0006702135453552908,4.379445972054093e-06
1691524972.312963,0.01870492525513657,0.01670922746055844,9.820536226764911,-0.00019459860217154953,0.0011545191996316004,-0.0016164798109734
1691524972.3252487,0.05336933517000615,0.05692229245801456,9.79665554522784,-0.00035180499006983004,0.0016410246988142467,0.0001254523119946
1691524972.3330665,0.04330487284412763,0.0814415194206997,9.813278954101756,-0.0010112202172008328,0.0018157406938096457,0.0010560428961703
1691524972.3430326,-0.2609284351811134,-0.0827364137273238,9.93500066895831,0.00015744311948651712,-0.0034678347368723543,-0.0006862802949676
1691524972.3535376,0.10715893594617025,0.018624583111108893,9.764437216413508,-0.000586885377516249,-0.0010832683802432614,-0.0016701349343115
1691524972.3629763,0.08922723137704575,-0.05765854016998262,9.742750723980775,0.0021925576542941613,-0.00038551774071224457,0.0008735013141354
1691524972.3730342,-0.014517421574786353,0.17146332525590655,9.884824876198403,-0.0016858427595140533,-0.0010490173685462332,0.0004786062816215
1691524972.383118,0.024485510993692196,-0.144663036815849,9.756531058594664,0.001135683602949318,-0.0006060565667389165,-0.0003171199752891
1691524972.39299,0.08385743454631966,0.10252175478483934,9.807379270931015,-0.0019391667966818956,0.0014476676755679778,-0.0023615613865608
1691524972.4030712,-0.043727126201662525,-0.07160852715616499,9.815335033507955,0.0009926432915472211,-0.0005218701585919305,-0.0003919877164939
1691524972.4131205,0.07673685008467594,0.013105040197029598,9.765041674702452,0.0006898001778270058,0.0010811053879060178,-0.0006922608992958
1691524972.423053,-0.12343133590871282,-0.036997430128513524,9.864546785407835,0.0016792094044401327,-0.0017065073629092718,-0.0005305780616531
1691524972.432967,0.0844525909100374,0.030456140052181477,9.790837907544736,0.0016274363494421574,-0.0006906306438904454,0.0002279025682305
1691524972.4446554,0.041603601446517244,0.05482161843538102,9.81161236243893,0.0005414972464683103,-0.00030169738588279585,0.0004454645857272
1691524972.4579797,-0.038573245224338616,0.07336050564640499,9.867177018963853,-0.0020889318789029426,-0.0012170303112090978,-0.0010617831542099
1691524972.4631643,0.12693974748801465,-0.17813520447022466,9.673407661623127,0.0018803759458548043,-0.0011551751863115496,0.0024552609718461
1691524972.4761667,-0.021943074564802913,-0.005189564706523381,9.829863413358435,0.0004599407970308731,-0.0008910491213132327,-0.0011873303267116
1691524972.4829705,0.1386990448103282,0.19079648742633556,9.81777877862155,-0.0007526619092739316,-2.7529582215615722e-05,0.0009167081041318
1691524972.4930062,-0.04749023872096783,0.027041514662742655,9.838747377355165,-0.0022338243757201114,-0.0005997439232249751,-0.00109719320265
1691524972.5048044,0.0714961527012709,-0.027141044231038816,9.768147210486738,-0.00011823960154058387,6.560319458960223e-05,0.0012877614606345
1691524972.512982,-0.05027473790836202,-0.1242446052876275,9.805111494222414,0.0016073155117745648,-0.0008363038670378076,0.0003511889551823
1691524972.5257988,0.026622630379189483,-0.02169171071619392,9.789349679564653,0.0006767472347592336,0.0007708147484379686,-0.0032149988512451
1691524972.5331209,-0.10672340093057414,0.10374081742529812,9.903686392324829,0.00031650506471688297,-0.00183169658730804,-0.001129599735787
1691524972.54303,0.11225179469164201,0.057575972793102066,9.776815223494163,0.0001611487266952176,-0.00048126076360257804,0.0003761795994882
1691524972.5530212,0.21640329601639607,0.15123420483187344,9.757633223328934,-0.0010298169079743194,0.002333192081653678,0.0039163087674473
1691524972.5630264,-0.10510402959097023,-0.14029119668641005,9.820327108008527,0.0008782564736282176,0.0004996241611495736,0.0018222936958131
1691524972.573027,-0.06793211737793951,0.028788219415959607,9.860061883043674,-0.0003603889615639699,-0.0006071967502428078,-0.0001871038514132
1691524972.5830512,0.07561568038486413,0.0038318734055264375,9.785273907861848,-7.651296152908727e-05,0.00047761913175776776,1.5931571187584488e-05
1691524972.592984,0.02283487899877293,-0.08376255464053813,9.769152187584968,0.0010015855095203703,0.0013616166166105792,-0.0018556637044007
1691524972.6030135,-0.07664292908368638,0.025222655103326164,9.862101631105439,0.0010787105944690682,-0.0007632743294811639,-0.0011672102666402
1691524972.6130238,0.06668342490084886,0.01491366509853977,9.76135095038443,0.0017194526646541685,5.641258229237802e-06,0.0001616144034137
1691524972.623036,-0.04430510515705669,-0.025379773912792763,9.840891000250537,0.0021594118574669165,-0.0009897625926326202,-0.00066279746191
1691524972.6330514,0.14172589455668058,0.08514304169751555,9.774104924265151,0.0007199656951345694,0.0014838135401696443,-0.0003789627046267
1691524972.6430044,-7.656456582210343e-05,0.005260354734271231,9.8071163625726,0.0012690614192626146,0.0009417892169373451,0.0006484747462031
1691524972.6531043,-0.10702604181470987,0.01664020485671017,9.878905851109918,1.624472938673688e-05,-0.0009700264530282672,-0.0016358620307351
1691524972.663006,0.07772732329866879,0.06561335500794688,9.8061317593142,-0.000629719329624542,-0.0004428884140467451,-0.0001636177587265
1691524972.6730125,0.04597915262534559,0.10095320031823257,9.826874995238118,-0.0027940853217378603,0.00031631197278562213,-0.0004989283445234
1691524972.6829786,0.04888951488121748,-0.07324214993859653,9.768454167209045,-0.0012816514012062084,0.0011958335097398333,-0.0009757766785974
1691524972.6930254,0.04550439975339639,0.06667344330153895,9.822070316162163,-0.0011207099324206451,0.0008255631313777687,0.0014151438988569
1691524972.7131088,-0.01380003449448539,-0.04993824879996494,9.81765138217879,0.0015235026760345484,-0.0007144755715657642,0.0016651216026452
1691524972.7230575,0.10534179218317416,-0.013726024635501462,9.762717554743476,0.0011144557122007156,0.001595957000839322,-3.807617416033259e-05
1691524972.7330136,0.10043168302826062,0.11929188282063734,9.816745368174557,-0.0013174126158101767,0.0033013891447921523,-0.00086062725698
1691524972.743023,-0.15122811347991125,-0.050215561898961904,9.884524644430442,0.0010623107305049164,-0.0010370826278610394,0.0011618360693041
1691524972.7530284,0.023338417080906792,0.034457513253160765,9.804389549078625,-0.0007236085158555847,-5.556345955559831e-06,-0.0008118343359733
1691524972.763008,0.030146282993787313,0.059837727302641974,9.818169034229076,-0.0015398111405281504,0.0001549992881506195,-0.0002631024510542
1691524972.7730188,0.09276652950051911,-0.05234187537112963,9.745709863035362,0.0008644989662122,0.0011615853932787229,0.0017105878685192
1691524972.7831569,-0.1266187343921951,0.06402845544326027,9.90548711976038,-0.00021360156652327667,-0.0018190124892224413,0.0018662837280949
1691524972.7930567,0.03157871656451952,-0.12279501547198188,9.758279295247927,-0.00016409388716405937,7.9390372305794e-05,-0.0031624894875044
1691524972.8031275,-0.04392507631730899,0.03775903231426415,9.852981421065943,0.00035004146504626467,-0.0020723406255057373,-0.0010532194103057
1691524972.813055,0.1359286162798252,0.1823139609217624,9.82487727686966,-0.002255438271492553,-0.0005580243381115414,0.0003925567323399
1691524972.823127,0.06132507270907212,0.06755240728381584,9.802844436499537,-0.0026700597728040692,-0.00018175738119290068,0.0021803275046927
1691524972.833178,-0.046152448618389574,-0.33518045097938687,9.733994133018358,0.0014925805912984578,0.00019300808988650237,-0.0032891456323618
1691524972.8430142,0.09695800856758857,0.2272332640293105,9.837599172939978,1.773238461832962e-05,-0.00015232301667426144,0.0024984748049696
1691524972.8530164,0.04677019312950014,-0.16602281377828662,9.732920792984926,0.0014750576013973944,0.0018310198174416425,-0.0014440226188803
1691524972.8629985,-0.05207111731347488,0.17064007726095098,9.906530505980017,-0.001394150347893895,-1.7472185749653633e-05,-0.0005570162140707
1691524972.8730907,0.12376590865428184,0.12376554898481615,9.784908436663544,-0.0029085056613340063,0.0017304074192445555,0.001282568307733
1691524972.88301,0.03005120038306492,-0.0104439900957402,9.802788789526009,-0.0028373183766535535,0.0020761457471511246,0.0006809123040234
1691524972.893076,-0.11482501720740282,0.010878701083414403,9.87847126103436,-0.0034475505561458873,-0.0003583479833693295,-0.0007030222152302
1691524972.9033928,0.15417378254786507,-0.14036700251505416,9.680255559091114,0.0009620967668999981,0.0020072305081380282,0.0013957746157479
1691524972.913047,-0.10110054839768555,0.004362680629755037,9.872937435091647,0.0006864225422992612,-7.409131013013199e-05,0.000256958202744
1691524972.9231348,0.020636665218021308,-0.04784461289550823,9.791616676606944,0.00044911382264280366,0.0008199951940821428,-0.0025373673818016
1691524972.933024,0.027142212717590153,0.09201069960703627,9.835397120468338,-0.00041998050779622594,0.0005327604329950869,-0.0009269304393733
1691524972.9430232,-0.0064658102655005744,-0.04249329798919998,9.800770802778322,-3.0315053983828462e-05,0.0005871164792604494,-0.0022702903772647
1691524972.953055,-0.010799909309530047,0.08198308058036997,9.851671748339596,-0.00028476162611651694,-0.0009961059136794517,0.0001872878235822
1691524972.9630544,-0.03388429567224245,0.08195931831411814,9.864773417727237,-0.000563779268960223,-0.0028364001779398003,0.0020655885635001
1691524972.974421,-0.0005461045324698869,-0.14627143468950032,9.755987273730739,0.001382310794942259,-0.002073441910990883,-0.0010707385192568
1691524972.9850187,0.09406644706837093,0.04099181301768393,9.782751923010375,0.0009807284920923807,-0.0005066033684890671,-0.0006803220423812
1691524972.9930503,0.0390308525042865,0.23225115058060936,9.86751119914033,-0.0013770104536233597,-0.0011063780451788805,0.0019832626747024
1691524973.003258,0.03692375607409013,-0.08937128705231892,9.759972316073357,-0.000962024878736794,0.00027385970079086506,-0.0010450216761733
1691524973.0131204,0.015043385097816876,0.05554487015499566,9.823366098831102,-0.002011443412321506,0.00019299879164417068,-0.0011415148439759
1691524973.0231247,0.10489685480306593,0.06713591078136276,9.78829907254891,-0.0009702334967838292,0.0007711740594921109,0.0023285872482751
1691524973.0340388,0.021289199334029767,-0.06758041058266298,9.784888851437017,0.0009542748123782572,0.0007383847373583018,0.0024686702706908
1691524973.0441544,-0.14384890812972273,-0.09651859137378829,9.851799563334598,0.0008749269289193156,-0.0010985362705639994,-0.0014808841335529
1691524973.0531075,-0.06802170752824827,0.12801152916390948,9.897402718858238,-0.0006736789785824247,-0.00312957476246178,-0.000357344612194
1691524973.0630698,0.1888768483983445,0.024562353073741116,9.71595943430849,5.760031638227381e-05,-1.7471360197275916e-05,0.0015883758203649
1691524973.0730977,-0.04051054622981065,0.02858368646382043,9.854782822974878,-0.0024781978969380257,3.9159594717975965e-05,-0.0021387764538581
1691524973.0830524,0.07982435660721665,-0.005203969129259113,9.785889907876038,-0.001152387011720472,0.0007614787409602686,-0.0007958202443028
1691524973.0931003,0.07434993801129178,-0.08812859350617691,9.736586656523826,0.0002967129713713156,0.002238962986636095,-0.0017859772599245
1691524973.1030943,-0.15839705707929788,-0.027615758199243005,9.888107973765797,0.0019194999266232808,-0.0017884855204568831,-0.0004739435209835
1691524973.1131246,0.06143975080652607,0.14829679172230356,9.840382510097285,-0.0005853860264383314,-0.0011086121664493883,9.97133954068908e-06
1691524973.123125,0.11231214778162174,-0.01953283531737799,9.760256067828047,0.0005362963332131062,0.0005539901403435265,0.0009927048702315
1691524973.13333,-0.005006623735197722,0.033566417881712156,9.816103008195745,0.00038653623628014566,-8.489533135562856e-05,0.0019713420367856
1691524973.1431131,-0.02548661543598965,-0.0053583163959645295,9.823829144340703,-0.00102125606334045,4.7718473599081216e-05,-0.0011292185920233
1691524973.1530771,0.04740778658940622,0.07660921114061794,9.821418526904749,-0.0019581653332423135,0.0003152021918202678,0.0003363175963108
1691524973.1630063,-0.0629321526235944,-0.19512315426430357,9.777538434693327,0.0014940569073574191,-0.0007483901105034749,-0.0012149128417427
1691524973.17302,0.09752533534733719,0.1705840998552253,9.826053678581147,0.00014365213000872855,-0.0002346573024819002,0.0027029870723431
1691524973.1831682,0.06612659150455649,-0.07683594526978971,9.754060813282557,-0.0008435467405240686,0.0025172377491667415,-0.0023518332566077
1691524973.1930978,-0.10686551031281223,-0.10508424520822188,9.840089443221036,0.001927678635853902,-0.00032220387534088145,-0.0017338436848426
1691524973.2032433,0.01481377260105072,0.16567511764135173,9.879306054688596,0.0006800968336490718,-0.001941957528714421,0.0015418182481603
1691524973.213133,-0.01682057256531388,-0.027187012541856057,9.807089556348803,0.0008943036049065258,-0.002168079403862515,0.0007367857795265
1691524973.2231314,0.1376122526045936,0.1031477829765555,9.781620958755987,-0.001429544178815956,0.0003967820969957549,0.0001601062429194
1691524973.233111,-0.01180790899387664,-0.0838111952140292,9.80707685406086,0.00038429154709449746,-0.0003598216449242398,-0.0001830076618994
1691524973.2431147,-0.011264781332935955,-0.05078838819983157,9.812732597529127,0.0010958424758793412,-0.0008396426187236471,-0.0012472974887991
1691524973.2530932,0.18243432801142928,0.0763254257917415,9.738493178783395,-0.00014061048817802627,0.002586116041138449,-0.0007030846138427
1691524973.2632267,-0.13753474500711585,-0.045681902742823834,9.88097909092198,0.00184648461461106,-0.0012289388763304,0.0008384958089386
1691524973.2732112,0.15308084640769196,0.00047795420749613854,9.73851935710694,0.0023143801560054165,0.001311340788393177,0.0014725203980283
1691524973.283229,-0.16478149921830235,0.06751514089801806,9.950604401055605,0.0001373176928317163,-0.002235124414356341,-0.0004508466047177
1691524973.2931037,0.033932467941119704,-0.010203214322596499,9.78885344659846,-0.00012754127971467403,-0.001390598081228834,-0.0016474043770636
1691524973.3032825,0.1525796661316869,0.10658218093357857,9.763657064929108,1.625259882590199e-05,0.00023212484272574764,0.0026508269545679
1691524973.3131032,-0.04519705718233317,0.04922470145950616,9.85862057548915,-0.0013304540158830132,-0.0008433731832644663,0.0016509668382873
1691524973.3232474,-0.048822132731979266,-0.06544676098923524,9.82838000661254,2.2561511917801637e-07,-0.002279845141945937,0.0007509254098927
1691524973.3331244,0.12603448175483023,-0.014252547572156774,9.748929360602633,0.0004126207155394484,4.1317254148356326e-06,0.0006559271312375
1691524973.3432567,0.054598408715426226,-0.01973015726793298,9.78601355726285,9.856828648290601e-05,0.0013564097569956747,-0.0011925629625971
1691524973.3531225,0.10834618757051467,0.14038228520206847,9.808851420398657,-0.0006595320081643956,0.0020120676854045788,0.0025040611106028
1691524973.3686469,-0.13315199492502428,-0.11772614025301482,9.848242629761158,0.0009092082571786347,-0.0009830450208004097,-0.0028957475262636
1691524973.37314,0.5258051897994346,0.31176674164145757,9.63942349208234,-0.0013028652204971195,0.0033814875814250542,-0.0014976491040492
1691524973.3830926,-0.06715469794075696,-0.04980107251021422,9.842609332948259,0.0010753493499448014,0.0006787883301067493,0.0006000694882181
1691524973.3931203,-0.04406854356790878,0.10972186427771709,9.881441057751458,-0.001074533855011359,-0.0007476317285793026,0.0009055393927787
1691524973.4032748,0.030180619188451815,-0.003841829041392462,9.800018733773479,-0.0007526557103773687,-0.0004551880190205136,0.0006876080476736
1691524973.413133,-0.128199272407835,-0.050952037883523,9.868270166124026,-0.0015517302908464147,-0.002050757265502182,-0.003283559093898
1691524973.4231727,0.11293033010152764,-0.10646159562226018,9.709381939946685,0.003158530648540998,-0.0012997074702586848,0.0008857833343149
1691524973.4331696,0.07678353723657985,0.12661279515746537,9.816983460232848,-4.708457562692521e-05,0.0005912426594278324,-0.0005845810339728
1691524973.4523726,0.031330800112542655,-0.002117665553028003,9.810043134443795,0.0019574923546493406,-5.434564488016103e-05,0.001938932360435
1691524973.457517,-0.10081264162933253,0.08369595348314111,9.885378585546963,-0.0005209328741641534,-0.00013741094485284172,-0.0011642328283692
1691524973.4630609,-0.15640793410905188,0.07308911705801556,9.922630133777885,-0.00046207455780523997,-0.002718673400460102,0.0002979362214041
1691524973.4730911,0.19823124616601662,-0.0007692633051186177,9.69993338003001,-0.0008119204334023322,0.001465562304798385,-0.0008706894989068
1691524973.4830997,-0.0795558282308726,-0.08241572480831086,9.837143650048437,0.0013215901473685957,-0.0009156437625368977,-0.000527591542987
1691524973.493117,0.03446385718763794,0.21766747601533556,9.876590477007145,-0.0028831470198821844,-0.0005978821862045097,6.398502207001933e-05
1691524973.503074,0.048056956730960006,-0.16634855353318423,9.74486308450385,0.00025428696411779043,0.00020455203973521272,-0.0006434538920352
1691524973.5131285,0.0978292437892298,-0.19650582811611073,9.6984149745765,0.004630757091590919,0.0019971731118872856,-0.0007183328091109
1691524973.523105,-0.037655368790775745,0.23326507887908018,9.917507932423701,0.0005642470340552289,0.0004358882675032052,0.0005132613766995
1691524973.533213,-0.010096994478464686,0.05193291552218494,9.840127468063102,-0.0011151356008025268,7.344100474630338e-05,-0.0007894676930213
1691524973.543215,-0.026660962666548438,0.006922640554474984,9.858953936229263,-0.000488889617617831,-0.0013209528462201502,-0.00054882092466
1691524973.554783,0.13036515761544615,0.055979492918343046,9.75753529195224,-0.0015666496166456894,0.001460350949235609,-8.091445145556441e-05
1691524973.5631793,-0.06426529280089113,0.0005405570466020846,9.846869957631029,-0.0013431136379584107,-1.7478103915896085e-05,0.000359026674932
1691524973.573125,-0.08382747247883006,-0.13370737625422346,9.812418319204307,0.001099921318432785,-0.0017605250910181142,-0.0002578883252049
1691524973.5831115,0.05154538411600873,0.1272157911825281,9.834920208573402,-0.0012525819312505858,-0.0010128697852912942,-0.0004914509884024
1691524973.593143,0.198582742195203,-0.0048470247293765905,9.704486449308138,0.00034778403293919067,0.0020161686433977587,0.0018007309006584
1691524973.6033185,0.056853471611313655,0.03400038534068969,9.79711604255202,0.00013544664624247019,0.002773518433468203,0.0020432119088304
1691524973.613133,-0.23368015271381765,0.09308091302616181,9.98460190585681,-0.0017484184143950355,-0.002484363912149206,0.0017604818747436
1691524973.6231065,0.10920493812656716,-0.1971845933263599,9.698539939481654,0.00171349774121388,-6.442704430477214e-05,0.0002297667267789
1691524973.635772,0.11351545983384867,0.13931477061954103,9.806603795983293,-0.0016813633309323089,0.0025265240716431216,0.0003418721205612
1691524973.6433723,-0.20286142532671447,-0.06703381146744454,9.896318279233844,-0.0006241330466752301,-0.0009059519950411721,0.0001284372008462
1691524973.6531074,0.05630587469163912,0.14192319208324516,9.829531349780348,-0.0037109023068209865,0.0001818333122431547,-0.0003025755106414
1691524973.663132,0.009656038210851127,-0.0949185266623704,9.773395074539588,-0.001701107273871614,0.00012145378515222827,-0.0008360589674616
1691524973.6731126,0.014409886525445333,-0.02235087756450813,9.801185375695454,-0.00012011199710625863,-0.00047157645366902994,0.0006522204091829
1691524973.6831107,0.006338339321114515,-0.020543504672197125,9.813836546569268,-2.957931779093649e-05,-0.00039672197640477257,-0.0006252029963711
1691524973.6930816,-0.005285898716873973,0.11723983319152516,9.845680220436908,-0.0028056663020883067,-0.0002599881388130781,-0.0019476627751196
1691524973.703097,0.04046438321954757,-0.1774255902350029,9.736069824362707,0.0015953839712641719,9.167778901364027e-05,-0.0013508891972655
1691524973.7131102,-0.003286785187835641,0.10628621593445065,9.864017969476796,-0.001069289565202401,-0.00019294763075235568,-0.0022199970955903
1691524973.7230885,-0.04862540514892287,-0.10110941730978437,9.79234847576895,0.0023248134911999776,-0.0021837161518827365,-9.284539212831964e-05
1691524973.733244,0.14568977238139524,0.16782849252620566,9.782765694924016,-0.00045649967445033187,0.0002257919917116182,0.0009103663212676
1691524973.7432945,-0.0830876148922505,0.014590911312310413,9.870334049273971,-0.0003886863077120074,-0.001995598782566045,0.0010046331770076
1691524973.753095,0.07897313413895524,0.10570613829442017,9.811247269985683,-0.0020650632350309693,-0.0009577384597731951,0.0017671977000368
1691524973.7632284,0.10666427696018728,-0.15162668200964388,9.69877397783155,0.00020287545394095425,0.0017185226862957846,-8.164996345886699e-05
1691524973.7731023,-0.010854427375051627,0.16537994273243117,9.889454950088721,-0.0009813794384122868,-0.00011843728413857816,0.0037214907531683
1691524973.7834556,-0.03954671305632113,-0.162276216256749,9.791832692162414,0.0009673186747753287,-0.0002234763355303245,0.0002253028976788
1691524973.7930949,-0.05381896664160312,0.031176233601226292,9.841624984268647,0.00036343840940754514,-0.0015843120048581241,0.0001183770543952
1691524973.803294,0.09513028577247835,0.07204727680619362,9.783052116397666,-0.0005656388977093035,6.299651605757856e-05,0.0009379386790619
1691524973.813136,-0.0820097209458867,-0.028895719325480993,9.846535830201526,7.659781806537258e-05,-0.0018950076885348838,0.0007974953221214
1691524973.8232467,0.1311099897758169,-0.02778803662846074,9.731724691780457,-7.800340889808459e-05,0.0009972878112142615,-0.0010066716751957
1691524973.8331316,-0.012366438481967976,0.01028664492506565,9.847253257170884,0.0006167450631780381,-0.0003378349468228847,0.0001116612873097
1691524973.8432865,0.03744941185952076,0.09811886815309662,9.840497066532011,-0.001434760253593121,-7.521755276705905e-05,-0.0002001317736635
1691524973.853146,0.12512333267852793,-0.14034687189814024,9.706483083274712,0.0010555964936450034,0.002685601230156737,-0.0016585895611847
1691524973.8631403,-0.0625393863481137,0.04898017300802392,9.861511036388626,-0.000529516950952366,0.0014927495242877792,-0.0025798643293733
1691524973.873081,-0.05667468723577744,0.1306164136863889,9.886217014410164,-0.0014839270933505518,-0.0008895659678593209,0.0003914405422342
1691524973.8830867,0.09089872021391021,-0.20707733807700657,9.693008146553016,0.0021374257929997953,0.0012413220906851389,-0.0012435689388717
1691524973.893181,-0.07242704821484201,0.21115750405980654,9.929490368972008,-0.0013572723317420749,-0.0013444183094200397,0.000505061605299
1691524973.903167,0.14925235966410974,-0.03405481022241771,9.722857343664392,0.00015965336329999753,0.0011451976006990675,0.0013339284376065
1691524973.9131162,-0.046926855638924674,0.09790382496974409,9.883896102059271,-0.001761095022343969,-0.00014897963229670093,0.0012408070395117
1691524973.9231174,0.04993742974436651,-0.06552368817664862,9.773864206670995,0.00042677289122172897,0.00016805769103307995,0.002044703189103
1691524973.933111,0.03362345361574064,-0.05040644208677379,9.794891752707603,0.00044425068319291103,0.0011731464150454092,-0.0004914335261041
1691524973.944075,-0.011017182705846774,0.1652088366163058,9.88102895894204,-0.001972697508595575,2.7223359762505607e-05,0.0014505442702734
1691524973.9543753,-0.03663358568515658,-0.14711696132711466,9.772162965327729,0.0015018918501510446,-0.0009960907534627228,0.0015530010457673
1691524973.963122,0.027525032892127255,0.1927013103842172,9.865506618310734,-0.0021462814571929,-0.0006850350272128803,0.001388326261594
1691524973.9730997,0.17085272204100774,-0.13325265813064435,9.680135375942559,0.0003533866382514313,0.0028491372825764074,0.0007319312023987
1691524973.983138,-0.0396690016177813,0.001825012956098827,9.825558563552487,-0.0003983966170242399,0.002256448586083948,-0.0006900074479112
1691524973.993095,-0.18903503433177596,-0.011587884957148962,9.918325307610644,0.000745652141817958,-0.0025916557826381114,0.0005408160684687
1691524974.0032194,0.0513046982345853,0.11824237934510061,9.835923536384696,-0.0015178150432376756,-0.0019743618178950585,0.0005069184296821
1691524974.0131075,0.004444807444125183,-0.11882738586086697,9.77759372414171,0.0004219526964103051,-0.0017553228577916117,-0.0011530509038771
1691524974.0231156,0.15284422425126115,0.10222447414930078,9.780386926208672,-0.0013382641292861708,0.0008177226806450448,-0.0003558728896955
1691524974.0331068,-0.13781634269793613,-0.09487630306698651,9.86114115547037,0.0003265739214346065,-0.0019993106206366144,-0.0011880767817551
1691524974.0444963,0.10890704391692775,0.02605201753390695,9.770809242439654,-0.0002009368244135509,-0.00016535873693288857,-0.0011005324597413
1691524974.053147,-0.06579478428604033,0.08360508951750802,9.886039641543489,-0.0007221031145330529,-0.002299954953380352,0.0007714204728194
1691524974.063157,0.16858947369914262,-0.00283541134252667,9.735026352794465,-0.001554715182391996,0.0014379929526865233,-0.0011571722391004
1691524974.0731266,0.05291905461939505,-0.0687917895410665,9.773927322408916,0.0007717340588096511,0.0016216601287948314,0.0003009355457556
1691524974.0831442,0.0446760036157687,-0.005980724864926018,9.789327142124849,0.0008853449224407603,0.0024162702060409567,-0.0001107114187384
1691524974.0931046,-0.05273195786642477,-0.01823165693720288,9.853669230102897,0.0026269362911152906,0.00013749146886851398,0.0017213774733768
1691524974.1053207,-0.03253807862511126,0.11021345624139228,9.860132196607166,-0.0004821921484814847,-0.0005673306464987611,0.0005367247101908
1691524974.1131136,0.04408550043804049,-0.1646816597608354,9.736317963142202,0.0015447344508651268,0.0004455992086631411,-0.0009909970506037
1691524974.1232622,-0.02728189581485369,0.08384608752498875,9.858382731586588,0.0009337870213071789,-0.001201355989256521,0.0009714695804809
1691524974.1330976,0.05532265814250943,0.105834170190703,9.819321563211894,-0.0018139961316612926,0.0002488800670492561,-0.0005454660679156
1691524974.1431355,0.12434282096838697,-0.09652401702814613,9.719277425741895,0.00099263887337614,0.00215213902669006,0.0004245782217999
1691524974.153134,-0.10275762456191508,0.08008751412674497,9.907918005519011,-0.0014258326616052104,-5.026553465770631e-05,-0.0014820045146102
1691524974.163126,-0.035561751353850556,0.1103296088978876,9.87476481782152,-0.0017003619402833467,-0.002373341635413946,0.001973574766243
1691524974.1731243,0.11864300625423138,-0.06612854388888283,9.733177553174839,-0.0015241529160366736,0.0005882589733169496,-0.000604331708228
1691524974.1831152,-0.12780941362219156,-0.11549142689790132,9.849427065502327,0.000756122612415863,-0.0025327627569404704,-0.0009939733247215
1691524974.1931863,0.22642195547726832,0.06970481672041383,9.722602860792865,-0.0003510748077016419,0.001675297371497772,-0.0006728842674697
1691524974.2032683,-0.02096170670114381,0.21146127530696734,9.890372165640862,-0.0035339679063875855,0.0003166576255917485,0.0015425544877593
1691524974.213135,0.0417168529006083,-0.27890274217620703,9.710375639050996,0.001495182995163543,0.0014003793391408658,-0.0004240236996615
1691524974.2236264,0.020871144312308965,0.024600408128049485,9.81964046254717,0.0007810624077095212,0.001625744468699457,-0.0008520653757209
1691524974.233106,-0.07636920638243155,0.05029447775360638,9.88526395930862,-0.0005321044172056644,-0.00017803456671047733,-0.0017561882088834
1691524974.2451856,0.05467248714459326,0.042271322723968406,9.816031963092627,-0.000487783364371852,1.0834392987727023e-05,-0.0008397742460424
1691524974.2533593,-0.04385702959040106,-0.07606263110204663,9.8134876944811,0.0007575845603342644,-0.0009111632110783512,-0.0012476828235144
1691524974.2631452,0.023184473161124708,0.018697656118930372,9.795001097621329,-0.00011749277528846057,-0.0003594467221337948,-0.0018902951671684
1691524974.2731087,0.12647379209715573,0.11145127805303436,9.782169420879958,-0.0014399618793769194,0.001378016549050506,0.0001377366895844
1691524974.283154,-0.029232685591208247,-0.20285694041366034,9.763554543737007,0.003002832823309023,0.00037330217808394543,9.344706247201452e-05
1691524974.2931092,0.07803038022188129,0.0958271561865217,9.819650366311262,0.0006842086577148579,0.0019055284142660196,-0.0008431046555692
1691524974.3031845,-0.024168183077097345,0.09631107730495761,9.86472086611849,0.0007162300084799881,-3.832972473652377e-05,0.0017630920226742
1691524974.313173,0.023148084085285472,0.13366256421998532,9.861248075735524,-0.0024908639884419635,0.00021014875599278352,0.0005598286695835
1691524974.3231475,-0.08023845411960742,-0.005086893508509099,9.825328402397755,-0.003654302943294599,-0.0005565416592954517,-0.0016961959010864
1691524974.3333447,0.020595964748630617,-0.24119279318495626,9.717279182720157,0.0020417106759858124,-0.0005751687119726143,-0.000822996935522
1691524974.3431487,-0.07088548600667538,0.03503800839166648,9.876195839414459,0.0014318761852014292,-0.0024884758768526313,-0.000980184628343
1691524974.3531384,0.13855672579455602,-0.07546044773761745,9.721276677649747,0.0023475163712077707,0.0006128631480282401,-0.0025902851304913
1691524974.3631537,0.05539539037489767,0.09868977327937495,9.814356073664902,0.0014102331675898807,0.0007626045251764248,-0.0005700721924135
1691524974.3731515,-0.06894802290491339,0.0475253365570234,9.8687034065362,0.0009628406502680104,-0.0014107268311984449,-0.0002340398316214
1691524974.3831654,0.0702356732423937,-0.10381498555924258,9.747573360676578,0.0023262993351948224,0.00047912656699555903,-0.0020802786859626
1691524974.3932524,-0.09152772128885596,0.05326167855995906,9.877576060421594,0.002256265925209981,-0.002398319684976914,-0.0002288169746229
1691524974.406769,0.18418969261290954,0.1659827880125817,9.778096480863464,-0.0014075577642818193,0.0017408647995527124,0.0013112189879116
1691524974.4131048,-0.13489350077855408,-0.18523925058301918,9.8288208896425,0.0006558806440381755,-3.423998179254302e-05,0.0001660585583244
1691524974.423339,0.012541780348712967,0.015508279978983035,9.810557764974373,0.0007978113927797996,-0.0002469383143869005,0.0002070528169219
1691524974.4332128,0.07046149658941403,0.060301444462271925,9.79822302709349,-0.0002512387591259275,0.000923912636816046,-4.555546393484981e-06
1691524974.4433334,0.005913857041744158,-0.0936390654249067,9.790070597544547,0.001158788735835314,0.0009917108411167538,-0.0011567927251512
1691524974.4542232,-0.07079942302579666,0.0572782951057953,9.884254950111151,0.000886848112079264,-0.0015891708101105967,-0.0002087007562572
1691524974.4632256,0.17741543103880641,0.13383844514127125,9.746551874921611,-0.0016988902187010106,0.001728930990327343,-0.0003525182657817
1691524974.4732113,-0.18087375974802827,-0.2065425496322327,9.800060396684778,0.001181498348996808,-0.001030371142905568,-0.0019864216267074
1691524974.4832976,-0.08077444387106826,0.24547411546425923,9.930654585936432,-0.0016355699449367473,-0.004654720010686,0.003278532316262
1691524974.4932148,0.5031336207559776,0.12949876248737885,9.865807253725183,-0.002734223933895103,-0.0009737618941176522,0.008481622924382
1691524974.5032728,0.5442912287339536,0.06873513470268006,9.621658307728417,-0.0008626056147890271,0.007882463650729797,0.0182303155486529
1691524974.5136998,-0.25692807705249027,-0.11444172170106555,9.74743999995381,-0.0007542092761690938,0.009757011390110416,0.0151401825894658
1691524974.5232477,-0.9583581386354456,-0.18446068839493523,9.928661451497325,0.0015373013071947926,1.6451683735751165e-05,0.0099345094238465
1691524974.5331955,-0.48369584548654837,0.0366955003368938,9.86874209880508,-0.0004385885478899732,-0.004321671457922511,0.0020015124062133
1691524974.5432203,-0.07831698245534871,-0.2490715096439947,9.74808142508795,0.0018700143800689478,-0.0027708357117312834,-0.0058696267480904
1691524974.5531676,0.058512159700857304,0.07196141785984907,9.85140146611662,3.67985146770749e-05,-0.0006485082343577203,-0.0104484024743492
1691524974.5632007,0.048789605956928224,0.14061261640677764,9.778954926877484,-0.00021510087213191505,0.0033769279186124106,-0.0094385191152746
1691524974.5731432,-0.14830705013449774,0.4233383839403865,9.866024053351348,-0.005102681913700752,0.003945495762685146,-0.0030302221241349
1691524974.58315,-0.3939337518596721,-0.15303031941975292,9.801035521691766,-0.0007582440172535305,0.00015091215751464627,0.002273077512445
1691524974.5931396,-0.1948908279006478,0.08392462404167782,9.828839152930486,-0.0018341232631631538,-0.0018681915781505484,0.0061343482409661
1691524974.6032133,0.21599694534090425,0.03779329022149947,9.711330453192392,-0.002471201474694387,0.0020217088187129075,0.0100284044344966
1691524974.6132205,-0.02623621437579103,-0.1332567492635552,9.814495414309025,-0.0010436572356131298,0.002980688942656706,0.0089644219440465
1691524974.626107,0.1333532237565316,-0.1981336764598191,9.801598193343654,0.0011177721606305355,0.009840388354461141,0.0090747366373484
1691524974.6346738,0.28310235061209765,0.1882878758971055,9.920703628828935,-0.0015260377053514186,0.01733451709867145,0.0182833133910839
1691524974.6434848,0.34712679760656145,0.485653789843776,9.68269179386658,-0.006088001144776851,0.03324015160042763,0.0388214478914683
1691524974.653687,-1.1369286836042154,0.12689243015607482,9.812598552701225,-0.006794979892417281,0.03539860527507424,0.0580591673676913
1691524974.6631212,-2.205539888692678,-0.4730046252944459,9.735470169709712,0.0002630048686699894,0.019234429211504655,0.057284429920191
1691524974.6732123,-5.480934359041491,-0.4471059080317968,10.355944057777908,-0.003113908023909359,-0.04175179686100075,0.0448998960380499
1691524974.6831648,-3.226643604366983,-2.0262991966724386,10.74031688942871,0.017439055139089627,-0.10691064219559199,0.0433065111463015
1691524974.6932082,6.614906967190602,-0.6254447450164942,8.929441298021718,0.05215450597757128,-0.03513934187789478,0.0418615753476565
1691524974.703331,7.565087717122243,4.669248470872531,8.734090138134722,-0.0003382014748538531,0.0739268151972137,0.0524864944343512
1691524974.7131946,-0.1495417947279211,3.072114652763617,9.26518860586761,-0.03629952950166576,0.10433331404713606,0.0532224367086832
1691524974.7231886,-5.555945750751202,-2.14678575747875,11.049557429619103,-0.024704842125481307,0.035272836652653676,0.0514461288874094
1691524974.7332497,-4.002133930283017,-1.934395687539906,10.163111651077429,0.012421199419603337,-0.031960649651522226,0.0613994451885168
1691524974.7432055,-0.9661850860065127,-1.810101672751306,9.34217364229302,0.057820243934963496,-0.053322472515497286,0.1122990960900729
1691524974.753195,-1.1516483091722896,5.802760781380707,10.343846881053329,-0.007938530861578731,-0.08691219637508868,0.1524644831840937
1691524974.7632043,4.280134684660754,1.1128538994181567,9.580566654146212,-0.0165992319792132,-0.04847599281013703,0.2048315296595042
1691524974.776368,4.602095872664847,1.3835713183191554,10.263960782676596,-0.04081270058458803,0.006255777617284415,0.2421184966986125
1691524974.7832355,5.306774070150749,-2.0674373428270005,8.426193239236365,-0.01585220035035024,0.06555188185419754,0.2516190747444575
1691524974.7931714,-1.1065133461278551,-2.3332816111776413,9.67722455462434,0.012314412856206778,0.05690398201627811,0.2432402561132853
1691524974.8032343,-2.7118006095491474,-0.22761964337508145,10.057715769975134,0.023048563355159046,0.01958362201915802,0.2473411301796381
1691524974.8132455,-2.613089319484914,1.8799305082864428,10.373237991968933,-0.0017576118384142535,-0.024533386018396112,0.2555350104992335
1691524974.8232613,0.42923343999226043,1.2038447539561254,9.47085050870627,-0.020774539817033335,-0.027890537713347416,0.2719646135990565
1691524974.8332038,1.7036372378568316,0.2106534299856227,9.770980335096764,-0.024157824822900464,-0.01784821271572832,0.2873475591366236
1691524974.843192,2.3811549067739968,-1.9995112472821879,8.821210518749094,0.002280246552803271,0.013745177400117773,0.2894428114120905
1691524974.853184,1.223267740537209,-0.8593745397378746,9.730837344795328,0.017696041088200075,0.03117322249024927,0.3013216594879572
1691524974.8632245,-0.7479077794507447,0.38040007030234624,10.395736700847033,0.015306153399014076,0.0200709178737924,0.3097555379097407
1691524974.873237,-0.4402641825911984,1.3525520780818643,10.444648117605638,0.0014475158267639283,0.013151578121007227,0.3216687480633204
1691524974.8831754,-0.37442991112271634,0.3543282755460981,10.116094637866247,-0.00561127867071608,0.0015271770466780688,0.3365664521877711
1691524974.8931756,0.090013987664579,-0.47579815392079045,9.485567241901892,-0.000808449895951446,0.0011090147795407121,0.3392043749515955
1691524974.9032824,0.5999785766907718,-1.016446870797198,9.420048829449918,0.014877231424077389,0.004440151383156193,0.3398828844253962
1691524974.9132144,0.8069224509580718,0.552469573770884,8.97776976120837,0.01553114006296563,0.018810621097873077,0.3469766716186945
1691524974.923209,-0.390385252015563,0.8048871963035317,10.0721701094087,0.0036502865904699732,0.01013408019804102,0.3448687533562128
1691524974.9331632,-0.07612690406528234,1.043175723225066,9.930811827799904,-0.010708124285086516,0.011637344812432464,0.3451755682651942
1691524974.9432187,-0.6282487877329072,-0.33248674460930217,10.430495321262045,-0.008813909350878382,0.0008280870900561225,0.3476887385075037
1691524974.9531505,-0.8224048510261105,-0.4526164566494868,10.37944967481424,-0.0033590316679134617,-0.012355282171741849,0.3458987812225764
1691524974.9631429,0.511573400084492,-0.06050461799993775,10.030105347455123,0.002056749267533553,-0.010073993153952205,0.3493397275631373
1691524974.973167,0.8435409231834358,0.5420948798909924,9.734055705514653,-0.00734038785007888,0.00024408981294058116,0.347656015557522
1691524974.983189,0.7419311188674726,-0.16857445736738302,9.36066065544366,-0.004815656834979833,0.009795569474477262,0.3460727969829981
1691524974.9933052,0.28346261620470936,0.05657905061173632,9.296922157097027,-0.00520706098521503,0.013833864144462122,0.3511867562954371
1691524975.0032876,-0.39913701602092055,-0.7471046187142107,9.445514837419271,0.0054253919922771085,0.008585640987526745,0.3526451031391566
1691524975.0131996,-0.6862890766747923,0.177058537973712,9.88343703624444,0.0032638766479034867,-0.0007400926850927461,0.3560724596207087
1691524975.023189,-0.6194011097651756,0.4228341319773041,10.035411487070823,-0.0027560942170310474,-0.009208254047834404,0.3579090873424952
1691524975.0331948,-0.8242336661241879,-0.03545301422351321,10.068306702351938,-0.0033579210361956253,-0.019561241578295363,0.3547765950386469
1691524975.0432005,0.37084648850148216,0.18585379452673703,9.771820371964274,-0.004845838773511314,-0.017365864898501948,0.3609364668552821
1691524975.0533128,0.01913238599611511,-0.031575623736385436,9.863463660799823,-0.004933529376393584,-0.016991072056170523,0.3589923123543208
1691524975.063283,0.8809030888362701,-0.6685366188495293,9.614663523859555,0.003162832383856571,-0.00742517889714641,0.3618843893234675
1691524975.0732048,0.5104283208551934,-0.14366004852950426,9.658645251671052,0.010572128354712157,-4.443819302428155e-05,0.3697241584484522
1691524975.083317,0.12622549507383898,-0.06234270398135332,9.979213641787949,0.010510772005427677,-0.0007890518254197641,0.3710847536747401
1691524975.0932584,0.003033610825384251,0.4663868898724849,9.81740829862061,0.006929548573849952,0.0007480295373828018,0.376645330590481
1691524975.1032374,-0.19894853226492865,0.5189827518468266,9.97992992209991,-0.00019834004252504433,-0.004670309097903556,0.3809306065266077
1691524975.1169243,-0.20380946319132615,0.06907666023604142,9.78029489614514,-0.0011282910974402623,-0.006250298916469045,0.3792479674045985
1691524975.1273792,0.28166791472430874,0.26064712255397476,9.839459389701569,-0.0015482010391029736,-0.007492573052231556,0.384191397828335
1691524975.1379998,0.6836907445900243,0.47431865094679093,9.91681535014555,-0.003983344365214927,-1.726566712356151e-05,0.3805584053223078
1691524975.143268,1.3432003926097893,1.0244236141995167,9.76638170870654,-0.013678188702328845,0.011772381498387316,0.3787383178894465
1691524975.153272,0.1403419016355588,-0.16152440969808105,9.834093067870263,-0.010716460823090778,0.015599595216736263,0.3758100310985987
1691524975.1632044,-0.563649196082455,-0.27159163027883176,9.94940074515203,-0.008808634057235733,0.007039004245365056,0.3714538256351893
1691524975.173317,-0.10742584074848822,-0.1616620654073191,9.534199251366495,-0.005253234006325349,0.005201445788006272,0.3727032880012934
1691524975.1832285,-0.18835157221553223,-0.07020257543809036,9.665263885986407,-0.0054879301942894025,0.0013804498306695101,0.3707739750568812
1691524975.1932902,0.20746039039852157,0.031122165842940953,9.472337307676183,-0.00506072630650122,0.002720550109025105,0.3745972553913538
1691524975.2032566,0.2822992087454997,-0.03801137865645553,9.61979241053085,-0.005208876945222711,0.0065941899216189195,0.3794114033405726
1691524975.2133052,-0.19808871052035654,-0.35701719637604074,9.798904091042257,6.462494270334367e-05,0.003620274402073335,0.3800077776138728
1691524975.229379,-0.12176415792223928,-0.021849194769785578,9.939875054252193,0.0009914507501440364,0.00280585249945237,0.3804642001812403
1691524975.2336507,-0.47257295837473756,-0.41125635562254687,10.284217631176348,0.0026106569901723203,-0.00047098433675151516,0.3800693194096033
1691524975.2432284,0.14147139397205524,-0.610132712085516,9.961006142278029,0.010070842924709056,0.0007038075013755734,0.3786296884243433
1691524975.2532487,0.388926335910974,-0.06568263436658876,9.747546258524096,0.013152201499068632,0.006819050600676467,0.3804754654591029
1691524975.263306,-0.017623623961252142,0.25333082154639225,9.712973409589573,0.010257976784784163,0.006862490050019858,0.3794575671379511
1691524975.273195,0.017954961069875555,0.48091342782510804,9.656753820102336,0.004491597581330894,0.008801151209999084,0.3811422626202052
1691524975.2832315,-0.19987960980143746,-0.008359884548371263,9.64192694490703,0.005370600482757228,0.005755222084028289,0.3843898812954371
1691524975.2931962,-0.14407914123936108,0.0017876214512459064,9.801205037719741,0.007069034235383846,0.0033491738115599876,0.3846615294640009
1691524975.304423,0.42279065427706464,0.43199713727308175,9.862445405049908,0.00010114603087668874,0.009005046117996381,0.386349145573849
1691524975.3132567,0.29661730557956495,0.2031988854307513,9.782060703214128,0.0018352607723913928,0.012549612284560438,0.3903511504356806
1691524975.323233,0.051626064350504965,0.4337560585212456,9.983604910123047,-0.004687362363395066,0.01229097042251285,0.3877747694675867
1691524975.3332255,-0.08535474427101258,0.3388782557917895,9.750443560332664,-0.005832239036227869,0.012367108592890363,0.386257056397671
1691524975.3434985,-0.22399961935627952,0.18085656688170593,9.855021883436548,-0.009344600640719661,0.010456353174952032,0.3869943658535426
1691524975.3544388,-0.8809164944554998,-0.37565704041249975,10.05296406295942,-0.005453362107697778,-0.0013221189390333836,0.3845918814365809
1691524975.3632638,-0.577785907659847,-0.5091894108332824,10.045550975665906,0.002817532783055839,-0.010979355886963822,0.3826838175480311
1691524975.373502,0.37748131083064074,0.19991202423108123,9.67671114492481,0.00146231862738887,-0.0056729407308297895,0.381507311267132
1691524975.3832796,0.537215756193414,0.3804431580895045,9.597396065100067,-0.003018363108329078,0.0017428724147278995,0.3807733992760126
1691524975.3932126,0.2022457602174001,-0.17791039330491742,9.474906345583976,-0.0006152539184311996,0.006217325667584272,0.3792502621834223
1691524975.403278,-0.24927646932102646,-0.1514166423989495,9.668538031165241,0.003131300345799533,0.0038998460188983683,0.3809700946037714
1691524975.413298,-0.6021700183111921,0.1640457743432253,9.885965601355535,0.002911138767781406,-0.004279667371585546,0.3830033580486719
1691524975.4234898,-0.5668557512171739,0.3942409936421372,9.985699712207435,-0.002828085819340301,-0.011877577474630183,0.3852825204555933
1691524975.4333005,-0.2667823942530719,0.08582757066499283,9.855634902099075,-0.003922384136881769,-0.015125260520982264,0.3857823948090021
1691524975.4433365,-0.10606848572237336,-0.07839477452299222,9.760282532645675,-0.0024483008471412253,-0.016530970689112544,0.3864376584713404
1691524975.453348,0.5105532812553767,-0.5271860695951828,9.716209148368584,0.005694954117419375,-0.010411478968207037,0.3905091623489802
1691524975.4660296,0.42126032711627553,-0.38608934873028183,9.814344109718938,0.013847747507105344,-0.004355509475176088,0.3903791348164027
1691524975.4732327,0.3922939811030012,0.21164198360201145,9.836794877681518,0.013798961965378175,-0.00011703530541818188,0.3930989543621485
1691524975.4833045,0.11916753144657263,0.4660991199424322,9.88483315919998,0.008773880444965321,0.0017071011055996073,0.3951648513500636
1691524975.4932349,-0.20777965956540226,0.36330872557179494,9.8670319102123,0.004237524865125747,2.7580703207521493e-05,0.3950537780945246
1691524975.5032675,-0.01649333539664728,0.12831842481989936,9.708895044608349,0.002385573900930516,0.0001877082072765157,0.3970682064716761
1691524975.513629,-0.2756109746829902,0.18354907106043641,9.777191767913322,0.0036002250745265003,-0.0038542585785358587,0.4024101535503809
1691524975.5235586,-0.08509461419102997,0.385772478959536,9.970596789285285,-9.54107126897935e-05,-0.007487296980027054,0.4020313660328333
1691524975.5334244,0.3480348585784922,0.5606942587428951,10.008726644796008,-0.0070526552686628555,-0.002215063567706036,0.4030908683960383
1691524975.543404,0.23471652750778438,0.12336179227417995,10.028930988555084,-0.005947024668242973,0.00030573588892381597,0.4017859141056483
1691524975.5532725,0.2887128169467014,-0.1667695829622096,9.792417022075334,-0.0033791341595398373,0.006293711930208043,0.396212939423794
1691524975.5632243,-0.07081084092998484,0.2001119221078411,9.850089820947117,-0.006817064275357848,0.004662883870372236,0.3938293794815485
1691524975.573291,0.006434274247944968,-0.05855435374379288,9.587593106398952,-0.004979324376450922,0.004595820017430237,0.3936219255154078
1691524975.5832565,-0.05144770041634719,0.2465940913867641,9.500777632346317,-0.007726514285411392,0.0060711841479037295,0.3957088033382838
1691524975.5932882,-0.6434606731747289,-0.06467660505514368,9.748436635612045,-0.007754472851390086,-0.002077698493499427,0.3940022031490748
1691524975.60333,-0.48757602625970625,-0.11109501048313945,9.858484025849288,-0.007630593799083015,-0.007735139584111656,0.3937593440239375
1691524975.6132958,-0.16512850275854768,-0.232860306047941,9.906319858010724,-0.007118170429490218,-0.008403214091349785,0.3947525958244746
1691524975.624587,0.33111705777387584,-1.312574112774651,10.063103507997052,0.010517713355115076,-0.006129883859771474,0.3967228571598475
1691524975.6335876,0.6941981773315136,-0.6279922160978916,9.700512248461164,0.01805660101488386,0.005105728566527632,0.395367209119076
1691524975.643277,0.49374036372834834,0.4082463645009287,9.770578091076201,0.015001560130747686,0.012536162602960085,0.4013337234680598
1691524975.6533306,-0.3433310324572191,0.6180059027700499,9.859415261769554,0.0059106179075088874,0.00898599922349439,0.4050936142628138
1691524975.6632426,-0.5009342324936663,0.07404320974302371,9.619306807864373,0.005903660432330496,0.0028553378552669197,0.4074024895851557
1691524975.6733377,-0.47455072117978464,-0.2932559958389147,9.731897361788418,0.008583781742122005,-0.003933665749416531,0.4058013598148768
1691524975.683344,-0.013416674532217402,-0.291820434579758,9.653540599482746,0.012885320410183332,-0.005679879272864072,0.4058956543629115
1691524975.6933548,0.28029215124955936,0.051423599644295735,9.755449003454018,0.012280166005639909,-0.0019616874037583333,0.4015234152500574
1691524975.7033346,0.3625422353168313,0.46456665781937806,9.90691195792472,0.007576135128233148,0.002142676098440193,0.4005330840771143
1691524975.7245424,0.34476617518858776,0.44817879156539153,9.92889943294107,0.0017763622793298959,0.009926263631404461,0.4026730100338404
1691524975.7280154,0.001334654343303825,1.4330053795579247,10.350246752538181,-0.009128045932159233,0.011562683943182493,0.3998015264694636
1691524975.7335973,-1.5020778188598605,-0.6430848107340199,10.398572010136057,-0.004100865349751275,-0.0010012741119251611,0.3978675941650813
1691524975.743257,-0.701784806254855,-0.11523933789007541,10.208317925226101,-0.0035044140485067958,-0.012393005778411985,0.3930940965835993
1691524975.753487,0.10909299794622797,-0.021220345655459286,9.701906474170933,-0.002480656599307331,-0.011407080769901295,0.3894938866321986
1691524975.7632372,0.6179730863908931,0.09510970883549989,9.478099383017152,-0.004082273735970574,-0.004017236433738264,0.3878112475101893
1691524975.7732882,0.38007246114637877,-0.24458364311250497,9.37853296643798,-0.001814324549907918,0.0019419125152950296,0.3873496095364039
1691524975.7833402,-0.07135805835507021,-0.27964269897460137,9.576569357856462,0.0011906406275781578,0.0017082670220906315,0.3858838121120875
1691524975.793266,-0.6259672188292021,-0.1135587721299624,9.822519530318782,0.004032930472944508,-0.005743777522255882,0.3846960405533259
1691524975.8034678,-0.5901612122375537,0.37784661315772256,10.039430011571,-0.0028932338888644185,-0.012726215541305324,0.3811134735767786
1691524975.8133333,-0.4786287491331297,0.2081018757815189,10.078960053375853,-0.006520210377536575,-0.019534787370078882,0.3795836309616511
1691524975.8234007,-0.12124901637473903,-0.2936366957888721,9.863553415006209,-0.00392507590141813,-0.02249200160426284,0.3778333405678217
1691524975.8334036,0.8170857347386109,-0.5680714432050069,9.695745372021344,0.00202314394783765,-0.012114071175313122,0.3822339216892664
1691524975.8432808,0.5131586662400849,-0.9110148716853711,9.67996752125347,0.015479010357495267,-0.006513393521703936,0.3834021429245417
1691524975.853255,0.5888173266495397,-0.03506485952224165,9.638604936790856,0.0174451449144258,0.0029959250815776365,0.3848009149258082
1691524975.8633091,-0.08802801534815667,0.5786385380703521,9.841711488016413,0.010188667306529798,0.00247034838981187,0.3873563448612635
1691524975.8733354,-0.4585302219846046,0.07034378062290284,9.818884236044688,0.011585247589489055,-0.005833665965874082,0.3888781706516688
1691524975.8832855,-0.09742127854376827,0.06637223666560957,9.765167623156087,0.007616621562682242,-0.006974736175031518,0.3862168232624476
1691524975.8932378,0.17192119461178865,-0.29460486525098545,9.619650000061714,0.01314386105056769,-0.006346289714700714,0.3881132940475886
1691524975.9033482,0.35279368100049807,0.14650498961177286,9.732162042589838,0.011206341740056122,-0.0019527099025621127,0.3868825177376215
1691524975.9133046,0.48044009081465305,0.7622686420946094,9.909288530538808,0.005944668448430722,0.00249664745637411,0.3900397459690516
1691524975.923248,0.3533976804303641,1.1372968607386136,10.260706675530129,-0.008399385580217935,0.005036322794495086,0.3906566540424769
1691524975.933263,-0.10298020662447332,0.2652042911204555,10.192619959027253,-0.01295600161129157,0.004583033212070598,0.3859869281475489
1691524975.9383736,-0.3628398302665288,-0.26313630373278357,10.077088072473622,-0.013860976821164663,0.002383354457145473,0.3806165198509638
1691524975.9523542,-0.01938059551954187,-0.4262045146896843,9.662981865738272,-0.005276306364112113,0.0016059757416117398,0.3779966572945063
1691524975.962282,0.1978998977390523,-0.05114590851768911,9.484373375766964,-0.005099525631498149,0.0037587078528499673,0.3783974091236536
1691524975.9756353,-0.14099130943832763,0.02479374410925555,9.46157896125318,-0.004299695567741705,0.002533290632748646,0.3793962041561549
1691524975.982299,-0.4802789633300924,0.27980218002095014,9.813663885817059,-0.007667472239675987,-0.002321799859399751,0.3816567103092615
1691524975.9954913,-0.39530424996890706,-0.19576945816704636,9.781480797276162,-0.008735955020855083,-0.004725793642364617,0.3782596627895777
1691524976.002306,-0.23511777375293463,-1.7839688435347674,10.046841742254522,0.0075119390182115334,-0.009071328901475231,0.3780313173954432
1691524976.0122738,0.5670766795777671,-0.7593049821077759,9.82726920038901,0.01929188413101469,-0.0009120458168860864,0.3777802924339716
1691524976.022323,0.4619091159912672,0.24775923451823265,9.956910421570665,0.017520018798358634,0.005375234666285587,0.3797941843693201
1691524976.032317,0.268862959056495,0.5903359541585089,9.676411539476858,0.011536433669918467,0.010853776918886754,0.3831160704319422
1691524976.0423129,-0.18317508523935125,0.7070510366733048,9.792212225384748,0.0004507587004607049,0.009927902966817942,0.38695589105534
1691524976.0522869,-0.4246873123679741,-0.2180036550941601,9.70460626505095,0.0036025477682602373,0.0029989323768383463,0.3907336930458491
1691524976.062282,-0.3764223658001463,-0.5024949996967669,9.647934134120705,0.01114219169598681,-0.0024492130239285627,0.3906762937729304
1691524976.0723207,0.16570343994845374,0.112759617778023,9.69229906542278,0.009596667994622722,0.0005122932598168444,0.3901794294540827
1691524976.0822804,0.2734916335997173,0.20539626188338597,9.72173034427615,0.009930654846067392,0.004846363934552104,0.3878225127880518
1691524976.0924354,0.2113847733908348,0.6810397935362217,10.026878305913911,0.0018171852414704827,0.007356542659360011,0.3860303203289454
1691524976.1023667,0.4326967991887912,0.6395526886269911,9.925788682995584,-0.0050647699723472914,0.012847051885784428,0.3886334041778986
1691524976.1123152,0.013080202918466014,0.042457816658704524,9.843768435280444,-0.006173433052056225,0.01457289863935717,0.3830775658314173
1691524976.1223738,-0.18531287922323322,0.0006815072825065879,9.807452518982442,-0.005475397847326834,0.01296057715534739,0.382836018008465
1691524976.1323009,-0.7481323319199473,-0.18710311671056656,9.956284861962283,-0.003411158782074787,0.005741505079365586,0.3820325473968928
1691524976.14233,-0.7834529967836775,-0.23374087337929697,10.10667303514321,-0.0009387796876695827,-0.006119590549864844,0.3791879455273096
1691524976.1523087,-0.2739382291225417,0.21598525014370065,9.944605140805704,-0.004077143109873272,-0.010323350561043889,0.3772805670921748
1691524976.162268,0.20270916455416643,0.2449150792013547,9.596976286374804,-0.007138403416615786,-0.005067447417923289,0.3732095698540156
1691524976.172268,-0.17263965782949497,0.3691557856177587,9.824422856643148,-0.013294442904085714,-0.007500397063582206,0.3740299681847041
1691524976.1823285,-0.0906818268753651,-0.18598547476364496,9.591127024280706,-0.010558670909115815,-0.006732451942579859,0.3740797976677363
1691524976.1923127,-0.3301579674827921,-0.19569408579851028,9.737722512749732,-0.008969592931602502,-0.009710774944272443,0.3738041857902949
1691524976.2024622,-0.31809089447646594,-0.1935284573069458,9.718309469789647,-0.003118903381612306,-0.01429757804697162,0.3773203829948847
1691524976.2122962,-0.26852258988026195,0.17760424644155065,9.861362294797553,-0.006680078047433262,-0.017743636553827796,0.3774988691036646
1691524976.2222931,0.09011586563624213,-0.25256146966843224,9.86641323700431,-0.00582731761004889,-0.016180944859934203,0.3782734612648432
1691524976.2324202,0.3802908657614349,-0.9481675219507992,9.836588854744296,0.00803338554568008,-0.012912845942234972,0.3792594412987177
1691524976.242304,0.5071149170394395,-0.6657603534552831,9.778262897109109,0.01614309506255066,-0.004941936487575409,0.3754180411522334
1691524976.2533412,0.3630191882280846,0.21647918328427648,9.805034366410847,0.015950361901935443,-0.0008512669102240538,0.3832552770798151
1691524976.262344,0.06345558486987449,0.2961229358222397,9.831266403952995,0.013105393287112408,-0.0016270121621037637,0.3855630497162287
1691524976.2722902,0.046527442440237356,0.26181009617652645,9.69626512666721,0.008832604792372254,-0.0017281284647468588,0.3874555865948145
1691524976.282378,0.2639728724748181,0.02192585034523122,9.576788070753164,0.009405490214775577,0.001066133523828889,0.3896009365742152
1691524976.2923367,0.10318312108441748,0.231557031767065,9.68039934944644,0.009693654562406593,0.0017286764695906933,0.3917551378433649
1691524976.3023024,0.22008586932897167,0.9055110715497153,10.11060212440593,-0.0007481362593696929,0.003074726764191284,0.3900099734489863
1691524976.3123288,-0.017201026419326016,0.43135725507543277,10.229358277952473,-0.006369012417865804,0.004831801362983165,0.3873928527061884
1691524976.323866,-0.14518972347916015,0.06472843801559397,10.118015137895497,-0.007110202569291983,0.0030296278156687006,0.3834180275623743
1691524976.332306,-0.31205423524582615,0.07453051919738934,10.054406953837303,-0.00788734673293788,-0.0011146679101252117,0.3827492932503168
1691524976.3423505,0.0265638162079263,-0.009375068094997812,9.606814431258572,-0.009148936011428202,0.0008763752765267656,0.3802883664791529
1691524976.3523424,-0.2331963557055121,0.06998564343509231,9.520166433297016,-0.008111957674236059,-0.001408848802047349,0.3816913108055537
1691524976.3624516,-0.3751608993470028,-0.05789317416375337,9.543171725148735,-0.008313971355118832,-0.0049051182186746,0.3792590836708491
1691524976.3723853,-0.26316676154953367,-0.3032704811565319,9.67637764744398,-0.004688296083022473,-0.007337277291841267,0.3809634784882014
1691524976.382343,0.24948584749514163,-1.0055455717161537,9.942819512797676,0.006808721071880454,-0.005028062029198461,0.3822680453484003
1691524976.3923402,0.4153740973677094,-0.7830412036416813,9.82714662887249,0.0176223534735698,0.0022092243345199904,0.3827732543175166
1691524976.4024496,0.327490829501227,0.26027795301180423,9.987157373918208,0.014931975445753316,0.006915982720419887,0.3864938358490412
1691524976.412428,-0.19604326225395977,0.2591824101999407,9.856721247570935,0.011170354329722104,0.00653634516810925,0.3875350693886225
1691524976.4224796,-0.3530727897213318,0.19942732442393002,9.707683168535418,0.008338207062117495,0.0033681458919626135,0.3905895392124598
1691524976.4324057,-0.40463569102702573,-0.0742656872021727,9.730650249395655,0.009134315440585768,-0.0029009662039219913,0.3912917415325587
1691524976.4448843,-0.09929455328288203,-0.2766913329242086,9.545283461199038,0.013705166668167863,-0.0036500419672332645,0.3896978835289423
1691524976.4525757,0.14051135705938475,-0.15780369805281816,9.661654329670222,0.016982144126820992,-0.002861646709568751,0.3880574742977564
1691524976.462436,0.385743235913988,0.5796301761734383,9.769038367528157,0.011302475773607738,0.0022123796488461417,0.3913148681347315
1691524976.4724238,0.28362961626003463,0.5296147278283085,9.99426910874346,0.004674416021741806,0.005710652260493251,0.3888405601208155
1691524976.482366,0.4154212432667607,0.5525922178330823,9.904764111025521,-0.0010093284802948318,0.011655593737875584,0.3906022648041193
1691524976.4923737,0.13161649926929617,0.32618473643752943,9.920759264539258,-0.0031579263497512494,0.011969844212731813,0.3921678404037897
1691524976.5024023,0.19266373867251177,0.09467348519454882,9.751892463248602,-0.004176339646195028,0.014935693197186028,0.3915994207088892
1691524976.5123503,-0.45158801986592745,-0.5675755097864527,9.727230985845543,0.002837872846564438,0.012017095872785431,0.3906101922218745
1691524976.5222995,-1.1355313366424489,-0.47270945468427666,10.057524502646906,0.007782488159792913,-0.004132788134634202,0.3872993628208582
1691524976.5323322,-0.5255895014185414,0.1201620061421406,9.964206669048025,0.009639195576637028,-0.012348361480661978,0.3851855436985438
1691524976.5423834,0.2001653056985371,0.6081827602810609,9.863393094602255,0.0019757214146531137,-0.009988165474457685,0.3855324129288142
1691524976.5523388,0.22280159519259815,0.45481067912168766,9.716802375975854,-0.005358178440479924,-0.0043700758006425065,0.382330898446316
1691524976.562481,-0.08808948237451956,0.12617964830570688,9.796698639037247,-0.007823537442343449,-0.005397894592656209,0.3803148011391108
1691524976.5723572,-0.3245123856956531,-0.1892910425838203,9.752160991854105,-0.005024308373280398,-0.008671153299445646,0.3769851366703455
1691524976.5823689,-0.2770496335599974,-0.13823590594283272,9.773084643397274,-0.0012601576128612743,-0.013445459524975419,0.3792097906296198
1691524976.5924015,-0.03320808712047049,0.11752136751607355,9.655936472752533,-0.0012286694200667166,-0.012667476334743133,0.3821256498520319
1691524976.6023867,-0.28398256745857237,0.12230098824555455,9.840959093071488,-0.004665453388186862,-0.016078749613355404,0.3816820720856135
1691524976.612504,-0.03471974356296905,-0.22931766575619744,9.7200329392658,-0.0018475696705331681,-0.01591741098889186,0.3847415785019343
1691524976.622312,0.28627200012964293,-0.9487149704390796,9.874844839301526,0.010178871762467389,-0.014065341690537005,0.3881347517197077
1691524976.6423223,0.5362798260720297,-0.06102284133235365,9.727580348941691,0.020164321181390207,-0.00026268378429424803,0.387629423541302
1691524976.6523964,0.12363039910503965,0.38367880733416115,9.851570181326142,0.014883994788079852,0.0008929974997820981,0.384942416352505
1691524976.662465,0.34784376027093966,0.6170809273000585,9.624356627107717,0.008194069453501877,0.005677081367797855,0.3920774499599879
1691524976.6723697,-0.16454215936570185,0.04537185911357263,9.758108212387935,0.007521159839644209,0.001183358287007851,0.3941690663521235
1691524976.6823747,0.25838008840768945,0.059347919760043326,9.656215682973688,0.0077826939584877755,0.005352213541729797,0.3958641926472132
1691524976.6923666,-0.16815655550010122,0.48883394149490356,10.229805973836603,0.0032155410116966525,0.0018901191816366634,0.3953005711262171
1691524976.7023177,-0.06017724905812052,0.5118333411928937,10.28176615967039,-0.0020959876671444245,0.00022015733055819463,0.3923005799477045
1691524976.7123473,-0.13826990926420593,0.2211816387954045,10.141173955058939,-0.004795343014455887,-0.0027685951744428265,0.3865096012775843
1691524976.7229698,0.37336715874726145,0.1942677130314141,9.757901448975185,-0.00897051016776892,0.0028801097500300177,0.3838012556259577
1691524976.7323663,0.03917614376233915,-0.1488162715361338,9.610767000044492,-0.005774100657638341,0.0005715725978310415,0.3872546593372767
1691524976.7423627,0.1577591325515414,-0.07945187900741167,9.386023130849317,-0.006395236535733077,0.004281538197746078,0.3850564102356379
1691524976.7523196,-0.1233140882062834,-0.019649811934181628,9.454021447196554,-0.005040660348913623,0.005121901625330079,0.3874122838203852
1691524976.7624445,-0.6169549033192355,0.030573668164702396,9.85998376242542,-0.007914656247920563,-0.0018627787212371959,0.3860071639244501
1691524976.772321,-0.5824247968457504,-0.28038842018805066,10.001794675956498,-0.0037268972189341753,-0.010204647912886949,0.3891855220024531
1691524976.782313,-0.014548406012546077,-0.86149889687098,10.081114462783408,0.002503537320489502,-0.009115474308901014,0.3841925601189082
1691524976.7923625,0.5044214073262927,-1.1073418987053005,9.839522310724469,0.017584295272183317,-0.001762818962456949,0.3809184769813959
1691524976.802384,0.4726332405993524,0.04513778890576453,9.782695802051595,0.0180348291704231,0.0055760184692593435,0.3841570953552668
1691524976.8124528,0.05604647432772761,0.3585886489720486,9.61026038557702,0.014856372797830473,0.008925297004702848,0.3856957594578211
1691524976.8223145,-0.29859192300724413,0.5569974942441233,9.718852838831321,0.007815098227301375,0.006468744597460365,0.3913330177490656
1691524976.8323767,-0.5757336163374899,-0.10778795899971019,9.745646375845062,0.0077124591232413265,-0.0009370788879759881,0.3895311693375056
1691524976.842341,-0.1002812784011745,-0.1669804078944178,9.757417441074358,0.010773160850666985,-0.004255652845514108,0.3908712307636683
1691524976.8523676,0.26219510114380784,0.09074237236662785,9.723113663336074,0.011703254149089909,-0.0011231790283265956,0.3920722047512476
1691524976.862393,0.3773188447476678,0.21160435782247647,9.817913746919189,0.011301313290239775,0.002986968081652415,0.3901947180454676
1691524976.8723128,0.6511166597716954,0.7688617177551447,9.810079592922941,0.0013515628733044634,0.013923447771683166,0.3883913795177882
1691524976.8823812,0.12943007414062474,0.555520575880593,9.985411242353948,-0.0044786400629333,0.013654966461388817,0.3891482690994685
1691524976.8924694,0.2636863533509911,0.16396255920395028,9.777742390896483,-0.006996894736938992,0.018872777390984686,0.3901444117252772
1691524976.902381,-0.7961993660613224,-0.39321264829771735,10.094933861189844,-0.0008334389689243277,0.009329424222053505,0.3882558683578913
1691524976.9124312,-0.754847621406864,-0.4053065661837662,10.117293909408064,0.004858057697469986,-0.0015711622014604103,0.3810468951885645
1691524976.9223838,-0.24116256856145651,0.3580979598854703,9.92635470306953,0.0022481105597146026,-0.005817783753231148,0.3798055390541499
1691524976.9324334,0.1284757518105404,0.2971720785920296,9.723049660328218,-0.0030357629102548823,-0.004699107766162319,0.3764129022781794
1691524976.9423432,0.30883048822055753,0.08632663907317183,9.440554610820902,-0.004334833243022487,0.002372388732258503,0.3768603841488306
1691524976.9523437,-0.1527974896143566,-0.14501840095994337,9.602167595688956,-0.0024391870663139277,0.002299236511644392,0.3765560130302851
1691524976.9623427,-0.6710243748240511,-0.027984229858581636,9.853941653260389,-0.0017611588402119999,-0.005887671990622452,0.3775965015118067
1691524976.9723763,-0.4948201345181456,-0.03138610649169119,9.784649355287229,0.0009953588933333073,-0.011526517391467183,0.381159696978802
1691524976.9823804,-0.4568260907709773,0.008931268314346989,9.93097979519767,0.0010149905676147609,-0.01831764239107398,0.3799402157490198
1691524976.9924088,-0.04651040631843077,0.3006106051800215,9.830245533390423,-0.004233387297776707,-0.018248429248499374,0.3797542194549982
1691524977.0023625,0.1526503112112245,-0.13639216289293046,9.681304733799147,-0.0004490132238330731,-0.016812391508099,0.3819753269379084
1691524977.0124123,0.3904974432801971,-0.3369075234407154,9.712163139691743,0.002012017370670662,-0.009807774714697471,0.3834053317730372
1691524977.022377,0.1284659512339083,-0.739792993906488,9.926557743168521,0.011882053034984274,-0.01019282339992183,0.3844901065056269
1691524977.0324087,0.43387369937236636,-0.2366657812820968,9.759847885603943,0.01682761255138846,-0.0032071141273522785,0.3863871137325709
1691524977.0423913,0.16839212095034387,0.3366376324453755,9.791637803912998,0.013556399285223165,-0.00022421255096711153,0.386438165110821
1691524977.052424,0.07378272095616402,0.2998888532488114,9.802205313236286,0.010478348659439654,1.910639588104504e-05,0.3891549448196833
1691524977.0624151,-0.17118162216605765,0.3877122492924018,9.784955840324255,0.006067514430923378,-0.002546507614949201,0.3888922969524805
1691524977.0723417,0.1145545485631274,0.8673742473747373,10.195384125785038,-0.003503676783714837,-0.004630331534170155,0.3949309925262873
1691524977.0823371,-0.053718935378208967,0.13221873321750213,10.126246992681102,-0.006103307453562297,-0.004655896485108156,0.3880358080093806
1691524977.092414,0.3030561165109808,0.12888621906207745,9.998327710351687,-0.008291774450469606,-0.0018323613915289018,0.3859437445824091
1691524977.1023996,0.1440938258388648,0.02002512812871917,9.80247096528973,-0.008282293190500313,-0.0009287522340012458,0.3845441977207606
1691524977.112404,0.20275064782573152,-0.1476005511940034,9.585135117775819,-0.007546561390010567,0.0006486937436499045,0.3834480683033411
1691524977.1224668,0.17928449553659948,-0.17874911484010753,9.40962586659273,-0.005151178677133689,0.003069210498245545,0.3824006358807032
1691524977.1323955,-0.02086815833607021,-0.17003590293250748,9.479062847645894,-0.003423516440704996,0.0032618940819089,0.3816030959312861
1691524977.1424048,-0.28389214160356124,-0.10817243070575822,9.731528689533638,-0.002513957530361694,0.0001669178649514442,0.3793362418835108
1691524977.1523502,-0.3695170074411154,0.14104910862658995,9.988674737634856,-0.007503521946244059,-0.003826435677578423,0.3787058333580439
1691524977.162456,-0.3730995894425419,-0.37438976520822437,10.02138485409293,-0.0022340721110319533,-0.009942919956331859,0.379532430571789
1691524977.1724093,-0.00329870128536966,-0.23010141025428382,9.831542522203437,-0.0012001550041002883,-0.007906085405387606,0.3777056674187128
1691524977.1824205,0.09640408942712805,-0.3329238668643885,9.85700483621422,0.0030294670153975006,-0.007960759114980977,0.3802448550884669
1691524977.1923523,0.4794227998966265,-0.5634643837063013,9.697618699961714,0.010604141152431518,-0.0019676724701209987,0.3813346068088953
1691524977.2024305,0.43527451511740817,-0.051908572360237125,9.603012314305467,0.012635486892232846,0.0047428802192687495,0.3825586179916804
1691524977.212368,0.09514108814722982,0.3176723334147967,9.705428534968794,0.011216179927137878,0.005532384676546753,0.3860823849861567
1691524977.2223942,-0.07598424188942683,0.4996445138009606,9.843023285457782,0.0037903652211835944,0.004594260040212139,0.3883614579861109
1691524977.2324407,-0.1382268422786158,0.02645625581842941,9.795092068768923,0.005178175460889223,0.0014713053682283313,0.3915186266128962
1691524977.2423797,-0.06062542749044572,-0.19063772259846387,9.805777318233229,0.007612555427145004,0.0003884782045567506,0.3901320437614863
1691524977.252389,0.2321635771147621,0.22608687086796328,9.781729040352147,0.006107074506610397,0.0013815767657260423,0.392824951810116
1691524977.2623658,0.40916533994630905,0.34645622996456876,9.735969278806737,0.005276006156663979,0.006241044391418461,0.3921147326652949
1691524977.2724624,0.2671894508380633,0.39095150254804467,9.829059621709574,0.0009616353505563112,0.009269449948993787,0.3870852033321802
1691524977.2824154,0.23181412870006435,0.7221543756902965,10.032825671266403,-0.009452425265840796,0.013548249772983993,0.3851643542473261
1691524977.2924123,-0.6656699111044033,-0.26043159876700483,10.292025067554125,-0.006649021389992953,0.005654632030871713,0.3814511040871088
1691524977.3024292,-0.6452089911303325,-0.17970426161512246,10.235389147039706,-0.004027633812548057,-0.004691457720585194,0.3778915147011225
1691524977.3124,-0.08797637679797748,0.07788005115271718,9.851843242155548,-0.004543153618300386,-0.006998527412287911,0.3763630131905024
1691524977.322417,0.34782435215388857,0.08690770625580067,9.48884776264425,-0.007262177345257367,-0.002876043283568807,0.3746433595840876
1691524977.3324256,0.13519345884514605,-0.3451970075723777,9.333915320898075,-0.002662951100863537,-0.0007532635766595135,0.3705590109054987
1691524977.3424354,0.21694755864425538,0.003986466551973382,9.429072769315564,-0.0011947073521714206,0.0023279492293295607,0.3746217827026789
1691524977.3524823,-0.5358538038019145,-0.011311900304990092,9.795885699636173,-0.0005637369274768392,-0.003942410229275537,0.3743509988014643
1691524977.3624372,-0.6655820039661092,0.1868942598130445,10.079000681771204,-0.0038853330800245078,-0.013289482067059093,0.3732200304691737
1691524977.3723876,-0.31797229871990423,-0.001404643083494705,9.924793778831003,-0.0007772686608893513,-0.018206003922039787,0.3762224952404444
1691524977.3825035,-0.01824097329391578,0.10866218110585782,9.89136071361704,-0.004575032570200271,-0.017610381059214433,0.3732624689762537
1691524977.3923786,0.37610350859006714,-0.4117561820126814,9.782868724106464,0.0015176826459109352,-0.014416313096928477,0.3730892578785365
1691524977.4024086,0.8029269532496887,-0.5917799508501401,9.606585500075955,0.012257780812568694,-0.004447222425202104,0.3752772847835963
1691524977.4125526,0.7031770101138259,-0.08755173422155513,9.667727274817143,0.013272243236301714,0.006526381868821465,0.3752901295845454
1691524977.4224348,0.028477537176483825,0.3296587239859238,9.865336506596675,0.012339298139643946,0.0048311315604762095,0.3818146328155939
1691524977.4591312,-0.06402796293246103,0.1207409705931725,9.782514722797755,0.00950997640496848,0.003455362703857889,0.3863329033081477
1691524977.4603126,-2.0310184375827016,2.0950885477735364,11.390427024445538,0.0071555565794736535,-0.0028487496368404253,0.3912328223411982
1691524977.4611492,-4.034857307123445,3.7777557985898036,13.196137228130326,0.0027015382027876095,-0.011073348062964086,0.3953694442932551
1691524977.4646032,-0.6069521198036275,0.037755504454325746,10.306327047823775,0.0032920314381152897,-0.015647697508760067,0.394483123225445
1691524977.4724822,0.709960169328362,0.6542112750346256,10.015914382272873,-0.0033938959436088474,-0.008150353854934332,0.3917904535953944
1691524977.4823902,0.7019576035293666,0.39509099325167274,9.918584294955894,-0.00732600110331018,-0.0010375424339868068,0.3895604948227351
1691524977.4924085,0.5800902158929664,-0.023638774377388167,9.529110327572806,-0.006786553840507677,0.008583197387886217,0.3833589891617243
1691524977.502426,0.1810230784798316,0.0012417115585594927,9.550198493299323,-0.007370080738389209,0.010596232820677284,0.3825980166618769
1691524977.5126798,-0.22356989508983138,-0.2860305539597647,9.48676896335045,-0.0017314415866096838,0.007349721549449254,0.384155188006634
1691524977.5227523,-0.39134724063652493,-0.15404728269061885,9.652016981532178,-0.0014941116602183978,0.0024122987860778415,0.3815874497120325
1691524977.5324156,-0.35373889484900506,-0.07470504716382412,9.78255504451397,0.0009145341623229396,-0.002745638055298548,0.3833200375263636
1691524977.5424025,-0.22517724650027002,0.08572117275873202,9.937202716806194,0.0008674851678304636,-0.00626472725775897,0.3856203297798579
1691524977.5524242,0.03380640956238098,0.08502046903661462,9.964734765628819,-0.0030443609510381535,-0.00440921128588617,0.3847579995815699
1691524977.5625076,0.03934525192221161,-0.498729788898246,9.91759808813262,0.002668330534747981,-0.004330551057593976,0.3840365151588862
1691524977.5724435,0.6641445790826086,-0.6501212658967275,9.859169934969701,0.010935556465683375,0.0027763662059626967,0.389620606106991
1691524977.582518,0.4061308159181454,-0.4828545663476175,9.593676371941035,0.019111042357669042,0.0100997442456703,0.387790236872906
1691524977.5924287,0.06351387808349862,0.5743671590514752,9.727241307941837,0.01295788586757388,0.012020590041094003,0.3928023020451014
1691524977.6028514,-0.3494027871346539,0.2705442194347054,9.778357479472666,0.008599696749312158,0.007434560785632795,0.3931360880558436
1691524977.6124327,-0.38710043947781553,0.19322926357825032,9.765725005497524,0.007438081948721132,0.0019576384675026337,0.3962925414268916
1691524977.622414,-0.09644630612031835,-0.11332439693143607,9.858425548496372,0.009101806148323515,-0.0016421279504751855,0.3960090915386622
1691524977.6324391,0.3426739188636438,-0.10448758497833892,9.622735352564428,0.011587570355531311,0.003975495576719523,0.395721201104397
1691524977.642532,0.44244540355295936,0.2690482990117866,9.7732411906044,0.00926062841733708,0.009198253733835933,0.3976504544441645
1691524977.6523862,0.20701143306040176,0.3668879270392576,9.756678532550636,0.007094904705159664,0.012402226748935477,0.3986879924957697
1691524977.662431,-0.06377853697323888,0.3687522898244745,9.946107206282795,0.0017763659362750358,0.01214556341721478,0.3979220430080836
1691524977.6724958,-0.7428560954267738,-0.00483428939226901,10.211301012348345,0.00173732608465775,0.0034491208436339092,0.3977747301285212
1691524977.682428,-0.8497407426550978,-0.17201318315929878,10.321360805929366,0.005398411563414327,-0.010536833911007874,0.3912257889931147
1691524977.6924753,0.029829908752765727,0.3483853440575179,10.043288092362213,0.0030304604148645915,-0.011700157085180268,0.38755962650227
1691524977.7024505,0.6612841744635467,0.6014119669971468,9.770698464066815,-0.007379995195890585,-0.004296112732870953,0.3838243226234858
1691524977.7124066,0.6478922138215938,-0.1922456120781833,9.41172290330213,-0.0043037178233762486,0.003275270660661142,0.3853863815491145
1691524977.7223914,0.5329034450670854,-0.6393134598999809,9.258967203437498,0.0032070033986219917,0.011258214240313924,0.3846401015942042
1691524977.732419,-0.10871181400402534,-0.4718493376438002,9.435730930698856,0.010200158490365529,0.011046336422456454,0.3835873643581812
1691524977.7424316,-0.5708243379437734,0.25669466193278195,9.836824225505543,0.007348681574390168,0.004386681405931965,0.3818763534252589
1691524977.7524765,-0.8051194061362267,0.6675372913823262,10.065520441457938,5.2477144783475864e-05,-0.006347647397580733,0.3819501737778132
1691524977.7626128,-0.6290504203270927,0.19312226344834435,10.118675429124284,-0.0050457575668096805,-0.014323062283048707,0.3762993554298823
1691524977.772411,0.09956561910025734,-0.6320079178983825,10.037639677955829,0.00016025364409337088,-0.01576144451996156,0.3742807845299189
1691524977.7824044,1.0229911692574627,-0.8586021691050598,9.6085699144237,0.014507203087131623,-0.0036666811763821677,0.3782080153648798
1691524977.7924538,0.7025684233353058,-0.23941177064394356,9.64298071655545,0.021349431902242557,0.005020407201757065,0.3809251527016108
1691524977.8035176,0.20182554916251308,0.5961535454328837,9.670658833602507,0.014217862757100703,0.011008557739007755,0.3837794105236475
1691524977.8125052,-0.14693718631477462,0.5835060901531076,9.79408373278215,0.009563668158711354,0.009042197470763147,0.3892797271435206
1691524977.8224711,-0.6504295844309895,0.1802883932702005,9.92921074415241,0.006405813425377993,-0.0012406862386457444,0.3907306532089655
1691524977.8324304,0.05079086802302345,-0.10437926978267204,9.760080458164413,0.009346415032071233,-0.0026209753834003945,0.3949480990593378
1691524977.8425844,0.20426700463829867,-0.012922438840110155,9.767635773651277,0.010696489144487785,0.0015765918259605693,0.3977972010796015
1691524977.8524375,0.09474589041793804,0.5311090949456952,10.147930468266983,0.009715675292533303,0.00012162226559702001,0.4036076406662409
1691524977.8624954,0.1373016997678013,0.9717173727679896,10.29631358812921,-0.003902476426654061,0.0019875096497240833,0.4006556312267725
1691524977.872543,0.08586267558429764,0.48066880741558143,10.030003469979961,-0.007944336526347247,0.0023334866577400947,0.4001146594707911
1691524977.8824573,-0.04137815029730563,-0.1223278245226385,9.826267215652456,-0.008498596785667382,0.001077660257853006,0.3939966897194331
1691524977.892449,0.05154805701410868,-0.3372393865632655,9.54305214360984,-0.0036428006953335814,-9.84263826246903e-05,0.3908123413746302
1691524977.9025028,0.40745405239916904,-0.1887201794020752,9.328960242620154,-0.001316309398239336,0.005689422697960748,0.3910730222885554
1691524977.9124937,0.014167476507071633,-0.30013095745048346,9.487427872038634,0.0036160873810088595,0.005263200177760397,0.3888319174473231
1691524977.922479,0.30293622341798776,0.0458499494430246,9.624617709098462,0.0030769851360665647,0.009870627078148503,0.3920453230564539
1691524977.932439,-0.4471678526389387,0.09371606044213972,10.00811182017557,0.002033461532690854,0.0031802376262925654,0.393571976823086
1691524977.942447,-0.30539439521377026,0.17263332181836147,9.984160919802253,-0.0008144101174530836,0.0003182576366157452,0.3951597253506129
1691524977.9525332,-0.22279799363611688,-0.1740203824332517,10.012506577930202,-0.0005530122538353355,-0.0014744582306330638,0.3911122421448176
1691524977.9625769,0.18620503158590956,-0.8640262265665885,9.964899429700196,0.008915170966540287,-0.0005890479009176911,0.3883227447693293
1691524977.9725723,0.6178054352512342,-0.4130133589940483,9.628243709589656,0.015891597859634846,0.007364859464766011,0.3894256989185755
1691524977.982569,0.31452223781499133,0.3842346380664419,9.677559113196818,0.011911482218192937,0.01214803410209171,0.3926603833858912
1691524977.9924564,-0.04465288213234172,0.2365273581825948,9.638682599218551,0.008417093965144944,0.013838494511641259,0.392324600619549
1691524978.0024512,-0.5527765701610694,0.07532551496285862,9.766086761657201,0.008499228771996669,0.006616532404293016,0.393839333457226
1691524978.012536,-0.33025187283066554,-0.07703121626701286,9.81045776885141,0.009326580219316564,0.002105857878617491,0.3942464927856867
1691524978.022427,0.13701453099760627,0.026522555079410707,9.765020567588552,0.010008386098219937,0.004040379423953724,0.3973598221962397
1691524978.0324545,0.23280326193550677,0.4602324534188618,9.950525173381278,0.004757332619217375,0.0055286361935202475,0.3991371730987971
1691524978.0425272,0.5184049315785064,0.2813541189307898,9.770067961173815,0.0027694163072789946,0.013736608667842012,0.3996982912247126
1691524978.0524795,-0.34727327321496254,-0.1510691008296327,10.011009110299172,0.004614087737918615,0.011677622331811742,0.4005714098637049
1691524978.0624866,-0.9684203894830026,-0.172750608307943,10.169013767370862,0.006637606335134486,-0.0007990683493696902,0.3967567424004023
1691524978.072428,-0.6606834584857286,0.2334147132588131,10.189761560784723,0.0043329870760984695,-0.010771160291949144,0.3939898351852839
1691524978.082512,0.14065057537615225,0.3565795645503106,9.84142258597504,-0.0001600719852955828,-0.010838930588601248,0.3906290272896235
1691524978.0923927,0.5791707565396407,0.16652993918203426,9.56903548678037,-0.0020873940526980324,-0.004104897465417406,0.3882757465069239
1691524978.1025188,0.7737411814958658,-0.3066297585585977,9.395728489318259,0.0005860900141901853,0.006193035306099284,0.3862952927772944
1691524978.112544,0.4265454906143449,-0.5530849776593129,9.348847069962076,0.00665989778183894,0.014728189754877333,0.3829230407898371
1691524978.1224868,-0.16463114043292817,-0.16568392861228845,9.655173381088119,0.008479792965715684,0.014000207667230355,0.3798446397011225
