time,ax,ay,az,wx,wy,wz
1691524724.5996704,0.027132850253140033,0.23673848344433945,9.899839246336606,-0.0007623591009674269,-5.928744982920818e-06,-0.0013184761448706
1691524724.6097865,0.06774458618016732,-0.12399113136353253,9.73921654585916,0.0027073930205951777,0.0006620241979251168,0.0002312472968419
1691524724.6197667,-0.05661682356638747,0.0741005845804728,9.872355724919625,0.0008860786728323589,-0.0006488948078914622,-0.0003905009764189
1691524724.629674,0.023487321762187745,0.07538332160560225,9.840554589734747,0.0008700832343251964,-0.0014047661180958558,0.001900189341331
1691524724.6397336,0.05446108598509502,0.031603426311492,9.798899809646802,8.96323861308677e-05,-0.0004510905257422032,0.0016971571492554
1691524724.6496923,0.025664493926560138,-0.08992432435356937,9.771712144054638,0.0006935009022955353,0.0005554827690951717,-0.0006162479805702
1691524724.6596742,-0.030956104967803377,0.08865986122322088,9.882113227547277,-0.001669444756143863,-0.0004250150183083619,-0.0016962080082798
1691524724.669746,0.1128429247172912,-0.04910626309688757,9.731723063190271,-0.00013612414470966743,0.0012964459302514234,-0.0006467883760983
1691524724.6797616,-0.04719465255957738,-0.018011808844083686,9.82841208811409,0.000578740868378037,-0.00022607156568803463,-0.0001863625186438
1691524724.689674,0.08761899249188375,0.061707898575458595,9.788852959662895,-0.000727705823528691,0.0011835601481506213,-0.0002649568307156
1691524724.699667,0.00954658942727176,0.01077167163289229,9.814359210123534,-0.0019711878424853303,0.001872733458201554,-0.0022177598259354
1691524724.7097034,-0.017460458566389666,0.08539589310047932,9.854653708599157,-0.0019145672480779209,2.1271780687948603e-05,0.0013760205800003
1691524724.7197285,0.014007106908526199,-0.17129299648550103,9.757563897929519,-0.00026574972588444925,0.0011325328131454274,-0.002378300280025
1691524724.729688,0.04877475247873926,0.12793738816982855,9.83964025433913,-0.0013986345835822664,0.0007082073675746378,0.0003318377601039
1691524724.7397544,-0.09182195107222943,-0.07455038718244933,9.845590861201808,-0.0004944932576861218,-0.0010620416637824007,-0.0009906398883963
1691524724.749681,0.23632528059510213,0.04386372723915754,9.706491152017929,-0.00013200235152271002,0.0029445048231779743,0.0007032396568042
1691524724.759674,-0.11932301450268748,-0.06856082784495494,9.872082836211868,0.0005522871862922941,0.000537230567385132,-0.0008416424791271
1691524724.769699,0.01065267656962704,0.009469049910379421,9.817326933519976,0.0011062816778119385,3.506406937811421e-05,-0.0003424199351052
1691524724.7797322,0.008962716195191305,0.20972680263939386,9.886421667405418,-0.003538816897832583,-1.1525095748601272e-05,-0.00060804198095
1691524724.789664,-0.006654401468258221,-0.1367853115018473,9.779237111537107,-0.0002937001643919533,-0.0007785443273548995,-0.0001345644525195
1691524724.7996771,0.07460690477795752,0.07172325628496651,9.790253658806787,-0.00022255076413892105,-0.0003922363076298172,0.002707459516177
1691524724.8097095,0.09838645739068412,0.0785563058181736,9.795360424237447,-0.0024901416167334976,0.0017401138419612483,0.0014304263638855
1691524724.8197453,-0.021707321481309796,-0.25217096918188975,9.755516427642238,0.0021873572672713925,0.0011492777504880653,-4.55513183901619e-05
1691524724.829722,-0.12407457080628788,0.1298754472334481,9.93810439492973,-0.0006766471963030989,-0.0018827171388479224,3.270189678868541e-05
1691524724.8398056,0.21667939518314808,-0.05909896368988679,9.68787769910429,0.0013640369784618722,0.002001650158532751,0.0009528474072517
1691524724.849695,-0.20345535030058992,0.011550089955849422,9.91418135275978,0.0005396556067332133,-0.0018562679226552259,-0.000802886421507
1691524724.8597517,0.21764885329594666,0.01811272844924762,9.715913141178074,-5.727830074861687e-06,0.0024233244726473207,-0.0013743687706942
1691524724.869769,-0.18560294139715797,0.029705203081094148,9.938684099576127,-0.00041365614691769593,-0.002246296799659238,-0.0008267331688607
1691524724.879665,0.0944747500570665,-0.12070357153961248,9.733428926668545,0.002053970995401882,-0.00028307029694982737,-0.0013564713119471
1691524724.8897214,0.05056957598140494,0.05448803065477579,9.81445564711428,0.0009687932905211977,0.00039717356308428597,-0.0013572003046924
1691524724.8997362,-0.05664615294780489,0.05955345990340832,9.863095124468229,-0.0013903948926119402,-0.0004063978380497266,-0.0028771341132874
1691524724.9097457,0.11489755310245743,0.03403149262337612,9.763926561847017,-0.001197083632194039,0.0010267374523954067,-0.0011005224480236
1691524724.9197311,-0.10408767728216206,-0.09164409758698878,9.852620095655714,0.0009218572851507624,-0.001743017337589454,-0.0009761187068129
1691524724.9297807,0.273494491917865,-0.02385881863519277,9.667374120784517,0.0014366881420299538,0.003548402291947483,-0.0007067341177667
1691524724.9398026,-0.12671671359265696,0.0998864437702877,9.9197418283694,-0.000939635758193739,0.0007994970571639574,-0.0014581603283936
1691524724.9497056,-0.0986371139459404,-0.037535882214347845,9.8646161657109,0.0008365541158863943,-0.0022850653722179814,5.0581427576153366e-05
1691524724.959774,0.01707185879476476,0.025904560416517283,9.823826873552987,0.0004383283644322605,-0.0023658830513038557,0.000179842947336
1691524724.969749,0.15559485078929164,0.04805273187390073,9.76612801613905,0.0005981391547109807,-0.0002704160893573961,0.0021497782033925
1691524724.9797003,0.022197637803985027,-0.0004821999854407631,9.804686284473828,0.00026435262626643203,5.6291216916889046e-05,0.0016133375063595
1691524724.9896908,-0.08852912945384739,0.016087775036163487,9.861431337989366,-0.0019373083917212047,-0.0008150632858305445,-0.0021357922634983
1691524724.9996912,0.039305361762222074,-0.13258931601995358,9.748009942231068,0.002941716432232426,-0.001565709809116313,0.0014449527259507
1691524725.0098643,0.009752515727370898,0.1162798678672195,9.850066028468625,-0.0004039673524375128,-0.0011324528444569303,-0.0002697990096116
1691524725.0197244,0.10265745479834539,-0.04231216405484567,9.753908332638002,0.00046848687851293216,0.000763718914765688,-0.0004545715457702
1691524725.029771,0.10943029645624884,0.1366244137808506,9.819043594980197,-0.0024022347435620384,0.0024292934789397562,-0.0001524442161376
1691524725.0619936,-0.038736601858292384,-0.024356478941643597,9.828411143847424,0.00024386780085918627,-0.0015094440134197072,0.0007103343557623
1691524725.0655532,-0.15181825871602067,-0.15318300520076988,9.851865506456557,0.0003854225598696823,-0.0021289483549722247,-0.0011936721677834
1691524725.069207,0.15504693036514725,0.030711621589833735,9.749148783588486,0.0007255483693845513,-0.0013593115280442383,-0.0003908636101464
1691524725.0719235,0.5804270782911555,0.792174646355273,9.77585156459556,-0.0022908281948976275,0.0009391688076125903,0.0024683125264068
1691524725.079715,0.010385876835918635,-0.31518501517541136,9.707669227731339,0.0007445134040254433,0.0021763699846746327,-0.0014425150404627
1691524725.089708,-0.22215176808568743,-0.062111169045100896,9.92202178177473,0.003115324215873216,-0.003386620332390681,4.202478500655183e-05
1691524725.0997682,0.16549391890349466,0.012655495745579037,9.737545857136226,0.0026198505323196974,-2.9016569836504102e-05,-0.0005849618284905
1691524725.1097152,-0.012252907719901465,0.2878125458591764,9.924839156288128,-0.003473973247403015,-0.0006571243680791653,-0.0005760378955806
1691524725.119769,0.06741329288546628,-0.047338972152921065,9.789931047642176,-0.0006427570045129936,-0.000737940986339025,0.0018178538482693
1691524725.1297626,0.045840233076309946,0.016348954535879364,9.797243885198684,-0.0018769501649797751,0.0003159369880128119,0.000677166058967
1691524725.1397414,-0.07413478273400448,-0.07680298991664399,9.833922800910944,0.0002718042369107589,-0.0018234900187273713,0.001280296218983
1691524725.149754,-0.020556982478815433,-0.07063688835010942,9.809858521480193,0.000792620989350101,-0.0021673436960218634,-0.0007615131146217
1691524725.160007,0.2326907902268999,0.06831281224273462,9.72480860439951,0.0007281512766340089,0.0016764208492089981,0.001248626903834
1691524725.1697607,-0.07922758721956931,-0.0631512368555555,9.845362812515207,0.0008424956614449875,0.000589015899426562,-0.0012245953368897
1691524725.1797054,0.07633236566625973,0.13710771335821867,9.835662278905927,-0.0008938502621227742,0.0009354579345301613,0.0008649249682725
1691524725.1896968,0.01057941815603189,-0.03744750273442506,9.799081379958158,2.2475502404461165e-07,0.0008520163654897073,0.0008627058885117
1691524725.1997278,-0.07499230059902157,-0.020724885148439297,9.86056721333854,-0.0007958487342977437,-0.0004935616505097161,-0.0014253887168074
1691524725.2099442,-0.017186696115167197,-0.061998595084598145,9.809127672788742,0.00048154331490300105,-0.0013392140015425897,-0.001381051708659
1691524725.2197394,0.09691540744567999,0.05309655357505178,9.791845337513623,0.0005780303893292729,-0.0005345471411216406,0.0002867634355147
1691524725.229766,0.04663366031718191,0.05528066961760803,9.819745010228111,-0.0017629523984265178,0.0010021511303176377,-0.0022359934921319
1691524725.239721,-0.06716097198389594,-0.05712111771395027,9.855235892365545,0.0007315169524723979,-0.001567186319735899,-0.0005391198030615
1691524725.249875,0.07857249114006382,-0.05491874935809014,9.743951835443543,0.001067892973184706,0.0004940332364596334,-0.0018984807941074
1691524725.2598765,0.017005816474093043,0.060970169537841054,9.820492355446433,0.0008015337513257905,6.821089377795774e-05,-0.000502257240651
1691524725.269808,-0.016597981410844682,0.16988775622037458,9.883178810722017,-0.0024875193245801753,-0.0005989972100611994,-0.0004486150394136
1691524725.2797296,-0.024266065414425237,-0.10839425252425675,9.798829248828444,0.00010677119205367048,-0.001601466701897593,-0.0002813462453837
1691524725.2897508,0.1501795933145226,0.12535641579097406,9.787756178691629,-0.0010886759410973302,0.00026005925963075004,0.0020968835049366
1691524725.299867,-0.028458478195434636,-0.11782134817118552,9.786997777708011,0.0014076457019163112,-0.0005464633074809568,0.0018368670896684
1691524725.3097453,0.04821819905968484,-0.021040718633659593,9.787138087951286,0.0010380950156222454,0.000647863665158819,-0.0001360595744977
1691524725.3197658,0.10491012573112672,0.03360386755265666,9.78200214123253,-0.0007001289085069083,0.0029593970262163935,-0.0022084533522779
1691524725.3298483,-0.20764138808298083,0.02997550509855886,9.928628138014322,8.739698048614425e-05,-0.002381923685573151,-3.1747138773889454e-05
1691524725.3397582,0.20995931795048384,-0.060034329485456346,9.697168930462217,0.0022413615376189267,0.0010110856890342594,0.0011834549402642
1691524725.3511746,-0.12103806449318227,-0.029976596442806282,9.880911787210103,0.0017920824177353563,-0.001434569486335738,-0.001505860342359
1691524725.3599217,0.09494091728592097,0.04388866510693598,9.78610755403269,0.0017976626671058053,-0.0003806636876047349,-0.0004873585241789
1691524725.369735,0.11958831692892538,0.0536481302504529,9.785882006381362,0.0005563881882504411,0.0016630195928940726,-0.0010807935434336
1691524725.3797104,-0.029425078742272195,0.12002219760391378,9.86871183325769,-0.0012484992855877708,0.00034014303088603635,0.0003955333557037
1691524725.3897502,-0.014082906727674809,-0.01512230540505982,9.820742636866648,0.00029638948849506296,-0.001064656988992327,0.0026333311286812
1691524725.3997598,0.09427510960301755,0.018618481452714147,9.77017765858065,-0.0006844770024652736,0.0010960192004770713,0.0013376703243643
1691524725.4097488,-0.011469524932914853,-0.049970906882603736,9.817018478775013,-0.0002754431298824615,0.001009971435095178,-0.000165845133079
1691524725.4197674,0.07460324712885105,-0.04392544342357611,9.765843450199256,0.0013066608906688577,0.0018630745622816624,0.0005732595052627
1691524725.4299033,-0.04511361622727644,0.08795572517841087,9.882827753415008,-0.002486381246157129,0.001593703889612914,-0.0029035953159386
1691524725.4397542,0.030853145419645858,0.05283701280920142,9.827993523583249,-0.0017886609420836477,0.0007480715954112141,0.0001649414368962
1691524725.4582736,0.12188838210909034,0.032636399363619804,9.76919897576367,-0.0025866244736274693,0.00430348793579175,0.0012895846737314
1691524725.4635327,-0.4878219056216991,-0.3932754693763593,9.953892495817477,0.0006540074384946133,-0.0005732772693437548,-0.0007630330330635
1691524725.4697146,0.08294775177246996,0.1168631083179005,9.810576430513716,0.0004278897143577005,-0.0005092073000159141,0.0017351563617644
1691524725.479859,-0.07216140728783665,-0.03856789875136054,9.84522244650873,-0.0004892821965770024,-0.0014316135560044833,-0.0013605633105094
1691524725.4897156,0.07878226199931714,0.03603924864444568,9.79093327004039,-0.0012343339663576987,-0.0001497043168511418,-0.0014406454103941
1691524725.499852,0.04211939449258855,-0.050991061670933764,9.774228701341258,0.0021586538987670555,-0.0011294626106512233,0.0025845334346463
1691524725.509831,-0.019901929228603392,0.02303049568318298,9.838263078133599,-0.0009925586734292663,-0.0002737365172745289,-0.0021320523048693
1691524725.5197964,0.17859348237107175,0.0938255163423029,9.762870685047316,-0.0016783992612505656,0.0022560735917746947,-0.0001177941269184
1691524725.530638,-0.06397604097577997,-0.04546958280204688,9.84027732474936,0.0001626210588475646,-9.681522467527249e-05,0.0010552875644584
1691524725.5415304,-0.013313028800593122,-0.04679308700958851,9.814588972592304,0.0006189942669508094,-0.0004480952682015087,-0.0002176364471147
1691524725.5511968,0.01785446696927599,0.03276276631664278,9.821550831449601,-0.000202810047261122,-3.981180223226092e-05,-0.0010088861274475
1691524725.563108,0.03132661915695645,0.07964029314433894,9.847173840476625,-0.001076016403819131,-0.0007148475480722636,0.0009636429201868
1691524725.569747,0.2216228066144623,-0.14418311599795436,9.650400506176773,-0.00044387402787469455,0.0030454495838001324,-0.0018787749397511
1691524725.5797377,-0.06366515572537063,0.05481526772194781,9.874132532140496,-0.00012121920948687075,0.00029098406464786745,0.0006488664255534
1691524725.58979,-0.0631131464181937,0.036973731169861315,9.867280476875637,-0.0015442713928539515,-0.0010612883319477428,-0.0004992644355575
1691524725.5997396,0.08347827437306488,-0.14714576120306044,9.72697895126047,0.0019973532965361683,8.237436107828853e-05,0.0003381644089763
1691524725.6097653,-0.05943107065216776,-0.050180082212950436,9.83662213022125,0.002457808561018228,-0.00090930187499819,-0.0013177136245126
1691524725.6197555,0.16118166159156935,0.1235728371972293,9.778566252444211,0.0026705021260481584,0.00023960016174112838,0.0037207326565926
1691524725.6298325,0.01821804125154824,0.11977153491584772,9.853005610252405,-0.0013200127540398121,0.0011634436386138251,0.0010720461466639
1691524725.639815,-0.05376956291801312,-0.10348160775046092,9.81772464312686,0.0010220922722761704,-0.0004261553819003789,0.001322029212833
1691524725.649864,0.0049205927028769,0.09374294606851971,9.85986082758779,-0.0002605340940237056,-0.001387258769592297,0.0024507710657139
1691524725.6598284,0.04242388143239074,-0.010645262401073694,9.790813538168326,-0.0012786697967233562,-1.2260314599396975e-05,0.0001150227797274
1691524725.6742637,0.025963186810731675,-0.047606938415035736,9.782496405592134,-0.0009031535441296036,0.0008710201665664401,-0.0017677293910587
1691524725.6811695,0.16415435838256034,0.10066975296530074,9.763967010184345,-0.0006069900027517835,0.0019181916734611775,0.0015347285841648
1691524725.6909688,-0.017157876793987736,-0.05308356714528834,9.803434080199468,0.0005392870201259192,0.0013083514220031387,0.0011849465042991
1691524725.7022867,-0.08018524517532456,-0.09474753004460847,9.831003027267334,0.0014195583815245032,-0.00024544980803513193,-0.0011236348475272
1691524725.709941,0.07288211771841142,0.08451462270398036,9.813628321893896,0.0005839962883552467,0.00031293231964079184,-8.652671770551911e-05
1691524725.7198095,-0.031435278309272174,0.05913656750015808,9.864759530272671,-0.0011724972095121305,-0.00027897789613091017,-0.001479393086111
1691524725.729773,0.01699247250237787,-0.12314140212199706,9.79167175840051,0.0016315178745857882,-0.0005166395526856393,-0.0016291644244397
1691524725.7403755,0.16405615660728182,0.05571177704574963,9.736876488078115,0.001323055176100735,0.0022210810570655313,0.0002443152659629
1691524725.749765,-0.19900300679014007,0.10396470560184773,9.96194925648734,-0.0010965000241338326,-0.00195052748582524,-0.0004098675965274
1691524725.7597425,-0.04629384894655636,-0.05989256938949554,9.821757931924973,-0.000906113433734594,-0.002476542234473179,-0.0025031000661606
1691524725.7697694,0.25643973870565573,0.03000168650329887,9.692129501809672,0.00024272842712748401,0.0015240444776786427,0.0005806609003861
1691524725.779795,0.02563691326274733,0.022205345838429796,9.823416960208407,0.00031614072505920096,0.0011802073628548566,0.0013104733404993
1691524725.7902606,-0.08973975157499355,0.036996477505979924,9.880305037416214,-0.001055523941843863,-0.0006943596776206035,8.373662764778623e-05
1691524725.8001273,0.09208597984374313,-0.13900926365415658,9.730881273938948,0.0026410765835203098,0.00030477683139733854,0.0012400235102809
1691524725.8098185,-0.061133399798281654,0.1091262147857096,9.886601058328564,0.00016675033194040828,-0.0012017375968140522,0.0009025514480249
1691524725.820893,0.03665806324494546,0.036817299937864666,9.809701926749405,-0.00045836183982646083,-0.0007666208085458989,0.0012504905887631
1691524725.829873,-0.001647358491411664,-0.10060626365164983,9.788614546899048,-0.00019684004475877662,-1.4849663838138488e-05,-0.0022877817793692
1691524725.840029,0.005220660928905251,0.11113585299290035,9.856391390708183,-0.001181797070190782,-0.0011149399904983688,0.0001530189945419
1691524725.84987,0.08376282771278472,-0.1353123221476843,9.72992718117561,0.0011479915507212645,0.000514128363370272,-0.0010748291208351
1691524725.8598409,0.07933820129018086,0.13035454784759945,9.822073327894442,-0.0001446662427310292,0.0010140614523792052,0.0013898229115234
1691524725.8698697,-0.04628116276322801,-0.18211046026901898,9.795426294060753,0.003979219190340653,-0.0006370131684615138,0.0016014402097148
1691524725.8797972,0.007703879802985964,0.31249903130054024,9.916520702178941,-0.0021380874528931313,-0.0009465485217771749,0.0020618554151674
1691524725.8899095,0.03334325049140585,-0.08411068698806916,9.766411655198956,-0.0005537271527742932,-0.00011730703711843392,0.0011517798227664
1691524725.899797,-0.017556590798814227,0.03487606406111856,9.84189021257165,-0.001996533044955454,-0.0006440758779175779,-7.533489791104308e-05
1691524725.9098828,0.22750098326108817,-0.03221377321416151,9.686685955012308,0.00019542754955514675,0.0029035419342592736,0.0025513188627605
1691524725.91985,-0.18328831504574977,-0.08433448653029679,9.893801263836389,0.0006007478558675797,-0.0005587488949240886,-0.0001543027867505
1691524725.9297817,0.0425246651514447,0.003709475661345992,9.787919189577954,0.0013417052069833529,-0.00025961636230807113,0.0005877537366991
1691524725.939912,0.07573330541818576,0.11942654402453405,9.821959197429337,-0.0006077436004484349,0.0004969910942867347,0.0013909428414713
1691524725.9498887,-0.03335074060488323,0.08986925983409871,9.865477080318461,-0.003061213127746742,-0.00023728096066924647,5.018456774404535e-05
1691524725.959939,0.016212878564142875,-0.08364924314006335,9.794113338013906,-0.001122203248457911,-0.0005788716643558243,0.0005177257878763
1691524725.9704144,0.02665742909137795,-0.17795806099170758,9.743420423145404,0.001440392343055608,0.0004403905102833705,-0.0021324513765926
1691524725.9797697,0.10651092161655858,0.2135457918066365,9.837167803229105,-0.001034295870036986,0.001115387220616263,0.0010545476432248
1691524725.9897912,0.007039080162452506,-0.07050935922790069,9.790139382726379,-0.0009478702739303484,0.0018146286299297047,-0.0020683654404188
1691524726.0001333,-0.09797415252466801,0.0873149229591975,9.91457645578972,-0.001354663027196673,-0.0016517502846821977,0.0005125166678858
1691524726.0098326,0.0559436368325857,-0.07723729325213718,9.763206060724048,-8.43298749378892e-05,-0.0005632222253507783,-9.764666383953008e-06
1691524726.0201051,0.049344200120441904,-0.006541170541475329,9.793246430911225,0.00026099017650837693,-6.551670437070427e-05,0.0005445443273579
1691524726.02979,-0.09630224858853008,-0.13269927068696719,9.824265883101676,0.0013521377254091063,-0.0013410733469611544,-0.002396937441727
1691524726.053615,0.08759193255633825,0.12777573481477333,9.81757236943972,-0.0024532449664057022,0.0010025136785216263,0.0011007716418766
1691524726.057897,-0.053978529981444964,-0.5720857324171268,9.649547514189397,0.0021575446586839953,0.000814006899619751,1.7032743716745465e-05
1691524726.0602243,0.0791652168601365,0.46001371761492127,9.951652811026854,-0.000574600835184045,0.0013552889866075603,-0.0008107253636176
1691524726.070256,-0.08942333033860513,-0.10634099785600155,9.833939387920845,0.0015939161264820814,-0.0009309230747542129,-0.0008073497849459
1691524726.0807517,0.057223035979856514,0.05957159544650585,9.819009304211336,0.0005236198703439022,-0.0001046476209076249,-0.0004314874351898
1691524726.0898345,-0.00950316776594614,0.03086282787911896,9.837317558188564,-0.0003614927993456633,-0.00032667121782585284,-0.0011407674576098
1691524726.0998476,0.010499966084352668,-0.006751600005670338,9.806094576011171,0.0006484289773731084,-0.0008094711664490339,7.96300771703411e-05
1691524726.1098664,0.11047617314854981,-0.10692339467625081,9.72531668137367,0.0035981093599561,0.0006139807940496346,0.0011186366789565
1691524726.1198342,0.04755139770292267,0.08525421546319888,9.8189614761769,0.0012493170225547287,0.0016909406197848531,-0.0002474844043085
1691524726.129938,-0.059004619342218165,0.07981991570586455,9.88367813294766,-0.00041849609683024665,-5.919401225962977e-05,-0.0002873054292927
1691524726.1398876,-0.0838341298103893,-0.051290179949439164,9.840047254888816,0.0007177368196680997,-0.002162099238966313,-0.0002589868201816
1691524726.1498592,0.02215700693968052,0.07068513266193358,9.833270718483783,-0.0003711802164519712,-0.0022008655784985826,0.0004804749221598
1691524726.1599052,0.2093297071662874,-0.059022554865488824,9.690594672031011,0.000599239240250045,0.0021134035783984726,-0.0005726582423726
1691524726.169762,-0.02345946833069272,-0.03455291156259584,9.822171961934258,0.0013483886614385498,0.0011250969931885506,-0.0004027966462949
1691524726.17987,-0.04457617663927089,0.11059492338959359,9.885406436923411,-0.0018382143618619997,0.0005346267653140137,-0.0021912911727035
1691524726.1899188,-0.08182721172832569,0.06589358749249986,9.898427176364308,-0.0023183834632060276,-0.00235323404194308,-0.0008826080995554
1691524726.1998196,0.10241253640687156,-0.1333108868166804,9.713345129709973,-0.0009273765647427676,0.00027793176786009173,-0.0028387645545358
1691524726.209922,0.11142342960567501,-0.021133032946224768,9.759415458299914,0.0011237684563268333,0.0012510039914772103,-3.358859633454791e-05
1691524726.2198412,-0.031060498748545398,0.07046391714280535,9.87097293741224,0.0015976316323777734,-0.001016586231723586,0.0028918592904751
1691524726.2299056,-0.03488193953882478,-0.07388602499098335,9.826209453053368,0.0004100261431122013,-0.00046934720688606417,-0.0022665425023938
1691524726.2398036,0.03057031669210777,-0.04746024906626564,9.78185788863969,0.0025252283562133865,-0.0009808522409109615,-0.0001505929796899
1691524726.2498777,-0.004890621982204681,0.031263710862323664,9.827394832050093,0.0009967523536789213,-0.0006787061498224173,-0.0019834253291542
1691524726.2597976,0.1426622714026045,0.07130824518216883,9.760329682586908,9.262225788587378e-05,0.0018388460107408523,-0.0009947314212972
1691524726.2697875,-0.1488082032715361,0.08068931857685908,9.943676730509452,-0.0028131151906134323,-0.0012047381928329988,-0.0033040467935557
1691524726.279818,0.16062562601616698,-0.008106552843377168,9.733341091811873,-0.0007556416990429135,0.0007160473174326211,3.606117731532344e-05
1691524726.2897851,0.04727007647943852,-0.27369095802574817,9.69716264267373,0.004060406442633201,0.002118653082213252,-0.0017777636933083
1691524726.29979,-0.12594697283256964,0.1354169581324612,9.926813754784806,0.00153206398866389,-0.0010266391597912514,-0.001050248258462
1691524726.3110647,0.09081477233837228,0.04650244653030459,9.781822672072625,0.00112451682763823,0.00044112052746982935,7.553994125327358e-05
1691524726.3198135,0.06581657629553347,0.08611183491349482,9.835734678574012,1.8098653281143335e-05,0.0008907573365480379,0.0008869031623994
1691524726.329815,0.03549973368732114,0.0028077706386165323,9.801416510029142,-0.001272708287945244,0.00203999875060556,-0.0015345446119959
1691524726.339796,-0.053583534933272225,-0.025505682011569233,9.845094463395188,6.058437082925911e-05,0.0001214888443581958,-0.000299584568193
1691524726.3497975,0.013473624688180731,-0.04012265734970303,9.803160149042405,0.00036380317685878483,0.00033159311142746435,-0.0014093713655079
1691524726.359846,0.12399537713092026,0.10651481199685259,9.796980567276705,0.0007732295364760614,0.0007856856648419721,0.003623152868176
1691524726.3697877,-0.022508828038227152,-0.038777125044428255,9.830398028719033,0.0005139362685875706,0.0005756011885224633,0.0015365977485721
1691524726.379781,-0.008180526769816295,0.025055267175949986,9.832441038236686,-0.0006628696890749527,0.0005845403922930168,-0.0002537733928243
1691524726.3897903,0.030889549817379933,-0.04570710948736723,9.782541848606764,-0.000983209426874428,0.0019755722529191558,-0.0028305568086857
1691524726.3997984,-0.026391698157777078,0.06684864914953148,9.85845896724137,-0.0005269030095706589,-0.0003974491456294476,0.0008120260206574
1691524726.4098651,0.03278776598507672,-0.033237557560557726,9.787251710675257,0.00023716123822209735,-0.00015232511195249518,0.0008656737225187
1691524726.419846,-0.04735496526267566,-0.060874961010368774,9.827606978999068,0.0013584658788304387,-0.0013596735882137965,0.0002878711855096
1691524726.4405935,0.03129021797953835,0.01407153396389023,9.81497731758332,0.00046998034052527616,-0.0006287867950145791,-0.00066766094481
1691524726.44586,0.031026717238025477,-0.1647555126219371,9.744900151887318,0.0013893801252168228,0.0001602585561902836,-0.0025533924165124
1691524726.4498074,-0.2972049988856122,0.2945668850513732,10.086414578517948,0.0008637542723153569,-0.0037137037685414545,0.0010202776936871
1691524726.459979,0.24000538581197614,0.11390731337472851,9.736756948024622,-0.0007921491111799221,0.0006653711653041463,0.0020048764015605
1691524726.46987,-0.022662342998223672,-0.0776275846958265,9.780533148012651,0.000136560792711978,0.00042882607766933547,0.0010560405678638
1691524726.4798236,-0.03298962724887408,-0.15256553729552508,9.789743901595127,0.0022719028739384313,-4.538374116595626e-05,-0.0010409096541757
1691524726.489859,0.1480969311890699,0.11034844049684178,9.782898687670333,-0.00022741202192670288,0.0028930974265260656,-0.0019271820603812
1691524726.5000331,-0.05672178291441286,0.06403783775300045,9.870586429330341,0.0003761052632956664,-2.4543560724063632e-05,0.001666233136138
1691524726.509918,-0.06292383975317226,-0.021234879937940758,9.850917812832536,0.00039958178300319454,-0.0014621368372103069,0.0008824339199868
1691524726.519973,0.05607168605670638,0.005412872968984031,9.80216596755023,0.0009810978434337404,-0.0008884495230160043,0.0017761416563821
1691524726.529858,-0.026680149519347062,-0.05516821406081744,9.81600938026659,0.0005072480059272594,-0.0008835976002750797,-0.0014596506773436
1691524726.5398731,0.02028697023707468,0.008656386956440377,9.813277385518788,0.0009147885391396552,-0.0012136764478026425,-0.0003148760699609
1691524726.5498586,0.12030287344086896,0.11676637209883275,9.799002587913355,-0.0016284807107033242,0.0011556108628750761,-0.001153071858635
1691524726.5603204,0.07114401326679758,-0.11085642536928994,9.737929534000708,0.0015305837884279153,0.001992695701094035,-0.0004493382113928
1691524726.570707,-0.033974733190343005,0.08675785260359978,9.863728825334803,-4.7835907438453066e-05,0.0008058203099488615,-0.0001051446708793
1691524726.5798602,0.16204146174753578,-0.019017554380612565,9.71846782497081,-0.000469903882664514,0.004164160710617614,-0.0012421177054698
1691524726.5898924,-0.2162990410443833,-0.040367315416489885,9.931258353739311,0.000759420889898374,-0.0009528776099839326,-0.0008844772639627
1691524726.5998678,0.10749039827548235,-0.16672241392483608,9.70594734483615,0.006099292024257648,-0.00024101523752678632,0.0021519659383279
1691524726.6098344,0.0901313892277431,0.32029071026407785,9.881003245196046,-0.00017263684964420584,0.0013292246626979978,0.0021974591252451
1691524726.6199458,-0.10377740490191917,-0.21126556965597607,9.812387667971501,0.0032244677759356083,-0.0005807296437271654,-0.0005417427566776
1691524726.6298895,0.029430343746444,0.2621088143037745,9.892152173230746,-0.0008543500582346748,-0.0011797609190116482,0.0021404660253842
1691524726.6399152,-0.025031246108264862,-0.1527992576142634,9.775043581232916,0.0011506055007724863,-0.0011380475395385938,4.3872761825232594e-05
1691524726.6499212,-0.04142948797789587,-0.04537945914564327,9.818601280602213,0.00237621979177389,-0.0024802633550032463,0.0005206960083973
1691524726.6598957,0.13975133052852948,0.08300816472827716,9.783309596310456,0.0009516602363935927,-0.0001374231025091938,0.0010903031250286
1691524726.6698596,-0.03436739595385994,-0.02234707601564619,9.840507089405133,0.0011215385964675397,-0.0011026538081674098,0.0002834095100929
1691524726.6799006,0.007998154923813068,-0.06110833485257825,9.800968493060225,0.000866736219087633,-0.00032370123054845524,-0.0025813402428234
1691524726.6898491,0.10348453315559483,0.1606011488600222,9.818117919493314,-0.0009687261937327263,0.0005815588827753073,4.8726931499450295e-05
1691524726.6999345,-0.015581539450138314,0.02494697906859282,9.836107647511431,-0.0017778736168139581,0.00011551977607702327,-0.0005026208057011
1691524726.7099855,0.055821191288008117,-0.1225926743672526,9.75346847152914,0.0003429552294026763,0.0011872957301249764,-0.0012007353181893
1691524726.7198503,-0.015784502250501563,0.09946946805962736,9.866929693593343,-0.002144414744637246,0.0006776491605680067,-0.0024293621356541
1691524726.729887,0.13984339421160227,-0.12806714392559965,9.691407980830885,0.0015149098086772686,0.0028025896028739737,-0.0006985683978478
1691524726.7401805,-0.1904041002437043,0.04927929391502715,9.948309129013692,0.0017947015139411122,-0.0025692940975582264,0.0017168925148957
1691524726.7499497,0.026881649623979553,0.014651091276738583,9.805493900266718,-0.0007433433541719562,-0.0007636310879828262,-0.0025720197993273
1691524726.7599795,0.03424253632109572,-0.05303842426257615,9.786520041591897,0.001302959282938591,-0.0009197305136406837,-0.0008982620022202
1691524726.7756171,0.04196451039475467,0.0038718381092509887,9.792881504684678,0.0015939176066760556,-0.0002603465484302241,-0.0001770087803656
1691524726.7811968,-0.010558638901757712,0.19084481673332027,9.894383091847423,-0.000394270900797368,-0.0006667793660160858,0.0002476414845382
1691524726.789848,0.1754103012650835,-0.03442734590243369,9.713985710581907,-9.291912123854174e-05,0.0023350600069130894,-0.0005949954322482
1691524726.7998683,-0.1396093787971014,-0.10508011259855705,9.851831384225555,0.0011681014687894451,-0.00022644963213126212,-0.0027076259541268
1691524726.809872,0.07220866363992794,0.04052246337597988,9.79427888709471,0.002369514711878867,-0.00036578638749023326,0.0009856435242631
1691524726.8198483,-0.0016284453866499474,0.24051861411228423,9.897665605207,-0.00247151062313018,-0.0006735056511026349,0.0011305397163318
1691524726.8299425,0.04347236995100231,-0.0373989808256421,9.778674622023003,-0.001987963839197823,6.150111227205723e-05,0.0005035755637159
1691524726.8399413,-0.07732587183729069,0.014978034912672222,9.855052187295621,-0.003248962953824576,-0.0012583466260351636,-0.0011400247278566
1691524726.8498309,0.11038139992195867,-0.10993980723625824,9.716455299456364,0.0008961677769245357,-0.00041832014998610683,0.0020264801167008
1691524726.85984,0.09177825126403323,-0.041260653825240225,9.757634105836853,0.0009836838902983942,0.001744969429916775,0.000380249537347
1691524726.869838,-0.044587059483287866,-0.10904504732697913,9.80929280551967,0.003629402410345396,0.00038339425517734194,0.0006827996292208
1691524726.8808515,-0.017398492662580835,0.06726258127577901,9.853652275910784,0.0008130972436333769,0.0004787293006208322,-0.0017133459734673
1691524726.8898866,0.05580324851079813,0.07253121750499346,9.813585481901134,0.00038207196077340457,0.0005659118242036478,0.00022493258054
1691524726.8999968,-0.10140499602591839,0.007690588685559978,9.879848576974739,0.0003880286041427565,-0.0022057157835873222,0.0002737289357987
1691524726.910016,0.19562942143784817,0.11854766444336419,9.751700427713272,-0.002054648988376859,0.001600039891405749,0.0001548726757114
1691524726.9198935,-0.07701447704409686,-0.0900685544553306,9.830959418248778,-0.00036149993959810997,-0.0002461987773857168,-9.991995123574248e-05
1691524726.9298365,-0.013793391908363685,-0.11029376540021629,9.727088390269605,0.001957409776145964,-0.0018379627042236677,-0.0075862973282987
1691524726.939869,-0.7536715895985195,-0.5262146505855494,9.931768581486349,0.006995156283552002,-0.012849095010424022,-0.0404590254004056
1691524726.9499416,0.01229109278076167,-0.4189249180893912,9.960705775761127,0.0067913781231865285,-0.01385510647098051,-0.0839785595710332
1691524726.9599648,0.7899224915748736,-0.11619645001962653,9.738659761650224,0.0018322027221313257,-6.53843617477981e-05,-0.115828286605602
1691524726.9699886,0.3082619639338155,-0.4333468335215159,9.817291309759925,0.0019884247288618224,0.0046367123921329904,-0.1316429187829549
1691524726.9798758,0.06440270644906368,0.12872029736667445,9.477156912300808,0.005213028626778872,0.006278881997863563,-0.1192239036138112
1691524726.989885,-0.05901260782231247,3.076849715632655,9.303637213237282,-0.03850082942288919,0.01300908313737511,-0.1258137931401784
1691524726.999969,1.1754961747423962,-0.5498772805709922,10.480698909808542,-0.0598879705411468,0.0382486616436777,-0.1310140599782521
1691524727.0098512,-1.0335456990843461,-6.427173008050692,9.982963604249301,0.01749385607771476,0.008887496963584924,-0.135417576628452
1691524727.019913,-1.8737324596038532,-1.0601669710177595,10.13670702994574,0.049893210043343086,0.009791815201748103,-0.1597032507236058
1691524727.030026,-1.8444722132055493,3.963845840500411,10.913932838482763,-0.002161997065234246,-0.025470102023794423,-0.1814761718089635
1691524727.0399375,-0.004381867850025866,2.34896519825752,8.776845972931067,-0.028740619192791295,-0.01644935415512036,-0.1940376420791203
1691524727.04993,1.1047997576224322,0.20520381528742115,10.018357070926065,-0.05200602245918177,-0.018365893348652653,-0.190147127705341
1691524727.0599542,1.6197941603008372,-3.3413986561271023,8.492879428332522,-0.008584136709116563,0.009603853241750357,-0.1827183028037602
1691524727.0699077,1.0929556560674942,-2.9856020276173574,9.515953108626983,0.03113183196189372,0.015520249548162687,-0.1893558462436253
1691524727.079983,-0.12741483008411147,1.3828772343173434,9.781523961255253,0.02308890217493777,0.023978456987375472,-0.178529079752689
1691524727.091164,-0.22416850442965078,1.778878635381796,10.70615526814871,-0.0027193731787971552,0.011748138449648551,-0.1686443646724278
1691524727.0999808,-1.8607660171108469,1.0033822895838562,10.705146744882624,-0.015332334080537616,-0.0032926849837061167,-0.1699033488805348
1691524727.1098928,0.0949973774986455,-0.6203135111476349,9.85726005994624,-0.010213763538538674,-0.012161629038028697,-0.1718137820537144
1691524727.1198657,0.2021449079927456,-0.7522908273906471,9.219280413146029,0.003800632801643867,-4.923454509549216e-05,-0.1798408438737447
1691524727.1298904,0.6756361572291191,-0.471498235806659,9.393508781189796,0.007429345443026689,0.003976246364362439,-0.1937457879359776
1691524727.1398702,0.054134152656627514,0.31354870015413455,9.427404662739573,0.0057760743596794685,0.014262596902778781,-0.1957205345208699
1691524727.1500068,0.20298446018964098,0.4189692833297398,9.996898372887655,-0.0012592868521689577,0.010122969530247803,-0.196329589682346
1691524727.1599798,-0.9623298360975264,0.06827582300906429,9.958515869016816,-0.002476637598149313,0.003949610795006154,-0.1957811375434453
1691524727.1700685,-0.06470504015833262,-0.10257627399345086,10.157680117546587,-0.001987455701785845,-0.006030722341599097,-0.189174022274738
1691524727.1799498,-0.25067850866228564,-0.5646084937635623,9.770789182760845,0.004280019173592261,-0.0020488393894497192,-0.1968952079589421
1691524727.18993,0.5854424912240296,0.013902881585573235,9.741556813395825,0.0015227330389707549,0.00012486376277518984,-0.1967367341096455
1691524727.1999342,-0.0754007938836033,-0.06606191144973313,9.606091324946737,0.005690800325681511,0.002784852935331165,-0.1957623173768574
1691524727.20992,-0.10041299941937205,0.03386275420200784,9.880030125802339,0.003495081619976383,-0.001072960554954064,-0.1985076626117284
1691524727.2200189,-0.46819692722723777,0.3131390542933921,9.89175523778614,-0.0005582405009785518,-0.0037425393097819722,-0.1984827478702122
1691524727.22996,0.1444756384105592,0.27511814974452276,9.85011226550506,-0.0033598595405570416,-0.004573822456831287,-0.1946945150668675
1691524727.239933,-0.5208684668049113,-0.2722578885538207,9.878979561596857,0.0001650570451484109,-0.009308076625715783,-0.19965362151218
1691524727.249954,0.5231199323847427,0.051312321522454615,9.728551269973037,-0.000901049280062357,-0.003883507066995246,-0.1979812939937169
1691524727.2599626,0.03581341821313141,0.17879691383608634,9.755186392545117,-5.55746610657451e-06,-0.001477470013895137,-0.1956202497060353
1691524727.2699037,-0.032236708097827284,0.009347652783670345,9.939618637517867,-0.0015060160913723667,-0.0041777670246991375,-0.1981292327220494
1691524727.2798748,-0.06517723953594648,0.1269000317052627,9.648181340647698,-0.0016186032435545159,-0.0004367592103076843,-0.2004423250730092
1691524727.2899857,-0.18597497130094257,0.10089939477515482,9.998195431687185,-0.0035453860833430935,-0.0047112433203179115,-0.1995120306785161
1691524727.2998953,-0.23151639179054695,0.08673944864642877,9.769508646222281,-0.0023718903001875256,-0.006291527675898043,-0.1999364902551228
1691524727.310002,0.07642316237770594,-0.0755127425075427,9.693019953024082,-0.0007636957102987013,-0.0044254053572910235,-0.1996200789983327
1691524727.3199165,-0.25351474219371123,0.10561010365047334,9.876785156851444,-0.0021226655305169083,-0.007365055561401417,-0.2009523024137074
1691524727.3298607,0.23543226897146385,0.058306848387025524,9.767482883639971,-0.002368669602565882,-0.004562221368106143,-0.1996231188352162
1691524727.339994,0.07842948978981588,0.27758328846471236,9.976477222759716,-0.004664435636750018,-0.004164220005775459,-0.1981284876639897
1691524727.3499424,0.27013359550662075,-0.05156354451039586,9.936069702502593,-0.006085390549510924,-0.001542550816166582,-0.1990672608192021
1691524727.3599648,0.2161609778136543,-0.036106148132304304,9.781678147149234,-0.0046030856149072395,0.0016848719588352264,-0.196798186498409
1691524727.369947,0.1093070208085012,-0.2148369286968627,9.813245162806803,-0.00247123857924976,0.0013516119816279878,-0.1948405613477284
1691524727.3800223,0.1551130215140996,0.1602145709825522,9.686703833877926,-0.003678695169859707,0.003551121683913747,-0.1950298358972127
1691524727.3899753,0.1620647063464551,-0.10718475177279442,9.711221113237468,-0.00017816582098784337,0.003961574144742944,-0.1926709522779042
1691524727.400066,0.01860688376829088,0.07375577929422901,9.848127382656738,-0.0026910192801072826,0.003845449712395944,-0.1972653080995137
1691524727.4099777,0.32925109893206533,0.16364165415934606,9.816390146057252,-0.004982326774534221,0.006631567291677272,-0.1945879717643315
1691524727.4199798,-0.06813167735989306,-0.2673230538479429,9.771000171121477,-0.0005218440621861409,0.005962638062297216,-0.1981139888341481
1691524727.4300003,0.18249362640982014,-0.12854249828895667,9.811784837964638,0.000875158229926421,0.007988855102386073,-0.1972802241618687
1691524727.4399447,-0.10708557072742186,0.1203432666761075,9.84854828336465,0.00042059421547857877,0.006811008373394197,-0.1970216741139943
1691524727.449988,-0.21182315698283644,-0.22949104167921602,9.825858709445095,0.0025824987443870615,0.004244675593421154,-0.2006493916089589
1691524727.460014,-0.09065596858027182,0.23963298277833894,9.794317717786061,8.67472493752599e-07,0.003993126431668075,-0.1979802211101109
1691524727.4700215,-0.22451463325439824,-0.13328972546471535,9.829021166380782,0.0017642466907896372,0.0007183406339340407,-0.1965836097772176
1691524727.4799476,0.013776653344257947,0.0661429895382493,9.815193261642367,0.00047234892482105463,0.0019602893866340876,-0.1934797128017003
1691524727.4899778,-0.07512013305139473,-0.18871132202776134,9.82273960843693,0.0027093701551989735,0.0012122998716754586,-0.1919776906545216
1691524727.5000143,-0.004906542036136957,0.03440653771276582,9.801679301796943,0.0037200792563167814,0.002130512572112246,-0.1891762574489171
1691524727.5099638,-0.08556498952933428,-0.27296541716510053,9.707634231978833,0.0072290820569876815,0.0029842047517518685,-0.1913056333835179
1691524727.519968,-0.22591366527575849,0.3214249947047464,9.848277312555455,0.003976474775200054,0.0006943167520402216,-0.1886219491536671
1691524727.5300262,-0.03598568765182146,-0.01371530472473419,9.766614946686781,0.0032727227548145694,0.0010375659266402518,-0.1896821518714482
1691524727.5399995,-0.2617509104879428,0.039153259278696326,9.794506605066285,0.004010900628824916,-0.00245696856049248,-0.1906160970504338
1691524727.5499372,0.18419228463039908,-0.004334397240972574,9.695851529518654,0.003472450061879845,0.0010154584885276173,-0.1908686866338307
1691524727.559941,-0.14522655151321934,0.07785541015741038,9.86821530854556,0.002402534990348549,-0.002034295279365734,-0.1922377010161931
1691524727.5699418,0.06119332748833691,-0.11711279809780387,9.75846811444164,0.0031481608428545653,-0.0004243703319924137,-0.1937979270989949
1691524727.5799434,-0.03279888366987938,-0.05882423325267172,9.781499628814721,0.005302690585570017,-0.0001421217205805852,-0.1950138022477681
1691524727.58997,-0.3452882332106956,0.19593165967917542,10.035793545177569,0.0026999362948629444,-0.007024754724896438,-0.1942583729798848
1691524727.600039,0.030349854390613863,0.19792544029882003,9.868600521526998,-0.000654304212526979,-0.00672580907922216,-0.1945369501884038
1691524727.6100826,0.0962333493092939,0.03839390433595515,9.831756324572615,-0.0030658901286384926,-0.006505037080365356,-0.1951024939591939
1691524727.6199763,0.21550209587445607,-0.03887396018648887,9.784889847700683,-0.001972643180708509,-0.005793257863168007,-0.1920793761785084
1691524727.6300898,0.17856060414220304,-0.13578590092270695,9.733737919434883,-0.0017095225412100741,-0.003954326049603089,-0.1918238063628728
1691524727.63998,-0.01082693125138108,-0.32025921918113287,9.693907628185523,0.003021282616725546,-0.003597832201837953,-0.1955230345304066
1691524727.6499362,-0.11001500132978229,-0.038682879104845046,9.865322795664593,0.0020944049165382583,-0.0052289794448565005,-0.196485247212177
1691524727.6600466,-0.05636127173594545,-0.13902473698546394,9.7759862566981,0.003378875566005486,-0.004652701566901366,-0.1984581609542424
1691524727.6699593,-0.33356591064487345,-0.10541012572516627,10.020730993382108,0.002813151829725756,-0.010360664342431195,-0.2015519698436314
1691524727.6800022,0.15908056531827647,0.16051506002820756,9.86910198529109,0.002146418633965478,-0.0091962488634442,-0.2022513260419423
1691524727.6900308,0.46948919841013664,0.45151810036592527,9.950451181345699,-0.003890265377934506,-0.004948906580657925,-0.2011232932384068
1691524727.70003,0.517166999053316,0.15302612849723352,9.796113415832641,-0.00832438813010758,0.0024395609621817114,-0.2039511313016469
1691524727.7099774,0.2937292522979809,-0.3228427215465588,9.685083015252758,-0.003988950639011549,0.006279312065001706,-0.2038625438983494
1691524727.7200282,-0.05061197855538016,-0.1614626505214358,9.686817202172142,-0.0012201981912332495,0.005624417568614637,-0.2063129951531941
1691524727.7303984,-0.1953312771200687,0.25016107273664473,9.803897666616521,-0.0031604063016746195,0.0015559856322305732,-0.2058461715753133
1691524727.746174,-0.05477624043626418,0.2516981082837376,9.748337616826154,-0.006123168966253632,-0.0005717405265668848,-0.2044056316192204
1691524727.7504313,0.05658987704214397,0.3720454508029771,9.942693204503165,-0.010513024723412857,-0.00014083282904219917,-0.2052826096589619
1691524727.7614062,0.25857763022433483,-0.007169912839580356,9.81372426545499,-0.009658283473991973,0.0014637190258689056,-0.1974989136035496
1691524727.770074,0.07840500179485058,-0.4457511623407881,9.767348273873562,-0.004393519817613206,0.0023652448667197826,-0.1992147823150212
1691524727.7801013,0.09972994968174205,0.1569701980907607,9.834635980025613,-0.006831047806850422,0.00385657594746704,-0.1976427247102315
1691524727.789965,-0.0867961062566582,-0.04954304659246977,9.80571086442186,-0.005324528884121546,0.0031981702751526586,-0.197306763129955
1691524727.7999835,-0.2600444540342675,0.049987484022455904,9.861860138527078,-0.004908367342631255,-0.00032997399526784417,-0.1950181980903203
1691524727.8104384,-0.1112593185454456,-0.1213556909927973,9.754458081609172,-0.002387426249588725,-0.0004659493655984688,-0.1958739419753606
1691524727.8199682,-0.30107890523753433,0.15744088503800316,10.031750065359791,-0.005313226745809672,-0.00577907756262081,-0.196524377661472
1691524727.830037,0.32923557728634917,-0.13003426607177015,9.797855852904474,-0.0028730063381128073,-0.0009397730629519038,-0.194972749548679
1691524727.8400962,0.21182504786664966,-0.09604929976328454,9.830927787209273,-0.00224179176351944,0.0021790405439703294,-0.1953669746692235
1691524727.850328,0.1527770695901004,-0.16407218299172618,9.757181937636743,0.0010683064653035463,0.004184879269101567,-0.1952104826743657
1691524727.8601215,0.007762601962202549,0.056727620913308546,9.797998020322478,0.00010473391247823261,0.003886705873669226,-0.1946699430520589
1691524727.870056,-0.10754613611087788,-0.07857561504383884,9.680267834564264,0.0011996308714361124,0.003831323491225326,-0.1973297854239995
1691524727.8808389,-0.17813333145120502,0.056506570059738484,9.810330315983876,0.0003123622155214484,0.0007041988388841663,-0.1965538223559911
1691524727.890165,0.07916482285178071,0.06597579629298737,9.697169817132202,0.0005273392303964834,0.0015159613529713368,-0.1937181313808018
1691524727.909938,0.03998119496144396,-0.08644464080742209,9.78733670061763,0.0018264217250767883,0.002496086116595036,-0.1945593317325169
1691524727.9113238,-1.1916527004498871,0.2523277419278521,10.583129715630832,0.0008046591945004192,-0.0010440230035196501,-0.1948520799453313
1691524727.919973,0.12656639556351584,-0.2868726122598926,9.675839250339791,0.005745136600193011,0.000808731862497991,-0.1941558678920323
1691524727.930003,0.18228242311933215,0.055611030902250266,9.764455975581694,0.004210511955786385,0.0036743198080136873,-0.1940734942729527
1691524727.939968,-0.16313680969861719,0.07428746068931014,9.855406927406428,0.002470063665380093,0.0015235628407448956,-0.1954816242034489
1691524727.9503565,0.08685824776308534,-0.014132743987445273,9.711125162330369,0.002234304461376954,0.0032846207934105784,-0.1968965639646107
1691524727.9601524,-0.2960571529719628,-0.07781106309591368,9.840072694475458,0.0031250003286024436,-0.0004549684145634257,-0.2003607263143117
1691524727.97083,-0.19507903189631262,0.13180073866195222,9.852501353431803,0.0009317040263835059,-0.0029215266598566912,-0.2019398768718297
1691524727.9901054,-0.12583272069746815,0.0633835897481784,9.943081513441623,-0.0012038992890847267,-0.00945634588092106,-0.2031617273862416
1691524728.0,0.2750815342990302,0.07048291571536966,9.741850200034376,-0.0005672483103931668,-0.005870553907519896,-0.1994129677588994
1691524728.0100503,0.1337662317202217,0.011169142725145216,9.839445034477178,-0.001740929166586005,-0.004969597658777065,-0.2002384920890385
1691524728.019977,0.19352175702078203,-0.05148033057745096,9.713041188042945,4.340642085502745e-05,-0.0016786780516751748,-0.1995552887494618
1691524728.0299504,0.006191471945975574,-0.07048396895297881,9.737777645674479,0.0031498268200297057,-0.0015928697518144078,-0.1985494156653935
1691524728.039975,-0.2700646192425021,0.23039428462329134,9.944308187622639,-0.0004363455515426509,-0.005448798311475486,-0.1984876205499226
1691524728.0499628,-0.22731346840056416,-0.0361023020820524,9.845354217655773,0.000637150444657139,-0.008844057870008321,-0.1989685406262929
1691524728.059977,-0.0715267931569654,-0.03432458150969072,9.847884451692552,-0.00032807491066273807,-0.00920955890705216,-0.20161835451675
1691524728.070006,-0.09286362565970778,-0.19655718988993778,9.801761769096325,0.002945860711340533,-0.011352709728082755,-0.2029833902890736
1691524728.0799437,0.26292154358765,0.04312984900679902,9.75831293506168,0.002282215944117944,-0.00796838956108752,-0.2021704276378209
1691524728.089951,0.39757245488163523,0.1835089106783714,9.82057522972171,-0.00029597864148378977,-0.002622473100310035,-0.2045289238269383
1691524728.0999446,0.3197156895835354,0.20994431418498527,9.903870455180213,-0.004189369627256643,0.0006638399037262538,-0.2049756010348851
1691524728.1100004,0.18341763783323645,-0.060715647982399784,9.859487325348727,-0.0042104812972615065,0.0017107952003573277,-0.2048660625989491
1691524728.1199553,0.15156795947584512,-0.19921607664114468,9.741721612342861,-0.0002592179176777659,0.0025010734024854854,-0.2029301037366444
1691524728.12997,0.021217051439923924,-0.08081253433829859,9.724192340521217,0.0027946378295425054,0.0019254026174555993,-0.203972737985378
1691524728.1401224,0.02784635906949576,0.3155175212400056,9.845557614627394,-0.002181434149917374,0.0009527191428682592,-0.2038956542785222
1691524728.150071,0.22439017931341387,0.23565824896970305,9.76469031833881,-0.004153024779718289,0.002512422411361978,-0.1992602308566624
1691524728.1599967,0.2531039404005411,-0.09459626133856655,9.779880968246731,-0.001896559030214407,0.004258603744136009,-0.1958121021564061
1691524728.169957,0.29214583476270356,-0.021645627981475762,9.767859747215654,-0.0017258567398033657,0.00785560667357633,-0.1940184046800191
1691524728.180112,0.07453730344554715,-0.026706917178635575,9.886671774565677,-0.0010310501941051048,0.007141317630187972,-0.1934417297418172
1691524728.1899958,0.18903410205049323,0.06671363992358073,9.775923952436285,-0.00010192403767289687,0.009031650671120913,-0.1906320114905888
1691524728.2000775,-0.13447501584422847,-0.01786274655969333,9.842297369580152,-0.001663834309006402,0.008332755989425698,-0.1945347895200307
1691524728.2102342,-0.2060243386851884,-0.09512048023412835,9.848992553761201,-0.0003377591447097555,0.005594101169490477,-0.1948867549474293
1691524728.2199855,-0.0767535159176442,-0.03063823019119366,9.825030565169772,-0.0001878175953618355,0.005150938705160782,-0.1954555769736821
1691524728.2299447,-0.09241900813969957,-0.17036075211331003,9.833420398593205,0.0022832588953070458,0.003662548830128195,-0.1956221272523457
1691524728.2401268,-0.09367075632010304,-0.10969055577538576,9.816658617300419,0.0030849505811538164,0.0029104111209366226,-0.196935709315067
1691524728.24999,0.06597446767098265,-0.030161228887326447,9.753087866646881,0.005025801469071168,0.003867674782496699,-0.1927239259059483
1691524728.2600472,-0.046570150770225895,0.12392209164220959,9.762962564085234,0.0018269651561201386,0.005214452334914851,-0.1935683896119649
1691524728.2700214,0.060830705520635776,-0.044441943547158094,9.649310732297282,0.005547281532909504,0.006691231542681515,-0.1889930625731999
1691524728.2799723,-0.09441191210148381,0.17658795799896967,9.80626645452972,0.002620541407570321,0.006175501106650975,-0.1869042177970463
1691524728.2899733,-0.2760464729158512,-0.048554918878551484,9.865552292171627,0.0037450814657926704,0.001457355475491084,-0.1869701256330067
1691524728.3000042,-0.0978372279066959,-0.19024000824868234,9.767540257392357,0.0067948607581618655,0.0002008322310737622,-0.1882035990531499
1691524728.3100803,0.004013879391272079,0.16960277390734096,9.838143828455017,0.004957126106018226,-0.00030546800242133617,-0.1867424954946095
1691524728.320041,-0.10332839582452615,0.1467506511708062,9.837988039223141,0.0034308155852371936,-0.00015014118418490876,-0.1891415973479802
1691524728.3299692,-0.2547634793701757,0.4206922913440482,10.000379668324088,-0.001967473202895672,-0.003545807674677294,-0.1893584241445119
1691524728.3399785,-0.07038356428377752,0.15052110352862313,9.886917716988567,-0.002538830497351814,-0.0053538134117791444,-0.1890138496930653
1691524728.350088,-0.0008863290642195693,-0.06351320570501377,9.846524983627976,-0.0018170424333360917,-0.007120018193085423,-0.1907714267547185
1691524728.3599684,0.19563520495778222,0.0019441762178552904,9.745412906687658,-0.0032633276844112077,-0.0050270233232589355,-0.1916953434522206
1691524728.3700063,0.15994445749922534,-0.3975464301860695,9.623625054566492,0.002193172163306867,-0.0025173014917911954,-0.1951136102254445
1691524728.3799927,0.1091344304049133,0.1878756960905158,9.790413997238614,-0.0022101831958347817,-0.0009151269371598918,-0.1959376444394643
1691524728.3900125,-0.056135066049592994,-0.020512174477935026,9.860534495922018,-0.0013393132147160312,-0.0028860666419948376,-0.1943667044217641
1691524728.3999746,-0.21564149331958318,-0.16763377678133076,9.889029700445679,-0.0013143607817938925,-0.005233891903677683,-0.1968369593198354
1691524728.4101467,-0.011349109329680793,-0.26714144323326117,9.789002265179866,0.003249636421659073,-0.005714523499099179,-0.1920023222739751
1691524728.4320433,-0.10181544113111235,-0.12379399374075119,9.879477569675265,0.003977921333168053,-0.009739860249821342,-0.1927547415072972
1691524728.433053,-0.027574833898030508,0.62948038057582,10.070531256036388,0.0021996897805617423,-0.009532514844844011,-0.1938746233756596
1691524728.4409218,0.5295260050221997,0.5257916475701649,9.821067030801727,-0.003620700346604661,-0.0037199693831176817,-0.1949370165641362
1691524728.4600227,0.3014344050470517,0.17484175099419658,9.865019991000905,-0.007555671252978646,0.0021020060661929817,-0.1949702014501149
1691524728.4640143,0.6107614626063632,-0.4815549549841191,9.486835303633466,-0.0044074971630053104,0.006422541847069227,-0.1956683804566914
1691524728.469968,-0.09937432815374088,-0.17946237775897994,9.813272846380869,-0.00201499861277605,0.004358072406105591,-0.1953502108628804
1691524728.4800124,-0.04222499209076116,0.12231698913833006,9.813669338354135,-0.0031001304440283926,0.002184451113095187,-0.1970694025332982
1691524728.4899683,0.1516752799007043,0.3490167322340954,9.729987317501212,-0.007430864195805144,0.0038367600023641226,-0.1974732240016515
1691524728.4999745,0.08131785925106161,0.044519590916587394,9.747445589375205,-0.006882124708354091,0.0038233690398705787,-0.1977779527480656
1691524728.5099487,-0.1936020352226134,0.07149632872786096,10.002179130333616,-0.011249509710671386,-0.0005853098790919092,-0.2015684356267506
1691524728.5199947,0.18624297145850469,-0.2617174375564243,9.733441467878636,-0.007811390687216844,0.0025062324469544246,-0.2019934465463216
1691524728.5299869,0.02147463501013363,-0.031466491195740964,9.912220824904228,-0.007778808970932808,0.002207393936620782,-0.1989133765275532
1691524728.5400362,-0.006612738929676805,-0.09852713311310408,9.870500397591679,-0.005845990905805553,0.0014722223383487837,-0.1956687678868825
1691524728.5502932,-0.03576977259734439,-0.2231153603787762,9.876636674818421,-0.0029738821471681364,0.0007537173873966413,-0.1943574060971791
1691524728.5599985,0.11279171089561818,-0.22817944950648195,9.79207570682938,-0.0003060959767233538,0.0028283940475206984,-0.192085724073177
1691524728.570127,0.041039737825703436,-0.15944979503349238,9.78897112701372,0.0008167168540989516,0.004417582119609162,-0.1924362589891011
1691524728.5801232,0.10203353900195113,-0.06030425689266929,9.742404400053053,0.002233309156339906,0.005899551994203554,-0.1912054528768117
1691524728.5900717,-0.10346281129816207,0.15220335110054023,9.761028996567061,0.0017641850791246575,0.004194676766517788,-0.1889083643729741
1691524728.600053,-0.19952216736614847,0.12371458187295462,9.824082587361264,-5.577901259932094e-05,0.001804049077250533,-0.1917467524583394
1691524728.6100347,-0.06634009818097038,-0.06184826015875662,9.720359046748197,0.0014646061755763972,0.0017899652279735007,-0.1926292588288838
1691524728.6200032,-0.01813388321330169,-0.02371967271774789,9.797664835052773,0.0017720044278818493,0.001488090171143803,-0.192748423414951
1691524728.630167,-0.00685335424543125,0.04052599293289471,9.840426910290597,0.0004553595750958831,0.0012321599322951589,-0.1929134835774953
1691524728.6401188,-0.10463369989703887,-0.08072426254846089,9.869581799820903,0.000380880100381055,-0.0007939620959175486,-0.1951378246123845
1691524728.6499908,0.2725413810875045,-0.20538595725597003,9.65997141330448,0.003145202349534944,0.0038426917207068823,-0.1957674284751469
1691524728.6600032,-0.013693609799345864,0.04736814693131884,9.829681215188076,0.0028888870399212223,0.0014624552213967123,-0.1906980236346776
1691524728.6700804,0.10908120441698904,-0.22705764270804274,9.687932519055515,0.005328248070021189,0.0033184234400716788,-0.1900018115813786
1691524728.6802158,-0.01686117484861992,0.08141561562637177,9.828115488099046,0.002632136709555902,0.0022760102109917204,-0.1889378537709767
1691524728.689988,-0.01580295663788781,-0.24008655075205637,9.682937702307234,0.00508191018628474,0.0034197134296075414,-0.1936510463531071
1691524728.7099895,-0.30017421695993723,0.1952902926437127,9.967194264564371,0.0016584537450656592,-0.007157181779787568,-0.1922149618442113
1691524728.7200477,0.007446969797555498,0.1656439182368983,9.900819578907043,-0.002065338795209163,-0.00683451027518061,-0.1934357841785008
1691524728.7300358,-0.013539663810713523,-0.17211786209342753,9.807095691613009,0.0010929598774428854,-0.00771280474045848,-0.1952034195239598
1691524728.7400138,0.3035212927770424,-0.03062923693201758,9.694465021736397,0.0009975019907968957,-0.0031501200768572894,-0.1964916249091679
1691524728.7499936,0.039181029786163384,0.030832946421505955,9.794739063500144,0.000399667658152394,-0.0032021399871778556,-0.1974486072833592
1691524728.7599945,0.01835524332096017,0.08587559536333084,9.812418654747713,-0.001888412987628886,-0.0019260056228527105,-0.2000455369527394
1691524728.7699947,-0.039384451998951076,-0.11576270923340096,9.734806321298407,0.0014455641043329462,-0.0016255374012868703,-0.1977503706986958
1691524728.779992,-0.45317546621576943,-0.1300703008213575,9.977112946581578,0.0014905497245840174,-0.008361276609205801,-0.1995377351815755
1691524728.7900257,-0.07731257219939693,0.01836690895712015,9.858928129123084,0.0019705291986488118,-0.00960228315531334,-0.1970392127807194
1691524728.8000262,-0.11437275083421611,-0.10234778762537769,9.865178933984334,0.0026671992906783693,-0.012081984472236225,-0.1962169965083653
1691524728.8100152,0.07918896759816925,-0.000706695962520705,9.786621560092756,0.0013908167665763961,-0.011011694261350994,-0.1962550540740544
1691524728.8199923,0.10696705928688734,-0.16175891581049598,9.705554477118307,0.0038845126533810447,-0.009456906538730268,-0.1961574216659123
1691524728.8301015,0.19541745086916718,0.043683823952178256,9.758055244482351,0.002498596213314823,-0.0052641618765225245,-0.2008956332976872
1691524728.840867,0.2453229175885249,0.3026019045208129,9.902671849522932,-0.0010623842694898115,-0.0032326955546782355,-0.1985427399451787
1691524728.849991,0.36907201903636705,0.19198060325902555,9.82231535751354,-0.003035420520033253,0.0010431690206615623,-0.1974460293824727
1691524728.8600204,0.0034267914978479857,-0.13149360584970038,9.88662535881811,-0.00044341209771526976,-0.0005168596121367364,-0.1990694959933812
1691524728.8700182,0.3130765800499332,-0.11586180078687354,9.62687958425541,0.00216731399273562,0.004326287220227522,-0.2001428415353352
1691524728.8800151,0.019991636621678337,0.3505452603107951,9.884932401803384,-0.004026234897382677,0.0036181359401877096,-0.2010647614772374
1691524728.890013,0.02219839913705833,-0.13195846303741854,9.76026182693143,-0.002587284574734417,0.0033920849523086027,-0.2040643652255589
1691524728.9000552,-0.1070651178742082,-0.20996567047672915,9.886993631296138,-0.0002687648543660073,0.0005295908450459902,-0.2069171925361211
1691524728.9100907,0.2053043368238302,-0.08670572097726342,9.793121613934625,0.0012654175539354821,0.002370436639749251,-0.2035123219068104
1691524728.9200974,0.17688380208250318,0.026829395800668496,9.77522154888463,0.0010139519597463142,0.005310058356037767,-0.2005465437943989
1691524728.9301338,-0.0005438406654938552,-0.06674323417505923,9.844054580855879,0.0019150277254298814,0.005314900364882238,-0.1992844750459248
1691524728.940015,-0.2734540810855261,0.043390512223987675,9.916943591206225,0.0006005709673965795,0.0013040260569277804,-0.1978189011390263
1691524728.950067,-0.00842442162824954,0.004562158253411083,9.823600613676591,-0.0008814159794730598,0.0016249312035076743,-0.1970444281871373
1691524728.9600234,-0.07978491339668799,-0.20452940539924988,9.744419596203924,0.0029550189834615256,0.0010645704114503618,-0.1956541498477513
1691524728.9700153,0.08182507322169437,-0.131193132165048,9.72515035857405,0.00485761054169919,0.0028614999692623284,-0.1950868477399403
1691524728.9800365,-0.020535921103029972,0.010302759393750843,9.797003386436808,0.0047062038832864275,0.0030936889955531827,-0.1939450164611394
1691524728.9900262,-0.11892931887167724,-0.09861123507946862,9.731179225763222,0.006665172262379923,0.0026442691186468964,-0.1971453537519032
1691524729.0000176,-0.05664209217632079,0.09494676271495,9.869003176193123,0.00617990639541508,0.00045322320791043046,-0.1949873377854878
1691524729.0100448,-0.148643662243533,-0.04815970428196908,9.791140490903564,0.005952039033050207,-0.0010498651515882687,-0.1985270341212804
1691524729.0200508,0.09992441359503511,0.1000860178355299,9.849115514200504,0.0038962985225059824,-0.0008514092002810065,-0.1977504005010182
1691524729.0300229,0.07586408378503531,-0.12815123493350766,9.728076029001349,0.005100471990944625,0.000581796642710365,-0.1999445666844899
1691524729.0400622,0.1123547171615508,-0.09848198345820527,9.76870635218852,0.007255278351655805,0.0001563864322055325,-0.1981955279882008
1691524729.050055,0.1881184262860394,0.08989882157218392,9.779388127156825,0.006006000384957222,0.001736665115170635,-0.1975991239125783
1691524729.0600188,0.06522300884179096,-0.04077193921526586,9.784377313381231,0.007568407391445503,0.0012983173785347769,-0.1957056184585149
1691524729.0700967,-0.12656949878226695,0.37634481770785494,9.917978232878,0.003032641405225254,-0.00040623685668325047,-0.1930210997636372
1691524729.08006,-0.2903445149977925,0.33190048871155214,9.9718607987751,0.00093388194018456,-0.005428181480079126,-0.1892638464744145
1691524729.0900142,-0.19599984333711895,0.17434208693144687,9.96230103287167,-0.001252790197845766,-0.009666557622942417,-0.1890689839894826
1691524729.100046,0.15413120206246947,0.03385395769034067,9.766627985989075,-0.00032468982228326656,-0.009722311580041929,-0.1883228232438618
1691524729.1100411,0.38113307117285183,-0.08065972433453923,9.639212076352205,0.0008403538146011409,-0.004792875377375269,-0.1895673980290944
1691524729.120055,0.13169245770264207,-0.13004361739286135,9.70416453473742,0.002745737328540925,-0.0034222332257308986,-0.1901113500173146
1691524729.1300268,-0.23860536964905033,-0.0238380046240837,9.868164409541784,0.0011683326915528204,-0.0059379300246122,-0.1932543178374821
1691524729.1400204,-0.3394031621782659,-0.08184249293891811,9.92533657696085,0.0023323288489649732,-0.011240053920905846,-0.1944217642123753
1691524729.1500208,-0.08019075573894065,-0.015492446810288735,9.820577739142363,0.0043710370901360865,-0.013014357714045412,-0.1920179088885838
1691524729.1601143,0.09618330290070772,0.060290923042699965,9.853249392342603,0.0020907157506482024,-0.012174016504843186,-0.1932766844804341
1691524729.1700492,0.24044032544699026,0.06573856344674506,9.824478341893826,0.0004127334713581209,-0.010505800571604862,-0.1926757951552922
1691524729.180097,0.4857030815135911,0.3143948763488858,9.786243244354509,-0.001696516743981975,-0.004478473661594584,-0.1923681606824452
1691524729.1900554,0.369855589584697,0.26935726908937185,9.861085919940917,-0.004404334699443552,-0.0011827010949416689,-0.1897857149417454
1691524729.200039,0.34007530179208467,0.280115651220763,9.822267869592766,-0.007316078519807205,0.0023693265488730544,-0.1865119149262959
1691524729.2101245,0.10400590220980635,-0.15545403338607175,9.77236369287911,-0.0034583833100874984,0.0022145831043408437,-0.1856395115430409
1691524729.2200658,0.032750318287868015,0.07984605541706606,9.754295288992202,-0.0029272166098092403,0.0015471831572144285,-0.1855921407516057
1691524729.230046,-0.034318457100307,0.288841756336026,9.805339040892832,-0.007366874310834615,0.0008128961692579819,-0.1897995134170109
1691524729.2400453,0.050266238131150755,-0.06895563307143882,9.660174887608434,-0.005462775650874526,0.0022630168039342573,-0.1944557090575749
1691524729.2500536,0.10713888108188009,0.12901296690607222,9.839030520137538,-0.00556844754542504,0.0015024009530510184,-0.1908061464603001
1691524729.2600858,0.043277918008580496,0.06050890834705594,9.907148442155544,-0.009836725581410051,0.0024302460516186534,-0.1946177442843968
1691524729.2700312,0.07520233517762115,-0.27351474987593855,9.79129230439805,-0.004599262098666277,0.002573063365354897,-0.1923312505061681
1691524729.280079,0.025692973825493168,-0.054498713445652484,9.845829088384432,-0.0037276868747769076,0.002829041550437117,-0.1919922043855244
1691524729.2900438,-0.10555749088897436,0.0006649330286419739,9.900892578777636,-0.0037637347104257095,0.0010106113104347459,-0.1915682663495595
1691524729.30012,0.08571465235934593,0.13733431518158115,9.879397821750896,-0.00608140965511337,0.0014572306798216405,-0.1874566783483083
1691524729.3100748,-0.09081615868604336,-0.3569940775458946,9.818621989628532,-0.0005587280634963313,-0.0003368367778633725,-0.1874253561074788
1691524729.3200593,0.2051098197667481,-0.2139808462254032,9.723025942145588,0.0026659082059663016,0.002936475865188444,-0.1854152043635899
1691524729.3301103,0.11433221324343606,0.012636374406864916,9.741075294437717,0.0020119777900714734,0.00537132014371834,-0.1845263948018605
1691524729.3401473,0.011977399395873826,-0.06674922768855848,9.698886153892358,0.0037726919075027894,0.006375792534238088,-0.1849860360200459
1691524729.3501115,-0.13984398513794688,0.09306918511428111,9.78286732334276,0.004615485885426086,0.004219763918312394,-0.1822211404616887
1691524729.360058,-0.23675359659242204,0.4719860735750412,9.970638789222987,-0.0028144961075122162,-6.471659387026992e-05,-0.1805205305392796
1691524729.3700414,-0.09969987605792449,-0.20280768287370743,9.741644375017039,-0.0006735570361023954,0.00012332264945795796,-0.1865350415284688
1691524729.3800387,-0.0498978420829443,-0.09459046056794775,9.79144050684181,0.0018167279458202155,-0.0009727948628732906,-0.1868192215735966
1691524729.3900902,0.10923182760661589,-0.01598915986317952,9.7375833800853,0.0015705683120445211,0.0017100550054528635,-0.1886170764739567
1691524729.4000363,-0.13010180501292964,-0.14548658207508613,9.827371879472715,0.003686863205804838,-0.0006903279706997581,-0.1906410564954335
1691524729.4100635,0.11820579606119291,0.14793253395949071,9.727789670688878,0.0014758685389825,0.00209859647869278,-0.1897585650260503
1691524729.4201136,-0.1283301413413824,-0.0973495991388776,9.810362997914785,0.002398343713399901,-0.0001568477002491534,-0.1908835728938634
1691524729.436722,-0.09088143619138507,0.05619709970357128,9.79637328921353,0.002743670743134831,-0.0022011545212784695,-0.1923088987643773
1691524729.4401214,-0.1351243817952835,0.42853229159560824,9.982467052332249,0.0001081187429860761,-0.002758533483124919,-0.1922708859021718
1691524729.4514332,-0.19149521743643635,0.15439245872362162,9.946371577092735,-0.0017572254348066623,-0.007058811980413031,-0.1898863126809651
1691524729.4602492,0.15962968432437455,-0.10849621907797151,9.698585120887833,-0.00032323941728820124,-0.0035972364156458838,-0.191490050154453
1691524729.4700637,0.04468363334699887,-0.02926021044430877,9.801325036892276,0.0009412156592051773,-0.003812272299566556,-0.1903586347873265
1691524729.4807425,-0.029139437804935265,-0.11050788610654089,9.733317250146433,0.002222608576655155,-0.00281848752543579,-0.1950454523141438
1691524729.490387,0.1032710754961592,0.23831336917360985,9.7761100188528,0.00047697674850398177,-0.0009660185643030696,-0.193255077796703
1691524729.5000632,-0.1529267361789591,0.18346095134056895,9.853804371141345,-0.0011507368183310575,-0.0025531101720916646,-0.194200198846584
1691524729.5101416,-0.2426301116847645,0.026070043263525883,9.90737797258169,-0.0018988843828386735,-0.005716452426036143,-0.1973786463315541
1691524729.5204716,0.038719325781815035,0.17195505818193602,9.802638343661158,-0.004043752741158439,-0.004316692628009098,-0.1960147430474812
1691524729.530282,-0.23014638719383937,-0.268086402648031,9.817242425390265,0.00031612652919674953,-0.007640404853582069,-0.1977749427135045
1691524729.5400734,0.004587469098397281,-0.08026137074480394,9.771231231501563,0.001979656996196581,-0.007109710950156333,-0.1969829310948903
1691524729.5500607,-0.07902962888013337,-0.04353313084491198,9.815473667043394,0.0034016351268243996,-0.00830007293460707,-0.1956824620540196
1691524729.5600667,-0.1000586408247702,0.17861253996066442,9.92535571009138,-0.0007136323845879797,-0.009868391489287457,-0.1978137602384145
1691524729.570372,0.2249375429368385,0.155582890044801,9.844725538692158,-0.0023133438217353046,-0.0074067471880975315,-0.1988787760312611
1691524729.580086,0.4079974060554641,0.18495292568908753,9.813070362401167,-0.004782009727885354,-0.002244756517030009,-0.1967688014085347
1691524729.5902448,0.4935636020231119,-0.03902016460894186,9.73763873118497,-0.0030129606791701085,0.0035629386743429386,-0.191528793173557
1691524729.6006274,0.021232797228189472,-0.16979462099501558,9.866483173727929,0.00020434840199466325,0.0014321582279767763,-0.1903333773191029
1691524729.6100965,0.1296986424769033,0.039668988456888245,9.766541779898978,-1.2961491840917539e-05,0.002760315610836036,-0.1905095388467366
1691524729.6200852,0.0806029828267107,0.11635221981069958,9.720871719832756,-0.00026588258854483987,0.003930686133130116,-0.1919568737323338
1691524729.6300871,-0.03927589319809041,0.22438817141548653,9.880138809911395,-0.003071078067190468,0.0017450061676931301,-0.1938478161866719
1691524729.6400623,0.2029027499106786,-0.025588631254152953,9.721595774867719,-0.002756589074620705,0.0049968883408853595,-0.1962666024739796
1691524729.6500776,0.09618789267980028,0.01172425131944042,9.8477011402623,-0.0015198126318003895,0.004196301126269587,-0.1948129941995198
1691524729.6600735,0.05132200396975372,-0.1805686726232765,9.83930364832223,-0.000658124240084096,0.0046822367986282185,-0.199794064956432
1691524729.6700704,0.20387070066626808,-0.12153582873266493,9.695890874075054,0.0009957199571538854,0.00937731675135523,-0.200916450219875
1691524729.6801126,-0.13687412316291273,0.18711405909342504,9.916587989358392,-0.0014297159269086059,0.0066617580895248635,-0.197471346455341
1691524729.6901093,-0.25315787174877735,-0.0714887112087783,9.85011814313528,-0.0003264036937225885,0.00324344488393051,-0.197697113948589
1691524729.702325,-0.010142355153751675,-0.08023295499217144,9.79792206347001,0.0012009594878807054,0.003711628054815707,-0.1948394735629613
1691524729.7120554,-0.21391742746277065,-0.22268663520447335,9.868998132941268,0.0038058914791794063,0.0006660331969442286,-0.193821381526714
1691524729.7200794,0.3324740369728278,0.08254069016624876,9.690017158589944,0.00447115878733218,0.004936284008691002,-0.1876593341405446
1691524729.7301254,-0.059494184017035046,0.008592644757482172,9.769590189044703,0.003713022414689137,0.005894985455220637,-0.1891733368213231
1691524729.740093,-0.1450056259783513,0.00759521157755667,9.791450297447623,0.006562614396047864,0.003406029245248671,-0.1868531217153126
1691524729.750476,-0.2429314949407584,0.15799187057819095,9.88155648119388,0.003379698765456999,0.0006456090932647216,-0.1886893918092305
1691524729.760086,-0.005173819244851477,-0.09952650851115258,9.629203710361507,0.006794271812669972,0.0022629063710951024,-0.1883019616181905
1691524729.770083,-0.26273128564322284,-0.010119393220603469,9.892096382929937,0.007039510088901744,-0.0025081518914801086,-0.1903374900395924
1691524729.7800946,0.08899483918564643,0.19285377147320565,9.798157069274152,0.004322088056703953,-0.0017397377499963717,-0.1905226071651036
1691524729.7901874,0.1767178866132485,0.05557513348041951,9.771050646005296,0.004654600036832099,-0.00016742060619543957,-0.1881015857036168
1691524729.8001218,-0.02538918642386821,0.010897912460784538,9.822518350675825,0.005107722579794747,-0.001088980961131329,-0.1888614406163747
1691524729.8101275,-0.08982786880025911,0.13748215162236838,9.873360586439954,0.0037884510835117435,-0.0024988979915835704,-0.1888436039264256
1691524729.820109,-0.12522701996874752,0.2526726785818499,9.921025385962219,-0.0005669125372195878,-0.0037985146134962965,-0.1907893379504735
1691524729.8307238,-0.14842969975788337,0.11838542781967229,9.918693573036883,-0.0023288315227693213,-0.007435751873798139,-0.192843820648914
1691524729.840102,0.2117301389397363,0.12338317910765831,9.788126615931562,-0.0019474953411155662,-0.0066837153334642916,-0.1881696989114339
1691524729.8502228,0.2265382785432371,-0.1352785242747559,9.700875828100164,-0.001829836574135015,-0.0027402730616687045,-0.192428793507343
1691524729.8602414,0.14514634710773708,-0.07242641673481734,9.741754050422934,0.0012557297788774065,-0.0018695045473316578,-0.1883127500588948
1691524729.8701506,-0.10766168311589942,0.08726927215406761,9.851377489075201,-4.653990025441327e-05,-0.0036522044352286626,-0.1881626208598668
1691524729.880111,-0.08229785138731341,-0.029377156930625894,9.772181618092208,0.0015687667462491502,-0.0039347083535595274,-0.1875621487672383
1691524729.8901,-0.211424736559895,0.19358231335815956,9.94817890427669,-0.0003776550853787247,-0.007653990965667328,-0.1851820309932286
1691524729.9000988,-0.28215832238073574,-0.18363563700332242,9.878014499149122,0.000846830196149498,-0.010965240403523742,-0.1912285794789845
1691524729.910178,0.1800838959861744,-0.009459874961937325,9.750683839579002,0.0026759547883494967,-0.00827190002407631,-0.1912807037408406
1691524729.9203854,0.26540858934787726,0.36671016694883746,9.927720107877798,-0.001103425708995854,-0.00589101136500494,-0.1923018207128102
1691524729.930145,0.38668137828405574,0.35192579903204,9.892871896195327,-0.006451828258020106,-0.0010183760568420993,-0.1929164191062505
1691524729.940173,0.19028925500085625,0.17037235101890089,9.948274255912551,-0.01138663183551472,0.0003835134321117309,-0.1948756684835011
1691524729.950122,0.20744703772749207,-0.06881936352817608,9.746549052953842,-0.009009313782051089,0.0014985550062267788,-0.1927861084516103
1691524729.9601045,0.041796911818282635,-0.2286933741860055,9.70491460291705,-0.004845595969149111,0.00046003265241531326,-0.1947843243653828
1691524729.970106,0.16466160452032827,0.23144250709828984,9.680312969672567,-0.007598671811130492,0.0024521809118372723,-0.193741585808521
1691524729.9801338,0.14623522497978003,0.1447977291466385,9.760626111139809,-0.008064503789752925,0.0029008578302102683,-0.1898409237439687
1691524729.9900937,0.02503752319133318,-0.04125885611028488,9.813717718436667,-0.0075710277981622925,0.0026161151787453206,-0.1890630384261662
1691524730.0001144,0.045283131998208465,-0.20546072683459313,9.855727503090776,-0.007024750200730683,0.004509977381974245,-0.1914828975970799
1691524730.0101192,-0.029345105591610004,-0.20838431104754282,9.888423600662046,-0.0027318486095042763,0.0030675731338109134,-0.1889613678033406
1691524730.0201008,0.0645014214451966,-0.16727140962045836,9.84460694052875,0.0002874310232187451,0.00370107048628646,-0.1886305322225148
1691524730.030208,0.01983542430168011,0.07891928052237678,9.907792967809037,-0.0010892790948678146,0.0034155354388779374,-0.1874677946145589
1691524730.0401042,0.14292497688464534,-0.106463773670087,9.669626023135233,-0.00010519169312335106,0.00830543791505224,-0.1889703532035405
1691524730.0501585,-0.11873321399557961,-0.14446883444111613,9.769586323137581,0.003382377941807639,0.006877484724903798,-0.1877732833201939
1691524730.0601475,-0.3708829411763368,-0.028567331911035665,9.870870695839528,0.004016699400659926,0.0016199183188227357,-0.1892116626079137
1691524730.070082,-0.14587232642457704,0.12699905757122218,9.799814766096729,0.0040127803257417405,-0.000635167430891821,-0.18577542503429
1691524730.080186,0.003688936578188591,0.07522488145227249,9.74016275777843,0.0027487944038978585,0.0009614610465030594,-0.1870483865315968
1691524730.090136,-0.031742964358577305,0.2338443162040604,9.834422171713838,-0.001056158505346263,0.0008952569648972221,-0.1863241900975758
1691524730.10013,0.09523511938221581,-0.04281706642830934,9.731973750674603,0.002449075615240087,0.0015225939767430164,-0.1823779751832539
1691524730.110191,0.022325211727394666,-0.0043422200818843,9.786591948930315,0.0019898582785771073,0.0027898233620169406,-0.1832921912248189
1691524730.120235,0.08371409246037667,-0.07562740421978839,9.721296069957745,0.00441147982654556,0.004513793089642034,-0.1818784882600362
1691524730.1301498,-0.12477923210074501,-0.02923723956891342,9.808781991495977,0.003951356902406964,0.0037163352726150307,-0.1845357229287678
1691524730.140128,-0.040315286477743344,0.07656197547085418,9.767107015024777,0.0033755910293700115,0.003680785627756761,-0.1843300422008092
1691524730.1501338,-0.2224995827275592,0.040234897945266294,9.852791721419985,0.0025715570968546926,-5.3063679694771505e-05,-0.1869619448955113
1691524730.160159,-0.03208624043906782,-0.09002529142080651,9.730341472438052,0.005148837781030035,-0.0002505797649313989,-0.1888260801608617
1691524730.1701477,-0.2244687307991833,0.3344712967045435,9.975755809721102,-0.0009400371500090089,-0.0034110901856027965,-0.1906559427554661
1691524730.1801643,-0.1852018263240602,0.045715227322285466,9.87685203848155,0.0005660636587358563,-0.007096179790276238,-0.1885806431348378
1691524730.19013,0.007595638584745246,0.03629519432351854,9.837829213623401,-0.0011541357423085893,-0.006708356023537745,-0.1902156730468327
1691524730.2001064,0.0425860010523936,-0.2230916828406511,9.75868369208191,0.00261308372694517,-0.006679159308716709,-0.1922846247727925
1691524730.2101364,-0.04257938505220686,0.08820396563191418,9.90024023774347,0.0011247604719225365,-0.009600418097874493,-0.1905580272252614
1691524730.2202177,0.2580149250960694,-0.05287844730425438,9.669413829269105,0.0014041684231580586,-0.0052144526442969635,-0.193015929060703
1691524730.2301867,0.213630083491025,0.15724495343494074,9.755405303210075,-0.0006060973218973881,-0.0017919753301030763,-0.1924705614621693
1691524730.2401276,-0.15820759839648987,-0.22577464778108475,9.857251909186472,0.002725916444415262,-0.004383084715742977,-0.1928352375800664
1691524730.2501328,-0.14980860276132485,-0.013453868317300619,9.861827580467134,0.0036928903692286814,-0.006347021201872955,-0.1920686473424489
1691524730.2601266,-0.00450091670369764,0.018593149549455377,9.82224245064255,0.0041153978545033975,-0.005981275270158716,-0.1910516281898076
1691524730.270129,-0.17346349976192582,0.061255472903705165,9.899359956750734,0.0030328696334355424,-0.009025346956079271,-0.1929965277488286
1691524730.2802346,0.11270701544296101,0.03443260269145738,9.736403479360197,0.0034736035711948545,-0.007257254558686669,-0.1929410954291875
1691524730.2901254,-0.023995011235406996,-0.014936719917729484,9.809957062795934,0.0031242239914741894,-0.007795218138541549,-0.1950320710713917
1691524730.300189,0.17197436423127274,0.10085261628205383,9.789422125290567,0.003211443958233698,-0.005242353066832349,-0.1965623756225163
1691524730.310184,0.07672741829893118,0.3132123133809375,9.963231873745451,-0.0011674437881349655,-0.005853172364337228,-0.1968898286397511
1691524730.3201275,0.3892468106132474,0.16609420528533514,9.773361017941983,-0.0030012954193760536,-0.0006407090190697475,-0.1948472668702656
1691524730.3301585,0.07702613274492383,-0.03226944924163366,9.885618116620225,-0.003993924002238279,-0.0009653137755185666,-0.1966908981378133
1691524730.3401325,0.07543136696610783,-0.17129656223025974,9.732010939253929,-0.0005524296553940902,-0.0013311102807625815,-0.196316521363979
1691524730.350155,0.26233411939500073,0.04513932136250517,9.670170770985582,-0.00017626426456218404,0.0024592018253169054,-0.1963910271699483
1691524730.3601234,-0.01714845061666077,0.2539688497575851,9.846388198394683,-0.0036671908033558184,0.000841840782109978,-0.1971308400209004
1691524730.3701189,0.18593655903397266,-0.0682497260618266,9.704079368406257,-0.0019543433590837726,0.0032322632961671897,-0.1960978170211369
1691524730.3801265,-0.011106174478035498,-0.16812216898006654,9.879219655054838,-0.000979994577418128,0.0028652055779997796,-0.1954507489974553
1691524730.3901217,0.03291382175718296,-0.09449696566149965,9.907971299221405,-0.000467313770593916,0.0029843291493348552,-0.1936849762971455
1691524730.4003766,-0.11100502568926542,-0.1548027469685419,9.91854455038447,0.0033237588965237892,0.00011105202231857438,-0.1919508685643727
1691524730.4209824,0.011356916582244457,0.12230297862627547,9.78588432570693,0.0024566135262786147,0.002568353764043122,-0.1900684793765599
1691524730.4306085,0.10306019261148129,0.10437904581169373,9.732407491274136,0.0008874322950132259,0.005864790532991129,-0.1893800606305653
1691524730.440159,-0.24127392141919118,-0.2777818551997529,9.774587921901105,0.005618039148825475,0.0033880787557366726,-0.189680289226299
1691524730.4546287,-0.18147910643547832,-0.0299676851236445,9.830336432234196,0.005684700107623954,0.0005243667894644301,-0.1919725348527486
1691524730.4602108,0.2220511632089384,0.3286002316116397,9.686170890530178,0.00442854281449516,0.002848874287532342,-0.1885109206016118
1691524730.4703298,-0.12437706184323277,-0.0381387263181597,9.782073092931476,0.006361469924953719,0.0013813983940221273,-0.1893010695750767
1691524730.4801717,-0.09156243862386158,0.12723932044493863,9.85618227361283,0.0044678331372804405,-0.0003669851359181806,-0.1882653941686208
1691524730.4908314,0.11653618550061587,-0.09122624802636631,9.720853046744441,0.006661472176911213,0.0020955392029678556,-0.1885139604384953
1691524730.5001688,0.051472050117635434,-0.05859810715328328,9.747706914139858,0.008232103903110534,0.002806417468204476,-0.1880847026879842
1691524730.5104003,0.07043743954897118,0.3248365328765715,9.84518635194124,0.0037329850208184154,0.002846795592465873,-0.1845103760535771
1691524730.52052,-0.12391959700369036,-0.195951320332843,9.786711877658227,0.008118061036918147,-0.0004943717631847313,-0.1851529886300618
1691524730.530627,0.11767057498301194,0.06746679439362399,9.723705385277547,0.007659479664331214,0.0016112382799848325,-0.1837574501807744
1691524730.540463,0.08946918604626497,0.019623656946025712,9.788024597129075,0.006810389493433799,0.0025338733199662695,-0.1854502667958791
1691524730.5501823,-0.04835071777092568,0.06848714631011671,9.845098564688122,0.008195459057855816,-0.0003161420283909053,-0.1825415154273564
1691524730.5608878,-0.14525367446447787,0.21328958590032518,9.875980488925668,0.004190190200220337,-0.000600849003812568,-0.187619473534351
1691524730.570204,-0.33558396021796605,0.36002359550373225,10.013542254034729,0.0019537688461766065,-0.006867746429047612,-0.1844954450900609
1691524730.580201,-0.05426960096954058,0.3325425465978427,9.939297183460944,-0.0044241281627238225,-0.006949312286310105,-0.1882520427281911
1691524730.5901952,0.035878296550888825,-0.039008583665883646,9.855648889799626,-0.0022049579761931667,-0.008956437862329114,-0.1867499758775288
1691524730.6057923,0.18310119784470338,-0.1369944183428863,9.686970918915383,0.0006873745673517642,-0.004760946087340626,-0.1904928197438771
1691524730.610183,0.1371387792964187,-0.15454313237036035,9.665079938643133,0.0016314921108421944,-0.003617921607323325,-0.1920544912393147
1691524730.62018,-0.17220150390748637,-0.05668555554831698,9.81745527854706,0.0028137569714769936,-0.0061546779490575885,-0.1944818158919865
1691524730.63022,-0.10626761697047388,0.14131344150080677,9.87729142089281,0.0020268283573113867,-0.007500450936454466,-0.1920295466954762
1691524730.6401749,0.12345111264836177,0.35912247319920254,9.957704569418851,-0.0024985501844585825,-0.005803625810287501,-0.1923595031077916
1691524730.6501548,0.09915601707243442,0.38785990170251844,10.07671566476584,-0.007804937047458108,-0.0066339763651466445,-0.190227608876949
1691524730.6603122,0.4284128019970574,-0.07283395696160613,9.798756160605688,-0.007802559080097043,-0.0007809030366017864,-0.1895916124160344
1691524730.6702182,0.2148276086669147,-0.2697368666104789,9.648985935737093,-0.002074718201216122,0.0016099372359814255,-0.189881156879192
1691524730.6801653,-0.04800952524532147,0.1488410199669867,9.840781704482614,-0.003411941904483626,-0.0012352692925690625,-0.1906328906590993
1691524730.6901832,0.18641121051368917,0.15281174011276066,9.638699097355978,-0.00465118673753193,0.0016628113605389005,-0.1916696538503224
1691524730.7001562,-0.044494872209174065,0.25778803964173935,9.838410972202547,-0.009240798256154002,0.0006427043361451279,-0.1944870461995656
1691524730.7101924,0.020190718199889057,-0.11783150052937859,9.808469226474386,-0.00698005494905631,-0.0004600868861656897,-0.1952823211724812
1691524730.7201774,0.2436297626927188,0.06489001309408417,9.831783646509336,-0.008224349270354437,0.0015945228955957331,-0.1947708984191472
1691524730.7301738,0.21579466865227262,-0.18776925654351673,9.8636321796348,-0.006234416513068507,0.0035148608425542485,-0.1939565797622258
1691524730.740175,0.039829012319923265,-0.4085965054056735,9.836869367329315,-0.0006700141072682627,0.003461811176200292,-0.1943782975251729
1691524730.7501729,0.11608106589530394,-0.09492720648705322,9.849336821278836,0.00017948727363338498,0.005093907348012732,-0.1961223741347844
1691524730.7602687,-0.1580029129873856,0.07114214031580099,9.850298309498218,7.246521548776415e-05,0.002263330446739425,-0.1951296289737279
1691524730.77025,-0.009171656176789476,0.2059841710838179,9.761754670183196,-0.0024106962116250035,0.0027125771036372883,-0.1929090132291371
1691524730.780264,-0.17311462572987157,0.03836204211292573,9.751518552104537,-0.0035426351336522504,0.001234230130719613,-0.1922481616313512
1691524730.790352,-0.13306976649795646,0.0353841367053642,9.837414098430047,-0.0057320394415750955,-0.0002661349497881943,-0.1922805418546254
1691524730.8002536,-0.053567709278148044,-0.2807264939475227,9.793685879828898,0.0002300464439421388,-0.0017923283172048149,-0.190467830496555
1691524730.810195,0.1749140227390939,-0.03342594168803453,9.717933094974162,0.0007038335227755565,0.0024184997762891672,-0.1912076582486684
1691524730.8201842,0.03399530630166209,-0.10705616762050284,9.79601389788633,0.0032885132433490404,0.0031756709568113587,-0.1905993332440907
1691524730.830196,-0.11016735311224383,0.21796370537195697,9.859495609039985,6.86657263593747e-05,0.002257324337373418,-0.1900397946412617
1691524730.840217,-0.011985116805819934,-0.10135087149068799,9.703935277609013,0.0028796217066807002,0.0028929315139975546,-0.1901560684020573
1691524730.8501732,-0.19865883182258,0.11492043047248501,9.851342195583452,-0.0002752178575697813,-0.00011200136826859214,-0.1931198199565465
1691524730.8601832,-0.022207953857024898,-0.09829571344364268,9.721900219071653,0.002065767081798803,-0.0005292118372003196,-0.1937092204864079
1691524730.87026,0.0035396683127508744,-0.016446433029522735,9.802311921134022,0.002433958539935262,-0.0012549552687290794,-0.1952790131146962
1691524730.88016,-0.024708028765966002,0.12195848927512419,9.86378115837249,0.00016437016711732895,-0.002804773092232877,-0.1956332882220799
1691524730.8901837,0.033805076040128564,0.018396344162571472,9.803283019781006,0.001131799278038582,-0.0022688981967430755,-0.1949161549384648
1691524730.900205,-0.04832065043694593,0.2011431061136809,9.892116152363768,-0.0020213120956823235,-0.00338929649774188,-0.1938668002660329
1691524730.9102273,-0.08541960180180964,-0.0482529127493791,9.830687098379608,-0.0026744966342853345,-0.004378010765337586,-0.1961767782743031
1691524730.920167,-0.03765645576961802,-0.056268366279234164,9.816948260412936,-0.00037121838380979345,-0.006835600083705181,-0.192957814532047
1691524730.9301617,0.1735965348958014,-0.019379874575756344,9.677338328914155,0.0016613910110845757,-0.004389937418093127,-0.1911741306359822
1691524730.9402294,-0.03842840467400373,-0.0003959295224573607,9.800087425579402,0.0014800347977815696,-0.005179169287239302,-0.1946978529269749
1691524730.9501746,0.07672925352850918,0.18364322672229488,9.800639195344049,-0.0021591180255109274,-0.003217164120830482,-0.1972430010612065
1691524730.9602344,0.030312806164705042,-0.06606858358244211,9.760816908655842,0.0008180175809517468,-0.0027841997226159994,-0.1975216378743703
1691524730.9701962,-0.16904117276770955,0.05361139019795569,9.909676852854199,0.000535959506170872,-0.0059686332170048395,-0.1979165186460072
1691524730.9802058,-0.06155215046421919,0.10287119243499546,9.858570939054955,-0.0005927966454776516,-0.006626128529522257,-0.1995605041558797
1691524730.9901628,0.030236470501722994,0.025277515267413984,9.773334681779577,-0.0019335193027312635,-0.004896221592484426,-0.203715380030399
1691524731.000311,0.07502058271663636,0.18178307880078381,9.785843986165867,-0.003071986402929334,-0.004723992801478497,-0.2004754354531819
1691524731.01021,0.0588089634624653,-0.03172650640810129,9.777835886103357,-0.002435230396544199,-0.004041620374591855,-0.20057114561153
1691524731.0202546,-0.05753941520998351,0.0363257988410908,9.84801492912431,-0.0030627999711734296,-0.0056386092873766955,-0.1989421208674962
1691524731.03039,-0.15586010606769032,-0.21727923871497942,9.869536439541507,0.0019060792872122657,-0.008701890440082596,-0.1987311800296361
1691524731.0401976,0.21047890804254538,0.3744216134505311,9.911442793581575,-0.0032544400549636265,-0.0060867522070997436,-0.1983513345296437
1691524731.0501988,0.12420741934676087,0.24084873748654254,9.933737506756726,-0.0069369721521174875,-0.005479255374161991,-0.1971122582728917
1691524731.0602014,0.27994779684365095,-0.055924309353043794,9.774054345880923,-0.005284861937178472,-0.0029647980838048344,-0.1928427030618245
1691524731.0702531,0.015301078284672615,-0.3068882602562927,9.749392818255261,-0.0005173371732822155,-0.0040676008149362645,-0.1953572442109639
1691524731.0801902,0.31536562449969224,-0.004242649786962677,9.6294157247744,-5.799068252218077e-05,0.000974888392246949,-0.1972426285321767
1691524731.0902178,-0.03769444628794381,0.2000028074332301,9.842623239994829,-0.0020614057264304046,-0.001298161065477766,-0.1988474686915929
1691524731.1002362,0.08528997467881322,0.13796682063146326,9.82269002934219,-0.003732717786508802,-0.0012420570988314927,-0.2000921477849538
1691524731.1103303,0.20689811890322465,-0.00930987985716432,9.786501223404219,-0.00420904401178416,0.0015270534092715472,-0.2005834539706761
1691524731.1202335,-0.04128488647625567,-0.34589899722244516,9.875386280697535,0.000756079659865206,-3.389489372220471e-05,-0.2018265535409505
1691524731.1302035,0.1122377116332652,0.07588272986048834,9.916680392568756,-0.00012264903039388206,0.0002720349060892425,-0.1990806718642766
1691524731.14022,0.014401326448038222,0.14167468926078358,9.914275742319667,-0.0011942216827118375,-0.0009895181138523522,-0.1965020259196812
1691524731.1501925,0.28898357630910154,0.0918206180507384,9.681144539499213,-0.0007381870267077468,0.0034527706470654966,-0.1931816448743397
1691524731.1602323,-0.18281278465755524,-0.06307956276806467,9.860590770977312,-0.00017160273924167487,-0.0002694617800678261,-0.191519494848972
1691524731.170213,0.12709104730411733,-0.19546206021478316,9.704347027014641,0.002346145449891448,0.0023731575724917748,-0.1896858771617467
1691524731.1802092,0.09064504690111329,-0.07850439593975513,9.727913093330747,0.004244966778686742,0.00434663700944702,-0.1868878265197331
1691524731.1902046,-0.07662556934763937,-0.22342357635019477,9.69390142237623,0.009602569483818822,0.0044867235385333696,-0.1866527607019002
1691524731.2002034,-0.25399313594948136,0.3137623366399369,9.956542436549979,0.004359889496457612,0.0008971230389759265,-0.1871332933480794
1691524731.2102196,-0.18676288374529806,-0.022746695304521256,9.77366853531704,0.005148430424624028,0.00023923350962456885,-0.1904603650147969
1691524731.220196,-0.1508742712572863,0.08143350929312038,9.833620787286424,0.004726850788046921,-0.0016251252131444158,-0.1914017458732182
1691524731.2301931,-0.1614439120929095,0.005800555162031315,9.79705365290256,0.005057476923082801,-0.003418319145383892,-0.192577462392574
1691524731.2402186,0.08586320846195074,0.27258098474674597,9.796917391770029,0.0012758598904264006,-0.00205997148554097,-0.1917303015763814
1691524731.2502153,0.14883252649739453,-0.06423538123862856,9.664704754123647,0.004042135787800633,0.0003519711297509091,-0.1916923185164983
1691524731.2602308,0.04956443129473246,0.04718047913129394,9.761648476547066,0.004530938746612253,0.0004640808474145463,-0.1910802682216222
1691524731.270191,-0.000805576435143563,0.07733005043834741,9.84879750254092,0.0021643750793609515,7.404330894836912e-05,-0.1933914085204655
1691524731.2802138,-0.03794637917560139,-0.10523717104271837,9.760055837146258,0.00484173489548387,-0.0007024565468316725,-0.1940989007527882
1691524731.290234,-0.1351542136200866,0.22967367912746067,9.84951259448727,0.0034569202245568085,-0.0019551779820740594,-0.1919046600635106
1691524731.300201,-0.23365095090182186,0.49216285641804336,9.975266479965324,-0.0006505338263233735,-0.005930468438057101,-0.187560584145313
1691524731.310299,-0.21856195172437393,0.2762422905931282,9.985270567654094,-0.00240965652984609,-0.01131726383240002,-0.184288676577335
1691524731.3202338,0.28108581387271264,0.00011957410935559213,9.73713754921792,-0.003366648069999605,-0.006897931207717743,-0.1871966381843144
1691524731.3302646,0.1797044252956804,-0.1898319294109242,9.719422150710292,0.0001398282622590957,-0.005509084086769347,-0.1890384515101964
1691524731.3402212,0.1647425258176927,-0.027553912306080626,9.722181421981803,-0.000408731240388473,-0.002383391427695339,-0.1933679391915852
1691524731.3502424,-0.025540407220521987,0.04534079815175636,9.720072927182827,0.001313471723081817,-0.0024628112109918126,-0.1934719194943959
1691524731.3602412,-0.1687830185215383,0.2724926699891094,9.889303593620316,-0.0024257388826467823,-0.004545414173871044,-0.1950495948369557
1691524731.3702335,-0.1289544166971893,0.3468733621583225,10.064155037981243,-0.005175931150588162,-0.0082438629045552,-0.1969823052461201
1691524731.3802238,0.5584042127104191,0.46275090295470145,9.880455730786126,-0.00999098519045521,-0.0010815354635069347,-0.1921509017522389
1691524731.390245,0.038862989248235454,-0.15511830770070018,10.031819603731986,-0.00940059519371116,-0.0033389460799605132,-0.1932082136447484
1691524731.400226,0.34057076704087386,-0.2789095118063524,9.674915831592273,-0.00625296337606162,0.00230139218209381,-0.1959123422677571
1691524731.410245,0.15997892941403144,-0.014097079693313348,9.716982701502465,-0.004513527450155312,0.0027036680797724454,-0.1959059943730885
1691524731.4202576,0.09236948199973895,0.23976713779301706,9.695064394744662,-0.007163498663309194,0.003993103229427621,-0.1960479130322987
1691524731.4303284,-0.10960575602061162,0.12596058888865103,9.82291051630009,-0.007287044444876154,-0.00012274112742849478,-0.1928121109778935
1691524731.4472203,0.032180570299748565,-0.07027707778837126,9.782698641183469,-0.00662608357840885,-0.0005882465269327246,-0.1929998805100972
1691524731.450279,0.5668074773597811,-0.5638925169094093,9.476670449928086,-0.0033905102682930373,0.00234665320743212,-0.1928233613545949
1691524731.4605453,0.23749791763756228,-0.05797765277643201,9.898415493986505,-0.0023873525671219554,0.00361722014240543,-0.191051970916515
1691524731.4706264,0.17425675357365436,-0.09811272635521985,9.919110267470634,-0.0016316378331643535,0.004730010132077853,-0.1923728992517049
1691524731.48026,0.03146351071152805,-0.11924148056755454,9.872805119106276,0.0004224982293459537,0.004163199625483348,-0.1937963624770695
1691524731.4904134,0.13207317519130107,0.06393843687076192,9.722522845694664,-0.0007958594989123642,0.007327731780823357,-0.1941208948667104
1691524731.50026,-0.21757331555620515,-0.02100392779732263,9.777559626167418,-0.0005666324251212215,0.0050131885718974305,-0.1973119040305669
1691524731.5102482,-0.270435186993377,0.1783645959953288,9.839411207064034,-0.003079758609974635,0.00039793931008478764,-0.1969971170003468
1691524731.524059,-0.15524828640924945,-0.015723508451725727,9.779243828388994,-0.0010682027912122024,-0.003584934107863146,-0.1959566434199864
1691524731.531427,0.1367103615393595,-0.05299287114936345,9.79245905209005,-0.0019723513903946942,-0.0015140794406670493,-0.1975246032054478
1691524731.5402756,0.14074020494873993,-0.19561580525385547,9.775473309111836,0.0013075082617833452,0.0003336282271527528,-0.1958016862447316
1691524731.550846,0.07622045463500647,-0.06319302814527478,9.859261257651848,0.0019538887421374036,0.0013844337527431979,-0.1934585084493214
1691524731.5603416,0.11451612726895644,-0.0353107152400719,9.672999120221926,0.004113059381584585,0.004869284178085338,-0.1925163825328404
1691524731.5704167,-0.18777353383035825,0.2350871434687221,9.842196812156423,0.0018121494245134009,0.0020630066460245807,-0.1915254702146107
1691524731.5803063,-0.21130112168746676,0.240150518273717,9.798774814224155,-0.00035957869862138664,-0.0007215101912845048,-0.1894258668000752
1691524731.5903106,-0.1574681315722633,0.07420245851538344,9.769957471544773,-0.0013088606451470248,-0.002494771497875433,-0.1918178607995564
1691524731.6002867,0.04426763443096247,-0.07492197077229061,9.7224389575022,0.0004199308658707702,-0.0016065088516745967,-0.1929403056676442
1691524731.6103537,0.04946802892487273,0.02121640718544399,9.796440334277142,0.0018485386481463843,-0.002545667115885774,-0.1903196086461598
1691524731.6203442,0.16897163341186752,0.06371743582755278,9.753550440418294,0.0017231280090719062,0.0011915522770743925,-0.190825428562885
1691524731.630298,-0.14333292303119907,0.18156967937636456,9.899190485681116,-0.0015000334518316765,-9.2586672731274e-06,-0.1931232323224599
1691524731.6402788,-0.3064017165490287,0.008705237250156577,9.954104824511054,-0.0017634660788640954,-0.005074783618464656,-0.1954507638986165
1691524731.6506906,0.0341030002963034,0.03695192333779472,9.7856167770482,-0.0008439970176204828,-0.00550945294004047,-0.1929619123513753
1691524731.660301,-0.10434212261429149,-0.17179761618225706,9.810671705596413,0.00024098616799973337,-0.008000676946416733,-0.197467650967365
1691524731.6702983,0.20411885678595898,0.09822755288283873,9.768367169423847,-0.0018397589341011772,-0.005902349842970811,-0.1982551624352986
1691524731.6803553,0.2003030194416015,-0.028589531543088638,9.706957870701597,-0.0019494276884912298,-0.0020887860841947714,-0.1990888824040944
1691524731.690266,0.04205984808376888,0.016532643973508895,9.7861872957922,-0.0008708005834973307,-0.0020407923443138258,-0.1968831082160527
1691524731.7002509,-0.17023790818457107,0.11872436823845675,9.903222628122444,-0.002431116791622919,-0.004287174969175799,-0.197620700793987
1691524731.7103038,-0.05123029903709707,-0.05817332132454626,9.814101453849638,0.00018974878309902462,-0.005465599804799809,-0.1972377707536275
1691524731.720296,0.16435432477384485,0.30514554705407076,9.775771131030279,-0.00288491360666503,-0.0030167068952647227,-0.192871030169254
1691524731.7303305,-0.11200793855252243,-0.054029146675112244,9.826407355456027,-0.002128785371529727,-0.004599697850446329,-0.1959179004008824
1691524731.7403824,-0.10134530776595967,-0.0681250785560842,9.799795619790704,-0.0007469567132899944,-0.006405712359203564,-0.1972690482909734
1691524731.7535405,-0.021558093542996863,0.04672124525731921,9.796134084270351,-0.0012983006019231759,-0.006205396115330573,-0.2005670775945241
1691524731.7603316,0.03602111789789673,0.23546243542081763,9.957812663513401,-0.004599405502639873,-0.005945312557049929,-0.2025109191711003
1691524731.7703247,0.1724708542604251,0.10268194950309292,9.881469220136063,-0.005026785926412245,-0.004546441572694135,-0.2009243478353078
1691524731.7802913,0.20645606799268112,-0.09917600183422312,9.831084295512568,-0.003267261198089976,-0.002718308664490938,-0.200514953332668
1691524731.7902796,0.26976697658897336,0.011771986530371733,9.740254740797067,-0.002644947294676241,1.3706688345754574e-05,-0.1979016025836522
1691524731.80026,0.04902387812052358,-0.04662714972991353,9.799593428051928,-0.002931452643278041,-0.0006792453320589053,-0.2007049133355672
1691524731.8103073,0.23627029200601002,0.03178675797206615,9.70491635455407,-0.003748782638316947,0.0017423149425783878,-0.2003119548137242
1691524731.8203983,0.12486871057660681,0.1185014570296879,9.8054981684568,-0.00602288054610098,0.0014037896831570987,-0.1979154159600789
1691524731.8302715,0.04490641408249502,-0.06057517713936864,9.85608228099307,-0.004784814729132506,-0.000543564700072142,-0.1943439503486211
1691524731.840318,0.11652839028818456,-0.22518199032079034,9.742109844040874,-0.0010625319120806536,0.0005562217703802213,-0.1945488562161977
1691524731.8503132,0.06638251698340186,0.08438032393385186,9.889312946786525,-0.0035089391546311156,0.0013984913079106976,-0.1949251254375035
1691524731.8602653,-0.056497835906614766,-0.26755249772938433,9.869393198169776,0.0013428356865959406,-0.0006433079887043929,-0.1942087372119481
1691524731.8702664,0.14692708371751118,-0.04901350871856578,9.798403542923122,0.0020180185534913616,0.0023107706621329723,-0.1962762882287556
1691524731.8802824,-0.04186837931201472,0.23223353738883706,9.95095368657212,-0.0012340337474390898,0.0003938175175533297,-0.1948744614894444
1691524731.8902764,-0.04377717391918069,0.03278504183994596,9.80951942788346,-0.001971566668820242,7.81265443089061e-05,-0.1968164553220326
1691524731.900302,0.10980033500314725,0.0008428003989279714,9.69356947959018,-0.0014143546108553002,0.0023975021446547818,-0.1951452900941426
1691524731.9105642,-0.09788527468971654,-0.27731052987012283,9.741051238125365,0.0020974604083378403,0.0018572775478976707,-0.1969825883681828
1691524731.920833,0.006486492178356629,-0.04607456458701232,9.806932068066516,0.00270953465557963,0.0022192458397898205,-0.1951526363666112
1691524731.930336,0.07211548865220663,-0.13519303130268748,9.763977519488023,0.005309966749263742,0.003640855183135488,-0.1944047023828084
1691524731.9403927,-0.08873612716489096,0.2035908997273711,9.918953916907283,0.0034664353537379416,0.0009255024907459325,-0.19004688759399
1691524731.950352,0.09756791242999376,-0.12190021520048937,9.704886531547025,0.004379249466586552,0.004543797423502385,-0.1915309687430913
1691524731.9603314,-0.08819379966210701,0.06774706780150508,9.840268026283814,0.0023043864447582028,0.003212088180284259,-0.1908373643930012
1691524731.9703166,0.022277029820541933,-0.13985684751456454,9.701080546614811,0.007519699467681522,0.0022581790400486076,-0.1857787926967198
1691524731.9815946,-0.05727377095890896,0.13097260800296487,9.793753792093213,0.004322962885650448,0.002001420523051837,-0.1886167188460881
1691524731.9917295,0.04930960426428101,0.011652010506442259,9.75387550654882,0.006025006156243989,0.0018098319625420131,-0.1881116290862614
1691524732.00027,-0.003844475709367202,-0.013776612039055733,9.797062312188212,0.0056925361585413795,0.0016139071204659308,-0.1907077689940984
1691524732.010426,0.05938744059077739,0.07382201222016078,9.767399620081038,0.0038885965527163825,0.0031591229470353454,-0.1924299706990773
1691524732.0202625,-0.3410663119419064,-0.0007520815884891329,9.925844915457999,0.005369407484936464,-0.002502451273985812,-0.1954310347611958
1691524732.0302916,-0.21935459738765492,0.45127269415422094,9.94897295560255,-0.0007283646714754007,-0.004378795129814375,-0.1966041286761815
1691524732.0404282,-0.12976079141125313,0.30760514980453857,9.969454378352554,-0.0023112761491788977,-0.009125258056232526,-0.193673100071674
1691524732.0503857,0.10399497370947916,0.07486730931445504,9.880628810709863,-0.004710841320705095,-0.008911493762190323,-0.1957912405307347
1691524732.0602927,0.36881568689370475,-0.1577517371842304,9.688542114684235,-0.0034000768463714743,-0.004572663765438015,-0.1980253269250447
1691524732.0705132,0.19911952711284747,-0.13262898858150401,9.679641036076708,-0.0021641363383800016,-0.001200011405627024,-0.2006222118909413
1691524732.0802743,-0.014066569969716258,-0.08696826382531944,9.710908104237507,0.0015727287276620719,-0.001879848553543019,-0.1987368573720509
1691524732.0903194,-0.07027241092697319,0.23602421283397296,9.80572119256171,-0.0008769986664891781,-0.0021010053338008073,-0.1959231158073003
1691524732.100489,-0.3778339446132938,0.17903584997258115,9.98964669510983,-0.0033163830888107686,-0.008867763535669336,-0.1953900118644292
1691524732.1103518,0.03057927951103467,-0.013484278670532701,9.777670540676654,-0.0029523521883936562,-0.007096434530207019,-0.195588554936176
1691524732.1203125,0.09184790647328743,0.050440349610358856,9.895478019902127,-0.0011891853412059098,-0.006422668725829197,-0.1960754950816685
1691524732.13061,0.28967651425270946,0.346604483476504,9.955276310740148,-0.005516572914545308,-0.0033973727724563416,-0.1992718239600713
1691524732.1405938,0.3115196880521704,0.30973558740473006,9.971772272195349,-0.009580801455867555,-0.0012329249922957961,-0.1990195473010594
1691524732.1504593,0.2937715289977226,-0.11005641224346825,9.754497115564305,-0.009809386561472826,0.0031149358545734082,-0.2018087764556462
1691524732.1603377,0.06201134835917024,-0.2431691199735283,9.656469025643803,-0.0038703213479532386,0.0022497329191600948,-0.2016466816241795
1691524732.1703784,-0.060960459380464516,0.06576146178654044,9.705586848658434,-0.004232668213963032,0.001103765373773215,-0.2053552230174596
1691524732.1803355,-0.018864354407361755,0.31576362222405735,9.826740732131418,-0.008243401167939387,-0.0011011625239321788,-0.2063636292989308
1691524732.1904538,0.20088490910021653,0.1273523220963754,9.799241932321724,-0.01018363995446097,-0.00021194262451388856,-0.2075092007691914
1691524732.2003372,0.43738955494368076,0.027668731707638058,9.802147142484738,-0.010571264371524185,0.0034902694032883496,-0.2038494904811436
1691524732.210405,0.29249689561405684,-0.4441779137768484,9.841226440447873,-0.0068766314227384105,0.006852033326736769,-0.2039001693303639
1691524732.2202995,0.17371369056813996,-0.513595733520011,9.843306950116366,0.0022920116308859173,0.006495461693313439,-0.1985226382787282
1691524732.2305024,0.029065654729722112,-0.06902743069429215,9.910386967312208,0.003926704412018822,0.005264098331311282,-0.1967337836797291
1691524732.2404284,-0.04342403803810735,0.23842293814988788,9.822312173778313,0.0012409955481971593,0.0049777663235234465,-0.1964185794169957
1691524732.2558222,-0.07322593405315932,0.1638092645839663,9.740982316392431,-0.00037338737520762374,0.003868642069257993,-0.1954324801738316
1691524732.2611265,-0.46022695452155304,0.22940449153169154,9.925313033782428,-0.003847413789841437,0.000563957396331522,-0.1982581575686986
1691524732.2703135,-0.02486806723320102,-0.13824615572096358,9.678752129799005,-0.0008871410213319251,0.0004377074800545816,-0.1978659143025929
1691524732.280566,-0.0012430608620251475,-0.0069016861589598286,9.854966683894803,-0.0014481649930983217,-0.0005211399593392796,-0.1984313686664159
1691524732.290351,0.25980143051245563,-0.11204592451182825,9.751156990139853,7.323992497548295e-05,0.0036801919940946744,-0.2000824471290166
1691524732.3021314,0.1341920776541595,0.023579322859728927,9.849081456793387,0.0009332812373881874,0.0052762138796091426,-0.1985710223491246
1691524732.3104506,-0.1401790625324496,-0.09671142373863605,9.83824898727242,0.0032675508598483897,0.003066132465249406,-0.1984004189546162
1691524732.3203185,0.10519544246723442,-0.04418984084859907,9.629497713822039,0.00682300439576251,0.005640550792515784,-0.1963593771035725
1691524732.3303003,-0.3346479312202012,0.16468833883231923,9.873931945480747,0.003176330499058551,0.0011767294778897357,-0.2000780065829808
1691524732.3406036,-0.08459795058543931,0.22451681311769053,9.790538475481762,0.0016186355093421281,-0.0012767099261837285,-0.1952175458247716
1691524732.3503006,-0.10885171475249153,-0.005050751471092796,9.78430241546301,0.0008208652319944044,-0.0020004989571639417,-0.1973171343381459
1691524732.360301,0.018453398612782057,0.04664897866865266,9.7564509532149,0.0023198461717550112,-0.0017911099730542825,-0.1938451935823018
1691524732.3703213,-0.07345496077128294,0.0856216407943936,9.860475055335952,0.0011226008550496466,-0.0022753988236189405,-0.1942199279840047
1691524732.380336,-0.19798121530857793,0.007482195910754178,9.912309809731578,0.0013295546125728281,-0.005576273990837183,-0.1960765977675969
1691524732.3903077,-0.08790628368859249,0.11007362572153885,9.928309400883927,-0.0005789539172837177,-0.008123431162826407,-0.1972206195170933
1691524732.4003203,0.1859089075019715,-0.00918539549093128,9.67364491709201,-0.0003427708020554049,-0.004263299862805312,-0.1986980845506245
1691524732.41033,-0.16645375938991,0.049768124198375466,9.88837031177224,-0.0015849288408682483,-0.008351789936616099,-0.1998812069470937
1691524732.4203002,0.03321142673306182,-0.019179588530119127,9.749697862322906,-0.0016566898373180667,-0.00792335752832884,-0.2031837513024861
1691524732.430349,0.1782150405711208,0.06190276103313567,9.713224230224649,-0.0018860953595573869,-0.0048334843183854125,-0.2031327148253972
1691524732.4403338,0.05210007698543288,-0.08508927168994962,9.752865972341507,0.0011494141275647579,-0.004918930930375822,-0.2024140616233403
1691524732.450299,-0.11016897058959738,0.16328987628673292,9.955713193401822,-0.0018220650105031753,-0.008014574028431332,-0.2036844452197606
1691524732.460299,0.20795211967020893,-0.0192213024081023,9.750897220006173,-0.0004611324972939722,-0.004944601755770496,-0.2033103962714726
1691524732.470343,0.05474036487127127,0.1264474019531548,9.86291093047189,-0.0006397203749575291,-0.006285381472711287,-0.198523010807758
1691524732.4803047,0.14966435461002797,0.07207737708233704,9.794762018479888,-0.0018435747789892327,-0.003934389815798569,-0.199537392454868
1691524732.490312,0.11905072174659792,0.06881944827791557,9.842612127154712,-0.0008209067976913972,-0.003937401560400663,-0.1979902644927556
1691524732.500341,-0.00653978597273142,0.24254737746515173,9.959695427079266,-0.0051449654190447655,-0.004980244490970859,-0.1998193671281392
1691524732.510347,0.20489620672781653,0.17166126826663664,9.843206015762153,-0.005988146977114859,-0.003820606466521351,-0.1961373050983006
1691524732.5202968,0.01827508130890853,-0.16847658151936065,9.79004721538973,-0.0031325726166386847,-0.004477748246721888,-0.1994245012576634
1691524732.5303028,0.32391386762171975,0.09965027356045461,9.708431970814669,-0.004017926095557118,1.7906336633120164e-05,-0.1995597441966588
1691524732.5403368,-0.025156633941459304,-0.02590748713299456,9.780898076679685,-0.0023990868641455194,-0.0017857457996407033,-0.2008207847650105
1691524732.550326,0.08688364146072249,0.19139887024953145,9.82025127947195,-0.006879476640936876,-0.0006833070616947038,-0.2041339834506566
1691524732.5603297,0.0802807225886702,-0.03753918227191643,9.783404787016963,-0.004773276164294041,-0.0014875453148452478,-0.2019901533896977
1691524732.5703237,0.055426430016756935,-0.04144035394298737,9.822051607111668,-0.004419062439552317,-0.0021336365762598983,-0.2023447712237889
1691524732.5804253,0.1364535692493628,0.02400828957303287,9.851086066894787,-0.006177155890132891,-0.0012673157566940839,-0.2033766766364629
1691524732.590332,0.32913903557333896,-0.17788538740797777,9.631787718597675,-0.002770710222223182,0.004063941967885942,-0.2029047419602925
1691524732.6003256,-0.20668455995267856,0.00995046913122238,9.997772273689463,-0.0031092643399477874,-0.0015196324125166677,-0.2005827089126164
1691524732.6104827,0.0926425514345164,-0.14979441139897043,9.743116825261549,0.00034602433718445186,-0.00027953161240453476,-0.1974683364207799
1691524732.6203575,-0.06556188878545051,0.015321337005205047,9.90330099630258,-0.0008910182714879047,-0.001521528286898948,-0.1974330057675893
1691524732.630358,0.06182468741111056,0.013258258177752936,9.80372184505231,-0.00012318016065975543,-0.0005450934360366362,-0.1963567097957188
1691524732.6403785,-0.04823340295760903,0.05713212138096633,9.868272991650707,0.00014162776271921175,-0.0019376105251780362,-0.195201899605518
1691524732.650345,0.21094919960693342,-0.09551972716615591,9.69447012781435,0.0012441405710702496,0.0029798526322648124,-0.1976513524825627
1691524732.660334,-0.015441815928172899,0.04776548277273055,9.863307322775798,0.0009905160403638881,0.001888770077349905,-0.1970377226646001
1691524732.6703284,0.00779692734038355,-0.13215689739733769,9.790103783689512,0.0027308347620764134,0.0024595876565305114,-0.198080848651653
1691524732.6803231,0.09133089673893857,-0.07226390458630054,9.668101166637442,0.004966462871816077,0.005564126657817076,-0.198331143456226
1691524732.690328,-0.27304106251531335,-0.05217912832609486,9.863452007850526,0.005262077841261249,0.0014730818558513377,-0.2011139353091771
1691524732.7003312,-0.19836974864348023,0.1705125488370122,9.873127621759384,0.00297299698841845,-0.002264644821101009,-0.198622476058727
1691524732.7104394,0.049497886633908236,-0.13943809769139323,9.70624863372099,0.0049429987607397825,-0.0004383134053522831,-0.2003107627208287
1691524732.7203376,0.10723668989952118,-0.13615975280769915,9.695685379492087,0.008413739875092668,0.0006515291321437505,-0.1986414899404103
1691524732.7303686,0.005146188814064369,0.18360178614352635,9.858716425360093,0.006261216072518911,-0.0009860933566384078,-0.1950107624108845
1691524732.7403178,0.2987006687962449,0.014556392989631087,9.70643440794559,0.005251542995248816,0.004001719708364481,-0.1951035519416386
1691524732.7503653,-0.010434365223366238,-0.055946219131933504,9.802874330136929,0.0065823574705839456,0.002891910365449282,-0.1943629791314656
1691524732.7603266,0.06602285705788291,0.0769765410429867,9.776715532740646,0.006168502032448092,0.003205329115928319,-0.1926105876739079
1691524732.770402,-0.15749286086571423,0.08833141892935997,9.854773489556289,0.006034474346817604,-0.0006091088991968096,-0.1934223880345875
1691524732.780327,-0.12094139250015545,0.07359787271711925,9.784754409381339,0.006227757433045862,-0.0011824326587139033,-0.197726171212917
1691524732.790408,-0.3355914234239405,0.504447845990602,10.049508291527012,-0.00038719987935084574,-0.006309089015746261,-0.1988467981393391
1691524732.800343,-0.10553362813470693,0.3784594159930897,9.96078491900726,-0.00568140131285392,-0.007733554423006464,-0.2004113455588872
1691524732.810409,0.05628864114442586,-0.06216622035602937,9.865955267518009,-0.004632169487549432,-0.00838070161884608,-0.2016891350324208
1691524732.8203754,0.2135871064767261,-0.10596788998549868,9.745487551657472,-0.0027495796854446453,-0.0065058176206472945,-0.2037901987607533
1691524732.8303325,0.1054441050981832,-0.0007039989330624173,9.773846121282071,-0.0019110627280639965,-0.006673323539499545,-0.2031554241950566
1691524732.8403256,0.16200514936136898,-0.048976953227517155,9.631449122731787,0.0008125324119829868,-0.003958067464805421,-0.2033208419854695
1691524732.850329,-0.18977371001430765,0.05570830955202705,9.864469109246246,-0.001789776616176673,-0.005829599913083186,-0.2075371106441075
1691524732.8603537,-0.05851479811123346,-0.03628048483338378,9.798181775691466,0.0021832117020609476,-0.007443536001958418,-0.2016220649058873
1691524732.870354,0.05967232755913179,0.5423619539364498,10.086823440171173,-0.0060938980240159354,-0.00704178587298309,-0.2037421872193867
1691524732.8803518,0.4039105071486123,0.27344327897329207,9.925920665458914,-0.006883691665973189,-0.0038951220994796593,-0.198225747543102
1691524732.8903494,0.3957103242835239,0.06541884914733029,9.884648237613602,-0.009362830373386727,0.00028757604628919676,-0.1994678040320927
1691524732.900395,0.27458303210421714,-0.4017817200979133,9.642521277640899,-0.004289712120748062,0.004676090211778263,-0.2040897270019109
1691524732.905494,-0.21142042409790743,-0.23869645524759264,9.742069161488422,-7.470942450425302e-05,0.0009266341969848961,-0.2029843886668736
1691524732.9203906,0.10740865670184287,0.3235923555864349,9.678300922176323,-0.006253709877140257,0.004073575639371242,-0.2075144012744481
1691524732.9254537,-0.13708402230047706,0.35462989343039236,9.879047415959855,-0.009043356735705778,0.00232092392514994,-0.2087492008979375
1691524732.9393578,0.09013940937591024,0.07423222882586046,9.849257008997279,-0.009199023679428566,0.0009549913417673178,-0.2070837130124623
1691524732.9493458,0.19914722391456688,-0.26780950281744165,9.869459233893203,-0.007378945691867001,0.002408633782633707,-0.2105888982589299
1691524732.9593942,0.3322637731320682,-0.2847024891277146,9.86959212274469,-0.0044833579927071295,0.005613792297837656,-0.2084979077155644
1691524732.96937,0.2547457794474928,-0.31849730403264553,9.83218004748626,0.0009342084429922022,0.008012199790736498,-0.2064955492789799
1691524732.9793546,0.08766966396894192,0.03321423662140638,9.88532787350744,0.00013450943533998262,0.008195097315125017,-0.2054173757607991
1691524732.989477,0.011959930989904319,0.023018014684894055,9.72824788735385,0.0006523043365278051,0.009189507192318584,-0.2056849112088734
1691524732.9993489,-0.1745150996528384,0.2968029851009913,9.83410973583607,-0.0032676210781076003,0.006202651230062098,-0.2023720552499348
1691524733.0094104,-0.2793206130130661,-0.11828484530017837,9.784856924905158,-0.0016728017299834173,0.00184248256446589,-0.2015915324266011
1691524733.0193558,-0.04577470836376513,-0.0903818678579254,9.768755222450036,-0.0004837663940069991,0.0015457584311624768,-0.2001286258275563
1691524733.0293944,-0.03969993713316406,-0.20933631054676907,9.774704352650522,0.003685298248743306,0.0008398355973226752,-0.200264896946674
1691524733.03936,0.0968604088803156,0.05135747146567024,9.792074644066718,0.004310458483622022,0.0025276752536988363,-0.1985967715556676
1691524733.049353,-0.058644039841793665,0.06444161917097772,9.858828799490107,0.0034172471282965717,0.002138060137987229,-0.2010536154086644
1691524733.05937,0.052019128597062494,0.13253716322074252,9.735390565649869,0.00260193361130476,0.0049362725292761535,-0.2014648278529698
1691524733.0693502,-0.19917177040440456,0.1505660430285211,9.843996308620737,4.616646208814018e-06,0.0028675318405777814,-0.2026640435035283
1691524733.079353,-0.15647913922354112,-0.18207276891018542,9.647956169869092,0.0035138981170089612,0.002766673330004619,-0.2071347643907124
1691524733.089366,-0.09090156446059226,0.29624258178658974,9.860103221305591,0.0005656533473221542,0.0005614037787696256,-0.2051674385840947
1691524733.0995102,-0.1437981451233328,-0.015981224743466433,9.825847374260233,0.001692022295028527,-0.0026669325407276978,-0.2059944530303532
