time,ax,ay,az,wx,wy,wz
1691525264.5939744,-0.02327159800479126,0.16135707809774788,9.881824236926223,-0.0011896346884799906,-0.0009886593640589482,-0.0004426493362466
1691525264.603861,0.08555432798711012,0.08739535307462955,9.798636721075649,-0.0006081222888086733,-0.00087799929500819,0.0026809976150338
1691525264.6140797,0.03191954251146848,-0.1815299394306458,9.753931345222961,0.0013826628056162185,0.0006575789724456237,-0.002170809293812
1691525264.6239042,0.0005283961792780367,0.16426322754707837,9.867399333936948,-0.0003197696480706549,-0.0006179924173254502,0.000250253145868
1691525264.6339867,0.05101723773971148,-0.04451872388305579,9.780319191458918,0.002113959162445254,-0.0010039212611013776,0.0024667970317473
1691525264.6439626,0.059256602529276794,0.03721635011833071,9.79885652442317,0.0005079779972522093,0.0005826666514239802,-0.0003145125049109
1691525264.653869,0.161197503806431,0.10036647768759191,9.779335120785065,9.594363127756157e-05,0.002611842592334736,0.0015727351308391
1691525264.6638553,-0.053223634257248784,-0.05926453312764233,9.826767029620958,0.0007445549311842506,0.0013553011018397378,4.09155798201848e-05
1691525264.6738224,-0.040543924697885696,0.018451185950709183,9.850035438537361,0.0012176538368590007,-0.0003844108896900601,0.0012165941768848
1691525264.6839552,-0.009986665502012382,0.06226372280655168,9.83216943397098,0.0004040465056737844,-0.0012285556230243419,0.001534737140691
1691525264.69383,-0.0004055770927166397,-0.14420773934946404,9.776608726889604,0.0023177354232492998,-0.000949157381368379,-0.0013456528360898
1691525264.703883,-0.002482412615249602,0.24870278816438587,9.895285419202242,-0.002266981979073933,-0.0015366489042388516,-0.001078182347765
1691525264.7139337,0.15512639855392799,-0.038986060207886246,9.731475965975054,-0.0003059939525289012,0.0008374827297952192,0.0001258237932865
1691525264.7239738,-0.11527185697092052,0.03380881395007021,9.887806173521414,-0.000240796651973765,-0.002257491303969186,0.0006917102325764
1691525264.733881,0.16235474190267934,0.07832509964410056,9.755335729782157,-0.0021608120729670268,0.001115385628288265,-0.000601721793128
1691525264.7438886,0.033759624951369006,-0.07656378497669986,9.771912108572469,0.00039211149390601786,0.0009198207156269967,0.0002997974113618
1691525264.7538772,-0.04208222793949136,0.02581581190235721,9.855486895086857,0.0003336342029498712,-0.0006988205189568447,5.765726725211629e-05
1691525264.763898,0.0581258643588386,0.01910641966517002,9.793744731052215,-0.0003287364261982714,0.0003926881300822573,-0.0012141603331024
1691525264.7738578,-0.10113890870333683,-0.11333253610605716,9.837896213465076,0.0018673673658330123,-0.0019952357937887424,-0.0023596610228473
1691525264.7839262,0.18031011840362018,0.23273446983593454,9.801713904588874,-0.001306993248362584,0.00035392994223110223,1.815696647962817e-05
1691525264.793955,0.18535206712841729,0.05417964206375288,9.734836052823605,-0.001465308530914883,0.0034872774786019163,0.00105304403748
1691525264.8039317,-0.19736464531658088,-0.09539170546452251,9.895226529254346,0.0009185063563554866,-0.0010735839276722876,0.000367591990443
1691525264.813948,0.01702356743884155,0.031718220853047284,9.822235189654748,-0.0003249926638683521,-0.0008213745386152076,-0.0013233059837425
1691525264.8240273,0.13637304488857654,-0.06858731352054817,9.720921047199388,0.0021936691398146708,0.0010364287123786884,-0.0001617552299926
1691525264.8349662,-0.03211021353534965,-0.06876100740353946,9.810287611573585,0.0021907271224449617,0.0010248807703078404,-0.0042126148293668
1691525264.8438911,-0.11017844386917036,0.22275109311163624,9.95883138326821,-0.0005209276257979309,-0.0024333111392869982,-0.0022885331238562
1691525264.8539877,0.10376379638207725,0.012851909702734478,9.769518945229047,8.888994017982352e-05,-0.0011283622738137346,-0.0011050123541558
1691525264.8639088,0.0846969108249928,-0.0059281529314619665,9.788010823863026,0.0015603861202915855,-0.0007308698942191908,0.0002640282216539
1691525264.873967,-0.014198864395066459,0.20199533827569102,9.89141379415657,-0.002137339923628282,-0.0016584628317740453,0.0007729092792665
1691525264.883855,0.2352036188098704,0.05649752992435024,9.711838171311328,-0.002513241537843975,0.0024337747086023757,0.0014612920529266
1691525264.893859,-0.12315746517394582,-0.03852135028705115,9.884415480899897,-0.0020699221963196594,-0.000424283712221607,8.037757995179185e-05
1691525264.9039335,-0.008844118171148777,-0.14744855112376395,9.770352429227811,0.0013875339365512153,-0.00104005390622597,-3.0989391444117935e-05
1691525264.9138992,0.08134211822918234,0.18798588490099305,9.838037623462759,-0.0028246636604057898,0.000620297209813325,-0.0014771583775932
1691525264.936997,0.00928643646418743,-0.07339456215611746,9.793765677831942,0.0022517960544619713,-0.00038476204807912784,-0.0011701851437742
1691525264.9399102,0.1320433643479582,0.43729519980518256,9.90883323501577,-0.00024861303906487743,0.0001665441294666634,-0.0010759553226585
1691525264.944733,-0.055834104111661224,-0.09247496373692714,9.817703048905667,0.0006618501641774963,-0.0005952407452249554,-0.001300944928726
1691525264.9539154,0.08605541850893939,0.11598911187405397,9.817957923202233,-0.0006375330917661443,8.161928431259935e-05,-0.0002098294028023
1691525264.9639602,0.09683537059851585,-0.05819637516097365,9.749117837091827,0.001049636154400668,0.0017609897501943861,-0.0002887862321863
1691525264.9738598,0.004456233381293681,0.1115283272932352,9.856144033834584,-0.0008472773901322777,0.001131405766678149,3.753534453561792e-05
1691525264.9838536,0.10825609513956963,0.04167591519083414,9.779396833127667,-0.0005857831199350375,0.002500082074357294,0.0010761703486145
1691525264.9938784,-0.12558339802246135,-0.08004660061759673,9.848342204835635,0.0003429444227345266,0.00021461568107577548,-0.0011694589449966
1691525265.0039067,0.07657838764371552,0.016554149424935945,9.791871335488453,0.001491098097926764,0.0004790943155610803,0.0008835424557851
1691525265.013922,-0.07496323939232695,0.007791635597498743,9.859958204058989,-1.5803565459733373e-05,-0.0005419995303408883,-0.0022293093900139
1691525265.0239832,0.11816365816267478,0.1284037124107078,9.792624929718222,-0.001255199257146088,0.0008914883055878013,-0.0004668792064244
1691525265.0339456,-0.014585568930332934,-0.09016760760533067,9.801379733820898,0.0008663373071465481,0.00023027749186864662,-0.001042791857099
1691525265.043944,0.048851962490737505,0.22121896487160497,9.869677060833581,-0.0015293757035698278,-0.00042501371529995356,0.0023710570710768
1691525265.0540435,-0.013996228489132607,-0.0834112888217771,9.8039941760401,-5.304126673744168e-05,-0.0008526785954989662,0.001062363302271
1691525265.0639253,0.05480342695648399,-0.14485772150884826,9.741127674142437,0.0020614399421564405,0.0006046967853951192,-0.0016283739644045
1691525265.0739453,0.04323670678158737,0.1860851434269134,9.85286996119863,-0.0009676129916877723,0.0006478476326229223,-0.0009020003310347
1691525265.0838866,0.1038896469403282,-0.01507987356577643,9.762942352108178,0.0008160549387644035,0.0013821308323010225,0.0010187967016186
1691525265.0939074,-0.18234600397163883,-0.006358861058309473,9.915534990871764,0.0008618957376471526,-0.0026743483622752836,5.504991328915843e-05
1691525265.1040037,0.20148222091052917,0.006920643802602976,9.719001402254593,0.0008801537303628973,0.0014949993821948189,-0.0011899315106625
1691525265.113978,0.1500687764297007,0.13501729243728972,9.786330252195757,0.00017490189690493442,0.0032112401482370942,0.0012523723119279
1691525265.123912,-0.1698069561124599,0.016512715413176914,9.906846328294368,-0.0007303147609102369,-0.0002268245212265941,-0.0003919779376069
1691525265.1343577,-0.022810012134043406,-0.03048138735328972,9.82447417734188,-0.0008707497597925159,-0.0005386446139665716,-0.0025466962072009
1691525265.1438725,0.1499067446034523,0.06888207639611169,9.773172016027676,-0.0009493700036013882,0.001267000707525909,-0.0011940498190874
1691525265.1539018,0.04086584331161157,0.06196584349379509,9.810105644417028,-0.002142566694070456,0.0016588876032919296,-0.0014067755366618
1691525265.1639376,-0.09773761571705021,0.0019349917427495722,9.875338405554077,-0.0011113962664873963,-0.0014461227678308807,-0.0001356865798065
1691525265.1740897,0.12347440771877331,-0.09220419108726137,9.724778371616287,0.001700824622580677,0.0004295650420951712,0.0004860579681639
1691525265.1843567,-0.051569944980332454,0.021863334112920282,9.855103874179429,0.001370399050122787,-0.0009718934210492897,-0.0002694104152674
1691525265.1939883,-0.04788278712558381,-0.019809972284403,9.841487884690645,0.0002993568441427632,-0.0012572907529220603,-0.0038620943489427
1691525265.204665,0.10568656270852586,0.24995380143377377,9.84986437868751,-0.0015692215359213643,-0.0013421931564120769,0.0017094552638532
1691525265.2139747,0.030153418212033926,-0.05357755644738131,9.780088663959473,-0.0012574303704899952,-0.0004414103245786511,-8.204053686359635e-05
1691525265.2239711,-0.006041592607848068,0.0376593683589356,9.841687898208363,-0.0018743431973918417,-0.001249422712530877,-0.0001617540658394
1691525265.2339163,0.06832772201810354,0.05759318410417373,9.822098439066782,-0.0020658198846187264,-0.0007133571481022723,-6.054975738615902e-06
1691525265.2439628,0.005908560325534608,-0.07333978624656233,9.778929406588734,0.0002978794860835871,-0.0014148267934107172,0.0007133073120435
1691525265.2539055,0.14170019680125615,0.0068079620865699715,9.744833260290731,0.0011293537073727659,0.0006832637112138766,0.0018476606526469
1691525265.2640045,-0.05406880060106097,0.1510179929699959,9.900853052006514,-0.002798954721698119,-0.0001299794477074392,-0.0003282856016362
1691525265.2738996,0.042022393841037835,-0.19077959962173482,9.738378514295334,0.0013897640956679431,0.00014792819556714028,-0.0005633530492837
1691525265.2839155,0.012370018296173067,0.14677374704564852,9.855631007222138,-0.001066317920846577,-0.00014822772472477313,-9.392137354106817e-06
1691525265.2939255,0.1430968779326178,-0.021540389828678272,9.734987444267798,-0.0007619458186602376,0.0024643095068026285,-0.0008923034003878
1691525265.3039055,-0.14951740238658132,0.005518256583011732,9.896312514873415,0.0004468910705569594,-0.0016238308561522337,0.0001638267601897
1691525265.314021,0.0720730707706803,0.05435228033453102,9.784904693334846,-0.0006837436511278694,-0.0002942499401573099,-0.0004933031561727
1691525265.3239117,0.004776724210392373,0.08151464829355848,9.853459371171073,-0.001888131708447083,-0.000661198188629858,-0.0008051108854765
1691525265.3339126,0.11412799124672847,-0.12660398055821528,9.718335504409113,0.0013357491830441456,0.0010501955744154961,-0.0008725465561206
1691525265.3439372,0.021497266388072638,-0.018511980914902342,9.790583634695478,0.0017403145434087602,0.0012263937986888276,-0.0014287417109067
1691525265.3539195,-0.03909562387719578,0.303295119242262,9.932067245688662,-0.004197057756292248,-0.00010277957454078607,-0.0010830212670321
1691525265.364053,0.03979110206706149,-0.19052837384098645,9.729509443292077,0.0007505039699697664,8.944840552681328e-05,-0.0009258147149289
1691525265.3739543,0.01626749293132137,0.13483185716577176,9.861261389949115,-0.0009743111697763318,-0.000665299287404118,0.0003854862477687
1691525265.384015,0.15629168677762753,-0.06090522403574879,9.711441425756277,0.0008805203906973326,0.002171124671179766,0.0002747982105297
1691525265.3939445,-0.00837671356924352,0.22104171075994608,9.896079865973654,-0.0021552456146096887,0.0008296458654486559,0.0023744218231236
1691525265.4039352,-0.05813248508078222,-0.20805696442018373,9.77922705692611,0.00016823596879390464,0.0005301356642199161,-0.002022554614296
1691525265.413946,0.04109547617385212,0.11603722750032812,9.818213108846937,-0.001854582602315139,0.0008248273017919396,-0.0017539490765834
1691525265.4252012,-0.06731303290637773,-0.0410209641914955,9.849890230159675,-0.0007604563810430551,-0.0012777323122465897,-0.0024971472850943
1691525265.434018,0.13258688230097385,0.12030679884131622,9.784861080313917,-0.0011352441242786903,-0.00017765828306114665,0.0002562188490351
1691525265.4440644,0.17700136526878288,0.08892676710336543,9.755169678059106,-0.0017417121421221511,0.002563411736037662,0.0019363103963491
1691525265.4539735,-0.05142447004984324,-0.2732871768044208,9.748761778790438,0.0026481329478459524,0.0022479052664435765,-0.0016939798190201
1691525265.464841,-0.13517631754799372,0.02638093397314079,9.90094531547545,0.0018949228465866053,-0.001195790940096385,-0.0026062854851538
1691525265.4739175,0.14191432775691107,0.05978464943094683,9.759509496276182,0.0019485630673342562,0.0005595829875210374,-0.0012204760971421
1691525265.4841166,0.10182376735957738,0.12184239112595655,9.801066705635666,0.0005325605326098393,0.001750911933491658,0.0002338249648978
1691525265.494026,-0.08858113750600635,-0.05906990794134604,9.864236917969965,0.0012858274794695329,-8.305835594888726e-05,-0.0018131965591515
1691525265.503961,0.05161154440928963,0.1428635387849554,9.841199439213428,0.0004044053455318205,-0.0007640028996648927,0.0011521423982862
1691525265.5139625,0.004943003831166545,0.09106762690322326,9.857449765870127,-0.0015636513599815137,-0.0009230941413470392,0.0004294373973329
1691525265.523985,0.024117001787026988,-0.08969619270780868,9.775414666349784,0.0006499229946565883,-0.0010512323747224762,9.245373593776314e-06
1691525265.5357375,0.08194181920903865,0.10895235571166562,9.811685704842535,-0.0018907303016174302,0.0008192406674069541,-0.0011131837784255
1691525265.544001,-0.14526451557104425,-0.0064852201234054,9.890628025968274,-0.0004341410609013955,-0.0026270415459572374,0.0007419901846965
1691525265.5543232,0.252642275438012,-0.08731031565225413,9.643868315163324,0.0016021009884301311,0.002867032699794325,-0.0002407141548524
1691525265.56395,-0.13093955429723708,0.19453604798263505,9.914161720242333,-0.0021444098591571767,0.0001088213135601681,0.0031302826426049
1691525265.5740662,0.2297441758445931,0.11937813788629213,9.82553759598221,-0.0013115162023274339,0.00030473840316016463,0.0121275971357767
1691525265.5840676,0.1556991984023601,-0.013234463056132304,9.708900611985202,0.0005871169327573463,0.002983295850997104,0.0150213700433318
1691525265.6007674,-0.16904657073255736,-0.011888849770425529,9.824256613616418,0.00046069101590844914,-0.0014758956855229187,0.0130428990994637
1691525265.6040442,-0.5158862757421486,-0.4526562825736022,9.929782516683543,0.0015023058442993852,-0.003724098660818557,0.0080249302734678
1691525265.6334252,0.12920893960282442,0.08491469852401544,9.820421216995003,0.002638847403129399,-0.001252036134712273,0.0025267971393709
1691525265.63475,-0.191199955988738,-0.9579755324359573,9.678431022797609,0.0005064510109866736,0.0009648760768907308,-0.0070412696625048
1691525265.6355968,0.35960466037295497,-1.6288418472527801,9.06852903237323,0.0006346795334757615,0.0033505304382195284,-0.0124231909687573
1691525265.6439357,-0.007569312674668529,0.3953579501679714,9.935197182790843,-0.0036508961956846363,0.002174897075940976,-0.0090063444624597
1691525265.6539583,0.024488398315606185,-0.05652028110287633,9.817890337887949,-0.001683173311391147,0.0029702233708562378,-0.0002075724589581
1691525265.6639245,0.23319057363317056,0.16097519680991867,9.64061481793341,-0.001828424364579439,0.00939933876141476,0.0133748206024115
1691525265.6739454,-0.4488915965586941,0.20944032861122627,9.862610332987465,-0.0011645419949714423,0.005247762927450225,0.023342617106909
1691525265.6840403,-0.6358441123032402,0.09689319776212801,9.913446515143365,-0.0026248961321950334,4.9934956875340695e-05,0.0216356592898314
1691525265.693918,-0.3452957391102895,-0.1777150546849973,9.786847843088367,-0.001146793340775609,-6.735386495413584e-05,0.0158022169669215
1691525265.7039957,-0.2173411508563508,-0.3170103631795413,9.761986889318194,0.002640297283281132,0.0012759940034158149,0.0045887334452067
1691525265.7140486,-0.3700820825507969,-0.061915316094960864,9.911359832397805,0.0005865652410310919,0.00030698978993971756,-0.0090730355407054
1691525265.7239978,-0.25699976579073075,-0.07579335228670725,9.797379439498437,-0.0005697176682135705,0.0014502748217815166,-0.0192866639519984
1691525265.733968,-0.08630632903412652,0.07083477388954322,9.762332083769433,-0.0004074071576239878,0.0034608968486219095,-0.0175219771738106
1691525265.7439735,-0.37147644211393116,0.011674907972188104,9.900112943521238,-0.0006845459900638956,-0.000358346123008714,-0.0156057046080882
1691525265.7545462,-0.2024358781352777,0.04313866382670244,9.819970589886017,0.002133328680936161,-0.003587780814495118,-0.0061941298010701
1691525265.7639194,0.009374730394260527,0.13077831310154964,9.834239534170814,0.0010563533998459954,-0.003358698808086125,-5.705385067859402e-05
1691525265.7739303,0.194567316553237,0.37821562556495536,9.861651683300185,-0.003353257325944222,-0.0013533350533121795,0.0112961151351278
1691525265.783926,-0.002877165015877531,-0.13975975725380088,9.731588962175348,-0.001787516535897154,0.00035874872710432796,0.0115885560114925
1691525265.7939813,-0.5584993540023032,-0.22362243528854914,9.747238108868181,0.002601751961268917,-0.009174273099028251,0.0191154556994383
1691525265.804,-0.9900318922944803,0.0880047403337712,10.057618302285272,0.002652991165801379,-0.03494470760722435,0.0364317188684885
1691525265.8139503,0.7625729670490152,0.023761187452295437,10.299601780841966,0.00428971605193845,-0.04379420859915166,0.049852743995661
1691525265.8241434,4.609008652882899,-0.5419624863888969,9.216652069443283,0.022576035891319287,0.005018809513155086,0.0390600750868265
1691525265.8342905,3.340847469482384,2.307986881825616,8.944742385358465,-0.003811441993041691,0.05692129535237484,0.0248869417880719
1691525265.8440912,-2.0134671672110644,0.8570539071183894,10.13685691216367,-0.0224334456803962,0.04181417304735793,0.0017866610612777
1691525265.8539698,-4.3762778992202795,-2.018102276097065,10.537172838186958,-0.0064627396665138245,-0.014342608916043715,-0.0096014977718646
1691525265.8639345,-1.4023485659462946,-0.9439351570480612,10.216971204188889,0.010022232851917065,-0.05381252718012526,-0.0133639497036988
1691525265.873937,2.757881262340719,1.0427120791908424,9.340927603581337,-0.004965620240700836,-0.02548336032105201,-0.0069969666476304
1691525265.8839858,1.9635448018114936,0.38580462203897864,9.79416288933135,-0.01300033853145215,-0.010717191440802371,0.0038219453015421
1691525265.8939288,2.451250773712584,-0.9976440110279982,9.542112250366566,-0.0010525931653401514,0.011899721209553717,0.0189609939877932
1691525265.9040046,0.8523685179804764,-0.2959827791045472,9.570325783244366,0.008120129019410711,0.012323192779165274,0.0355767945473139
1691525265.9141054,-0.5586824250999104,0.22025751433149782,10.039644908259936,0.0065403101889428515,-0.002925409361891337,0.0436288456146662
1691525265.9252615,0.19215569923133852,0.5790439464376437,10.148048223645349,0.005417938214927754,-0.02074380238278999,0.0501521418516581
1691525265.9345748,1.1621407740383318,0.8246330570586202,9.651003600845215,-0.0021753149089919805,-0.017467755677561342,0.0529410618071501
1691525265.944086,1.2595794213991056,0.40235421836610247,9.54016022763528,-0.010985064281760708,-0.009049647435300819,0.0479214752738421
1691525265.953991,1.7189556868632263,0.43371161055460694,9.699271624453397,-0.01986594104053534,0.013345437825032405,0.0322088862483446
1691525265.963951,2.713902704192929,-1.078733333729956,9.552754776771865,-0.01547667723435375,0.052960755544414616,0.0315085316722338
1691525265.9740696,0.3291693930467285,-0.13160405149962634,10.399368884007435,-0.021134520530602077,0.06418496196902843,0.0370538013701384
1691525265.983987,-3.1984199318685755,-2.683959412159549,10.27660834624525,4.074376849332209e-05,0.03315522379421678,0.0465688409929221
1691525265.9939976,-3.037145172419781,-2.095802134645305,9.71054105474768,0.02914741506270396,-0.007846818860107112,0.0402229058270399
1691525266.0040076,-1.925588533891925,0.7242062567893542,9.45943695790733,0.026813543225883994,-0.02827203389756201,0.0363226609950011
1691525266.0140414,-0.28896936387585576,2.3302815036952165,9.542562652205739,-0.005127767584759328,-0.034648876874532414,0.0433863478426878
1691525266.0241044,1.5766976086718714,-0.03368451058071793,9.735421436976317,-0.01780760037657532,-0.014892993851572939,0.0586953575437014
1691525266.0340528,2.2057852863640544,-1.3105324074309954,9.573167597725824,0.007041006890086555,0.014275782199111981,0.0827840159361307
1691525266.0441127,1.3892074526590688,-0.1767333240815715,9.757273510033585,0.016620548125883736,0.044431021169124195,0.1092805604164545
1691525266.0541892,-0.9079374448622832,1.6945466179659496,10.365866015686994,-0.000860767055636668,0.03873288994962679,0.1290890316193049
1691525266.0639572,-1.9044173096996053,1.1295932581029915,10.21420550568499,-0.012762803577083618,0.024303996927225263,0.1462137440864985
1691525266.074085,-1.7139367140723463,0.4551711002478459,10.144185708977554,-0.025841338182650216,0.00626519576346531,0.1577581355993693
1691525266.0839756,-0.9733553913472868,-1.1965551380950685,9.426461323438376,-0.015899220925122023,0.0006081394893478718,0.1696675459568446
1691525266.0939624,-0.21738612707614113,-1.9681736251169002,9.18087488798785,0.004235294365462934,-0.0017340013643076051,0.1706178675119822
1691525266.1040056,-1.1501849385627512,-3.958265300161341,8.935009910912452,0.07196599470556611,-0.00848089493228334,0.1857259909336512
1691525266.11396,-1.184716864864294,2.876294741328143,10.446933721002575,0.04685443141523196,-0.02681163711794102,0.2028013358538096
1691525266.1240242,-1.2667488881763571,3.818534467539546,10.529056227266025,0.015003043322469599,-0.04592265831002216,0.211376730603451
1691525266.133979,1.1905593179573888,2.223755804491501,10.539290521952244,-0.020774230440376983,-0.03989033106326521,0.2022199372475092
1691525266.1439552,1.83704107963521,-0.11510305693765518,9.729039573037651,-0.028527849435211985,-0.019182543203153324,0.1809892396156733
1691525266.15398,2.9717265599391474,-2.2130013122815133,8.743032344464927,0.00959088543744305,0.016998441594471156,0.1724347958986704
1691525266.1640143,0.8174374784412198,-0.6943658926789744,9.418704174961919,0.013696816394770904,0.031108958070879416,0.1641063431923335
1691525266.1740153,-0.7771445941898818,1.186415545500035,9.806188258777162,0.013202017575121183,0.01959271912640557,0.1629154125873988
1691525266.1839478,-1.3725208630235048,0.8911139516665446,10.348999902720852,-0.0054151166421879705,0.0019222569433890164,0.1647238026087229
1691525266.1939478,-1.0097997519743496,0.47466403765941123,10.224808063165808,-0.009519916530667185,-0.018321734638111545,0.171303767961735
1691525266.2040377,0.5557319154376456,-0.45153135360891256,9.681329919477978,-0.001723575010240578,-0.017629325907009226,0.1779008547489588
1691525266.214018,0.9595182677725755,-0.7952365887004129,9.352102965353287,0.013750581636823285,-0.007142613609495764,0.1880698541824763
1691525266.2241542,0.9063851254926417,0.49156612056444565,9.666687121428112,0.010096889160374819,0.003886168938592703,0.2049080471222346
1691525266.2340736,-0.029184143123238228,0.9030426568573315,9.842763064235317,0.003453379325306426,0.0019095376556121533,0.2329079846565669
1691525266.2514417,-0.26605162401689064,0.007179491576286487,9.990404343180778,0.004951871306656549,-0.006518338839606693,0.2585323194687312
1691525266.253945,-1.502662849375095,2.728156424150385,11.224298151156866,0.001439619492876478,-0.01918162921675674,0.279300097626919
1691525266.2640097,-0.1364199828187619,0.33958431973057274,9.729115916042486,0.0016963206226345067,-0.023828183124865204,0.2918958405678217
1691525266.2739663,0.3188920330529477,0.11321250036244593,10.05958899441777,0.0024846799249377705,-0.025619946946256612,0.2949779967491572
1691525266.2839746,1.4027003126483055,-0.0513490328424503,9.600820763691479,0.008590390211931295,-0.009475585229672975,0.2953880469028895
1691525266.2940483,1.5655380818261586,0.803647606906671,9.815185290408223,0.001354021438064573,0.010637059075505018,0.3028413991157954
1691525266.304022,0.9973007648372144,0.4500145374719951,9.808938044387286,-0.0014827686444767545,0.023963285732080227,0.3161036113922541
1691525266.3140447,0.37909560314053603,0.9179029463522373,9.934638990793365,-0.008555269503893213,0.02454606814266389,0.3419339994614069
1691525266.3240066,0.31257842010398496,0.1903542219512506,9.745154652937869,-0.00735287198471137,0.025246101809191037,0.3677919844810908
1691525266.3340166,-0.32194681782331747,-0.2983917433925233,9.699481965664292,0.0004785944406064642,0.019088705740340328,0.3824301699821894
1691525266.3443315,-0.08455095297003651,-0.00420498631439426,9.49682041451513,0.004188579659528075,0.017580963941456234,0.396042052907223
1691525266.3542602,-0.9886138197693826,-0.40311186067175,9.798272614941522,0.012672242881725857,0.004938298335652457,0.4027211109821741
1691525266.364138,-1.0220274398429439,-0.1239642819028116,9.923755954383843,0.016097519481669625,-0.011116378734020443,0.4024621586029475
1691525266.374081,0.1169689370160407,0.5662913285147014,9.653921181702612,0.011778740606363669,-0.008832633573097947,0.4096524159138148
1691525266.3840387,0.11045940969204922,0.4135940524134569,9.798134692148494,0.008632078678769391,-0.008299993862575246,0.4163915554706995
1691525266.3940432,0.20549060943860997,0.3512222842263279,9.684570994091303,0.00674367025987692,-0.005106140561182406,0.4236739019577448
1691525266.4041045,-0.0038652320959358263,0.515797288210635,9.844035825957867,0.005113656904833061,-0.0066809356902903525,0.4349670449917261
1691525266.4139776,-0.1802522630139323,0.16446130764693612,9.862989332327805,0.0018293467693183115,-0.006275401387368279,0.4313643316452448
1691525266.424059,-0.18308584247298573,0.66341520992787,10.103842575105872,-0.0030627272553406092,-0.009702116596381545,0.435667250556225
1691525266.434177,0.351688854815703,0.9318038143380311,10.032602105663955,-0.014679761395338817,-0.005252939621837302,0.4435191194240992
1691525266.4439816,-0.1024033116172736,0.4676581861440543,9.985305317872,-0.020449073494821963,-0.005008349809090043,0.4489956835930292
1691525266.45398,0.7768758908491126,-0.3510631177344339,9.886916987945332,-0.014661082605767215,0.002398989705682084,0.4570041338627283
1691525266.464166,0.7604735455873535,-1.1620101350685708,9.798328923428395,0.0025202991755657544,0.012063687235838241,0.4577741364662592
1691525266.473992,1.0786091165314906,-0.4751834948578543,9.376889476997457,0.010119685706231098,0.02859258948782797,0.4579540530865137
1691525266.4844031,-0.03604985547281471,0.23999427123528153,9.418668691431208,0.014637721182702217,0.03152197605246601,0.4627381304924433
1691525266.4942217,-1.01651795031127,1.2329663020369896,9.829548965089339,-0.0023095449443945025,0.02110459262065311,0.4624704162304346
1691525266.504307,-1.5988257589941615,0.35393171643405036,9.966229238575497,-0.010377066249901557,0.0032637806503664057,0.4656989316170161
1691525266.5142791,-2.015582077345421,-1.3276125063421973,10.125416900569528,0.007031151965026919,-0.02480608002350265,0.4623403588955347
1691525266.524179,-0.5768545072095586,-1.2318023052834741,9.735084472069357,0.023262322771148824,-0.032508739609048876,0.4569927195732539
1691525266.535131,0.5614797398622129,0.26797311624359166,9.705778085304503,0.024426815969223033,-0.028665836943118583,0.4626473824207728
1691525266.5440068,1.069145430887226,0.6857071789290906,9.462163887252697,0.017496894454882138,-0.013024302936113914,0.4615430275623743
1691525266.5540254,0.3642746334978007,0.8312259942426907,9.704023658266248,0.006689688725627554,-0.006779885928685447,0.4625374416534846
1691525266.5640638,-0.13907290965610758,0.5040040324964032,9.800011304693076,0.005729380503617364,-0.009551858827254603,0.4690864125912135
1691525266.5740354,-0.6310329321963949,0.8534867916369697,10.169479659965285,-0.004018000776275221,-0.01825420660220482,0.4689720908825343
1691525266.584108,-0.07337617062814428,0.7420048140299668,10.163197504727457,-0.010680532126993164,-0.022004306387241313,0.4713861684029047
1691525266.5940652,0.808867410245519,0.6617149203356568,10.130316566132294,-0.0188596716909379,-0.012446031328882126,0.4735678772156184
1691525266.604167,1.18532477919644,-0.5997670856089158,10.025306100130798,-0.013415233813388503,0.0013619690501060725,0.4752226511661951
1691525266.6141164,1.4791261244784046,-1.0486861615612415,9.480343798855525,0.005826909058795765,0.018704944251314762,0.4808863143150751
1691525266.6240826,0.4143624161764894,0.0992050576264849,9.479306404103662,0.008129282185995948,0.026664483843686616,0.4806683699314539
1691525266.6340358,-0.12017476058815448,0.8453418233137385,9.684830868472517,-0.001212923480566561,0.025024612340948438,0.484067354602093
1691525266.6440232,-0.6002076307730598,0.6278602509170271,9.573835115163375,-0.008740535940394676,0.019043415274133287,0.486793492240185
1691525266.6541083,-0.8057436177225245,-0.41133858805155965,9.735521992506218,-0.006020839706316352,0.008130061627128931,0.4876999298756068
1691525266.6640606,-0.825995558024643,-1.0275837547678217,9.734483901913523,0.008482412935887848,-0.0022044854477098717,0.4913704733078425
1691525266.674138,-0.5659641352091732,-0.6024828650000801,9.785583208748697,0.01797782671874561,-0.00849199147953491,0.4864420334522669
1691525266.684024,-0.0809463043077855,0.3522661008395536,9.86953126509644,0.017294560383272276,-0.008617874111458026,0.4865097741310542
1691525266.6941528,0.0802539548254265,1.0218346251172308,9.878852458402738,0.006198685577636897,-0.006914758572894964,0.4892466406052058
1691525266.7041118,-0.015071240849480458,0.700075405213274,9.891943874494405,-0.003116626981630166,-0.004914779005959752,0.4898375908558314
1691525266.7140222,-0.05872899138174917,0.40551312089589453,9.855460040247108,-0.00517670875262083,-0.0059822927174624715,0.4931136707489436
1691525266.7333326,-0.014293276644517936,0.36638453405185495,9.828997565562743,-0.006266525381491082,-0.0039835688651770175,0.4932539502804224
1691525266.7344368,-2.4700506991024485,2.9710476025804433,12.191040995653687,-0.01418251437064453,-0.00873708497186694,0.4905761818115656
1691525266.7492898,0.6992036851864998,-0.2671677052452918,10.13101726419096,-0.00848536779777371,0.00019406893161040228,0.4978877941791956
1691525266.7540288,2.061187246342914,-0.9804872365171657,9.27280867187218,-0.0015719234309162532,0.017044149224594934,0.4966689089958613
1691525266.7640245,0.7526896461982097,-0.49939821898020514,9.777690063844283,0.00694166521815104,0.02666773473331406,0.4934422413532679
1691525266.7740493,0.05462594582077839,0.5222798373447998,9.569820158546593,0.0046843160621713375,0.030247647038393086,0.4933342079346125
1691525266.7840111,-0.9100121835128954,1.0061377231423987,9.712696238954202,-0.007564025747677121,0.020552475754021342,0.4903601149742548
1691525266.7940888,-1.0190889571589425,0.5226726059832878,9.688424230237827,-0.01532505499666403,0.0076375535600998684,0.4907332698528712
1691525266.804025,-0.8130482329524006,-0.24219968399065508,9.685121724469973,-0.015309414740956033,-0.0038028110423688876,0.4889653960888331
1691525266.814213,-0.6244121834238463,-1.472994807545113,9.535863122949696,0.0025310410023161164,-0.009151796281988952,0.4876655379955714
1691525266.8240578,-1.003444274359635,-1.177022765967485,9.923848539860346,0.020128666633099715,-0.023503821615465624,0.4846090416138117
1691525266.8340473,-0.31963288522931665,0.0623389301900867,9.949179585083234,0.02023628413198684,-0.02750819733901362,0.4805463890259211
1691525266.8439972,0.2258238133353045,0.980503131797267,9.894632694502409,0.008424928065124106,-0.025048935450130868,0.480224374932522
1691525266.8540394,0.4472314727944872,0.6727774792286806,9.803329283370383,0.0002684804894154041,-0.019688871576809933,0.4840782920544093
1691525266.864031,0.14147572196581812,0.11290517895877648,9.768153330107193,0.0007625018056704172,-0.018539176761900165,0.4859320561115687
1691525266.8740013,0.7122477978015122,0.12835548714820433,10.100307983068213,0.0010910381467816243,-0.012997461050442671,0.4929549435799067
1691525266.8840609,0.959501438312521,0.11270096003257127,10.125790380435921,0.002520431111308964,-0.0020328781047396854,0.4884764293854182
1691525266.8940814,1.129709594007151,0.7009529150056253,10.073055403569406,-0.008195040116623614,0.013189004739634927,0.4852409700577204
1691525266.9041014,0.6733929631275404,0.20361483498918337,9.766508921906906,-0.007430614994827434,0.02188435865935584,0.4897598067943995
1691525266.9140391,0.009445263512624261,0.11999659179833792,9.678851676510876,-0.0109941424731033,0.022408838412273445,0.4927350322430079
1691525266.9240448,-0.2856932512392944,-0.04598560055493702,9.470471453856499,-0.009727321406063647,0.018631309866921197,0.4995329717819636
1691525266.9340503,-0.6163327635558967,-0.25964674017712813,9.555834024317853,-0.0045020530185402845,0.008906262487343218,0.5011392573540157
1691525266.944043,-0.2162665612157938,-0.07765358398076516,9.560287531845873,-0.0018480788361457873,0.00501774306414453,0.5027870873634761
1691525266.95409,0.07148167320425534,-0.007698923503481453,9.529758346031732,-0.0010198517274754761,0.007915819482795735,0.5004646519844478
1691525266.9640355,0.11830860821109962,0.23084847719394808,9.650139537155498,-0.0027520823533956342,0.011514322379913197,0.5024534801666682
1691525266.974315,-0.45656582980621974,-0.10694083708100134,9.845689935185591,-0.001006956125564543,0.009415570168439753,0.5063342789833492
1691525266.9840755,-1.3510285927957186,-0.44903580161653683,10.208825838027652,0.0032618617637357465,-0.006367708417012236,0.4988237063114588
1691525266.9941,-0.783340323253132,-0.0562376796406719,10.068658409278866,0.00673335510169654,-0.017278815115989263,0.4976107517902796
1691525267.0040662,0.2087765604035439,0.48473093136062984,9.866332491284567,0.0028429141539900787,-0.014239672146837752,0.4966491500561182
1691525267.014085,0.7020157005656552,0.512377203095135,9.847581305373525,-0.0035602608809260825,-0.004819239991203603,0.4999692181770747
1691525267.0240543,1.2573526455786856,-0.717390924162518,9.780988660371534,0.005515484821514406,0.009660023330579538,0.5079115370933955
1691525267.0342095,0.9117204775228938,-0.6423508784356714,9.636486060946014,0.01685381636401616,0.023420907908010144,0.5079089740936702
1691525267.0468786,0.14060720367228682,0.22236842599774417,9.98571108948123,0.01747540118200259,0.02495946562658239,0.5062398056213802
1691525267.054009,0.23007723502340824,1.3091182274842155,9.912959304258015,0.005763800796263652,0.02905177583773775,0.5090214947884029
1691525267.064046,-0.5554116982262236,0.7380105709118501,9.995295015854929,-0.003265496376041579,0.024055828388337145,0.5054782966797298
1691525267.0740223,-1.00807938492596,0.23950417450241523,9.871961220361598,-0.007135155794276944,0.012793990807398856,0.500363502902264
1691525267.084113,-0.7367679524102766,0.046988586066421714,9.63632091433496,-0.008398003516621958,0.005745456486525512,0.4997244815056269
1691525267.0940852,-0.8566820934411757,-0.6563363454972255,9.578441126296502,-0.00020848906027163573,-0.004543144245020638,0.4929448703949396
1691525267.104205,0.023789284337263777,-0.0806770509810505,9.377271225209515,0.004119236753822637,-0.003870825197063622,0.4985403160278742
1691525267.1140966,-0.6784924444252448,-0.4294498380857641,9.83383110821423,0.006535157812433888,-0.008076850812774069,0.496895347041363
1691525267.1240437,-1.0672233680845635,-0.3325888205025589,10.102784541807186,0.011202680103309794,-0.023834621277554535,0.4972061554615443
1691525267.1340225,-0.43991310796610744,0.002747379362627256,9.976130995792829,0.01284187965960389,-0.030194659768056117,0.4987617174808924
1691525267.1440663,0.29891835425339935,0.1831008644238183,9.808871413456206,0.011958668621702346,-0.02892036509785263,0.4983511010830347
1691525267.1540873,0.819531110826568,0.4863801129398409,9.659852080452879,0.005173300247950995,-0.018983042709739398,0.5007028023426479
1691525267.164055,0.8771203312635283,0.17969796191901338,9.65521650228122,0.005722135833218995,-0.008707569763442214,0.5019637684051936
1691525267.1740828,0.8874034804206046,0.5193999573855042,10.332245120240012,-0.001102722580832708,0.002227298183151356,0.5021686295692867
1691525267.1840944,0.7329469905970306,0.6024507330843302,10.347894256831667,-0.007066724887203192,0.00994168894434637,0.5065860490028804
1691525267.1940572,0.1559894857267391,-0.2549647068047013,10.122195068206313,-0.006408379749943021,0.013729149565622841,0.4965811411564295
1691525267.2040834,0.30100242580504494,0.20424204665792994,9.751428645116686,-0.007581072007484274,0.016264394629050962,0.5013998488609737
1691525267.2140696,0.020180114586553152,0.02186866224184795,9.451683682974299,-0.004796446170244882,0.01407940563689597,0.5078173021500056
1691525267.22407,-0.08322915340988579,0.0772805841498163,9.391407147815952,-0.007300356929898526,0.013625322426740236,0.509237740439648
1691525267.2340918,-0.14019208638942093,-0.18245699541543647,9.271890810271657,-0.0036262436077426673,0.012961959488332111,0.5138141850655025
1691525267.2440948,-0.2707180771289627,-0.2745038147703718,9.43114650527016,0.0013329979308506796,0.012416104929366718,0.5120334963028377
1691525267.2540708,-0.6415355688887336,0.056404744639443324,9.833427339900968,-0.0010767696791853902,0.0064837553424124976,0.5071888903801387
1691525267.2641332,-0.8301012925177615,-0.1370607097103417,10.066549773719041,0.002795602323566171,-0.0024152076722747115,0.5106787423317378
1691525267.2741692,-0.8663186023645476,-0.23148189993364152,10.188523209640483,0.003666527604018649,-0.012557873686220387,0.5043713192169612
1691525267.2840507,-0.23162937792435162,0.2234806307975613,9.976737582439112,0.0027840357055433124,-0.015467134036005322,0.5074841121857112
1691525267.2941043,0.31572146186523253,0.21329501693171324,9.724408455574572,0.004486954387512385,-0.013102210927557364,0.510749016207928
1691525267.3041286,0.547254616086819,0.36940992848465715,9.828193527809102,-0.0013566679446171757,-0.006439839964567484,0.5086365083877986
1691525267.314062,1.6148081084040262,-0.6066986476166133,9.735289560263523,0.006802587209945929,0.012409420440133679,0.5140168408577388
1691525267.3241055,0.8251727320583567,-0.7068559514857496,9.732154026313177,0.017800368073070994,0.024769117193175143,0.5122763852302974
1691525267.3340702,0.6064091722407771,0.5486060367024117,9.926731057439165,0.017191589509893808,0.03214112235170122,0.5168348292534297
1691525267.3441572,-0.31946648160267754,1.005389125657345,10.047633052210053,0.005106213195065049,0.030389082529406912,0.5165099839394038
1691525267.354048,-0.8244611384342221,0.9006153810376243,9.998235919418773,-0.006296567058424505,0.021989742680617142,0.5086281637375301
1691525267.3640568,-1.0935164893098084,0.609749658715554,9.966865360168056,-0.014327899927887931,0.008654531586624263,0.5066547731583064
1691525267.3740454,-0.7388619752112376,-0.14513887717541946,9.574033968385454,-0.012432050668579213,0.0003570697116136926,0.5056203941528743
1691525267.3840787,-0.5922780932439693,-0.48954138352211224,9.604100704887736,-0.008653495170811414,-0.007214077096860061,0.5050427059357112
1691525267.3940496,-0.022674100083609188,-0.3814420259618401,9.297677913314471,0.0010741579346671894,-0.007912037972126425,0.5113797525589412
1691525267.4040987,0.12240138845775567,-0.05189576312147386,9.428291634113737,0.002690263648686501,-0.0024885939587892024,0.5078157524292415
1691525267.414189,-0.41216301967397007,0.10922569284977507,9.855309260711989,0.0010059595006144536,-0.005933997014590129,0.5087479094688838
1691525267.424158,-1.1823941458341625,-0.4046828332001218,10.235277949558697,0.005964023569953839,-0.020106854523760518,0.5083232859795039
1691525267.4341257,-0.741358448133682,-0.30616626938888,10.243594982324007,0.008057086774998718,-0.03151452046594163,0.5013226012413448
1691525267.4440813,0.48779303057028994,0.4544688483710427,9.77986868615703,0.0029075117269474825,-0.025774489492266704,0.5054104665939754
1691525267.454377,0.7649866118482492,0.31143293331907956,9.729069478491063,0.0030135592189948638,-0.01801023544548812,0.5064463953201717
1691525267.4640417,0.7801910723468867,1.0286835125940603,10.08224398882192,-0.008826100884857843,-0.009504406519483987,0.5074535946075862
1691525267.474136,1.1636871550495747,0.4850734892111844,10.111245813883286,-0.013543484962073768,0.004037151827179252,0.5133176783745235
1691525267.48415,0.5212286441097901,-0.1581485330072684,10.066466662581936,-0.014562206066839051,0.012269846968445611,0.5070513824646419
1691525267.4940968,0.18587768206860122,-0.3711572959761131,9.773222855581261,-0.008150940761616167,0.013251518021832644,0.5121189097588008
1691525267.506014,0.017198550404707434,-0.1937177686360686,9.485627752956653,-0.0043079913909689046,0.014930276275742282,0.5157438854401057
1691525267.5141163,-0.8226509233480621,-0.2267347142646626,9.650463444369842,-0.0041054566288130515,0.006140327694064512,0.5111540297691768
1691525267.5241427,-0.044487257432414586,0.09942449712161618,9.423103113617564,-0.004169736614124328,0.005037825997012918,0.5159891585533565
1691525267.53412,-0.22123668374839695,-0.1861298087448345,9.531304069694363,-0.0021232562656720807,0.00414562579803144,0.5147698263351863
1691525267.5450883,0.024788849903192113,-0.001406629556144959,9.57336700583095,-6.130641822604127e-06,0.005083065329367788,0.5165918807213252
1691525267.5541248,-0.3616512256357841,0.1934118557538135,9.83531121923065,-0.002727692852852189,0.003827512342292162,0.5207327942078059
1691525267.5641413,-0.9172413670437212,-0.5265078107151782,10.078742469601606,0.003837154193200423,-0.006909090756644723,0.51416513721394
1691525267.5741143,-0.6667832778081222,-0.09729275468456398,10.139921830563889,0.007171639301420728,-0.01713001933918366,0.5140961746399348
1691525267.5841312,0.2900739583065438,0.5086880129155907,9.81943810616455,0.00228229422227617,-0.013513855767867126,0.5160348157112544
1691525267.5940807,0.47480270965644544,0.38592341596404467,9.82293493953037,-0.00263640150999006,-0.005897082533806301,0.5161057452385371
1691525267.6041398,0.9131001799873166,-0.48474842486570213,9.782968046201498,0.002113094017645934,0.00564415089461269,0.5170495847885554
1691525267.6141448,0.6767662040774028,-1.0477667097495291,9.78618811990712,0.017248192627788112,0.014194404241193588,0.5161589721863216
1691525267.6241472,0.47496590848876913,-0.1573131742972225,9.84135309926365,0.02263748865117738,0.020321513392140177,0.5146386961166804
1691525267.6341066,0.5085309741612883,1.4154542501229124,9.954049925342531,0.007697530272862868,0.028449755430377532,0.5192386845772212
1691525267.644132,-0.4475191904588007,1.0180806583890298,10.132993554784377,-0.006275568873666095,0.02457664951217902,0.5143041352455562
1691525267.654103,-1.0311091565432509,0.501515424689573,9.947262377644423,-0.01374177327650161,0.01297151316119086,0.5137367586319392
1691525267.664189,-1.0596800762441554,-0.4415851103665463,9.65569901200662,-0.007684303496455509,-0.0002425465862673812,0.5124382714455074
1691525267.6740975,-0.7088456163272855,-0.616665671591964,9.499713882936483,-0.002063801204089465,-0.007922821701171106,0.507962618273968
1691525267.6841252,-0.2537369088391551,-0.3182941709294004,9.544440939127055,0.0033902098438955905,-0.014335256055662934,0.5094965438072627
1691525267.6940968,0.49271428145880863,0.17312035448009594,9.351712345827062,0.0031397094487984768,-0.006350354476298911,0.5120286087219661
1691525267.7041724,-0.3755495262280025,-0.15857717399934804,9.844466221983748,0.002196695584707275,-0.008306475249432562,0.5108099917595332
1691525267.7140832,-1.029510583590171,-0.5327860304699019,10.191965211687606,0.00925847587741864,-0.0222932689492295,0.5103482941811031
1691525267.724136,-0.5339188900010146,-0.4108199132449078,10.0905571048211,0.016507032543507313,-0.030525547090360698,0.5062811712448543
1691525267.7341113,0.27869115719883963,0.5494514449819482,10.02752113933966,0.008886045490729948,-0.03209131613900897,0.5049292782967036
1691525267.7440665,1.1957174207940784,0.9012044629284915,9.638221927062487,0.001300248392330279,-0.017223333883649376,0.5100490192596858
1691525267.7541013,0.6117629575705177,0.8048848462993625,9.950191554258303,-0.011525562322243086,-0.00962809238933404,0.5122987369720882
1691525267.7642057,0.679588496228792,-0.0947362496987981,10.1170753611771,-0.008338910174276319,-0.003728265901197053,0.5197019914810603
1691525267.774161,0.5567122156589294,-0.4697150366325558,10.17810101257361,-0.0021120740239317475,0.0005602718683400999,0.5206576327507442
1691525267.7841065,0.4606092380919664,-0.3553578502007719,9.896124960411859,0.0005325088747614001,0.006696807102302293,0.5148159603302425
1691525267.794126,0.6949670947795193,0.15115755241611417,9.395900937597474,0.0014311538576294832,0.01649649854146105,0.5197801927750056
1691525267.8053782,-0.3224387877954818,0.13115169687611986,9.559344702514144,-0.0025222736123077295,0.012608698726746678,0.5182958583061641
1691525267.8149848,-0.24359018140353758,0.09859317418885308,9.378376744395363,-0.0041165320910386905,0.01032982545592023,0.5200996736710017
1691525267.8255334,-0.5714456358668499,-0.37903129273036146,9.537342193586557,0.0018106634274936417,0.0022655674394157672,0.5180192331497615
1691525267.8341002,-0.316628501522821,-0.09780882681685571,9.703938739539625,0.0008601651425550446,-0.0011520881726835134,0.5123952964966243
1691525267.844286,0.2699282573253819,0.16393569498437965,9.683876260635827,0.0012214165354664614,0.0028912116176188314,0.5163606146995967
1691525267.8553257,-0.3287802583277289,-0.10766465543921128,10.040561443732207,0.00010528931275341499,0.0008222355094887406,0.513916466635937
1691525267.8641143,-0.4979652496450302,-0.26068460801043264,10.032635886588956,0.0029971355334120673,-0.0042178922841802895,0.512869332236523
1691525267.874364,-0.3266197574711052,-0.0764554373905662,9.879198495648888,0.005628990325648547,-0.007925897469557332,0.5128087739174312
1691525267.88417,-0.3002741976865476,0.19639869035056262,9.878838475767443,0.002629782971179833,-0.012619965850719981,0.5088073352997249
1691525267.8941648,0.7238139902741981,0.10951333696906683,9.724126804595697,0.0013258941755780076,-0.003342616014616917,0.5106094817345088
1691525267.9042652,1.1401695704806525,-0.9221790787505896,9.878935320484148,0.012036946965263117,0.00942931478122881,0.5125001410667842
1691525267.9141564,0.9491744518131773,-0.6299830295671853,9.730641851726702,0.021335808942106356,0.022408039446256637,0.5141039232437556
1691525267.927823,0.3580341521526166,0.5746187143365448,9.89619514085938,0.01719721188373491,0.02969209417266137,0.5154181460564082
1691525267.9341211,-0.419181390919901,1.092715964930356,10.237437833311725,0.007048744712997189,0.02676175575665725,0.513139996928448
1691525267.944147,-0.614643359380068,0.9087955286541459,10.036804881374918,-0.00522662742566949,0.018679126597671975,0.5121543745224422
1691525267.9541469,-0.5247869730103915,0.09342732842575804,9.643367647875882,-0.004931349788979212,0.013081832141630292,0.513442252082104
1691525267.9641254,-0.6453496611693765,-0.24134870976825062,9.540915404022156,-0.0031382067296996073,0.007484203590214303,0.5096329788391536
1691525267.9741488,-0.5974045268795216,-0.16494906128100395,9.609766688059642,7.206674722809933e-05,-0.0009911743704703049,0.510581050318951
1691525267.9841585,-0.21946764872651178,-0.09751821769860715,9.564123514180606,0.0014520378737913487,-0.0022070990591725893,0.5074088911240047
1691525267.9941957,-0.06595062243061946,0.21532049168039213,9.709408651861976,3.5140287110366466e-05,-0.003124302759927093,0.5093055705254024
1691525268.0041597,-0.3224565320809318,-0.34528332917459115,9.838715143973515,0.004376981395712152,-0.00394168814932592,0.5111816267197078
1691525268.014152,-1.2348813763476445,-0.5261692722776563,10.331254406063206,0.00769375834591414,-0.02136098940183219,0.5060679654304927
1691525268.0241184,-0.19090617703368468,-0.3340973415618012,9.881407359378954,0.014389074804334125,-0.024978159597157507,0.5032745341484492
1691525268.0341294,0.47629751347940297,0.6038834067643726,9.880373724953998,0.007956889946551233,-0.022555968699082267,0.5051853398506587
1691525268.044119,1.1779104688175397,0.8111331540152283,9.660208128284998,-0.0004664157098197684,-0.009366785151199044,0.509836409491772
1691525268.054181,0.6784049253681607,0.9080903248016465,9.809596111658337,-0.010062622837722942,-0.0009628931320470467,0.5137098173325008
1691525268.0641906,0.482022946194498,0.8527858386276079,10.146808990535916,-0.021543123366624103,0.0038026398732764056,0.5184300879661983
1691525268.0741448,0.3435730218707738,-0.5784394862422804,10.126417800789463,-0.015533684095799158,0.007212688304555625,0.5186432937805598
1691525268.0841534,0.25791263708184414,-0.9664959465537293,9.892715947860191,-0.002270218030438885,0.008749737299311312,0.5182814935867732
1691525268.0941365,0.28152444846863534,-0.44139147663928047,9.676324753250832,0.0026695326239897102,0.011995209345576057,0.5151650647346919
1691525268.1041992,0.3055042193638457,0.16143728953760345,9.475615073578505,0.0025530592186231906,0.015282621262715092,0.5180555919830745
1691525268.114141,-0.012061673833828859,0.2798398132261262,9.467912269651679,-0.0035286819115961233,0.018200643641515878,0.5150775651161617
1691525268.124159,-0.2950952294971522,0.09137972262153653,9.51184619103431,-0.0023797666623435712,0.014873353368763642,0.5203954319183772
1691525268.1345575,-0.8876555369767771,-0.5515665637297021,9.781304943676997,0.002847333757416699,0.006375063647108943,0.5186484793846553
1691525268.1441984,-1.2600132645421451,-0.8621402008022762,10.011053641094934,0.014199035124710494,-0.008990827656750572,0.510620568198437
1691525268.154144,-0.34560680461725574,0.22237788130300487,10.071310878663489,0.012638733533248842,-0.013877411962643756,0.5123716334526485
1691525268.1642373,-0.01913154415901167,0.43476053041070084,9.932098253320973,0.007268437454236881,-0.013699374100745891,0.5112405757133907
1691525268.1741729,0.3906776832676075,0.4565449532725965,9.77998503837692,0.001294265990297634,-0.007113633171280824,0.510503564280743
1691525268.1841614,0.4835652865256213,0.3110838383902693,9.608312523727529,-0.0015820283289491466,0.0020364982523922437,0.512773785990948
1691525268.1942406,0.5477774299487186,-0.8893403042151585,9.92054923315476,0.006633248740812222,0.008301954954551084,0.5109315256302303
1691525268.2041688,0.5291858094072124,-0.7685597837719421,9.751315446853145,0.019761380805195503,0.015156876911678172,0.5130098203842586
1691525268.214138,0.19923878843806225,-0.04315741784859478,9.805005119789923,0.02269222743333221,0.01985830907903692,0.5133843759720271
1691525268.224162,-0.19451690994036314,1.0506584608482938,10.077454791483852,0.010195854783499539,0.01879220028084975,0.514745507640118
1691525268.2341518,-0.26260548874842765,0.7456240553330815,9.865538320942624,0.001977686909525975,0.01688395998509944,0.5175960401718562
1691525268.2441633,-0.5251320930636728,-0.20652995395996893,9.787617523488167,0.003360724909144715,0.010480788472451819,0.5122346023743098
1691525268.2562745,-0.3119183258896447,0.012977665402014966,9.55173031920482,0.004244225242099026,0.0068802148557140065,0.512470219535107
1691525268.2642076,-0.27012603298049653,-0.11548019295074963,9.584350624275901,0.005959012974293134,0.005543966623558726,0.5094411114876216
1691525268.2742438,-0.26876001387460663,0.29986194502802577,9.646355066606425,0.003073798288221305,0.0045541144104810985,0.5101263264839595
1691525268.2841325,-0.4602276692747988,-0.14750130228647415,9.794325561697317,0.0018655586357803026,0.003746271292874745,0.5119127372925227
1691525268.2941926,-1.7386905525052254,-0.9369198013276355,10.340842730382162,0.01082651324061548,-0.018537378680605135,0.5069545249168819
1691525268.3041942,-0.7311455243805519,-0.8820102456635747,9.922036632084604,0.024750859411916053,-0.029015825244136848,0.5018640498344844
1691525268.314157,0.2013094440939218,0.7050228343394472,9.943255039424885,0.016884244478753894,-0.030606755555256642,0.504717681807751
1691525268.3242114,1.0626114350128222,0.4777048557644288,9.345931227292631,0.010694736776068666,-0.014711345706269143,0.5032874087517207
1691525268.3341763,0.7804853927417975,0.5410945535569712,9.556172022118249,0.004698740173665488,-0.005646379437600314,0.5085082987968867
1691525268.344149,0.05222265666419654,0.48936026423132817,9.84346991197766,0.000984456396838942,-0.004957652501129608,0.5092171768372005
1691525268.3542569,0.06646105359195312,1.1811099828147917,10.27928131638508,-0.013394228844572531,-0.005627023575906663,0.5090951065247005
1691525268.3641958,-0.07980358248796722,0.7618094406090045,10.230894995940462,-0.025115233515241288,-0.006001101065797243,0.5059866646950191
1691525268.374148,0.10834682334390316,-0.4735399881502344,10.127316167468518,-0.021417091306676656,-0.0066891444543312455,0.5030315260117
1691525268.3841827,0.8183330096405848,-1.4772101592853715,9.624220717772676,-0.003742882701943614,0.0034064452082322575,0.5032879451935237
1691525268.394273,0.9170673365299471,-0.9543716293114185,9.30355046574438,0.011898032635579113,0.014737949014159351,0.5093259553139156
1691525268.404183,0.5003121642576417,0.10079963594282496,9.268982993183466,0.015050543594599999,0.02390966307266905,0.5123126248543208
1691525268.4141564,-0.60226566006181,0.6798947290899765,9.740336294100734,0.004712369417343101,0.019697313925813937,0.5126331190292781
1691525268.424181,-1.7606628215336535,-0.036920685802892955,10.21214690598188,0.0023083478183809343,-0.0017865737648179796,0.510800753039593
1691525268.434188,-1.2316859591369214,-0.7671687851297073,10.133415511462672,0.008817619912421203,-0.018612334989544125,0.5072987417404597
1691525268.4442382,-0.27103779132226463,-0.3803034712056246,9.815357287853772,0.014651355509354737,-0.02243807343644726,0.5081196169083064
1691525268.4542992,0.7130002360238219,0.13603099445209244,9.574610105178397,0.014092302785787346,-0.01285979197505204,0.5087007621948665
1691525268.4641817,0.597621032505597,0.5663166797457628,9.571751581315212,0.008552974023118155,-0.004798309434733924,0.5094840268318599
1691525268.474434,0.4877047501871484,0.5759577299675095,9.714211350362998,0.0023703578132260815,0.002521556904087678,0.508089754981274
1691525268.484234,0.12276318028984123,0.3188685380472929,9.947858045229228,-0.0025244639019879546,0.00468759579849686,0.5052382091705745
1691525268.4941726,-0.13704120710090958,0.3046372277312123,9.983217208966199,-0.006554230819223689,0.003513608296357965,0.5068692306702083
1691525268.5043352,-0.20147276356155108,-0.5308617808094397,10.079130217255576,-0.0038775550474375443,0.0002757814317136739,0.5022185782616084
1691525268.5154955,0.4431224049968507,-0.6781761313013913,10.00410259575515,0.00689360649511026,0.003911360164618605,0.5020922164146846
1691525268.5241842,0.9991038151298495,-0.43630581240880206,9.698343571745111,0.011844095913799252,0.0161818360004645,0.499230597419018
1691525268.5342562,0.5509237385856811,0.1626168915062073,9.510564127600178,0.013725406232147117,0.02510597134307308,0.5012926201050227
1691525268.5442677,-0.15864321497862874,0.4794114138703479,9.624839803148028,0.005240521275653633,0.024351245991391206,0.4997887055103724
1691525268.5542014,-0.6157143892725376,0.3378641550701824,9.380197244170075,0.004205814644027826,0.019362580347146184,0.5036955217544978
1691525268.5644543,-0.9326252364233177,0.17412526334791245,9.713419708837831,0.002630969302327126,0.007889365639619363,0.5012354294483607
1691525268.574245,-1.0709049371172457,-0.14746221006686933,10.073305254326328,0.0011458335639523726,-0.004006099309316154,0.4990807811443751
1691525268.5841837,-1.2290958008014214,-1.120676267871472,10.262714661933268,0.014670100573137895,-0.019756326307800512,0.4961867372219508
1691525268.594177,-0.46336311422344284,-0.8352828788304641,10.096054572731001,0.024048575255995328,-0.026253524351391687,0.4904131035034602
1691525268.604227,0.384082721555479,0.13602696858357785,9.735260912173361,0.023660845870496616,-0.021600542802568446,0.4908476511661951
1691525268.6141517,0.7609943163498134,0.49274415976829594,9.562609808641096,0.019012273786743195,-0.012381274693853823,0.4907087425415461
1691525268.6241744,0.4344454504455412,0.7848142034007387,9.532148454331606,0.010171801291149921,-0.0060419651326683865,0.4916854838554804
1691525268.6346936,-0.04538701716795673,0.9488734026413116,9.872531352404783,0.0008628296571762127,-0.007382030306270018,0.4938863853638117
1691525268.644231,-0.06587560176505355,1.3460769244757917,10.244686009060612,-0.014714551083579818,-0.009414247768050416,0.4947164694492762
1691525268.6542213,0.18939656224834456,0.7011656226953505,10.11246565450109,-0.024132666957624484,-0.006986536928269523,0.495959375304455
1691525268.664177,0.15119821550890655,-0.16282592465027396,9.907255136297977,-0.021899028475822816,-0.0066557848272493815,0.4945132772152369
1691525268.6742735,0.35934116730118365,-0.5217850248101723,9.67408918276119,-0.01577464253950329,-0.0029096048935473807,0.4954022506897395
1691525268.684166,0.8728371991998395,-0.9474985796139834,9.464085323086366,-0.004016306690738282,0.00824012226630257,0.4974590281670039
1691525268.6949906,0.38557177643709123,-0.4502849466293849,9.477031476762138,0.006441801366505468,0.013935989430361822,0.5013375620071834
1691525268.7043247,-0.0317727961226359,0.3278950471840053,9.639366924610968,0.003107543208939463,0.0175986040476825,0.5063287953560298
1691525268.714329,-1.3106887080895118,-0.26652800825343026,10.075632399522835,0.006800047643373862,0.002350298902856296,0.5082347730820125
1691525268.724779,-1.1801929039522292,-0.1569548649747675,10.123509812761618,0.007521763707139051,-0.014398801338673495,0.5058213810150569
1691525268.735153,-0.2627277602837625,0.008551009455542097,9.8619519589934,0.0095063022162863,-0.019662816597459894,0.5091314653580135
1691525268.7444377,0.41912212338203875,0.1635547508402786,9.697081196601088,0.00614815082287045,-0.014888814768378849,0.507462952536816
1691525268.7541988,0.39209768467871553,0.24598276881033668,9.590637222603732,0.0032223179452400305,-0.009578425402814512,0.5070782045547908
1691525268.765772,0.2865039135862205,0.23561051479497744,9.574815966426593,6.966155366924532e-05,-0.003011193658049714,0.5061956981842464
1691525268.7747371,-0.30115746706519947,0.05371023214449256,9.881542901015948,0.0010617598269740353,-0.006905896700052574,0.5035077671234554
1691525268.7843297,-0.08883229004965411,0.6314933947637296,10.05247166686426,-0.007252003812304751,-0.006999144151090241,0.5011596719448512
1691525268.794425,-0.06464688139050177,0.7745249620138747,10.250005731676906,-0.015976174295252145,-0.009551652394943376,0.5045006612961238
1691525268.8044095,0.40830696752535084,0.15354429103397937,10.017000290665699,-0.020281127030925255,-0.003303519734843618,0.4973352889244501
1691525268.8143218,0.7274085676006561,-0.5743183669514078,10.02565002013554,-0.015213297488583011,0.0031765615650730453,0.4994441906635706
1691525268.824361,1.0223773075215037,-1.242413477203726,9.280128390447466,0.0015414632226749107,0.01903089205532568,0.4962297121708338
1691525268.8342366,0.3655029877901055,-0.5400096613259472,9.318366678929522,0.009924340095574151,0.024995983236411192,0.4958623389427607
1691525268.8442175,-0.2226349856295657,0.42994697447954217,9.390864419515395,0.0065831352726804316,0.023016837530708205,0.5014404992287105
1691525268.8544855,-0.8111866337647616,0.8052573497938814,9.671842289645907,-0.0022095735989342857,0.013808050248860266,0.5032803157989925
1691525268.8641975,-1.106694789281927,0.46982343586041364,9.990891916231272,-0.011098741957418785,0.00024213803224237525,0.5023411850159114
1691525268.8741727,-1.5142235839173828,-1.056755132175713,10.31508569425825,-0.002981793964834863,-0.018461892511967233,0.4997683207218592
1691525268.884174,-0.7631557627530123,-1.4591859914262717,10.12529892880317,0.017036250951512035,-0.03260983629480317,0.4960560838406031
1691525268.8941762,0.4448045783638764,-0.2974024097284299,9.738549347098697,0.024355456603910978,-0.028127078198931073,0.4949665705387537
1691525268.9043014,0.8073225573442574,0.48690911492150624,9.685801733098229,0.018499076377522947,-0.019568291432679633,0.4921080211822932
1691525268.9142451,0.6606022281049541,1.077918706903847,9.455858592596494,0.007132008258039499,-0.009230169768724579,0.4940444866840784
1691525268.924402,-0.09874656197786773,0.45963934582021754,9.80762314690159,0.0015021429197786956,-0.011993278157262905,0.4925520757858698
1691525268.934207,-0.2334597158144445,0.8869237519900472,10.089018226243272,-0.008624967452733475,-0.01700747685433648,0.491399798793072
1691525268.944467,0.5739002723193081,0.9079972162229062,10.173062068050282,-0.02058276563028029,-0.01173379764910121,0.4897196332638209
1691525268.9542732,0.5828383509098247,0.6091509434484688,10.103985864665196,-0.029570447678864673,-0.006077491583775144,0.4903648535435145
1691525268.9641829,1.0456138914141788,-0.5281245676360746,9.781806223406823,-0.025521181965011127,0.006573663688258367,0.4898498098080103
1691525268.9742074,0.9396616476121192,-1.4480726562418256,9.538104410464623,-0.005202051148215466,0.016897273746998058,0.4926181773369257
1691525268.98417,0.6050840317898508,-0.8430603729174106,9.45987885258123,0.006508586485460869,0.024649103079485552,0.4939397911255305
1691525268.9941783,-0.025162151018487764,0.0785394871283347,9.527949787551103,0.007815496930346073,0.026086351484318628,0.5012396911804622
1691525269.0042202,-1.3296225705179208,0.11179585929881898,10.039178553432475,0.004094355294076837,0.010786952471063498,0.5019025544350093
1691525269.0142128,-0.9893561287037437,-0.4389645518126444,9.900587849242443,0.0073948892061203005,-0.0016031947270988241,0.5016932229225581
1691525269.0242774,-0.807623666871774,-0.41644885573792956,9.88085329629909,0.013598813786410775,-0.014692432151775264,0.5026378969376033
1691525269.0343113,0.07179822419238642,-0.17499877859345703,9.688258452709878,0.016303853107502504,-0.01569430640922756,0.4992868940060084
1691525269.044341,0.5442079481339495,0.36591990430867605,9.530411133812846,0.01371611710069831,-0.007839675586101259,0.4986031691257899
1691525269.0542586,0.5811471108170191,0.6786699542307638,9.637525203003342,0.006529860966988133,0.001204293883460454,0.500167105597729
1691525269.0642626,-0.24531418435925745,0.26257566584221287,9.948663870436517,0.002118731438755918,-0.0006328334402744074,0.4970950524036829
1691525269.0745714,-0.311684280597112,0.44780170551521514,9.938272395979835,-0.0011013699537383655,-0.0033872211653722937,0.5007295052235072
1691525269.0842645,-0.40189993448550687,0.43005308586047936,10.131918065385458,-0.006569888205319949,-0.008247190028152922,0.5005901793663448
1691525269.0943031,-0.13624240335932283,0.5714353379855645,10.246047863014894,-0.01644468473338493,-0.013323705177463273,0.4980135897819941
1691525269.104792,1.55072356287773,-0.5601840771217057,10.057473482286458,-0.011545307811113438,0.004606160763678549,0.5008596519653743
1691525269.1142662,1.6206178306509607,-1.0776089916475853,9.486566263092255,0.004083527017010908,0.025272754943820794,0.4974958936397974
1691525269.1242788,1.033891062560827,-0.3617654622362565,9.410267333008974,0.011129718467199094,0.04072936071776403,0.4973399082844202
1691525269.1342952,-0.12794034272882387,0.31466118096152046,9.379241812212276,0.009088674680810361,0.041458688911016235,0.4970591406052058
1691525269.144292,-0.7364159497677155,0.5369009691406791,9.461171958025,0.001995456086679188,0.03284991163893896,0.496486012143368
1691525269.1542754,-1.1482435821081751,0.0795307293039479,9.619727236932054,5.6300451686520014e-05,0.020700671259508086,0.4975134472076838
1691525269.164268,-2.266445845918893,-0.6929524300546339,10.273103598253199,0.0037575678558425933,-0.00474045140480248,0.4937759081547205
1691525269.174254,-1.9390694139515865,-1.305347459478753,10.491280268225015,0.01846812592057272,-0.03473003303979763,0.4855906407062952
1691525269.1843455,0.024449715989864316,-0.3372877430772133,9.905280610893266,0.02475469362087518,-0.03636876783483462,0.4831571022694056
1691525269.1942935,1.1790386578362235,0.46212696052712016,9.732066996073174,0.02116638043869648,-0.024456489212473013,0.4837131241981928
1691525269.2042916,1.5508723561322029,0.7871877460152129,9.297545014789945,0.013230942508711617,-0.0021359850147373224,0.4841299096767847
1691525269.2143338,0.4829315847158523,0.8925662770828195,9.69320004151481,0.003248317642475693,0.004999926882860446,0.4870671669666712
1691525269.2242796,-0.45879772602106117,0.5070420805650179,9.829481012070426,-0.0036535111002059476,0.0017299937977277257,0.4858098665897791
1691525269.234238,-0.7734065209432913,0.772917654305816,10.261640810853217,-0.012441674377673847,-0.010389907373132022,0.4889255503838007
1691525269.2443054,-0.2578536641692519,0.3285132896583544,10.224537275706282,-0.01597456172244112,-0.01639090213942495,0.4849722425167506
1691525269.2542706,0.6741128361790277,0.0991393190813801,10.108596126911566,-0.020267414019059345,-0.011107052109826784,0.4867382387344782
1691525269.2643774,1.7816502668736507,-0.7509332593778858,9.529054188700208,-0.009944769043573066,0.01042672621125268,0.4923053721611445
1691525269.274276,1.4167638902125477,-0.7802537585954186,9.323727952724337,0.0028121367301736505,0.028756313369014873,0.4994129876320307
1691525269.2842717,0.6032087123888761,-0.17512116265934913,9.242212275929226,0.00918311637273036,0.03830190051443983,0.5038539509003108
1691525269.2942543,-0.366580981784546,0.42539394244615525,9.67434456704485,0.003991233043609922,0.03453805458540807,0.5105501751129573
1691525269.3050866,-1.498295750442353,-0.147116754092641,9.9577573290675,0.005265288957532315,0.017473725004133658,0.5080761055176204
1691525269.3143024,-1.3197233775174158,-0.2029555987411802,10.26693861385497,0.00781816111070071,-0.0015143546271006057,0.5133614877884334
1691525269.3244686,-0.818770575166945,-0.1890443552515308,10.045159230121747,0.009184748169349425,-0.013686243886599189,0.5103307108108943
1691525269.3343148,0.2664576695839442,-0.3754170703252936,9.509397694289017,0.015609763764783308,-0.008409329846389205,0.5096147994224971
1691525269.3442912,0.008079863709627329,0.08759129555274857,9.696745642728008,0.015071840309210521,-0.009492990747627812,0.5075514058296626
1691525269.35432,0.19773947946620307,0.23129663467569936,9.678546936808083,0.011927429350277092,-0.005787326637502691,0.5042152146522945
1691525269.3642497,0.24323321577182433,0.7209928349037268,9.78747709333753,0.004032609381612306,-0.001788662257013402,0.50602886478352
1691525269.3742566,-0.34860294143264947,0.58231990584498,10.005463272366153,-0.003799261263488959,-0.004922175518633641,0.5047643522446101
1691525269.3842576,-0.16732415902351006,0.7659664164471722,10.127246708966275,-0.01367384512479658,-0.008190926727649898,0.5071149210159724
1691525269.3942592,0.536171507893281,0.12597954276044426,10.331972227241238,-0.019594569993543025,-0.004358384967342385,0.5071629623596614
1691525269.4043224,1.4123607131973503,-1.4071691550472742,9.835043395997614,-0.0010419571198952348,0.012132908577978139,0.5032050351326411
1691525269.4142666,1.5153593155144758,-0.6662555655495653,9.4135860222762,0.007143796770617509,0.034353269925763145,0.4971008340542261
1691525269.4243157,0.3556272587004343,-0.10141938472170652,9.221516505444391,0.011630779996616148,0.04468808276124353,0.4940611163799708
1691525269.4342802,-1.1676195961074798,0.18912372273664121,9.533623974336477,0.009294636485029508,0.029243864900206973,0.4937795440380518
1691525269.4442766,-0.8879176822467076,0.4742475542637917,9.537536952885272,0.004310517614968745,0.014989883301408824,0.4919077495758479
1691525269.4543247,-1.2393249067652865,-0.16626352328927013,9.878643688566097,0.0008053025118130412,0.0003136211542793301,0.4894266764347498
1691525269.4644847,-1.6668803094253817,-1.2479759320162886,10.30268202515559,0.01542176077188652,-0.025018315486250105,0.4862910548870509
1691525269.4742506,-0.17665852911379507,-0.8176235864732972,10.20022857887872,0.025150800409640586,-0.03300856238508576,0.4832431713764613
1691525269.4843154,1.0119672017213752,0.08452360644718877,9.759418728115026,0.029012887041096887,-0.02316186295711772,0.4828088621323054
1691525269.4952595,1.0833773281648038,0.6830127576414519,9.746559285224164,0.018713760659348325,-0.00956304587773759,0.4799695650761073
1691525269.5044672,0.616378646073026,0.8961716443355068,9.604774644182186,0.011343264072130963,-0.002386009564407035,0.4838131705944483
1691525269.5142908,-0.06347773162879769,0.7832132452405782,9.982250341805685,0.004207107658466187,-0.005508236733375551,0.4848378936474268
1691525269.5243049,0.036558792968089476,1.1860809337323754,10.204470157560106,-0.009350531502968381,-0.007718528422066935,0.4850360492889826
1691525269.5355494,0.5755979713163852,0.7785353142899446,10.050727324386493,-0.01898301592224969,-0.0026681216382785926,0.4880159238998835
1691525269.5444114,0.4605587102277039,-0.02574854471318181,9.872138047285345,-0.01869353589801301,0.0005575342502257024,0.4871255199139063
1691525269.5543098,0.9930979099221985,-0.3147275321455045,9.47218526759221,-0.015316524143498768,0.011521411794089427,0.4929056505386774
1691525269.5642738,0.6908387081729674,-0.4609236572852126,9.18587179923982,-0.007134681738188687,0.0217387900009381,0.4971704224770014
1691525269.5742953,-0.10662508385760798,-0.8007059300929678,9.48957785134133,0.00325582123999537,0.022398596287253072,0.5011871794884151
1691525269.584277,-0.6128011129425086,-0.26189517529136913,9.716515615132527,0.011634304475887362,0.015424169139053815,0.5056163410370296
1691525269.5942476,-0.8315633952859622,0.2912001450268577,10.157385940953581,0.007532894996563362,0.005911307240828689,0.5068698863213008
1691525269.6042745,-0.8044285678739582,-0.3085644420504173,10.189833645356025,0.01009645669308759,-0.0023055166837375875,0.5095323661987727
1691525269.614324,-0.7270631939840961,-0.6329408406457373,10.114109977452518,0.017838032258205933,-0.012998743745458832,0.5095612744514888
1691525269.6242836,0.17079307758457166,0.10792649660051044,9.696918511625292,0.020394915041071753,-0.011588915748244112,0.5148942808334773
1691525269.6368208,0.14417341058647248,0.4277013454109625,9.63283653260631,0.01665877232890419,-0.008538846093202943,0.5137464741890376
1691525269.6444612,0.13887344534504342,1.4580453211612197,9.810276219483924,0.0023567108513133754,-0.006054752440565556,0.5144713858787959
1691525269.6542747,0.23426411043980064,0.955260490330043,9.885223018265176,-0.00953767195198936,-0.0026200037167411687,0.5157499055092281
1691525269.664268,-0.13140238083503555,0.1710105982140816,10.07340979633052,-0.014038319063497288,-0.002957397506816395,0.5099432806198543
1691525269.6742773,0.4866473064780108,-0.30916990582462295,9.872877195129277,-0.009067430726809295,0.004514860473732267,0.5060291032020992
1691525269.68432,0.27551740491626087,-0.26094865433321063,9.801438256628217,-0.003940935804727111,0.009864179535732502,0.5007353762810176
1691525269.6942909,0.3027765859004527,-0.09781821881960825,9.593878522839344,-0.001171098732525619,0.01524798666964834,0.4985882381622736
1691525269.704327,0.03451531217930451,0.4562158823374724,9.49434052266628,-0.006947619411153315,0.01765204831970479,0.5015055278961604
1691525269.7142754,-0.32972670409267896,-0.39475448968936194,9.593467107902702,-0.004524357718870642,0.013026480995720398,0.5041292647545284
1691525269.724321,-0.002290026428810448,-1.094310018680222,9.534520324579413,0.010513678064819428,0.013475122220886147,0.5039920548622554
1691525269.7342858,-0.11337659277515215,-0.44489254738956135,9.766526093257916,0.016577617350015058,0.013745827218406495,0.5016480426018184
1691525269.744263,-0.601722630957999,0.2419586580454675,10.104095240087457,0.01752630993551872,0.00570616525870925,0.5021709541504329
1691525269.755661,-0.16787331656221477,0.704613357502539,10.130772951411958,0.00666077165289388,0.003036810396300466,0.5046007374947017
1691525269.7643447,-0.36949989798240473,0.03808532618643154,9.911532117257273,0.004410163303236246,0.0008658905713501771,0.5064385871117061
1691525269.7761152,-0.7714501030743648,-0.7526391829888961,9.886542780022292,0.014424942967908607,-0.01169313727297514,0.5063814858620113
1691525269.7842927,-0.6813351667164793,-0.6581733039271269,9.664730102426068,0.024323440833711386,-0.02017013201518198,0.5033304433052486
1691525269.7942789,-0.37749791929004345,0.5293639013671044,9.780414307279472,0.019514121401971618,-0.025989580939873625,0.5010118822281306
1691525269.8043015,0.36530569263574414,1.3862241966982345,9.989561246962742,0.00283671485348331,-0.023295241931272036,0.4997824172203486
1691525269.8142476,0.871757621209047,0.8857732632699331,9.950576189660993,-0.009951979868131561,-0.01183724962194508,0.5001351873104518
1691525269.8242674,0.8983308677004681,0.24730109981679277,9.929261873482185,-0.013473709418892886,-0.0004969933391803424,0.4974732140724604
1691525269.834314,0.5287527842022296,-0.3433764091355692,9.779938509139665,-0.007706010691591314,0.0056969736695559395,0.4940488676254694
1691525269.844274,0.5127761147728106,-0.011046535332946611,9.595351733415644,-0.007506065335859892,0.01282477655350629,0.4953729550068323
1691525269.8594625,0.0581719532277237,-0.056232508945309116,9.516318184253416,-0.006360873540256865,0.013060824230235281,0.4973979930107539
1691525269.8642645,0.6074856876351551,-0.4031753089938182,9.373218256954049,-0.0028882242654713394,0.016564736260516588,0.5027803520386165
1691525269.874271,-0.01445762071369412,-0.4688951241431625,9.657859267707376,0.0037685364648883035,0.015807165851214954,0.5060186723892635
1691525269.884259,-0.031751153725916255,-0.16386501797865038,9.838012330996868,0.006117337674657828,0.015949243480082868,0.5090267996017879
1691525269.894328,-0.3253990300944773,-0.1511053604170517,9.980923475307193,0.008373304656880066,0.011526228127598157,0.5088066200439876
1691525269.9043548,-0.5694033352570806,-0.43856852611989633,10.048126589667726,0.013988166694247517,0.0058386351091841236,0.5102113227074092
1691525269.9142778,-0.4998849090202799,-0.2995508752053842,10.028687588710678,0.017099147367203315,-0.0019044688546083766,0.5108073691551631
1691525269.9243696,-0.18323382436940983,0.039222298870019684,9.689719053319099,0.016966290240308476,-0.001815406418254279,0.511323545378918
1691525269.9346285,-0.1682935162473463,0.15602191347361832,9.594890226244749,0.017617810120031836,-0.003971756386007968,0.50948664943623
1691525269.94428,-0.8680266031861131,0.7963320360939067,9.714667699481549,0.008505520047011328,-0.011003806637414059,0.5069974998657649
1691525269.954299,-0.8093765931216698,1.0276233036810543,10.12971479617103,-0.003121399898261289,-0.02557613564477636,0.5048677663032954
1691525269.9642828,0.6257095023652006,1.4704421926184772,10.295866338675216,-0.0216117729927694,-0.02217776814676121,0.5012204984848445
1691525269.974329,1.8262995438755005,-0.01790017377582727,10.073174695103559,-0.024753625989255765,-0.0021841668224105637,0.498594496649975
1691525269.98427,1.6914345289198034,-1.0031751437331198,9.580531365708561,-0.01415448997662682,0.02040583270212981,0.4940641562168543
1691525269.9942849,1.1396871448106798,-1.492874822790424,9.193490113401914,0.006245164867591145,0.036514755478143916,0.489350203675503
1691525270.0045626,-0.24598841113910055,-0.1480451417859655,9.35249996297299,0.01205808449695937,0.0335576540907701,0.4912789801781123
1691525270.014328,-1.4600202849988937,0.7746467128229791,9.694238802240013,0.0012310682357256743,0.017830390355949084,0.487676654261822
1691525270.024281,-1.9544318645193555,0.8810459638044948,10.030733571028241,-0.011791610091077317,-0.008358792627045213,0.4894555548851435
1691525270.0342798,-0.8911129605414241,-1.1600069210557145,10.126277684174434,-0.003736857205886347,-0.0227676688616045,0.4880982975189631
1691525270.0446384,0.26759605677286363,-1.809122462692363,9.846577428568738,0.021509774085850097,-0.022393169214211372,0.4858236650650446
1691525270.0543127,0.9699079837567395,-0.02080599972335626,9.857367773738865,0.028177225441842455,-0.011646694838810668,0.4932016770069544
1691525270.0643797,0.21643807937506543,1.0404218458580667,10.03505949782916,0.018814170954323813,-0.00841653303956352,0.4945930878345911
1691525270.074314,0.20805184449782438,1.732266929092694,10.117225771466382,-0.003147794704646382,-0.005761395313986185,0.4941949586098139
1691525270.0844798,0.3337538744897552,1.0044756768472454,10.230694883578233,-0.01564265103838247,-0.00424158290442307,0.4960412124817316
1691525270.0942798,0.42498123386886394,-0.09819764407941378,10.007599322250975,-0.01647949628842812,-0.0015232776397192138,0.4952366987888758
1691525270.1050408,0.7052071190190173,-0.6373464982389716,9.57461868383071,-0.007808625075662944,0.006172857346809132,0.4934104124729578
1691525270.114329,0.4573880821417728,-0.7126873933270558,9.235783215972832,0.0018928559924652067,0.011094272834263301,0.4910526613419001
1691525270.1243255,0.08447443477027505,-0.36442008387887104,9.268718134386782,0.007858693716795248,0.010925883191916503,0.489138040942425
1691525270.1344018,-0.07328728212606807,0.24576843480666127,9.465152380495812,0.00459991556356119,0.009310821501680971,0.4896154741470759
1691525270.1442986,-0.4433749141393293,0.1489189376173996,9.75864223548946,0.003472307170788697,0.0036224911448273223,0.4912610391800349
1691525270.1542902,-0.643893275257259,0.014019363235563926,10.106485754346197,0.001754422273777867,-0.005550828665012804,0.4920771459762995
1691525270.1642947,-0.32217602590231303,-0.1496162226013451,9.97557940765987,0.00273984354956745,-0.008722893742623533,0.4908140341465418
1691525270.1742742,-0.25869885304339446,-0.3123754742235438,9.943547566491654,0.008503331740833696,-0.013574336111587575,0.4916060904686396
1691525270.1843398,0.3853887664153302,0.1908016667931652,9.875339427114223,0.005779565841344337,-0.009585575830913521,0.4950268904392664
1691525270.194344,0.6545731738800408,0.24469806840963665,9.775990847016397,0.006586044054938659,-0.0007721186884377357,0.4982681910221522
1691525270.2044015,0.42372200212222694,0.6456628437904381,10.136863589753105,0.00047881523366855597,0.0017773455195090747,0.5008897225086635
1691525270.214332,0.5649413289794244,0.6599456432848914,9.971141820387572,-0.007161753890848248,0.009455847507322165,0.5018623212997859
1691525270.2243822,0.802787980393679,0.10057985979267867,9.962503086395925,-0.009927165627667267,0.018666062569811133,0.5002585689251369
1691525270.2343855,0.6740342945158453,-0.11509814801690413,9.583417115738042,-0.006564338537581866,0.027582909587998267,0.501043502492184
1691525270.2443664,0.4681673239819411,-0.45235714674077254,9.272906077265235,0.0012260528504084611,0.035020397835600736,0.4990181068603938
1691525270.25446,-0.09247503789142812,-0.624306763008444,9.372706424935892,0.007444376286812018,0.0351261082728287,0.4962882141296809
1691525270.2643323,-0.8598874750575276,-0.35720065476897267,9.5388386250354,0.011042042624618716,0.030628224664922342,0.4964416066830103
1691525270.2743154,-2.013509410417023,-0.472684691813432,9.974683356063318,0.020568941050548704,0.007010639609969615,0.499756161374325
1691525270.2843575,-1.8689034375576543,0.4279650030915312,10.19087499261668,0.015196869541232276,-0.014798083663313595,0.4966014365379755
1691525270.2943504,-1.010238391642842,0.7298320613168457,10.145113326293878,0.006516846259787095,-0.027422175813588925,0.4960998634521906
1691525270.305714,-0.06476003563531292,0.18674417367797502,9.735091796431236,0.004244833344406021,-0.026793276471745498,0.4938115219299738
1691525270.3144178,0.6038429967458451,-0.043552984549397246,9.619716319070363,0.004817904945129258,-0.019052993428747292,0.4926617781345789
1691525270.3243358,0.5162144199619949,0.20842037551127135,9.535105859199259,0.0044800050019581615,-0.008418232556033092,0.4923160413925593
1691525270.334349,-0.1301767262465015,0.39067822853833356,9.831170048381418,0.0003001327583723866,-0.008147321445081561,0.4933403770153468
1691525270.3443367,-0.5969412642462049,0.7169088803578199,10.060091088121403,-0.008436549459810283,-0.014999733010634448,0.4926444927875941
1691525270.3542948,0.030481484472805912,0.19995446607560718,10.29870274438212,-0.012871685836722524,-0.01695707004448546,0.4930202702705805
1691525270.3643465,1.3427699000462268,-0.7531979001439678,10.157609048476438,-0.0034515732164546327,-0.0020083783986117295,0.4911279718105738
1691525270.374337,1.6143595688641896,-0.48821816448283734,9.74374776347334,0.0037018265096609017,0.019586731589672807,0.4907104412739222
1691525270.384311,1.1260331657113984,0.275643179579877,9.511520337429742,0.0037941741685015113,0.03589138124741501,0.494803700846905
1691525270.3943086,-0.06570522762999476,0.6754677089314102,9.587211033798825,-0.0032785597428058567,0.03543883284027321,0.4992270807449763
1691525270.404337,-0.9682027275927544,0.40037976604543907,9.480955093529435,-0.010668961990524693,0.02771388362819603,0.5010731856052821
1691525270.414374,-2.3154247514513884,-0.8440022955354394,10.142605245543278,-0.003102761194809667,-0.002642348743882241,0.500034574670071
1691525270.424363,-1.5035036050453021,-1.4717160409460093,9.810742014804484,0.014106674550539341,-0.022183196107520897,0.4931343535606806
1691525270.4343977,-0.31545622378133464,-0.5754710513019452,9.73729476811765,0.023533405095909992,-0.028447995513080693,0.4924480358784144
1691525270.4447882,0.44019670787219284,0.2335394964709617,9.61220927981444,0.021338548015773205,-0.020781247732295845,0.4900418261711542
1691525270.4543183,0.41184046047105416,0.5745962902994538,9.692281221578945,0.016135661127419085,-0.015426351380983637,0.4905849436943476
1691525270.4652023,0.375570876248299,0.6791603796268263,9.826836370897412,0.009645083360698109,-0.009175618330826443,0.4927212933723872
1691525270.4772532,0.0018790286606272042,0.6000492407132746,9.800844664168736,2.123637572104359e-05,-0.004914699433180673,0.491270277899975
1691525270.4848487,-0.4519285466206413,0.5639966085399458,10.052731943222074,-0.0032855744589111264,-0.01036444958840854,0.4956122080509608
1691525270.504019,-0.14896075209862425,0.32954291960869303,10.161247988223506,-0.013597488152232417,-0.014745234872456893,0.4989661912147944
1691525270.5053363,2.576861114702683,-2.111670724882483,8.534091552407716,-0.0073072832593268225,-0.00915609110588661,0.5010560194675868
1691525270.51437,1.5279375307919232,-0.5334433777598694,9.770969542027075,0.001693862884660924,0.008101414127293085,0.5026737193291133
1691525270.524659,0.8951734115870669,-0.15457423962378505,9.596866113111908,0.007053385636685188,0.022496149365606437,0.497463498515362
1691525270.5344172,0.8352087254885623,0.5700937898629153,9.530282548540278,0.0036465596692618844,0.03285960922564721,0.502704058093304
1691525270.544396,-0.18119205775617198,0.5347299547127989,9.434751188439355,-0.004179575717486476,0.033872152163742196,0.5022697190468257
1691525270.5543468,-0.7547382944995812,-0.28357023028159856,9.4040405646935,0.0008538718885414191,0.026953368250959425,0.5013902525131648
1691525270.5643344,-1.9764723388418353,-0.3323690795279523,9.96412315153882,0.0020190883339391797,0.004796316017081782,0.4978427926723902
1691525270.5743928,-1.5239620973778714,-0.5053255307562624,10.03234358910313,0.010359779235110765,-0.016493911041445434,0.4985603133861964
1691525270.5843844,-0.7027226342302115,-0.2258550630962343,9.98500414121932,0.01450574331989194,-0.0263345412105322,0.4943923989956324
1691525270.5947945,0.32815212915168757,0.168206403005107,9.6990669369545,0.01521281894766817,-0.021657649706055163,0.4952622989838068
1691525270.6043975,0.7131155028291563,0.602211804007828,9.67827719142491,0.007108206442573903,-0.010983337081153306,0.4961582760040705
1691525270.6143703,0.23598358118503648,0.20656961387086115,9.686194056737666,0.007393238460803925,-0.008105109519306817,0.4995113352959101
1691525270.6247425,-0.01806380079011515,0.14309305514511247,9.674667021752953,0.0064448285573703735,-0.006392527633579427,0.4984317163650935
1691525270.6344342,-0.5147486818884242,0.4118580809434326,9.883056223052094,0.0024156487811514624,-0.012677601316474585,0.4974094669048731
1691525270.6451244,-0.2869662869039874,1.1718929949892118,10.173729277217005,-0.012136078016250428,-0.017617905720433685,0.4989978412811701
1691525270.6544497,0.8058040463614407,-0.33193612885507845,10.352764905900505,-0.010506063261285035,-0.010253261382633837,0.5011128226940578
1691525270.6643603,1.3197223327935377,-0.7411314975598249,10.103540233902962,-0.0019053569204078259,0.0047982730221528165,0.4988713304226344
1691525270.6743517,1.2749184830596065,-0.6120525153461202,9.807142408709488,0.007890907259680401,0.02144496407278277,0.4982093910400813
1691525270.6843476,0.5663522968995036,0.3436726546075559,9.444186479582777,0.006720235183795539,0.02936631208620309,0.5000612179462856
1691525270.6944256,-0.26257126478835474,1.0545464944468084,9.508432237397788,-0.006330130473347134,0.027935952245786544,0.5008624831860011
1691525270.704389,-0.7888675203607355,0.5689255822762037,9.535899511267463,-0.01659292691935415,0.01820547420349848,0.5020050148193782
1691525270.714393,-1.3895961613259091,-1.1724301675994757,9.635860472524309,-0.004907963279187302,0.0041063128706220935,0.5054475406830257
1691525270.7254298,-1.5599736718172625,-1.4730121243608998,9.989798687732796,0.014777479850249249,-0.020325196477888555,0.4999313692276423
1691525270.7396314,-0.48570516618109844,-0.27503739575097846,9.849068274768634,0.02132743972061875,-0.02869867801363738,0.492681537074322
1691525270.74885,0.5154039090466629,0.5023442048267428,9.728132354243199,0.018244233704656495,-0.021942093653244506,0.4921885172550623
1691525270.7551,0.6026263798900978,1.4197407604982173,9.875937309748394,0.002575946663926857,-0.013920387537003436,0.4894809762661402
1691525270.766077,0.46036976994745,0.35856308307602835,9.753161729787044,-0.0010980911226499055,-0.006751880304020567,0.4935016969864313
1691525270.7743204,-0.07408199796624347,0.07481642148784642,9.867677035202648,-0.0014971017435666803,-0.007826270451733761,0.4956408778850977
1691525270.7852516,0.44031569976590745,-0.12324459631719697,9.961279563233338,0.0009495906970584249,-0.0023657337307492476,0.4952980915729945
1691525270.7943354,0.7124615531220845,0.02175645833827538,9.93515748847615,0.0032365381004628587,0.006820367255725882,0.4988201300327723
1691525270.804406,0.4472695324243228,0.17552767159279625,10.162136021200201,0.000921246256951915,0.011273133550432855,0.4993896524136011
1691525270.81441,0.7547732097714054,0.5330850733973909,9.908281925142484,-0.004539558682204352,0.021418136936953422,0.5049134234611934
1691525270.8243809,0.27543987042229956,0.006661920821357701,9.792934281933347,-0.003934064397619851,0.025265596012210123,0.5022677520935481
1691525270.834374,0.27348319812448046,0.14462034427800263,9.410353803299513,-0.004119489253987546,0.030590991134096166,0.5028611759369319
1691525270.8443434,-0.41378432882055644,0.2969251383101285,9.455108989574137,-0.004200259592916191,0.026814952854198826,0.5044873098556941
1691525270.8543386,-1.0420640367481364,0.12228559819289239,9.663118461023556,-0.007601275393840025,0.017219346666421425,0.5007865468685573
1691525270.8652377,-1.719961124221019,-0.41907744941678865,9.959357507048168,-0.0026846251775676016,-0.0038724292940668045,0.5010536650841182
1691525270.8743632,-1.4459931988252024,-0.9093342827560826,9.954569423483324,0.00648829467248305,-0.020215618570759455,0.4945931474392359
1691525270.8844216,-0.6444446225223984,-0.302416209182421,9.885335382033613,0.01235698684542605,-0.029248895529656812,0.4919286410038416
1691525270.8944328,0.37273151097302726,0.25462830087399274,9.693724069762533,0.010689594657467952,-0.024430393415346734,0.491457764310116
1691525270.9044683,0.47754705211390036,0.41999164567176356,9.617029979808947,0.006893551350596649,-0.01689713541675099,0.4928052465145533
1691525270.914361,0.7542284164039835,0.4754775322958662,9.573111816211426,0.0018159918373335461,-0.0058370334748692465,0.4981296400253718
1691525270.9244392,-0.18800722739989603,0.223341323594578,9.764469513851742,0.0006926739658086724,-0.007326783771344531,0.5021521190826839
1691525270.9343882,-0.24327671151833935,-0.19837436469665565,10.091121057933577,0.003803724526866493,-0.011706492683374835,0.5012268463795131
1691525270.9447312,0.5562150100104009,0.2299908187098585,10.462064649640906,0.0024094097030964755,-0.008059208075753978,0.5034448246185725
1691525270.9545045,1.0405234326966633,0.02709437968378611,10.184877516573312,0.0034885495610174496,0.005154914963576458,0.5002766589348262
1691525270.9643586,0.9041856088197827,0.43992015094068604,10.000228709737181,-0.0015054527180474481,0.016295017736344605,0.5008629004185146
1691525270.9744132,0.453288827061799,0.38002196528441207,9.661804882104313,-0.006441506690663607,0.022777695210843586,0.5032710770790523
1691525270.9843972,-0.2260389678436425,0.2736582764159418,9.404359142842905,-0.009854766691191627,0.019801052545100006,0.5045262912933772
1691525270.9943726,-0.5112712974588507,0.28400154712963877,9.42116095931079,-0.01322742546723835,0.011653671662554219,0.5070473889534419
1691525271.0044713,-0.25594387354135817,0.012341642621736855,9.309475897550517,-0.013486316145945662,0.00875804287343066,0.5092071632568782
1691525271.014476,-0.4533408399242587,-0.6840625671661101,9.53574173512295,-0.006243915449305175,0.00435897900269224,0.5073876718704646
1691525271.0243847,-1.1536854887556398,-0.9172094812270855,10.068716953529105,0.0022660331858942763,-0.006966612942302495,0.5049435834114497
1691525271.0346916,-1.088113368000004,-0.8637308604580503,10.161890015390586,0.013138550269469319,-0.021645721242842215,0.4997159878437464
1691525271.0446742,-0.46471315754437587,0.12094270013430672,10.100629469558429,0.013039887904909099,-0.028346635857807452,0.4959751407329981
1691525271.0550067,0.38872139820439955,0.4627429390927165,9.770184547918074,0.006560217169104291,-0.022915505759920157,0.492533717555279
1691525271.0651064,0.9144257373278087,0.4443854595767893,9.668186932718578,0.0009401494416622398,-0.011808224921663711,0.4977344016258662
1691525271.074419,1.4623248774242452,-0.2562343302200755,9.652201533942916,0.005218460330022708,0.005490277171637998,0.5041042308037227
1691525271.0843797,0.979811456884393,-0.13875285679156907,9.737786339983577,0.008566221396098054,0.018976750563147977,0.5062207917396968
1691525271.094417,0.1295855809691191,-0.047121449317508245,9.939464543160073,0.010924651819526253,0.02059659686226348,0.5050729850952571
1691525271.1044238,-0.2706211424691175,0.5465236628362766,9.954137275077091,0.006910079385200945,0.017904046964335365,0.5067431668465083
1691525271.114426,-0.3017014724742737,0.6534136954775016,10.206073008683013,-0.0025270030875972167,0.012252615909694238,0.5047457555954402
1691525271.1244998,0.25366235640717677,0.28439003583642203,9.716748968618466,-0.004953266675547944,0.016267827006597783,0.5031476358597224
1691525271.1344285,0.34367301164192954,-0.17133836386280693,9.53817286058722,-0.003920507489608821,0.02224056346827515,0.5018030146782344
1691525271.1444392,-0.27685609417149315,0.0382950989652192,9.438820251329927,-0.0009418048748099371,0.020714457772985827,0.50041762391972
1691525271.154445,-0.6818054327972083,0.2510051799246031,9.618011474737116,-0.0027234357212060994,0.015607616487862118,0.4981600085918848
1691525271.1644278,-0.8947672614594453,0.3594569639703026,9.791769346647284,-0.007846623090294597,0.006017568054224743,0.498682890338177
1691525271.1744027,-1.4021681524093028,-0.42798744360398167,10.020680755287039,-0.004486439566633395,-0.009630528676696448,0.4995442370598261
1691525271.1844451,-1.1401085771116106,-0.6297795480220942,10.091512309810149,0.0028050718294069066,-0.026475568909176437,0.497791502875561
1691525271.1944337,0.12828619705781047,-0.31573884840064215,9.594025941163434,0.010004569044839503,-0.023149087222898698,0.501774464053387
1691525271.204429,0.2673234995729432,0.10525572947988222,9.80493541380695,0.007637915421386409,-0.020348926896113638,0.4953163007919733
1691525271.2143888,0.8485366345063556,0.3360405101488075,9.731727263535168,0.004255027737913671,-0.009647370800931792,0.5015585164253658
1691525271.2293117,1.033384446152726,-0.6494823089561648,9.960764483145267,0.01365229040509082,0.007389683513724492,0.503981802863354
1691525271.234417,1.5069241411256786,-0.1012691515460607,9.738492195202307,0.01984245334870095,0.01832234011245739,0.5082469920341914
1691525271.2444024,0.4237336053843205,1.2363980296514196,10.31312690357105,0.0065027789068733185,0.025294891450540993,0.5072186330978816
1691525271.254689,-0.1705807917051104,1.3236960481783895,10.32727073039246,-0.011392283858196699,0.024183692313833178,0.5081993083183711
1691525271.2644072,-0.7390888425799671,0.19348547645925848,9.942618473138893,-0.015449841029480387,0.015001714541574954,0.5045623521034663
1691525271.274859,-0.2440286245343049,-0.28893207763414713,9.60070024345632,-0.01177012637336689,0.007797539997354743,0.508350346488232
1691525271.2844005,-0.024730259584382804,-0.30922248614943276,9.221272132090391,-0.008536334579076646,0.008675089137091332,0.5110121707146114
1691525271.2943869,-0.05760839957483773,-0.2951368741805754,9.250517873539886,-0.004366532503635073,0.008100841114590139,0.5100778083031123
1691525271.304428,0.03311899889831058,-0.04742187744368565,9.19270507702969,-0.0007798597955759616,0.013959137847401652,0.5104936103050655
1691525271.3199134,-1.2147039718444856,-0.34886916563313686,9.98107144484125,0.0017410595217354932,-0.0034816141087083813,0.5058536271278804
1691525271.3243918,-3.4263668352405556,-1.5183824792958913,10.95967395861692,0.00906605106163131,-0.02665484679188118,0.491931978863949
1691525271.3344054,-0.9918289132294182,-0.732267770741822,10.276902370240368,0.017912818777701785,-0.04087038953413802,0.4610129336540644
1691525271.344385,0.7984399001644833,0.18378894717879043,9.686926494480055,0.013604807735608501,-0.02801301598606208,0.4279591778938715
1691525271.3544238,1.4437385940691454,1.0892678305205612,9.452360565530476,0.0016072261152430376,-0.0045253905140610175,0.4053666035358851
1691525271.364401,0.5494285857518283,0.4124409544413513,9.73841314647749,-0.008314234453488731,0.005272829128646679,0.3838901857559626
1691525271.3744946,-0.0630439494664805,0.1370568468570249,9.754057833988098,-0.012670562213334687,0.008366527272285491,0.3725845257465784
1691525271.38507,-0.5408931528809326,-0.6724065076847173,9.922140867879644,-0.0069317115956554435,0.0034776023639441034,0.3635610977833216
1691525271.394389,-0.5880028369622785,-0.799837347092264,10.044534572959998,-0.00021151511731566075,-0.004098640984822087,0.3557744661991541
1691525271.4044614,0.4137802429992664,-0.21391656640945647,9.867418536852497,0.005196512901128001,-0.0008719364651645744,0.3641786913101618
1691525271.4144015,0.3908348741221041,-0.22153157214744693,9.785847330187366,0.0063298875291375655,0.004308214309897509,0.3638806680862849
1691525271.425208,0.3493093988088961,-0.08844563475426101,9.665364431359665,0.008013962283702073,0.01009962259763708,0.3655972818558161
1691525271.4360466,0.036879609141505454,0.16241571903015578,9.735451788630938,0.005789715272345102,0.012045030344486863,0.3663974444096033
1691525271.444405,-0.4050292861047257,0.0415968066783958,9.909172043373509,0.006156937639786942,0.006950873787069053,0.3624647299473231
1691525271.454411,-0.060845691432829474,0.5114776155582168,9.984712652538207,-0.0002824349447697064,0.005977583630945759,0.358665708703274
1691525271.4650316,-0.05983312091727878,0.06959723770762019,9.894295527949744,-0.0034643553598061884,0.005966265671749383,0.3505110780422633
1691525271.4744265,0.43282645036211853,0.07958979420280286,9.655410943796397,-0.004087108333805247,0.0124290433809958,0.3484531382744257
1691525271.484383,-0.0038304738216325394,0.048416925710111906,9.715222661916815,-0.001461353993122437,0.01229563000795345,0.3474372665111964
1691525271.4944353,-1.0553293526489471,-0.6795160675971917,9.751320060444586,0.0021603421984250975,0.0012227345827210128,0.317435536784405
1691525271.5052235,-0.463574490908484,-0.051909290616173914,9.754921019300225,0.009580069440952984,-0.00455521708176865,0.2891289631550257
1691525271.5144105,-0.4218229410370914,-0.2692890556119591,9.81010065970761,0.008166276447164212,-0.005724673044287626,0.2513656357948725
1691525271.5244648,-0.12709373480110348,0.46609328752761064,9.730076412376967,0.002399284356966817,-0.002879769129758558,0.214195955795521
1691525271.5345511,-0.141708941943795,0.392698625261892,9.996521859799103,-0.0019538382063132155,-0.0023055254354204394,0.1800398419325297
1691525271.544418,-0.23066664803253786,0.1934280454856728,10.042331722047816,-0.01234525140594806,-0.004205003212447631,0.1511066595737879
1691525271.5546975,0.48736472396838176,0.11734718418682917,9.772546388158018,-0.01942206706410522,0.0063074687654331805,0.1359375009958689
1691525271.5650237,0.20773999430124304,-0.781074929563387,9.845327075556213,-0.01671163589355896,0.010059700105138682,0.1373933146421855
1691525271.5744765,-0.17229885791750518,-1.0992665813142835,9.75099971828741,-0.010750673109518459,0.00898836993069861,0.1472538451378291
1691525271.5844831,-0.3490143796210459,-1.2098194053952747,9.67322566869302,0.0007341976010188672,0.005601505234524382,0.1636693815414851
1691525271.594415,-0.571324512205724,-0.7629937441792347,9.677565753473688,0.009800206781054885,-0.0005784412807304495,0.1800189058010523
1691525271.604467,-0.2655126238926585,-0.3177311554493044,9.75085436076448,0.015002534708657691,-0.0030625898139729057,0.1922977606480067
1691525271.6144478,-0.5575188936063716,0.4004707961895353,9.792500480691018,0.012634485870256272,-0.009001283110354941,0.1966146866505091
1691525271.624412,-0.47556687432098316,1.1595443982838176,10.050636028551628,-0.0036757336672113374,-0.01685384113109428,0.2010696868126338
1691525271.6344693,0.18066712261929413,-0.21166015284245604,9.898545154910973,-0.0025798174743801097,-0.01665267999744515,0.1985150168363993
1691525271.6444378,0.6597279223879763,-0.514784637388887,9.689321463236691,0.0021148293943879055,-0.008340688532773071,0.1894141177360957
1691525271.6544144,0.5975957305050048,-0.06105652279434505,9.581528612661609,0.008518730050936901,0.0015840792356859926,0.1825689862196391
1691525271.6644125,0.13364240802871546,0.24350034955237723,9.809972021922425,0.005572649925045321,0.004724537240079797,0.1599645654385035
1691525271.6744063,-0.6307110015936679,-0.015230433659445956,9.968729185484419,0.0008432554843836749,0.00011392299400494765,0.1253234783832972
1691525271.68441,-0.2442353962315112,0.3060391824948733,9.89784250936511,-0.004071823753870319,-0.0029056679886042837,0.0948696101729815
1691525271.694431,-0.18979503573413067,-0.11090433969059586,9.90286536383491,-0.011108265456534948,-0.00018628329945429318,0.0641632566873972
1691525271.7050552,-0.07290730319191853,-0.41081012436497444,9.864484002623646,-0.01889967571824923,-0.0005141160167494938,0.040116638195986
1691525271.714476,-0.060904889910342604,-1.2674051550143277,9.83609164504594,-0.01579531634837661,0.0007170248782181797,0.0253051112120096
1691525271.724453,-0.03372178378120623,-1.706621636184871,9.7139619336657,-0.007355400212309596,-0.0003170348720714456,0.0130004149575774
1691525271.7345042,-0.10321971130565785,-1.4168758797252443,9.764350450823823,-0.0012894463438534933,-0.0016975612651648339,0.0041901206311826
1691525271.7444313,0.2512934819971782,-1.2381529682032673,9.711446191131069,0.0019172712819470886,0.000927648338063471,-0.0044976181636507
1691525271.7550435,-0.16910001192696758,-1.471480775512418,9.79852842380837,0.013189211585548114,-0.0024035781991336167,-0.0106365836511308
1691525271.764424,0.27436363968392946,-0.7300382437975965,9.611976754052488,0.02444041791463819,-0.0016335407045511279,-0.0105544894288236
1691525271.7744105,0.14789987191661771,1.0488479774738633,9.906123823352688,0.016810185070333522,-0.0015872974595091615,-0.0071545985813195
1691525271.7845504,0.5558746223605152,1.57324773467705,9.875624864072076,0.005186601532606133,0.002725796898599186,0.001164173929073
1691525271.794476,0.0691361731728674,1.0227925238992948,9.866823152900755,0.0016348840475284903,0.0020627312026448843,0.0042143354837839
1691525271.8046105,0.19748673401951702,0.9980494938356849,9.841903589343453,-0.00433567494679589,0.0036086859202187197,0.0043208664462958
1691525271.8144343,-0.019552592867813433,0.7560354597722523,9.80590179929933,-0.008763925163554622,0.0035963509091517984,0.0020101465813872
1691525271.8245575,-0.1479307772327669,0.42987421897745354,9.950211648386006,-0.01717560602295811,0.0009812427850198176,-0.0013284815761203
1691525271.834536,-0.06826120964218378,-0.590230066563269,9.805830675420978,-0.015105071982446126,0.0009821884495068176,-0.006517589307105
1691525271.8444374,-0.025887464431316624,-1.1094496147384219,9.753546108313463,-0.0060042728883603035,-0.00011251529406924919,-0.0093833149696643
1691525271.8544312,0.11733541176987078,-0.9201965281053543,9.729003325977166,-0.0008227463588958676,0.0018902055560569145,-0.011102955537563
1691525271.8644354,0.0010919605401723753,-0.666261790656019,9.80883742242777,0.004105895144296923,-0.00020527368921807523,-0.0057288321952278
1691525271.8745055,0.07702797022955775,-0.47746040362497333,9.7283479583425,0.007624045455545879,0.001678614484787115,-0.0023973285972083
1691525271.8844385,0.19540323503748175,0.019359680068181534,9.68382310675737,0.009613736732477323,0.0045772928259031846,0.0049761058942472
1691525271.8944285,-0.2734389450122182,0.4067944907842603,9.897407946790862,0.008893251865403634,-0.0004291350999917311,0.0076848098722343
1691525271.904474,0.021090542882569577,0.6396969493796695,9.789982862429392,0.005978630067551196,0.0003870335784274882,0.0096070331235473
1691525271.915738,0.03300942645812784,0.7073484651623497,9.81073069791935,0.0005268949825610304,0.0023082628445607748,0.0083102875103299
1691525271.9244344,-0.30677283376057024,0.45663197393119265,10.013249623943775,-0.003586852802394882,-0.0015347985799459905,0.0019679901486319
1691525271.9345348,-0.03751110152775599,0.09599698771446785,9.803645424029913,-0.003488520602461831,-0.0003575546052534235,-0.0049986655178422
1691525271.944451,-0.033258182129626036,0.0345100011398059,9.859682348979941,-0.005643965734077613,-6.374435077349265e-05,-0.0081003715570027
1691525271.954431,-0.010665229675185465,-0.36568131513232777,9.794905040289072,-0.004552117262682185,0.0012982873111100645,-0.0112813773850853
1691525271.9644265,-0.1376481602298007,-0.46631144581470846,9.807143601054685,-0.0005935493706275459,-0.001576160058470701,-0.0076346935058886
1691525271.9744322,0.1511693572865062,-0.29031582286425267,9.699610761166037,8.182614184298775e-05,0.001616449410902406,-0.0028037323902303
1691525271.9845164,-0.037292771594250165,-0.4862628694826656,9.740170217097237,0.004320452974431886,0.0011228270976412688,-0.0010942220508063
1691525271.994506,0.011882085767259071,0.10673446192558111,9.868088775443672,0.003481894430302831,-0.00032291116512141513,0.00716027782234
1691525272.0045695,-0.06438952437275275,-0.0035257888855356008,9.82730106221079,0.004585654890005664,-0.0019967629636142184,0.0084440524403994
1691525272.0144892,0.13513072658042302,0.23085272205548485,9.736214504093567,0.004197888744605607,0.0012420472378281994,0.008319979784364
1691525272.024469,-0.2333627864587978,0.2952904723468795,9.956319278724978,0.0015346757711195151,-0.0024761533332876558,0.0027756351226066
1691525272.034474,0.06617488487304352,0.2878423417861049,9.757131147707234,0.0006417200660838891,-0.00027823174917306206,0.000361646718165
1691525272.044428,0.01779523987554369,0.24538912478827773,9.81822692596933,-0.001833393462877838,0.0008326439483879513,-0.0033330919506902
1691525272.0544782,-0.21286715581673374,0.016201383681694763,9.879851224070494,-0.0024626246632154757,-0.00220084641918212,-0.0080299514631683
1691525272.064426,0.049639954034329685,0.034868272756117605,9.799060708913451,-0.004029054975736388,-0.0015459667912521035,-0.0065804335574562
1691525272.074465,0.15448240772559593,-0.197076318436062,9.722653125570568,-0.0014332820320138832,0.00019561152151591758,-0.0027329569968337
1691525272.0844324,-0.04271978103481242,-0.17655865937250764,9.90851805851778,-0.0017011122742449545,-0.0031709294917299327,0.0003452509588619
1691525272.0944405,0.3135876617077613,-0.18743142897590534,9.705874357885943,-0.0005250456202327077,0.0006948074882113473,0.0042903293103968
1691525272.104562,0.12380277825715595,-0.23280713505474548,9.80416611222342,0.0026709159550856155,3.0583321002264275e-05,0.0069557621789222
1691525272.11451,0.16273353984488254,0.04008679842895586,9.806890280578658,0.0019939974298988144,0.0013403680987264471,0.0072452512283866
1691525272.1244614,-0.08908152737282503,-0.04135525869797117,9.853905234180992,0.0021024087516737307,-0.0005971049228273974,0.0031127615545933
1691525272.1345007,0.11422078272421335,0.03905466441949025,9.724052979602456,0.003806714116729803,0.0012625564840413716,0.0004137805260775
1691525272.1445072,-0.11825362866587463,0.27292158621112755,9.932722798554893,-0.0006740841099874055,-0.0009063182537779051,-0.0047036406869942
1691525272.1544952,0.06511553498736002,0.15296136347936698,9.790396747044797,0.001020212298432148,-0.001836500904691424,-0.0029833020928258
1691525272.1645353,0.2041061511979973,0.32642968700193653,9.878064865295265,-0.0034769473897251434,0.00029434794462583093,-0.0040833733330423
1691525272.1744716,0.2718527617486793,0.014452801164918655,9.701585975397995,-0.0035760763623309435,0.005181162773190406,-0.0047993736627454
1691525272.1844606,-0.22193532598231888,-0.1727583105671682,9.809882185929204,-0.0010995056927347337,0.0017125457273169456,-0.0034847270983214
1691525272.1944573,-0.5010368497791101,-0.1887455132770442,9.933265808030768,-0.00207484042545505,-0.0057648360320253726,-0.0129599931935722
1691525272.2049477,0.34076752173784464,-0.22726085588791786,9.809103423613523,-0.00025999487806545763,-0.0054378489824952,-0.0162885316933448
1691525272.214467,0.5036481786431466,-0.34386743753718413,9.684245148258757,0.0032763688065102605,1.3374552108103846e-05,-0.0150070262427384
1691525272.2244737,0.7041252180884419,-0.0005749261208724233,9.653740407858008,0.0033209700500517626,0.008710129948416296,-0.0079196791450435
1691525272.2344954,-0.07447605070861671,0.28248944739995924,9.934069009021561,0.0014136537968372634,0.005282116945476284,0.001063862746168
1691525272.2444625,-0.10710413308120281,0.1950194045000527,9.836839594906023,0.0010217527176813797,0.0021074651898563028,0.0090266422082727
1691525272.2544582,-0.19737381659029463,0.22133796517576856,9.893668693914172,-0.0002952889433491598,-0.003213056931882039,0.0139425641571228
1691525272.2644832,0.15632516066842422,0.03339306620937038,9.718488392769382,-0.000803304696688645,-0.0018681785691288214,0.0106721243535225
1691525272.274469,0.09378356635865254,-0.11341117962319404,9.762008748139008,0.0006175147975115886,-0.0013015719396742187,0.003462568176264
1691525272.2844603,0.3288226250648237,0.04175943075096182,9.774356893438956,-0.001325991516665101,0.004001007487645332,-0.0029423103953654
1691525272.294491,-0.04350467820684119,-0.19751925656467548,9.860205676039978,0.0011550272085759485,0.003592074985349059,-0.0090524961526448
1691525272.3045027,-0.1278356172910516,-0.07634839575768201,9.916256291328008,-9.994029310748741e-05,0.0016729217683566484,-0.0135400609399134
1691525272.314472,0.02781227251424679,0.1338260210760644,9.841329592952583,-0.0017640490691616145,0.000797269008555902,-0.0106626131857688
1691525272.3244998,0.0891194282432431,-0.128053113633027,9.701137350503156,0.0017961948986541965,0.0005860309801644133,-0.0055928567710275
1691525272.3344562,0.19018907894754727,0.07681576983374394,9.740473419300953,0.0002755456166249722,0.002203548458244094,-0.0008803335769976
1691525272.3444571,0.046577786521728726,0.07627721033510322,9.820217901763876,0.0001678768393873507,0.0007011493053700362,0.0055833712865655
1691525272.3544605,0.008334351282492379,0.09445853654544963,9.868693941927674,-0.00023036504596263648,-0.0013060777454282331,0.0085248730790858
1691525272.3644805,-0.10014431306576348,-0.1809229704847248,9.86853083065845,0.0011636622612713507,-0.0035386037348860595,0.0034290389337634
1691525272.3744593,0.11687234460090513,-0.028345849586041767,9.81543723376152,0.0015100996746556293,-0.0037457261622107045,-0.0007254085323716
1691525272.384648,0.09689358001765755,0.0012571661192814947,9.762682718164703,0.001535054668142093,-0.005577852735780239,-0.0078302675212676
1691525272.3944888,0.05895540952783231,-0.22555545519793127,9.941716867994083,0.0019064146075182151,-0.00968369861359775,-0.0460323614354188
1691525272.4045775,1.0344069010398615,-0.17135720113984934,9.489997475782614,0.002011985051139153,0.005179512396849733,-0.0844717805559689
1691525272.4146123,0.7416575538176435,-0.3483381871606062,9.805172138506094,-0.003857793347706328,0.01511694431665927,-0.0969868784124905
1691525272.4246094,-0.3406058423195156,-0.33465594457431247,9.500662240449579,-0.0011359655107976456,0.02201719127513983,-0.1033484150941426
1691525272.4454756,-0.5795369040061933,0.3301197481789261,10.24406049522343,-0.026434021724352656,-0.0031733188889650175,-0.1069702093775327
1691525272.446741,-3.2183399513320894,-11.517736996703984,8.16417457246556,-0.002183009073232444,-0.009028421122861882,-0.1162499596650655
1691525272.4546237,0.10852679166346202,-4.260176514309641,9.139404225972486,0.0323873973958326,0.0010887709317451962,-0.1535985132033879
1691525272.4645352,0.10955428422107102,1.131237214322115,9.747738732519792,0.026702180696199174,0.0007198617676733902,-0.1800472249562794
1691525272.474877,0.8270005951075166,1.5636031627857097,9.586669913478753,0.004969613635713206,0.019740747768024525,-0.2042809387023503
1691525272.4852843,-1.092278668887446,0.7789731929657737,10.133892019547284,-0.01695563201078278,0.011055027176232479,-0.2301994522388036
1691525272.4952075,-0.82050001143423,-0.105833878685472,9.880378301377073,-0.01680624001180657,0.004584082374545979,-0.2453774174029881
1691525272.5045202,-0.6623550559014493,-1.2554173043622436,9.767720635074594,-0.006446814885590025,-0.004376308538969388,-0.2603914995963628
1691525272.514525,-0.2903966835620678,-0.98572976038942,9.523047647961686,0.004603225969076403,-0.004033246104106952,-0.280460472899204
1691525272.524535,-0.464913929650681,-0.17813078887406525,10.105750858356446,0.006213430711584363,-0.011114788186347917,-0.3043356796081121
1691525272.5351748,-0.13124384717378718,0.24914754602325406,9.747113304563369,0.003384131742192383,-0.00738189369626944,-0.3309501369769628
1691525272.544504,-0.02320981026788355,0.3301716994366666,10.01257701942761,-0.0075843669508441625,-0.005348684968628761,-0.3479723592574651
1691525272.554514,0.07934458015365688,-1.2311961908378382,9.931794001134733,0.0017264980864108272,-0.001473336631926287,-0.3655993898685033
1691525272.564556,0.10455879113324214,-0.8820082396835731,9.785172574639175,0.013244444783581224,-0.0007171117768471285,-0.3786793907458837
1691525272.574499,0.6758177158131208,-0.07863584537626894,9.362465311485904,0.01533841659846127,0.011526055689020312,-0.3822069724376256
1691525272.5845344,-0.5862704245709454,0.6388993568586266,9.74615317353879,0.006912382813847046,0.0044663344053360084,-0.3928184171493108
1691525272.5946288,-0.1352364919948967,0.727695810843768,9.723799323570224,-0.004697299789358955,0.006229727502783456,-0.4026237686450536
1691525272.6045988,-0.6515601907102025,0.4679280372206422,10.08794991325973,-0.01338910320577066,-0.0026833773995466564,-0.4091716965014989
1691525272.6144893,-0.08393370988536619,-0.9207076370282188,9.860311463509365,-0.006028543167516733,-0.003441855261332336,-0.415760960179096
1691525272.6245828,-0.1106338463845811,-0.6887840500277372,9.819656129880434,0.003116960673279903,-0.005188050226532637,-0.4223693569476659
1691525272.6345036,0.34802581366260166,-0.06078801467980947,9.703408512952707,0.004334497090248143,0.0006825273911205411,-0.4281632860477025
1691525272.644505,-0.16088285419194304,0.1631222675302913,9.915163858145927,-0.0011842250448919134,-0.0020957229598145707,-0.4381955822284276
1691525272.654487,0.40994440306684815,0.30828541327941655,9.493195522377817,-0.006821120484139196,0.0047755496767507176,-0.4406177659804876
1691525272.6645494,-0.08850362326801649,-0.5151675232040791,9.536534673143391,-0.0019955875282919294,0.005501080928153871,-0.4475136061484868
1691525272.6744926,-0.6187543662115329,-0.5199723081160118,9.884266841868081,0.0035812544768332633,0.0007167957347631509,-0.4500595291431005
1691525272.684524,-0.9834055004014407,-0.284120712870108,10.404772492408213,0.009018995176122807,-0.012660970861815932,-0.4472272356326635
1691525272.6944847,-0.5020179196824281,-0.17696853617897976,10.167399492312796,0.011272729371085276,-0.0178080084969276,-0.4482481737906987
1691525272.7045538,-0.05224320217917041,0.519302737136829,10.059739205797992,0.0037359054201306745,-0.018827133811778796,-0.4462369640643651
1691525272.7145157,0.3307267247583375,0.02318493945670955,9.609578462303219,-0.0003598179919438501,-0.01219313188414048,-0.4538224001700933
1691525272.7245295,0.38787536192009453,0.5324734906314784,9.651366726987861,-0.004691908491247145,-0.007672873337594299,-0.4563829263026769
1691525272.734521,0.673370247804857,0.7727390959004737,9.675024850687304,-0.015301851138302075,0.0009856044842006702,-0.4620131810481603
1691525272.7445085,0.13038461202857723,0.0841086656184018,9.952423139146411,-0.019293982272892585,0.0027987308632156215,-0.4682779570396001
1691525272.7545364,0.2295227547262307,-0.6549842200613906,9.692781734916242,-0.013610708393877381,0.007761010504473651,-0.4712147672946508
1691525272.7645462,-0.6491942319280318,-0.8535097063959799,9.921139608689097,-0.002231509370166102,-0.0011150639643543142,-0.4746181031043584
1691525272.7744887,-0.12502941367249729,0.003764945164180385,9.742191145583144,-0.001999491412943322,-0.001206170910858452,-0.4752663036162908
1691525272.784522,-0.3700808230435044,0.020176996797283343,9.761639832577318,-0.0016078363349696148,-0.00513272031719286,-0.4774272998149449
1691525272.794501,0.023342582260656594,0.049488448377807345,9.63134159967704,-0.003441701974524175,-0.0045231680391740565,-0.4815570970351751
1691525272.804558,0.20092232798560158,-0.0019850769667588116,9.54541817310324,-0.004616003956373969,-0.001311147861679001,-0.482678170996433
1691525272.8145154,0.24781686041767245,-0.08634772530383887,9.495442904995615,-0.0024053376213182187,0.0035926164149041873,-0.4833204110438878
1691525272.82453,-0.5843868395501743,-0.24052264216445604,10.013277682604654,-0.00036127196315177646,-0.0023433480981319443,-0.4824288447673375
1691525272.8345256,-0.34097484973285525,-0.5103314801029099,10.095263256799203,0.0063642467264333315,-0.0047843505263731895,-0.4829907079513127
1691525272.8445096,-0.23523799958523023,-0.22393971307922336,10.200881220000886,0.011814989817347882,-0.007531921826501431,-0.480201866226917
1691525272.854512,0.24048273469303247,-0.04073202340976008,9.884077779558078,0.013748285546945505,-0.0034898421463701833,-0.4802581628139074
1691525272.864536,0.09033910220807134,0.5394322009918123,9.680657293489173,0.006766618093242084,0.0008432933926978768,-0.4796659310634191
1691525272.874563,-0.23226617969397073,0.016994533913670624,9.423057175666882,0.009266177634140825,-0.00218226431049209,-0.4807801504905278
1691525272.8845117,-0.17539308474923607,0.9593811616018693,9.719142334287056,-0.0015786099750545444,-0.0037516664175181263,-0.4824296792323644
1691525272.8945792,0.32668650331064497,0.704258089355154,9.764852632361926,-0.012270164582881438,0.0014587774823462362,-0.4844894369418676
1691525272.9045508,-0.04367991699572086,-0.2466943730189163,10.034510266502828,-0.010587228997475504,-0.0004101718637756518,-0.4844583829219396
1691525272.9145164,0.01899263313477817,-0.676586356283758,9.974929651240513,-0.0019779473241498024,-0.0012637988245078806,-0.4847296436603124
1691525272.9245274,0.03099519718821939,-0.33529263474219534,9.907898760090738,0.00416580459971344,-0.0018856805921889722,-0.4836176594073827
1691525272.934654,0.06540826843626779,0.13856364102297078,9.749885188502235,0.0019477740364528318,0.00010875103105828577,-0.4851826687629277
1691525272.9446504,-0.014975773670193608,0.3060776411795438,9.65432646891755,-0.001816365045524077,6.528634615279347e-05,-0.4883684774215276
1691525272.9545057,0.34868661783354343,-0.11914969051550948,9.552977936568814,-0.004088739257729721,0.004950367105948167,-0.4924585481460149
1691525272.9645195,0.17234126806892744,-1.1490991475265224,9.446353057798232,0.009544600107342338,0.008397912188333394,-0.4943010767276342
1691525272.9696162,-0.10657392615164114,-1.5566325947101711,9.484798616388494,0.022589824299172657,0.00811075951928485,-0.4919035692985112
1691525272.9835467,-0.8183333922543019,0.22916274468907968,10.058259200994055,0.023715203732369638,-0.0006512341306177213,-0.486103441315418
1691525272.9936874,-1.1904722036064783,1.0569781850473272,10.437729377771667,0.013716487062489452,-0.017752195300880833,-0.4806569178874547
1691525273.003643,-0.38980826651830347,1.4192525948117898,10.249954222282309,-0.0035651936950137383,-0.024186024258450452,-0.4782166739280278
1691525273.0136583,0.8708018205024753,1.2678086982161765,10.168134060766592,-0.023034146590880652,-0.013746964069872594,-0.4847178717429692
1691525273.0236192,1.338981799897993,0.12484649230098521,9.591844284070875,-0.024623282427268866,0.003665052072462276,-0.4831603129680211
1691525273.03361,0.9263185874470518,-0.7758222216397038,9.411265837369307,-0.015189622888223113,0.01601894672627904,-0.4858972092444951
1691525273.043557,-0.03889238711094571,-0.4308892070542543,9.472463976492294,-0.010042510306698704,0.017755672095301964,-0.4940249582107122
1691525273.0538003,-0.23387824241084976,0.05921021574820441,9.433233135316017,-0.00940970253830507,0.01769689428153979,-0.4954349954898412
1691525273.0636528,-0.9946455049905508,0.2654497924863927,9.959065688147419,-0.012562834396275036,0.004203080721962769,-0.4931489487464482
1691525273.073615,-0.6526134766081088,-0.054291744516552325,9.924229869446508,-0.014912570482230787,-0.0024965840361444143,-0.4938754697616155
1691525273.0835938,-0.6051106613428567,-0.3879553972216035,10.11445168157435,-0.010506678786426141,-0.013441766221731715,-0.4932097454841191
1691525273.0936224,0.23613047365115256,-0.7432278880606925,9.696303556779663,7.10485330747837e-06,-0.0117211254537901,-0.4931826253707463
1691525273.1038222,0.7214718874681385,-0.28449714275652327,9.545255701996128,0.003734422935358381,-0.0016978700114163923,-0.4953298528964574
1691525273.1136186,0.7370764075673834,-0.7819104543955545,9.426191202887482,0.011752433808905373,0.010017345511926472,-0.4991873164947087
1691525273.1236732,-0.2568219407097089,-0.19112646625060448,9.673726222901303,0.015502779543246713,0.009642018496395711,-0.4987534840877111
1691525273.1336606,-0.7324413929542057,0.1936596782266423,10.135920022038198,0.015128183479658235,0.0017314245551882696,-0.4938974340732152
1691525273.1435418,-1.1012995353742518,0.5062328024962546,10.28886529542585,0.011465370303917814,-0.013465351403128392,-0.4910969396407659
1691525273.153618,-0.12338170536537528,0.7334428916273447,10.044626854199493,0.0038495555814673965,-0.016170850653128035,-0.4859862287814672
1691525273.163715,0.13223621876826455,0.42403202933673395,9.79961379801067,-0.0004804703834256942,-0.01623358764996396,-0.4841265340621526
1691525273.1735835,0.9275639909280883,0.44002430770220696,9.563325777461555,-0.0038689397929118257,-0.002991408964573878,-0.4889809449489171
1691525273.183558,0.908441133204729,0.6453465468802161,9.621361322125136,-0.011071297458562094,0.009610760780639903,-0.486382480459934
1691525273.193589,0.3908404072880969,0.16312267655380758,9.747820138826047,-0.015385971036275228,0.015393743772974594,-0.4892135818774755
1691525273.203585,-0.16436740262272537,-0.3694398194979963,9.84204647822868,-0.008886149307074239,0.01208090878717523,-0.4872736295039708
1691525273.213555,-0.5458071118383522,-0.3340083004411428,9.885771989701423,-0.005020206232104541,0.005493684254410824,-0.4901823659713323
