time,ax,ay,az,wx,wy,wz
1691525287.5937552,0.15155685035994307,0.02434483752898789,9.749011037081651,-0.0002918398579940358,0.00045377646962762924,0.000200701895455
1691525287.6037483,-0.024464444253771197,0.020027010045039005,9.84133840525373,-0.0002527208999532952,-0.0005460793518992234,-0.0005432294967527
1691525287.6138394,0.04330537472146245,-0.0010765972194946136,9.786227502622028,0.0001995364876168129,-0.00027750020451139005,0.0002167289092262
1691525287.623789,-0.07605179016658882,-0.01671224750626653,9.833206248075674,0.0011070133946341919,-0.002044400045519753,0.0007174103118536
1691525287.633759,0.1235927739765602,0.06197991925140717,9.78011939115467,-0.0015502246648204977,0.0009224125544628996,-0.0023000854819024
1691525287.643721,-0.023580578581313467,0.031559064795112016,9.839194843055099,-0.0013483307342160899,-0.0005103405435061712,-0.0011642426072562
1691525287.6537638,0.03766264295568813,-0.05036956648626459,9.7827055788571,0.0007292722696730441,-0.0006161346718606179,-3.287601814964524e-05
1691525287.6637511,0.12337457452481634,0.1650113717225104,9.82392674793343,-0.0009433990506881674,0.0005718676072716215,0.0021564922242482
1691525287.6738274,-0.051510718459007905,-0.12242435816525205,9.796917217481944,0.0005675975663646217,-0.0002596137598593052,0.0001202493620162
1691525287.6837718,0.05999279844780315,0.03314752490821559,9.81011164537785,-0.0010123053397416894,0.0008892600623769135,-0.0018679483148212
1691525287.693822,0.028874908971326312,0.05828711531288107,9.818958071398441,-0.0010417320649235672,0.0005528611480639717,4.534657979956159e-05
1691525287.70381,-0.09840684647350022,-0.06701962215493268,9.846404510749815,-0.0003868221417199426,-0.0011648571784142884,-0.0022073199327046
1691525287.7137885,-0.04560998282702768,-0.026298031653417913,9.848526529514112,0.0007460344886288136,-0.002869538165295198,-0.0018482056732232
1691525287.7237928,0.27687542970963464,0.20691390009325492,9.745582152881605,-0.001086428447741865,0.0010740431120534414,0.0023792472382133
1691525287.7338862,-0.14717868180072105,-0.0848518836044303,9.865405042042331,-0.0008696463273024917,-0.0012367582504142721,-0.0010062882031256
1691525287.7437284,0.14095603819430003,-0.06612153706227132,9.71648906592073,0.0009065743484936011,0.0013027737744110248,-0.0009794686741138
1691525287.753716,-0.06128837161246949,0.04609556444909195,9.869267152586753,0.0009039798417943402,-0.0007748263362839464,-2.058500488647929e-05
1691525287.7637265,0.05073119103572281,0.17469602555118768,9.849934403316928,-0.0025340937404284484,-0.00023987911604692955,-0.0001494642167294
1691525287.773758,-0.010719910680412245,-0.1396354668717216,9.775862559665374,1.7737345396079698e-05,-0.0005740431079160824,-0.0009753727174306
1691525287.7838216,-0.08341815178065021,0.06076463488208436,9.900801760547951,-0.0016988735232095712,-0.0025227355513202233,-0.0025545176870132
1691525287.7937708,0.14018905851318905,-0.11887593035218913,9.706060386927703,0.0018345365430286107,-0.000651887890134549,-0.0015390401060635
1691525287.8038125,0.03159945640577328,0.09375073873782183,9.828161687158373,0.00017978963227928098,-0.00044439617266613145,-0.0010368393088633
1691525287.8137677,0.1733239657427062,-0.10481321878229286,9.683029536699607,0.0029901527955137385,0.0025935805174323707,-0.0005208815966675
1691525287.823888,-0.0465987969839906,0.21937728441149337,9.914145294247186,0.00034220350826211975,-0.0001623731053015349,0.0029540701250602
1691525287.833786,-0.03619750760504283,-0.035855855264000834,9.81850567810494,-0.00041663017337387464,-4.4297386311885475e-05,-0.0003547407506907
1691525287.843815,0.04842180367454934,0.0047261870271407555,9.797688511884278,0.0005147069010148207,-6.851745093794631e-05,0.000955813291302
1691525287.853865,0.06828595795150695,0.06084425512457134,9.809296633523351,-0.00023671470523682907,0.0008505202655253687,0.0011048185149497
1691525287.8637886,0.039794249689415334,-0.001463850687214023,9.797412263868374,0.0002699242537401781,0.0009812837231959995,0.0013957532389845
1691525287.8738182,0.06032623385927256,-0.16411371887558887,9.726384289309975,0.0023854989993801704,0.0027936130321186323,-0.0013296976505721
1691525287.88379,-0.08729653185143811,0.23560170264221353,9.941816164828492,-0.0019905675913430604,0.0004589985441897727,-0.0005313048425073
1691525287.8938415,-0.0020899498935608666,-0.03600806061804121,9.808668316459448,-0.0009411580200494751,-0.00017504971558143228,-0.0003584557964409
1691525287.903839,-0.06917258454509634,-0.01817014631452572,9.876834015132546,0.00016190313091712683,-0.002599475086190557,-0.0001297198289016
1691525287.9139128,0.17331143416454353,0.06235554639009381,9.752990301490083,-0.0007202431220667731,0.0005532480343709504,-0.0001155580214167
1691525287.924122,-0.02842846053165996,0.023170584573276195,9.84572294050316,-0.0017271841942607799,-0.00011805916717266479,-0.0017792880355323
1691525287.933992,0.03216593344861949,0.0495052617783096,9.820830189101159,-0.0007597288654597778,-0.0009897759267700477,0.0010649854700836
1691525287.9437883,-0.022621013976289413,0.027444947410541622,9.826473286408998,-0.0010450841992965464,-0.001865959556150934,0.001122716963227
1691525287.953864,0.029149062117373382,0.022612071097387054,9.811563268983884,-0.0013129334229471442,-0.0017206737415454885,0.0012098893237357
1691525287.9637425,0.09754704088559545,0.007602671801019102,9.759470832002068,-0.001566255936668717,0.0001799682090331663,1.81704706569601e-05
1691525287.973752,0.08595454954755098,-0.05577211383715968,9.754447665217175,-0.0006688536846147222,0.001774769928284838,-0.0009999412397796
1691525287.9838052,0.08739533254045284,-0.0014035930261099105,9.775941829805419,0.001066011421400472,0.0021789715560880996,0.0015369492355325
1691525287.993813,-0.15492420152154027,0.034336978626158886,9.899619445381381,-0.00032088977912762465,-0.0008876880710849681,-6.796890584618957e-06
1691525288.0038133,0.03645850488411081,0.0978371333512711,9.820307944534326,-0.001980130080595902,-0.0004857442446169816,1.890586624494085e-05
1691525288.0138288,0.09000945766802362,-0.07473116462272522,9.733374561142705,-8.732950356707659e-05,0.0008236997359366208,0.0001437058852111
1691525288.02378,0.03259507559896716,-0.018971523557428278,9.791772243612353,0.0009151564040879248,0.0009388113052087986,0.0004350217239057
1691525288.033749,0.08893673872345352,0.1357119152662261,9.82522712401262,-0.0016646182818764485,0.002268733096100605,3.6783417971937744e-05
1691525288.04382,-0.07852989205957148,-0.11246616016854433,9.823453242581081,0.0005254910314573268,0.00028354055525943586,-0.0007809027849639
1691525288.0537608,-0.008283992412921945,0.1787228775071347,9.889592065712844,-0.0013513055041226608,-0.0014830051753903146,0.0019348316889313
1691525288.0637908,0.2522949171181739,0.06991908930437735,9.700738579633539,-0.002049827374193944,0.003207887537046296,0.0026832103210558
1691525288.073779,-0.10351389922290605,-0.03357066042145514,9.852624001326912,-0.0022871109156320487,0.001325857675748786,0.0006723221920487
1691525288.0837548,-0.08920443826080857,-0.017527244808899323,9.84798393425455,-0.0017748763196182276,-0.0010508693651213863,0.0004584968735521
1691525288.093744,0.21448898981689546,0.056256005790148375,9.7275142191353,-0.001298414321462256,0.0020902980176635685,0.0027368848857527
1691525288.1038773,-0.12907038305040955,-0.09848066283827381,9.857639437697433,0.0008257514696881811,-0.0010117454025888905,0.0017034922964462
1691525288.1137552,-0.006932145770356845,-0.01833949868061719,9.81155482130744,0.0008834881408977745,-0.0010218027182780842,0.0006279892002289
1691525288.123757,0.06859552112337083,0.12459100988719733,9.830952723291434,-0.00120601820019143,-0.00039447269454427554,0.0012542172214757
1691525288.1339386,-0.01175754861005953,-0.12654391841107707,9.792163087714503,0.0009863134809854194,-0.0007561974544206762,-0.0004869807564596
1691525288.1438978,0.13593753557433877,0.042774351588396424,9.761806886526527,0.0005828607684061209,0.0014115509264621556,-0.0001129592821876
1691525288.1639051,-0.01948667189812911,0.06864064076731251,9.873740391574367,-0.0021310208865025315,-0.0006545037879997781,-0.0006087962358201
1691525288.1738386,0.09152116162213379,-0.05673400820683451,9.760889967722164,0.0009360187774838578,-0.000351997420485665,0.0023904338193183
1691525288.1838603,0.07984108584532427,-0.005224671956429226,9.763507064713998,-2.3980340017257176e-05,0.0017155355656474547,0.0002945879421254
1691525288.193968,0.08491807241689593,0.08400276488372076,9.808932633090446,-0.001728705619616938,0.0029504587223536,-0.0001390622748936
1691525288.2038198,-0.09911642698560595,-0.03565995367006329,9.865368158842385,-0.0004035954587466598,0.000357293482649968,0.0003575411572178
1691525288.213767,0.010578908225222124,0.0778982728093142,9.840993223105498,-0.0018829076853004894,8.385499548399434e-05,-9.358742338964452e-05
1691525288.2503004,0.039407121807960875,0.015714143351539745,9.802719020178323,-0.001245133926109637,0.0006705874651619834,0.0018741148703788
1691525288.258216,-0.26656719282707747,-0.06940352559839377,9.938024758039308,-0.0010614657245521125,-0.003363910521101456,-0.0003342259262631
1691525288.2598877,1.8261742551827898,-0.4266367180357017,8.69556243817549,0.0016516456595892914,0.002275449746948476,0.0017940108844136
1691525288.262587,-0.4406240855631795,0.525791200280645,10.241757790554303,-0.001416502432901635,-0.0003158726545836103,0.0015630512969159
1691525288.2655993,0.05894153206490377,-0.3921888517660225,9.646811773296342,0.0006759954009693962,0.0002094025554224336,0.0006417875590791
1691525288.2742848,0.02223129881298186,0.09519079971796347,9.8375152722198,-0.00011153921024356797,-0.00010650147412948483,0.0017761365923156
1691525288.283785,-0.03283030339341544,0.05208635542479422,9.855250662740296,-0.0010629708984076975,-0.001138780776393136,0.0015745952148513
1691525288.293859,0.15741958134789424,0.006388039803975705,9.733359243168646,-0.00032984733473162586,0.0012320100012194167,0.002732028737018
1691525288.3037963,-0.06623603444864176,-0.08791376848061154,9.823559265028166,0.00012465442437504956,0.00046941727482816096,-7.199668855765572e-05
1691525288.3138063,-0.06342035730346782,-0.06527924464962011,9.837586053422386,0.0010895058222696475,-0.0008642085967505128,-0.0013534752472246
1691525288.323852,0.23032950088823512,-0.016250723518388098,9.678794633572348,0.0024928197339097757,0.003228374718171269,-0.0004720766848827
1691525288.3337872,-0.07168588951772299,0.16478821160998708,9.91234289888892,-0.00011450534213210017,0.0009630229598489835,0.0002595609000941
1691525288.3438988,-0.002695811776187586,0.059597625166098386,9.836248351076133,-0.00012308015661571347,-0.00010762165298102628,0.0019813942087871
1691525288.3538089,-0.017588911249730183,-0.12004169969918373,9.785947635481657,0.0015600136759137736,-0.00032406202460197303,0.00016756718448
1691525288.363791,0.010621429967070089,0.103971847729902,9.842651926335146,-0.0017339006232147732,0.0002410418031406522,-0.0023153621989245
1691525288.3788724,0.02043288559300869,0.009413915021947711,9.813683275915045,0.00012576267397965206,-0.0009253088836152098,0.0004085847356413
1691525288.3839047,-0.11169956059671036,-0.10510557613066773,9.855202246354395,0.0006987263527196136,-0.002001196216146528,-0.0008650929487253
1691525288.394019,-0.004766073373923288,0.07165534090590629,9.845860376839342,-0.0011069201880645376,-0.0022016180022227647,-0.0022468098725135
1691525288.4039023,0.20200478392293406,0.11493587057942156,9.741328400820379,-0.0022736956018871834,0.0009894733106209413,-0.0002962298278639
1691525288.4139402,-0.0847280563806038,-0.08973411247088955,9.846687424502107,-0.0005906218490619988,-0.0009935005354973082,-0.0012733959413076
1691525288.4238331,0.12163163353956193,0.030364839440326627,9.764434529696727,3.4133200443474623e-05,0.0005305187804362802,0.0003940425410923
1691525288.4338214,0.01021107175723833,-0.032058587883434846,9.786087495364482,0.0010462897576657857,0.0002399455633744666,0.0005166098888089
1691525288.4438703,0.012019604384389898,-0.10335737839110723,9.776696866022135,0.0020994313698288023,0.0008732409566324294,-0.0019528916857148
1691525288.453927,0.05290788526432763,0.2131364988638258,9.855511823193083,6.355215686120056e-05,5.182638931337792e-05,0.0023699393675719
1691525288.4638772,0.059756837206644486,0.0064673671258865615,9.789621141258362,-0.0005913609993042554,0.0013865927893417698,0.000846298720507
1691525288.4738903,-0.04689397651921449,-0.01788585590049458,9.827478114619266,0.0005005270341647804,-0.0004138354846737279,0.001573482051544
1691525288.483827,0.020793269754051907,-0.19832092953715724,9.758010459124892,0.003547429222406821,4.658378968040337e-05,-0.0014596846706176
1691525288.4939318,-0.04186558536985354,0.33385612170288087,9.947990989496953,-0.002946860647252701,-0.001304566170500929,-0.0010371964710707
1691525288.5039,0.16713606432016986,-0.11931405531814099,9.68225248751724,-0.0003231460637539849,0.001890977784052361,-0.0017983109976107
1691525288.5138547,-0.001557444655664652,0.08735567961030351,9.843641628067305,-0.0003857126051243116,0.000530893454996537,0.0010355470765439
1691525288.5237856,-0.10097760989963954,-0.20478323306083387,9.798878584674933,0.003399180185120175,-0.0012900033817684969,-0.0007242881513143
1691525288.5338085,0.039163704181654206,0.2800907407276283,9.888796299530496,-0.0012864804927319926,-0.0012464433068596933,0.0005464151797873
1691525288.5451293,0.07144490925429266,0.02281156211860231,9.791078870378831,-0.001734286600263338,6.633046014614387e-05,-9.770142444768658e-05
1691525288.5553582,0.14579939255090696,-0.05257821329077238,9.721075867828507,0.0009281921250686489,0.0020798672925618723,0.0015478150342182
1691525288.564374,0.03435966755662005,0.15098936758368078,9.85126391988622,-0.002107164906685329,0.0024907638801653803,0.000600795803411
1691525288.5738912,-0.12460161199256257,-0.0214646352750198,9.878386960564553,-0.0018426549131684517,-0.0001433856268480751,-3.659991146424523e-05
1691525288.5838845,0.1678813564288106,-0.07674096279713347,9.69386673855544,0.0002654517670103843,0.0027522841580858897,0.0004160397982282
1691525288.5937932,-0.22888034179338243,0.061126488035121745,9.963098341645903,-0.0015778030280815898,-0.0019363646854222288,-0.0010074048588926
1691525288.6039653,0.1030755918781798,0.05718952595555683,9.772851573594334,-0.0021600704813882184,-0.000254401749847878,-0.000678459047986
1691525288.613874,0.056834869116598685,-0.034708896470374576,9.77919523256735,-0.0006219042572714574,6.336645106048383e-05,0.0004182621085142
1691525288.6238637,0.013061022083014299,-0.21622102134711657,9.7400133790444,0.002583681833323843,0.0007939419870508374,-0.0025001277501637
1691525288.633796,0.04848127839628555,0.21312679290342332,9.875359078856759,-0.0005976998040865208,0.0007030173695734756,-0.0009764670214558
1691525288.6438332,-8.022457485662032e-05,0.02045021580011869,9.822319573192276,-0.001183305496986949,0.00036734806761080414,-0.0014950455917919
1691525288.6539035,0.00029279932919288936,-0.023549640562819666,9.798094716090976,0.00012239533909440923,-0.0001713257940001806,-0.0010118854517991
1691525288.6638317,0.045599796468757316,0.13412632961822465,9.833848188669407,-0.0020028667961179488,-9.532980713445562e-05,0.0002204596710448
1691525288.673831,0.02796905397461033,-0.06261725771605746,9.786969795048512,0.0006566227193043353,-0.0007088863275868498,0.0020640982727577
1691525288.6839664,0.03221911819435707,0.13902064474883064,9.85357559723845,-0.0029595273387258082,1.3808648308534033e-05,0.0005944849288148
1691525288.6938326,0.06103747835022537,-0.15693591182901603,9.73346037177875,0.001202386412090479,0.0004131682511797655,0.0013529320892935
1691525288.7039187,-0.024124260330108047,-0.019779194666726774,9.82662183341535,0.001278388699525694,-0.00014302274380839855,-3.732389835068694e-05
1691525288.7139645,0.11209841201165655,0.08345484453106829,9.787534562350917,0.0007505016328974304,0.0011895238366925608,0.0018361100990382
1691525288.7238417,-0.0827921629125689,-0.021044491920275254,9.860931458841884,0.0005135719737113591,-0.0005971043659202547,0.0001757530442496
1691525288.7338226,0.11000181906954233,0.09793543548494511,9.806490921643702,-0.0009698498673809036,0.0011012375749226682,0.0003616550418605
1691525288.7438424,-0.06370351401930592,-0.10987528560159134,9.816627446754758,-0.00023260936720458368,0.0002764621218193307,-0.0027810160356516
1691525288.7539876,0.16684504064561959,0.1331407791166749,9.771061950532532,-0.0013695604400706962,0.0027705300166063493,-9.472154145488252e-05
1691525288.7638495,-0.19364206563199918,-0.16797773389421458,9.86601369979586,0.0015782770705308126,-0.0010858880913357978,-0.0019830462808663
1691525288.7738674,0.15880644188888593,0.11955141413886985,9.773545192923368,0.0013599662129975111,0.0004928901145498974,0.0017027404280902
1691525288.7839298,-0.07551294745972373,-0.19089348096765701,9.798894843775713,0.003299707030283733,-6.628210426089705e-05,-0.0024729519902671
1691525288.7938411,-0.003841813728077857,0.35761373955665926,9.94618042023253,-0.0022099855979595714,-0.0018957650206409007,0.0007408763811049
1691525288.803911,0.03194801743222751,-0.28574849051242823,9.704234484261015,0.002314375185372929,-0.0005006402963828927,-0.0028026250476891
1691525288.8138227,0.19464744411055687,0.22719639348842932,9.790438828074459,0.0003563519075972494,0.001644016123436673,0.001558218373038
1691525288.8238397,0.025292824481689836,0.10728463153438947,9.835055506372377,-0.001381856481920304,0.0015616779387354423,0.0017038592084368
1691525288.8338563,-0.15949420010204599,-0.2489288931893356,9.812328914173914,0.0026235681249739693,-0.0010765540474410916,-0.0012625984202081
1691525288.8438478,0.1543245072778628,0.1957798135041213,9.802701632036737,0.0002457199661469815,0.0006411646547170516,0.0016461165685263
1691525288.8538983,0.0664384045096065,-0.07052262484908131,9.750276006461469,0.0007672194718983142,0.0024993531794662597,-0.0006140090811009
1691525288.864898,0.010257876443884621,0.18729762696121094,9.887875027890347,-0.0014504029749604842,0.0009537031623801271,0.002762603475066
1691525288.873873,-0.1659182408111893,-0.050499282101304735,9.881097698081346,-0.0016813635521670735,-0.0015359022921881686,-3.547545587071887e-05
1691525288.8838537,0.13406005722506906,-0.08914958972989759,9.713680490388812,0.000984825372961116,0.00028576204716226406,0.0008030805509129
1691525288.8938272,0.020277261963535857,0.08777377688336732,9.849216591751405,-0.00044830320810988555,0.00014420315006619035,0.0006261260894184
1691525288.903867,-0.0785774019369471,-0.046912199190513516,9.84783174428973,0.0007095378662192945,-0.0017903440871753636,-0.0005424828088785
1691525288.9138677,0.09164109375505806,0.28930735347556474,9.854590869950709,-0.004649674636255453,-0.0005680695338798572,0.0005169768299033
1691525288.923851,0.05642554172259675,-0.12429460017120827,9.74493598024215,-0.0016858367947959532,8.124839729697458e-05,0.0004495642677006
1691525288.935241,-0.07839998333702379,-0.04833127331204556,9.84392878966461,-0.0014586247100771305,-0.0015396156991428636,-0.0021838482755179
1691525288.9439526,0.18901384815788635,0.041511147765839085,9.725859949296302,-0.001077870939427535,0.001027465830159694,-0.0005544206180552
1691525288.9539814,0.08218366431118494,0.13056191464785363,9.821068761558879,-0.0024443212809604925,0.0015344791032269997,0.0011391011901373
1691525288.9638703,0.020297958225827806,-0.12865976836590146,9.772873677324075,0.00018387642145320274,0.0014748805012873881,0.0007848238926903
1691525288.9738157,-0.08489341681975077,0.0589777848329622,9.88592624008421,-0.001394892204689152,-0.000543863623134632,-0.0003513853118697
1691525288.9838626,0.15380916447115137,-0.09823764152777455,9.703931672263815,0.00029671839805371197,0.0025190852593216817,-0.0017047805997485
1691525288.9938557,-0.04504318531176311,0.04056938407398644,9.855403169944768,0.001177427574581025,0.00027197851848385186,0.0006924368970153
1691525289.0039098,0.1052221472993593,0.09961000086569237,9.808983775825435,-0.0004870262618553831,0.0016138283238296643,0.0012367235892902
1691525289.0138366,-0.04174393995669944,-0.11767822048561746,9.80178360944561,0.0002393928688664123,0.00149014502560332,-0.0023198337114358
1691525289.024798,0.1112784407201602,0.08227349877420043,9.799480268998966,-0.0006166945342940227,0.0026438684189651865,-0.0008200341655815
1691525289.03384,-0.1228935570847165,0.058515562174762524,9.913108163578018,-0.002321369172259394,0.0003248848873265018,-0.0025053403626138
1691525289.0438552,0.1475516071405134,-0.006245740890223398,9.729154700855922,-0.0006066365784373436,0.002251972562868196,-7.9072295402975e-05
1691525289.054723,0.024931799278848366,0.008908098093126007,9.801011417319067,0.00048226985257872915,0.0017356471902121695,0.0019601696583499
1691525289.064068,-0.03912332621686617,-0.19359163369532642,9.775918511936474,0.002086350279685773,0.0019133633936740443,-0.0026648032764846
1691525289.0738325,-0.12581558382549046,0.12280848770707976,9.926558730069155,0.000442420108468747,-0.001611902299305691,-0.0012748855917657
1691525289.083827,0.17941423131070544,0.10585681424547182,9.761359184021199,-0.00015177754134789538,0.0007547837898719228,0.0013615117748208
1691525289.093866,-0.06207044262879396,0.011612108701743286,9.855415265023256,-0.000981010731578262,-0.00038627284993512446,-0.0003756042390073
1691525289.1038532,0.12003234588115079,-0.07251425736018727,9.723209301871709,0.0011919462211228238,0.0014905291627140744,0.00011281170352
1691525289.1138637,-0.03239443600459196,0.08967013322163193,9.85442052082705,-0.0005552171440924246,0.0005375959666012462,-0.0001960318588594
1691525289.123885,0.02478043101196968,-0.05610366967791853,9.790478256070175,0.0003470668778288182,0.0009332374619376104,-0.0015646859358007
1691525289.133953,-0.03061177989716439,0.09903763131486819,9.874421242424392,-0.001184795244457106,-0.0005941556488060597,-0.0006732524891326
1691525289.1438906,0.14330969753648912,-0.027974750657638776,9.726886539798535,-0.0003753075441488192,0.0020973820112370157,-0.0010409217613691
1691525289.153923,-0.00967911063453076,0.09981150497533457,9.865953921448408,-0.001451526056790352,0.0006772929056804556,0.0007367792602685
1691525289.1639135,-0.016148290268183298,-0.034852747828455925,9.816432128136992,-0.0010588761941210188,0.0001173743174328521,-0.0005249925709272
1691525289.1739776,0.05007575506696125,-0.028569730029110438,9.790420837562698,-0.0008618259290974471,0.0008859205061043301,-0.0015013599588478
1691525289.1839092,0.015759719847624774,-0.03582942831344649,9.794248748033052,0.000804115398366957,0.000411315259392262,-0.0006512804941217
1691525289.1938505,-0.015917738456954107,0.08958373020933481,9.858834408116099,4.5307389138712374e-05,-0.0009413497314744889,0.0009368190256004
1691525289.203879,0.030561241902754478,-0.014388272307194937,9.800725423348487,0.00036755004074133215,-0.0006474152645447427,0.0003676098601949
1691525289.2138531,0.12032603715624703,-0.02211830964397649,9.747246750757975,0.0005120651730002605,0.0017859421807658045,-0.0005361676269153
1691525289.2238448,0.0009463458363287114,0.07979898495698533,9.847652634342564,-0.0004158775756497844,0.0010189036100835974,0.0003761641744581
1691525289.233858,-0.09745047318912792,-0.09326681989065702,9.836978432577842,0.0020338648196300494,-0.0016547032625043993,0.000933857274294
1691525289.2439156,-0.05275879697219988,-0.07676557096403022,9.825303254917596,0.003274013502416035,-0.0027983929642902395,-0.0002973741904775
1691525289.2539723,0.09748647257922406,0.07451969350342415,9.784776440921746,0.0009702889905483774,-0.0006980806399804959,-0.0020348406217003
1691525289.2639227,0.1342843219866524,0.0625387628635161,9.770147182800676,0.0007203155262003657,0.0010878361371279583,-0.0002787204977999
1691525289.2738683,-0.06593847106331306,0.08084489604648701,9.886591631926866,-0.00132226930025214,-0.0005218839848315567,-0.0014857277094329
1691525289.2838352,0.1430016056497646,0.0021828577721405983,9.741308421464769,4.5321131092898346e-05,0.0012942012258360476,0.0005114017583487
1691525289.2939625,-0.07584301623024094,0.0590053954511752,9.899127474487427,-0.0013610157241319215,-0.0007852496553113989,-0.0005957598152513
1691525289.304001,0.07356874033023925,-0.07403713291410885,9.745733057207564,-9.701731849338467e-05,0.0006787747417475237,-0.0018754130980874
1691525289.31399,-0.009215115181524472,-0.004621986940657237,9.820947869987716,0.0017168339924015048,-0.0008619769965892758,0.0006499830231127
1691525289.3332624,0.10459997301050009,0.07584230226900474,9.791478128515196,-0.00040917337735054305,0.0020005197169977455,0.0015634118933753
1691525289.3363483,-0.4766968086404503,-0.3318493164965446,9.959316822022599,-0.00013761105551681748,7.886799276918724e-07,-0.0021488314780349
1691525289.3438902,-0.0547908126015897,0.20205066568194915,9.934577226398325,-0.0015040430186297224,-0.0024038832562221666,0.0006358272692245
1691525289.353866,0.1256191405517966,-0.04732993474029576,9.74660878466205,-0.0002478866537826627,-0.00040825489031373174,0.0002819172402901
1691525289.3638785,0.17523949248914758,-0.01918482735029553,9.703272616746549,0.0006480528401212022,0.002612211464161799,0.0009260124241059
1691525289.3740077,-0.16802778160390913,0.03191700072986948,9.918054716791808,9.543091809461312e-06,-0.00131535837855088,0.000112790748762
1691525289.3839047,0.15268643321234476,0.004976842204901077,9.74765065490683,0.00011533388251991773,0.0013400303985342315,-9.395483014533034e-05
1691525289.393895,0.039344782385811204,-0.04186047850109299,9.791872593169073,0.0020338418410400126,0.0010382925632264062,0.0013354098735085
1691525289.405835,0.0379380793599844,0.19733310405696866,9.867827818309468,-0.0025053919689237264,0.0014123026907271153,0.0014445697486457
1691525289.4138863,-0.1528122078098917,-0.1639832617779137,9.84660319295654,0.00017829848633418215,-0.001416305701732143,0.0008165001234096
1691525289.4239,0.08116386960635075,0.1143727647119561,9.819520493574652,-0.0022692311223115194,-1.462045999001042e-06,0.0001940019608532
1691525289.4339106,-0.06701703689948034,-0.13818280049456969,9.795381746679954,0.0005534350900804782,-0.001586929841343781,-0.0005644679588208
1691525289.444224,0.07818004690271493,-0.020494435830535306,9.775781375428036,0.001678100499183162,-0.0007666339985333423,0.0003336909174045
1691525289.4539025,0.012098786362471574,0.052443147580367944,9.833137851465093,-0.00021806732782231968,-0.0002353850431911641,-0.0017826291552687
1691525289.4639416,-0.004212167862401077,0.003794032607205888,9.82666059515692,-4.074761521635069e-05,-0.0008817414151402603,-0.0019100417668873
1691525289.473874,0.0289037140039991,0.05043256664891915,9.816160319590532,0.000708036897365056,-0.001517279337301758,0.000782595965365
1691525289.485034,-0.01358784871306456,0.029115511333536983,9.842778372366375,-0.00016442835821606794,-0.002351738210110393,0.0001541406561677
1691525289.4939382,0.17096623752350087,-0.015243994227717385,9.729763567597256,-0.0005410430976937128,0.0008169890513086346,-0.0012767468399311
1691525289.5039375,0.02022557077154148,0.06088584592201753,9.832102458504485,-0.00116728265140492,0.0006329631710552989,-0.0007682435500378
1691525289.5140774,-0.1137585219621295,-0.041014869762555244,9.861394323334451,-0.0017614272803685269,-0.001110861928268764,-0.0040245235252136
1691525289.523918,0.03727927725522226,-0.04121930435521898,9.78308284484584,-0.0007891583915764031,-0.0006764538286374349,-0.0042726218054945
1691525289.533894,0.14602456061102118,0.06228088929779502,9.761471533817042,0.0005470924545354398,0.00033568839033203525,-8.726281178543082e-05
1691525289.5438704,0.05687143379071641,0.0669992906815735,9.81642378565591,-0.0015278922141590177,0.001611603891796689,-0.0018172708625848
1691525289.5539274,0.023730477190001015,-0.007742325460567038,9.79986547103067,-4.0379761827864974e-05,0.0010338127526140159,-0.0003763339302445
1691525289.5640285,-0.03690267676438279,0.03661901265866737,9.865857608137118,-0.0010182784249497937,-0.00022237321421141818,-0.0010770733754093
1691525289.5740628,0.055890881130927904,-0.11528022608806054,9.749705531145656,0.0018453657541676659,0.00039156490346650886,-0.0009187366633618
1691525289.584025,0.06194729547875917,0.1880106981882688,9.859004700277836,-0.0010804857049669706,0.000689219475837288,0.0004488207812478
1691525289.593865,0.023044516966145005,0.03308755227420318,9.811540748518922,-0.0006591576877840337,0.0001963579352921788,0.001846175076725
1691525289.603904,-0.05778809412101448,-0.18049633846793697,9.778810080882437,0.0028355502655218077,-0.0011082275910672588,0.0007252581015286
1691525289.6139452,-0.005649461654526741,-0.059175265365270985,9.80405460400584,0.0039721402347765705,-0.0015247283867458835,-2.0554154826195152e-05
1691525289.623992,0.1710520527543637,0.1537414059745067,9.77218966092307,0.0002818686845936595,0.0019517176866928362,-0.001314360164752
1691525289.633957,0.06559013926757415,-0.0890470570152091,9.758338710735286,0.002511067520081659,0.0028208289392627735,-0.001470462633943
1691525289.643862,-0.1580430735824382,0.10967229542823978,9.949627155572426,0.0004360907885146762,-0.0009782130031360788,-0.0019737414370233
1691525289.6538675,0.21734978547964048,0.07345582253750982,9.719504545922451,0.00021143433761982566,0.002541058657838347,-0.0001140622009466
1691525289.6639068,-0.06047211462529566,-0.145089553138032,9.805797569168908,0.002502147719695737,0.00117575375830279,-0.0021216154384369
1691525289.6740277,0.006679904688670035,0.20061830969101177,9.883774915483864,-0.0003108344748494561,-0.00011582605534849767,1.331734872063884e-05
1691525289.6839983,0.012704547483778753,-0.06654324276065535,9.794192821762884,0.0018498316170513299,-0.0006380876280523482,0.0008161289040522
1691525289.6939747,0.08587774930413308,-0.01763145649121043,9.761782692539928,0.0031309650244724023,0.000407209179068466,0.0015600687072669
1691525289.704012,0.09440425037019566,0.14100555830774344,9.813017047144717,0.0007366982817721373,0.0019740806471324917,0.0020480717246477
1691525289.7140212,-0.11403255214087325,0.03918627860830061,9.894941216785202,0.0007520067910215388,-0.00118870946030934,0.0029961562429611
1691525289.724067,0.08643512399185914,-0.0811746975170653,9.744407582708325,0.00031573965196165225,0.0016711959665167018,-0.001145999627834
1691525289.7339926,-0.03225670992510218,0.02971614463035993,9.85385339532624,-0.0006595025800838104,0.0008698766833332474,-0.0024930652982498
1691525289.743919,0.12343898666947134,0.03714423028397232,9.769189694530471,-0.0011084089745709766,0.0029292443744553718,-0.002747473056143
1691525289.753945,0.05682218939258026,0.10972316055230849,9.8306815421263,-0.0009016719922805227,0.00202957637292855,0.0016986294247267
1691525289.7639265,0.027540038280200956,-0.0018313213802855321,9.812699893420753,-0.0009143321897736125,0.002284011571243575,0.0013357916721083
1691525289.7739182,-0.08533088284783093,0.009175123494629999,9.87002052299456,-0.0014138878978277086,0.00026825613078414987,0.0005717398196516
1691525289.7838893,0.08922886665971491,-0.0846654690937477,9.74028567477837,0.0015954024413494662,0.001115763468157763,0.0022048872376849
1691525289.7939212,-0.02867454390859796,0.09247583508063523,9.863797874895727,-0.0015021781338882198,0.000941800023994552,-0.0008237389667833
1691525289.8044837,-0.00846159544661769,-0.08834302223862918,9.808685682923272,0.0013312867312390176,-0.00025851114288892807,-0.0004717106751109
1691525289.8139155,-0.03971120288744719,0.01980346459352864,9.843676067348847,0.0012411329937397461,-0.0014558202952302812,-0.0008989891323203
1691525289.8238854,0.02667011194529617,0.03412535110283943,9.820116441008278,0.0008253790371657186,-0.0013552101841772827,-0.0008308200451488
1691525289.8339093,0.09826750015841137,0.11953065555020953,9.806643568578188,-0.0006494586451280638,-0.0004130972034945863,0.0006622747348678
1691525289.8439777,0.0461937465394518,0.03518551256410498,9.795786860610368,-0.00030822852744561953,-0.00017802396091800126,0.001901295694342
1691525289.8539646,0.0006670382004620281,-0.09530492306095925,9.792890033695414,0.001291406703098029,-0.0003974389654765529,0.0006469934194405
1691525289.8640404,-0.013228030115182497,0.08079665987932672,9.856663666688315,-0.0013345411967869286,-0.000607934381585239,-0.0014179316169525
1691525289.873931,0.04685418076813479,-0.08433684172599716,9.76195812744853,0.0003530176966397383,5.615979021493499e-06,-0.0018075997761393
1691525289.883921,0.1402452110015498,0.052656079587572215,9.766103532331016,-0.0002579340649792922,0.0022724751576779986,-0.0013706032006944
1691525289.8938932,0.025350250027591642,-0.018994065391247327,9.804850256957575,0.001275772190432168,0.0018593307963964095,-5.222831917354575e-05
1691525289.9040196,0.054252491929282,0.08743268296696143,9.83163098103523,0.0009133127751798483,0.001669337468218536,0.0020864363939558
1691525289.9139948,-0.07031366060191606,0.09063398361688887,9.882125982366182,-0.0005663954476113276,-0.0003553485806098299,0.0021073024434094
1691525289.9239855,-0.03266426384456732,0.08924104792526193,9.871270496592562,-0.003408415737069508,-0.0007767065947740459,-0.0004948087555299
1691525289.933947,0.10836858292749324,0.012191584708804989,9.766218504279479,-0.0030835713113541692,0.00078643655384871,0.0004063066042085
1691525289.9439116,-0.048532121263652576,-0.0681543527391091,9.824079806818242,-0.001851966915163241,-0.00040713492412183713,-0.0004229150765518
1691525289.9539006,0.09120716283490803,-0.026664200676742574,9.772444166495927,-0.0007906633511467133,0.0007577630252617694,-9.246937063881864e-05
1691525289.964003,-0.04841315259335162,-0.030087044749188826,9.831721574850901,0.0004997997153454322,-0.0009130384728532913,0.0005065555049163
1691525289.9740188,-0.06806510845607329,0.08316622105317151,9.89079692747815,-0.001118825570849595,-0.0027682360560928616,-6.229416997531167e-05
1691525289.9839363,0.24515667885565087,-0.20196843619798233,9.617197238107016,0.0035847046230266587,0.0019219229645235667,4.089951450577268e-05
1691525289.994038,0.013587298187472325,0.016466811400348596,9.832614598340601,0.003366760560656663,0.0018008597647147008,-0.0006315196917335
1691525290.003961,-0.023524653380576088,0.19264795825416373,9.868581335641187,-0.0004699183897828797,0.0011969623312308713,-0.000644214549748
1691525290.0146902,-0.03304045024563914,0.1673747074749008,9.873405057163442,-0.003008688376024309,-0.0003329964511586384,0.0009897280140371
1691525290.0354617,0.04584462545683311,-0.07313829985732359,9.771831114207659,0.0005675940555221759,0.0009756984402870276,-0.0009694043367112
1691525290.038553,0.24321284600591192,-0.493967108044077,9.523279469738387,0.003420393940057369,0.002712452878572399,-0.0019100257015729
1691525290.0480473,-0.03852731048197902,0.42894714153797137,9.993302886750953,-0.0021626888801494753,-0.00021605443337079924,0.0031038231861834
1691525290.0543296,0.0568657185771936,-0.3722324965458036,9.653135168124157,0.0018777747977288552,0.0010248682983285459,0.0009677518571784
1691525290.0639348,0.03508973486062023,0.17115206599402985,9.851248110416954,-0.0012909722226931188,0.0013053754134021824,0.0007215030671154
1691525290.0739672,0.02139130983584985,0.02327024180259273,9.81667107156363,-0.000724728542395863,0.0009082619014857347,0.0020563022296932
1691525290.083958,0.005299216016709011,-0.12591357167980952,9.779111023361217,0.0013405845153941786,0.0009980499049710011,0.000440626888821
1691525290.0988505,-0.005723779421381592,0.031639528654593796,9.823396158375715,-0.0005548426569597643,0.000863557704558329,-0.001689879904216
1691525290.103935,0.013188598720135615,0.07431398477945884,9.836557946404113,-0.00021509345236584953,0.00020790145998494217,-0.0001204242982844
1691525290.1139884,0.006565855311924787,-0.04640200318953317,9.800634769382206,0.0016240830815765156,-0.0004119788220473616,0.0008559986197446
1691525290.1239417,0.04707061878708265,0.1126997792711831,9.834563684439102,-0.0005205758819917323,0.00012408534293458976,0.0006607758875993
1691525290.1342409,0.016700511359865756,0.0501580118413419,9.82839695617466,-0.001395266572628096,9.428698590388202e-05,0.0001664332992454
1691525290.1443207,-0.0846507937752849,-0.05446359599571461,9.84259541028592,-0.0003968829571573729,-0.0017024268542816582,-0.0006441878906393
1691525290.153924,0.015107138573276486,0.01858574511792309,9.813860257968507,-0.00044754688630328646,-0.0019289087190750408,-0.0005875630124414
1691525290.1639092,0.04657331635134883,0.08517346826265983,9.829715830237854,-0.0014556110279896946,-0.001751600319696034,0.0003441317419578
1691525290.1739776,0.11362903571994035,0.02425564634937891,9.77131003487905,-0.0013483349658126853,0.00017400739150580936,0.0004722816700173
1691525290.184008,-0.04819957351910966,-0.060271247614106224,9.817832584454486,-0.0003667077179268032,-0.0005982532763261638,-0.0009273122816289
1691525290.1939206,0.1547438336375127,0.06796609864928957,9.75546917257512,0.00010528131958958979,0.001202190439863768,0.0016930526942537
1691525290.2046423,-0.08511744217910912,0.04455737716511788,9.867179426055134,-0.0006565443070716477,-0.001164489730690972,0.0016580426779632
1691525290.2139485,0.05543402583615789,0.09746580262379402,9.816190154426996,-0.002470389274744645,-0.00020449462634738506,0.0013927981524552
1691525290.224144,0.06224075582777719,-0.1450867659512661,9.746182634753719,2.4423053357710062e-05,0.000970471115137182,-0.0002798575262481
1691525290.2340007,0.012821219883337162,0.11171510586983496,9.853821642325062,-0.0007407527716706531,-0.00019590859756838405,0.0020313092570809
1691525290.2439437,0.014645163832444318,0.03673706706802658,9.827401792862924,-0.0009348317696464268,-0.0007487568611986787,0.0027689306478073
1691525290.2539432,0.04809704080232898,-0.03863376704394243,9.78942615106144,-0.0013874570336134331,0.0008102891989779298,-0.0008453493758047
1691525290.2640033,0.019951726907277385,-0.107325658874505,9.761608036008576,0.0026500159132388057,-0.00014523215934033175,0.0021076974405964
1691525290.273978,0.03001292666898616,-0.0032475066261516794,9.794997405876185,0.0016151206939541299,0.0009183382686545218,-0.0002355284343416
1691525290.283973,0.03404564414418453,-0.06916000609781703,9.774717814937388,0.0019347695344417717,0.0021189883057071497,-0.0028663237865025
1691525290.2939878,-0.005772903683269283,0.20946735106555803,9.880386691569276,-0.0003439871216019715,0.0006109896354425363,9.603427658429631e-05
1691525290.3048065,0.013618641454725569,-0.060899198242897135,9.782087388530522,0.0012195218438854176,0.0005781963285661535,-0.0001312159986177
1691525290.3140044,-0.026117993246015787,0.10190615854242357,9.87326437320219,0.0001905844326369353,-0.0008668291044993467,0.0008135231507999
1691525290.3240063,-0.0087032507042322,-0.06861648171066756,9.79915543791514,0.0004081722824394745,-0.0004894435231512206,-0.0026178257360065
1691525290.3341074,0.11954178013130858,0.09961354530209497,9.797694161119828,0.00011384107622015854,0.0005551133584987723,-4.888324131617061e-05
1691525290.3441017,0.005572813826026388,0.05341541034547012,9.832591749427579,9.96968889293091e-05,-0.0003818069679874974,0.001702740457194
1691525290.3540275,-0.04213316093468698,-0.08051852616841594,9.82210849557807,1.7729422077798814e-05,-0.000549440941560021,-0.0024941677513475
1691525290.3640296,0.1489294157703486,0.0437703036612084,9.744298916702649,0.0007721164355448924,0.0011131463625355118,0.0006820196465646
1691525290.374066,0.023063054521027075,0.04115965375096525,9.810723704448819,-0.0001938525126144612,0.0012483811503105464,0.000112417404825
1691525290.38404,-0.03387762352405169,-0.08074533431866653,9.81732756835813,0.000886101281013869,0.00048285106239751523,-0.0016541022161895
1691525290.393995,0.06302069974140248,-0.11080866738498218,9.745358811866348,0.0035396354103437717,0.001289702198559638,-0.0013475350390131
1691525290.4040017,-0.010125187144460403,0.11660802140732619,9.872338264140977,0.001709416060878369,0.00034651623694683173,-0.0008538800577575
1691525290.4139862,0.0932421608683593,0.0472790162952178,9.793822410095087,0.0015253463365684308,0.0015263000520365437,-0.0002675655816624
1691525290.4348142,-0.008290740726115022,0.1153153859715291,9.842293014364063,-0.0028198157463894848,0.00021386386016246923,0.0002323681435604
1691525290.4393425,-0.12620273152507464,-0.1792720797742575,9.811920971603652,-0.0005481348112302194,-0.0012512850398884458,0.0009964241651409
1691525290.4473884,0.058245617455986325,-0.08412421994788558,9.747419577815108,0.0007445416498839453,-0.0003080413657105617,0.0002346171711628
1691525290.45427,0.23259517880481284,-0.03800503959961316,9.672459375312831,0.0026377378282708545,0.0020459775080448822,0.0024138651968037
1691525290.4640536,-0.1555184538145025,0.05516395161290384,9.925055420967226,-0.00041550771664802534,-0.00021231659052838348,-0.0019241985685134
1691525290.4739487,-0.04311829719489312,-0.03150476402015045,9.831229003552044,0.0010928655934309007,-0.0018387791380084899,-0.0010047897051031
1691525290.4839444,0.09320106880829733,-0.03683421087031528,9.771220682328968,0.002849700607174264,-0.0009550852349223173,0.0003758106793334
1691525290.4942937,0.026716028704157433,0.10521508506761394,9.843367618293874,0.0003589816581319691,-0.00047868024227282126,-0.0011318337458128
1691525290.5040183,-0.010651030479925192,-0.010085943566432476,9.82369953714019,0.0013111562442642834,-0.001418175701705266,-0.0006251925189922
1691525290.5139532,0.04050125078017709,-0.005026607682660056,9.79455179722482,0.000183145321573611,-5.6206828406518544e-05,-0.0035063263314718
1691525290.5251532,0.07998654871528031,0.08947029952591984,9.810501845340902,0.0005556697800201654,-0.0003076731795747265,0.0005221942735893
1691525290.5342753,0.05725055935842205,-0.011516635535985347,9.788395746913595,0.00022745330330762735,0.0009675202926571706,-0.0012402119866515
1691525290.5440345,-0.10496946969052166,0.04066428408678344,9.903088678198099,0.0002636082091273744,-0.002115557220020995,-0.0005599960970635
1691525290.5539746,0.07148820084142629,-0.11277614802725311,9.739734068488783,0.001593916355563212,-0.0004030595093850465,-0.0028123196500296
1691525290.5639815,0.12598751460404004,0.16355921571633245,9.797418693956011,-8.211286243039452e-05,0.0009067844336450389,0.0002156321604793
1691525290.5739477,0.012605527141705848,0.03119869720170265,9.82599897907294,-0.0008267849915609915,0.0009619167540080719,-0.0005338953162486
1691525290.5839624,-0.03762326019282771,-0.0527913100517231,9.820127909508393,4.047121348798229e-05,-0.00019850538016489988,-0.0013605418900901
1691525290.594004,0.0274878831475496,0.05290114812995748,9.82273663252211,-0.00036225784608299056,-0.0005591239793760915,-0.0005253602105135
1691525290.604039,0.034514029827908875,0.0873568420373328,9.828864536202934,-0.001608355902756584,-0.0004361974791876434,0.000217841141211
1691525290.6140857,0.010793167003221906,-0.218516584660709,9.73472086271423,0.0012958798254928032,0.0005752314329420037,-0.0036057915824408
1691525290.6240058,0.0871930701623522,0.14901246271060564,9.822286152229578,-0.00025235321295080475,0.0011250808711134512,-0.000884460732987
1691525290.6340044,-0.10663823617156873,0.04496489438249413,9.890150085177547,-0.0007425886159035337,-0.0016312812898556155,-0.0007220515801514
1691525290.6440694,0.2650063182508999,-0.08863098598486455,9.638644789399766,0.0019165212685985193,0.0034969731386895893,0.0001742642086987
1691525290.6539958,-0.04666546373142405,0.11168717245620174,9.892724645125112,-0.0008100241043919262,0.002229259393872653,-0.0010502231127525
1691525290.6639822,-0.0924153904901074,0.020795478858486146,9.874704341582685,-0.0012790429004494379,-0.00010278335644314778,-0.0011854737351591
1691525290.67397,0.09861866539780025,0.03549613365064461,9.785389188168137,-0.0012280060131545259,0.0009600483875699575,-0.000184849817952
1691525290.6840503,0.0845911409801385,-0.05294446215172062,9.759515011007664,-0.00029630853652104044,0.002588369428610305,-0.0014749234362448
1691525290.694188,-0.022346062482191956,0.1843949206845932,9.888269635544091,-0.0027605803205606426,0.0011161388736960673,0.0005929898068366
1691525290.7040274,-0.1181645634642588,-0.07161318147808438,9.849021330608085,-0.0012250285339395835,-0.0015560214469237928,0.0002707498677132
1691525290.7140205,0.03652516249150698,-0.21019763480887013,9.706793529161418,0.001958614092745683,4.844920368533893e-05,-0.0024625081389153
1691525290.723998,0.052727797861194824,0.24851483292732918,9.865275895219561,-0.002004728054779733,0.0002157219161314549,-0.0005823479552696
1691525290.7340434,0.09431767912828012,-0.08134797616547891,9.739680414562978,0.00020474319389100185,0.0015095215654834643,-0.0002511782624701
1691525290.7439852,-0.04229088379882344,-0.059715931200411305,9.846677532176273,0.002322578067030145,-0.0004224141842066343,0.0006272415810321
1691525290.7541156,0.06380375140378534,0.19719521440311122,9.85428654418398,-0.0019443916382518543,0.000616197768244964,0.0001604597962518
1691525290.7640128,-0.07469842646373963,-0.15426652223887632,9.797643346112286,0.0018736756255781572,-0.001360801420576375,0.0005773322370891
1691525290.7740183,0.0303794825817599,-0.021523886102151776,9.786723969587406,0.001157665999785461,-0.0003143589438708256,-0.001574395672133
1691525290.7839692,0.08037997097226555,0.006307554898246222,9.7673467357344,0.0019735061401335977,0.0007629741251194369,-0.0003834379424283
1691525290.793973,-0.08139014629556686,0.11975191228119403,9.903766869080386,8.256346199844265e-05,-0.0016972019610535154,0.0002651577995215
1691525290.8041103,0.08883240042852314,-0.028590416635167464,9.757448300444086,0.0008413841005480464,-1.484923712357983e-05,-4.55331575999569e-05
1691525290.814038,-0.0223589547066403,-0.05328766811084011,9.809263723814436,0.0016352517866134444,-0.00034379224294015995,-0.0015311806748563
1691525290.824115,0.11867376475604924,0.09545800233922665,9.790110279966806,0.0005560358058372465,0.0011340192891804318,-3.622214374491683e-05
1691525290.8343558,-0.06565199809369084,-0.034910698586783855,9.846590164990642,0.0017991598411472665,-0.0009346251776399995,-5.337512650886288e-05
1691525290.8507996,0.0679897530375401,0.11768398657462792,9.832800048569677,-0.0005194390507390571,-0.00045966508268258175,0.0014177605951494
1691525290.8539853,0.23272673178837291,-0.2699048155012225,9.602555237040983,0.00046141434093423657,0.001493519796445044,-0.0002682829328755
1691525290.8640096,-0.02603189321686797,0.12449802063271571,9.876757229829238,-0.0007939981968128046,-0.0002383847316737503,0.0020123151077946
1691525290.874019,-0.004375696630169246,-0.141783792395514,9.782776127221018,0.000629436188968624,0.00023509948435227436,-0.0013374639495218
1691525290.8840232,0.12265503452795604,0.15682237315238218,9.811892636251851,-0.0011069464172688045,0.0013873336852814697,0.0009640204259717
1691525290.893998,-0.04796681989171469,-0.08242885978683154,9.815436002235701,-0.0002020220201454382,0.0007234809734881764,-0.0011348053633178
1691525290.9041448,-0.0755078986238721,0.1486120822479654,9.912759612432412,-0.001629210651045274,-0.002304055878291867,0.0011976012208556
1691525290.9140396,0.0014255392030156282,-0.18343787469079612,9.752123669625606,0.0008089916027962574,-0.0015750311971687854,-0.0017666243768239
1691525290.9240506,0.14412698293588894,0.0074473405468551,9.746351060575757,0.0016714084293905386,0.0005688747558852517,-0.0003413207416365
1691525290.9342277,0.05609723687446566,-0.0012746605181569695,9.777277884372936,0.0024116101343482415,0.0010852152267922589,0.0003743118320648
1691525290.9440482,0.037370539917652164,0.022890505844855347,9.7994830991464,0.0022845692826349616,0.001199574549752454,0.000266239530692
1691525290.9540098,-0.05920452619105536,0.05636408238882247,9.88092601339066,0.0005154358407000014,-0.0003117471241111116,-0.0012569860375429
1691525290.9643784,0.21745995496443993,0.013503529506062751,9.707957944179288,0.001941853752612929,0.0029538193611359977,0.0015563556405772
1691525290.9691348,-0.4229146926075465,-0.09444846905737399,10.012052728730913,0.0015369020603246454,-0.0006194786543376604,-0.0012000149401778
1691525290.983003,0.12066309339315529,0.06334357329935514,9.790438059901023,0.0008112245809939775,0.0017531601871549408,-0.0003442946874479
1691525290.992996,-0.03599191884494588,-0.08951669042737818,9.80062212318573,0.0015447322460229649,0.0015397148738436424,-0.0029266646417731
1691525291.0031726,-0.052852186606226946,0.19413402586938452,9.906030396940626,-0.0010137935418276136,-0.000788973209317373,-0.0006102857698629
1691525291.0130105,0.05987260290409378,-0.007174504800059682,9.78648684114216,0.00021890480420934695,-0.00039036620461122023,0.0007755305157565
1691525291.0236738,0.08286279334813475,0.057272749295211325,9.784588188043756,-0.0009910786890949023,0.001068443555261968,0.0001381123618279
1691525291.0330024,0.06944071598509653,0.04813554574116717,9.80295625979332,0.0008276291564371318,0.00042694058628378536,0.0045876160909478
1691525291.0430255,-0.11957204575754969,-0.10241194750844748,9.83917255455665,0.0004189519274412293,-0.0007722128188054603,-0.000562604382349
1691525291.053055,0.014634158808206163,0.07298895933979054,9.825635402677964,-0.0002098861564479442,-0.0011227609867336156,0.0008068134955187
1691525291.0630317,0.05319470504296856,-0.04071444584049072,9.765772817729134,0.0006838198397779517,-2.827164334925589e-05,-8.054820885309687e-05
1691525291.0730152,0.05819478521655508,0.13517449712898738,9.825487501349567,-0.0012485069800471694,0.00046495143173545784,0.0008768451987357
1691525291.0830383,0.020681094659584436,-0.0482060490452502,9.791415028509881,-0.0017349969145213089,0.001604137161975644,-0.0025697953353578
1691525291.093007,0.0005062510984656624,0.009808465270766368,9.827959925564276,0.000594419195289478,-0.0003490276407684193,0.0014818345259932
1691525291.1048374,0.022886209169529503,-0.04311798304798777,9.7891257285043,4.1178891514817364e-05,0.000902304400734963,-0.0016746080766374
1691525291.113285,-0.10566457040997439,0.1093104812788633,9.913533694908326,-0.001170247653994527,-0.0019695316533503648,-0.0003625567589829
1691525291.1230354,0.07929389114164331,0.037967711344467046,9.796602201369312,-0.001144174021665829,-0.0009405962464860173,0.000334450934833
1691525291.1329854,-0.02571850704562454,-0.046875888425871606,9.815033443394427,-0.0007831860499551355,-0.0013492746809950589,-0.001469717110222
1691525291.1430273,0.1550629997927789,-0.030019910813259807,9.728880932097137,0.0006372434831391237,0.0009306167917303793,-0.0004750692571456
1691525291.1530907,-0.0670058051711807,0.08855306519750943,9.877974689715403,0.00037201672227010546,-0.0018100890377708958,0.0017683116200437
1691525291.163001,0.07445776139217272,0.05931323705553703,9.798285789039314,-0.0007127926752572535,-0.0006850415842852797,0.0013954108469711
1691525291.1730478,0.0028188197130915617,-0.030256651945693415,9.806608874085763,-0.000557459376473637,-0.0005315595610432831,0.0001336456223448
1691525291.183031,0.008102045919342996,-0.016619231852641674,9.817992564293782,0.0016732552624987207,-0.001632373112239261,0.0024578671616559
1691525291.1930497,0.031324964995700186,0.054852665792928475,9.810252567278795,-0.000995177465251898,-0.0001229098810020971,-0.0008982643305266
1691525291.2031174,0.009778849550827593,0.020624680928880604,9.81104011309362,-0.00030673465520868307,-0.0007818980545342032,0.0006369420041387
1691525291.2130487,0.06031774023000008,0.017766665805798065,9.772568061778006,8.292149134572457e-05,-5.921379680808127e-06,0.0013786553352197
1691525291.2235942,-0.14159802105075484,-0.09060454157099869,9.871293235157708,0.0013279224302136395,-0.0031046013912991235,-0.000346182594722
1691525291.2332768,0.15911723675775263,0.004030803543249069,9.734127088366726,0.001153569935952928,-1.0754663918374788e-05,-0.0009787150013203
1691525291.2434769,-0.13941883028699842,0.006597755457064915,9.908482482069324,0.000985211407276746,-0.003663034957987162,-0.0013348487957323
1691525291.253295,0.11245080350003175,0.043066603954402725,9.778103388582439,0.0017120049516946355,-0.002917599181021406,0.0012940822923787
1691525291.2631006,0.07739070660069666,0.03548847145734552,9.802385272704532,-0.0003853458955060597,-0.0008296142842085562,-0.0016492693505192
1691525291.273272,0.10621861160257345,0.0527173742200304,9.783890615182141,0.00037461316833976014,-6.84988469917876e-05,0.0011979728658566
1691525291.2831044,-0.003700583900422802,-0.11050729123019823,9.789868724002918,0.0022424712954401353,-0.0003378165465584479,-2.690065251091233e-05
1691525291.293234,0.02420094969362537,0.1708731529010166,9.871597481565706,-0.0008949569141096936,-0.0003259232679941803,0.0006831370590311
1691525291.3034751,0.013522801814599073,-0.0969975979141481,9.782343136035175,0.0013253107732716278,-0.000386260327061219,3.717096457829961e-05
1691525291.3130658,0.152318570712318,0.13027460893462323,9.77960886404804,-0.0015904712285113108,0.002648716628591207,-0.0007999106130505
1691525291.3231082,-0.09534283433128066,-0.030718279855450982,9.869351896204854,-0.0005995467195026421,0.00017141727492684804,-0.0009869008610899
1691525291.3330934,0.0414436501510818,0.02613192879307686,9.792253043968044,-0.0007716471808270379,0.000657551602540732,-0.0007980414486432
1691525291.3431098,0.00842529877983447,-0.04394703755978102,9.799253837721544,0.0008618829639496369,-0.00014189182645426337,0.000220818230236
1691525291.3530514,0.04144944285455893,0.013107441544842327,9.80720379876855,0.0007072626517786372,0.0003129675713356559,-8.684914274008186e-06
1691525291.363082,-0.03228415135144247,0.1916104695376928,9.90565992496997,-0.002999741435069571,-0.0009312899819226336,-0.000129732983833
1691525291.373044,0.13437701414990336,-0.17292300248316284,9.677528261708611,-0.00025125143214565235,0.002519075888992633,-0.0028696839983517
1691525291.383087,-0.07825277828296148,0.1109615701138566,9.894190047224486,-0.0003480885049182008,-0.0007878587451632778,0.0004953826026116
1691525291.3930483,0.05970874742464086,-0.12601437848089814,9.760904974302564,0.0020498755791880864,0.00012744725343336329,-0.0007354658848548
1691525291.4030848,0.07424859899270454,0.13745673687811102,9.83465807117535,3.962961336288465e-06,0.000700762138710641,0.0002237875194345
1691525291.413031,0.01518574053468448,0.11937868694752343,9.848307784619,-0.0016422701176616442,0.0002608130932269961,0.0012244204224493
1691525291.423037,0.03960643251491198,-0.08542632075645702,9.752823542200689,-0.0007228509767718619,0.001537111397947338,-0.0012882558914775
1691525291.4330726,-0.11662277496707008,-0.1263141763720814,9.833774708389678,0.0027956922613366704,-0.0017378222281830686,-0.000490703136375
1691525291.443046,0.17316257402958435,0.08328447927888152,9.75990183573039,0.00012911709865928226,0.0018697667155523983,-0.0022751162580157
1691525291.453136,-0.09678480455830539,0.14050304895560511,9.908092082481922,-0.0015353379269928652,-0.001187962264644035,-0.0003912445210794
1691525291.463011,0.05329601885675965,-0.11260350506590996,9.747104809795617,0.0014039169714072915,-0.000917120330640283,0.0004432281309795
1691525291.4732752,0.11511285989864288,0.1353446930798249,9.800448006720876,-0.0004859329252567062,0.0006951777927237968,0.0016647471236587
1691525291.4830885,-0.0489216889232501,-0.09036007226808317,9.811290748016004,-0.00026690724443648726,0.0005845263090231184,-0.0020974327164644
1691525291.493085,0.13996929618594717,0.022388029711800594,9.749727024212227,0.000936756643975329,0.0019632927373009813,0.0003832759864685
1691525291.5030785,-0.19718537712848583,0.029251162536220194,9.929994563108854,0.000705058214803286,-0.002408368173420797,0.0004380112693702
1691525291.5130825,0.21295033395711574,0.11983539665909489,9.743838980197127,-0.0022848672378791863,0.0022012948482474687,-0.0010651761951799
1691525291.523074,-0.06083950561067411,-0.04072821690823758,9.833447148334745,-0.0006289590615780951,0.00021943944845492636,-0.0005685793987418
1691525291.5333254,0.10501729336012233,0.11319375404168577,9.805795251511869,-0.0018963343679196873,0.0012826481392147924,0.0008679166092128
1691525291.5438714,0.03336874370785697,-0.040980029108514296,9.804871652642248,-0.0004643210683072001,0.0011366238191194541,0.0011148916853649
1691525291.5530374,0.11550485130114796,-0.027366225032914603,9.75039506651843,0.0011274932512281553,0.002402852818609544,0.0027607263944168
1691525291.563147,-0.14392373122157395,-0.045897192140367776,9.88189733901764,0.00023527637430534995,6.0789078549886725e-05,-0.000765985325625
1691525291.573034,-0.09015267596883585,0.12080180549685807,9.908352391436365,-0.0017599663747742413,-0.002584199627316107,3.6794011766224e-05
1691525291.5830956,0.022450647621837846,-0.061830269645498266,9.789896977358787,-0.0013453526056755765,-0.0018562715204339785,-0.0021078528190905
1691525291.5930388,0.16943895472572645,-0.029199995002224328,9.716461846693004,-0.0004617122146103672,0.0011198381336186226,-0.0020527425042296
1691525291.6031756,0.10087397617674602,0.06842488709897225,9.788350336167744,-0.0003209037407323718,0.0018511390698893264,0.0005903730232325
1691525291.613046,-0.07105143568474044,-0.13545724523096392,9.812040847489174,0.0024115888094503033,0.00017180058824295538,-0.0004646326235438
1691525291.6231008,0.13169830372735591,0.04874871984784483,9.766424396618,0.0022398727185339966,0.0021893943079992926,0.0005143817577568
1691525291.6330905,-0.08465301324641993,0.10112206299485652,9.90838227395823,-5.528240691972868e-05,0.00012334221806480352,-0.0005555312202254
1691525291.643072,-0.1048297812050698,0.007015132764899476,9.875708734910647,-0.00024116776024951398,-0.002463868021914882,-0.0006941072463
1691525291.6530757,0.18738162110056503,-0.08214096224288495,9.687919446349381,0.001837912935367201,0.000884060368341719,-0.0005555156205723
1691525291.663053,-0.07894330585053946,0.04184531280342973,9.884314257012996,0.0013770898403591525,-0.0015619786880811544,-3.5847053577990444e-05
1691525291.6730678,0.09773350031240224,0.1139516035639007,9.803257139954347,0.00012541035843632888,-0.00047047870416050934,0.0013171694042916
1691525291.6830463,0.012964798617646964,-0.03596070856969071,9.803909282948394,0.00023194849332227788,-0.00010241170730550611,-0.0005789965909848
1691525291.6930735,0.03674209923585228,0.004607984370946111,9.791368789152259,0.0007858937336768238,5.630529014312768e-05,-9.357310430505982e-05
1691525291.70313,0.10202635923553911,0.06479651336560048,9.783823157170945,0.0011617429151383005,0.0007194049338227751,0.0025953490001206
1691525291.713086,-0.15147902842867622,-0.03064619932359002,9.888756888059941,0.0005076134338503726,-0.0016733593099290645,-0.0007108745451028
1691525291.723394,0.19555439339869501,0.0122582606251639,9.71615014994098,0.00048525050487194016,0.0021476719885441488,-0.0007663776452595
1691525291.737303,-0.133011743495457,-0.0005820561158055439,9.887340669677771,0.0009047278419842101,-0.002497754529099927,-0.0007462680625672
1691525291.7430687,0.4416648565036927,0.22804345094592396,9.658201106928182,-0.0007236068190826968,0.0019763033315270883,0.0010884329128834
1691525291.7530715,-0.0612158425198106,-0.03318680519254961,9.843052884076393,-0.0015085085482559432,0.0012859828375013408,-0.0026238281099999
1691525291.7630773,0.028002581975913585,-0.05824413263046663,9.774396599432091,0.0016862844437836766,0.0003938024494767752,0.0005992934636828
1691525291.7732122,0.1757092548339283,0.03174404927723218,9.732727865066698,-4.675253869603496e-06,0.004438719565431422,-0.0018161882000918
1691525291.7831771,0.07195598276492815,0.03768173029110276,9.794297358676388,0.0007735878571005647,0.00447300128628779,0.0005669393756484
1691525291.7931144,-0.15244023875079074,-0.08140617400384342,9.876054282152058,0.0028504576051357833,0.000862793510260745,0.0005475452233163
1691525291.8032207,-0.022243140938711634,0.1338740658536151,9.873567687251526,-0.0002307546299193267,0.00038298214621311765,-0.0005998797534907
1691525291.8131168,-0.0062921637544816065,0.0952387420109025,9.852856228504866,-0.0008599350975261521,-0.0007740778098583231,0.0010713043045775
1691525291.823093,0.058600883310931204,0.0010672406004798333,9.790368158983972,-0.001470159181466674,0.0004940097377040408,-0.0005141693220416
1691525291.8330665,-0.04288809941416876,0.1321865289558466,9.871152586968913,-0.0035894581998826853,-0.000999836771865663,7.740014168074617e-05
1691525291.8431995,0.07802848165542586,-0.17505074331155704,9.720670183601069,6.990493764837961e-05,0.0003163046714797427,-0.0002452157025168
1691525291.853089,0.005841687781208799,0.021659188454177455,9.819864900429593,-0.00043640259222326355,0.0002533508113465275,-0.000697847204929
1691525291.8630884,0.029577546389234113,-0.05842497719700199,9.773379735451577,0.0009840997536065502,0.0005938582212511527,-0.0009179841547215
1691525291.8731334,-0.045789435469247554,0.0748248455216798,9.868315077757693,-0.0009687125824323214,-0.0007118722697826278,-0.001760286493873
1691525291.8831058,0.11585054084589165,0.04870748912140324,9.775545848755096,-0.0007105644158813536,0.0007033712054860949,-6.11848483736228e-05
1691525291.8931174,0.029665226180192326,-0.05054000323886176,9.784501571375957,0.0008793837518003072,0.0008836801734944594,-1.2028595147521408e-05
1691525291.903133,-0.09297075724800545,-0.0794326758784029,9.841702859201886,0.001805114429010549,-0.0010013206638671008,-0.002137306361174
1691525291.9130929,0.16623794417085944,0.18806743264549472,9.799581649838299,-0.0003510824481948159,0.0010229960134162004,0.0004733805724476
1691525291.9232492,0.01100835171372613,-0.06780895877492275,9.792918705961556,0.00020400458730583234,0.0014473238838695862,-0.0018541507708782
1691525291.9332962,-0.052573506942541925,0.0342841143052396,9.863534774617468,0.000300499344521474,-0.0004238986066378989,-0.0011307077768201
1691525291.9431472,0.019313625686195914,0.013236449206502656,9.813724926909885,0.0004904846789976405,-0.0004939421748399012,-0.000666166288493
1691525291.9530993,0.032863417940634576,0.1931847537361529,9.871933652514105,-0.001927983396280467,-0.0011704571779212831,0.0017515365214144
1691525291.9631064,0.016273126295411614,-0.15732697886045602,9.748792698601857,0.0006566136838732061,-0.0006380891645487768,-0.0001233903278539
1691525291.9731283,0.022899243318175926,0.05813365631120963,9.834676299962341,-0.0008088894631502826,-0.00041644212233928957,-0.0015602360765392
1691525291.9831042,0.052760430802214195,-0.05045462714597346,9.775371585861022,0.00027439955012508463,0.00034501439664046026,-0.002085131109407
1691525291.9930675,0.0352131310130864,-0.015873612757355923,9.794028626229432,0.0019623437513771325,-0.000106138343026224,-1.9447394361586483e-05
1691525292.0031917,0.05800166154125133,0.19268895972549294,9.84364909762462,-0.0020144147719770543,0.0010609881636750571,-0.000355489999702
1691525292.0131109,-0.029085850981219716,-0.15015524088832746,9.784828173334057,0.002023796243806562,-0.0003206881256246727,0.0005188489046936
1691525292.0231154,0.06372184585888013,0.03557161942790417,9.79831430349407,0.001688531990676635,0.0005569669108851172,0.0004912746551503
1691525292.0331495,-0.09670449144947896,0.13184821351930429,9.909734027226989,-0.0006841040793397412,-0.002068618021197686,0.0006872313276921
1691525292.043111,0.18309784182018024,-0.07473437503832224,9.695006753953939,0.0005474540533098627,0.0016469968627821868,-0.0005201421265433
1691525292.0530612,-0.09067876707661397,0.03966560267907777,9.874589468900515,0.0007650340061582185,-0.00105384774692358,0.001145446152595
1691525292.0632708,0.08329533372078643,0.009656045002693708,9.77314433031311,-0.0002445239095542938,0.000918708889748784,-0.0006955757091695
1691525292.073094,0.008256657977275176,0.0874487372793737,9.842415300398162,-0.0019011588887725085,0.0004630770429981077,-0.0004638961802179
1691525292.0830755,0.21100718513423744,-0.14234394885321222,9.654963506196305,0.0014336965097875673,0.004334800355807387,-0.0004914317798743
1691525292.0930974,-0.14140033738860736,0.10789736371833335,9.93825557815073,-0.0007243444462596797,0.0008046965039010037,-0.0004761827696988
1691525292.1031356,0.08182622684371307,-0.08341684934461473,9.74589907364161,0.0004319779387023743,0.002580192486333533,-0.0023090059223527
1691525292.1131113,-0.05343043001869827,0.08016854105722918,9.870810045897944,0.0005426193427118409,-2.677340359957031e-05,0.0004990993945916
1691525292.1233604,-0.00015001500452455148,0.018227872784360253,9.840755423651089,-3.702418338957406e-05,-0.00018138007705783375,-0.0006296585599834
1691525292.1332526,0.08423012199630185,-0.122789788150345,9.74673050131434,0.0026559854952422314,0.0012446433988777836,-0.0013982064376527
1691525292.1431277,-0.06129429401823509,0.18936233732745972,9.915861414914994,-0.001006348782879953,-0.00040751207773199354,-0.000936997337913
1691525292.1531231,-0.01684314833703141,0.005245424126172416,9.806610667076939,-0.0011460508338036071,-0.0007785589291680364,-0.0014883412334079
1691525292.1631317,0.05799650364259288,-0.00016202703346300602,9.800041197804068,0.0002569027393356748,-0.0010825331321018242,0.0008712660817486
1691525292.173107,0.10408308002280478,-0.09050300239601601,9.73153113703168,0.0015544388922025677,0.001212622769862748,-0.0008196253149712
1691525292.183195,-0.061672299714381595,0.07924311647049288,9.889690169613209,0.00023491982856063104,-0.0008295868522839615,-0.0007388160849864
1691525292.1931007,0.13959789943774023,0.09841306997987043,9.774100703342992,-0.0003849737694618632,0.001296439681971199,0.0008675196038616
1691525292.2031753,-0.011132912609511244,-0.11269342960302602,9.777534940428378,0.0019448161555613468,0.0008985755471750641,-9.213595715710633e-05
1691525292.2131448,-0.08229417401568538,0.16182730931632222,9.923468911404946,-0.0010089517916352859,-0.0016446731056248666,-6.901016989150754e-05
1691525292.2231314,0.08786322828963686,-0.10468827054922374,9.733424214519225,0.0010943236017263427,-4.796102886109952e-06,-0.0009928883339221
1691525292.2331336,0.08683141275559539,0.12365178592078663,9.810557865627493,-0.0015740921806219634,0.001510265162872773,-0.0019148862740899
1691525292.2431352,0.08687319972995627,-0.013785858372014485,9.769898862496108,-0.0005809023063150947,0.002571602538765523,-0.0009161394375319
1691525292.2530978,-0.02839566687312391,-0.22527038944052916,9.745555415765859,0.004671749126156635,0.001694652174411165,-0.0007172145235295
1691525292.263121,-0.044868138974317524,0.342596075021257,9.98151143751792,-0.0018825403934903113,-4.440670042600742e-06,-0.0003964585305134
1691525292.2731087,0.02402449695883409,-0.05672319226167168,9.78142697524452,0.0003302884321457347,-0.00043768489566202857,0.0013346812663889
1691525292.2831285,0.13671570213153827,-0.10831138700781322,9.704861284086126,0.00216461352458209,0.0024330308877802214,0.0001526412268226
1691525292.2931042,0.048601739187867456,0.12171264472738061,9.839731116323147,0.00013693701618288238,0.002721737367935451,0.0007852420274225
1691525292.3031857,-0.17497247938571384,-0.12354862841173858,9.865087941810476,0.002412725312395633,-0.0008146784568961051,-0.0007276455691958
1691525292.3131526,0.16417906025201373,0.21591872433681605,9.819702000174537,-0.0007537708919688922,0.0011828159522475192,0.001278427170991
1691525292.323256,-0.019212672006151597,-0.045500685804298384,9.805243753520951,0.00033064973068690776,0.0003725735450415623,0.0010508149896572
1691525292.3332255,-0.04068822480487874,0.0786541378515282,9.867700384737201,-0.0017640727100685506,-0.0003620697377307129,-0.0003927362670133
1691525292.343084,0.032782656675479895,-0.08557200070665948,9.774456494915215,0.0005422623039990316,-0.0002487955840618608,-0.0003763212409744
1691525292.3532033,0.16656406576626692,0.12164205223841441,9.783970572538712,-0.0017830637622064356,0.0027481869564343754,-0.0004322159622738
1691525292.3631043,0.025785317773350136,-0.15310082736405556,9.767380375278488,0.0016035887603708832,0.002697530598177765,-0.0004053800187016
1691525292.373104,-0.1337150532558409,0.07601879949230195,9.913025143522702,0.000665556731817123,-0.0008660813308664989,0.0002487603521963
1691525292.3831165,0.13245803721105148,0.05375196447537064,9.774019367751157,-3.742538570307038e-05,0.0012357209334939293,0.0002819245162477
1691525292.3931515,-0.06544990765794227,-0.08384922445083735,9.812772631434953,0.00019281127875159592,0.0006922335876982785,-0.0031077067653591
1691525292.4032726,0.010937769763186141,0.04741819727984604,9.820128592116985,0.001553302342310818,-0.0008541681743316657,0.0007758957688288
1691525292.4132285,0.13745085228200873,0.1162365329692171,9.792346562197073,-9.251635164337331e-05,0.001182814214486218,0.0014673080620645
1691525292.4232488,0.005729879091197924,0.06432501514935234,9.824854184464455,-0.0016806468565158023,0.0011679141941501672,0.00063507685606
1691525292.433196,0.07513789093555599,-0.2210407028334228,9.696948819343302,0.0025594923278346466,0.0026483625624429416,-0.0004716774967441
1691525292.4432876,-0.099238625790319,0.04877035511900178,9.889361405176125,0.001371878340707082,0.00012446789962040084,-0.0007984156074876
1691525292.453173,0.06062999790222562,0.057348034453957523,9.804866601937325,0.0011722084740236225,0.0003479811788120675,0.0004536629601438
1691525292.4638271,-0.0572547514491257,-0.0555268823196495,9.828717763001373,0.0013677940708271387,-0.0005945265265851075,-0.0020661328273768
1691525292.4731286,0.03804725211017897,0.08286640896626961,9.8269245364505,-6.609350732081217e-05,-0.0002212498407846354,-0.0023786935309822
1691525292.4831655,-0.16330270885265846,-0.12246862291980407,9.63846273029263,0.0020360333978706275,-0.001389075797591747,-0.003923982596671
1691525292.4937105,-2.458763874162997,-0.07216503823235576,10.059675543850062,0.004008393364415505,-0.04662453590283603,-0.0403267440671975
1691525292.503311,-1.4058963905491004,-0.6136673766531436,10.821325911810746,0.002078020374118837,-0.0834881511738138,-0.0770875622804219
1691525292.513129,4.268942105946562,-0.20884817888872453,9.48205063993196,0.011232953233527996,-0.05876498822009785,-0.0852386166627461
1691525292.523162,5.957550338078455,1.0185211235501943,8.9545455634255,0.007718271704457332,0.004604144345200827,-0.0784489994223172
1691525292.5350876,1.4704590958100798,0.9797770062655311,9.654813688076374,-0.008795621255221946,0.01672928528364341,-0.0662342195684964
1691525292.5431893,3.4546468486213526,1.640514304672013,10.053863091270689,-0.02460321032295715,0.0351615736769983,-0.0307701413805539
1691525292.5535097,0.21266965134618535,-4.214617961960357,10.127268546260126,0.012732163913637127,0.037677171298521266,-0.0116621439631039
1691525292.5631907,0.21105948844932443,-1.2863432715034266,9.962911755789293,0.035925855268487544,0.018563308490681812,0.0182883015547936
1691525292.573213,0.3314489278380446,0.3234077337491932,9.626551805126486,0.04052935499919928,0.014984279717189315,0.0464242587511484
1691525292.58313,-0.04570477528499718,2.8515219979965423,9.557997286863426,-0.0025173458657133784,0.0075187582365652764,0.0674575905029719
1691525292.5931282,-0.7526660735340318,0.28568463600152383,9.759906617816183,-0.014716434782522617,-0.004638871248255965,0.0739287550275271
1691525292.6031785,0.08218622988257422,-1.0703433368630693,9.024767938409099,0.004417455747332202,-0.015700534971261792,0.0859683717315142
1691525292.6131334,-1.3160998678851892,-0.8405756828303423,10.039912237570952,0.021397596761313493,-0.04573772165637437,0.0927669520204012
1691525292.6231637,-0.14933735879835136,0.7441510487328203,10.777135647437152,0.0309557972285193,-0.0715702226787063,0.0902026707951968
1691525292.6331291,4.069807090387196,2.563215578263934,10.678432082964742,0.003279194834650545,-0.04242717875273203,0.0597530605916922
1691525292.6431365,6.3326005132641265,1.7767146251233146,9.18328628106941,-0.018153576556056195,0.03532829008195683,0.0400829764728491
1691525292.6531272,2.6811852609109805,-0.6240763705181064,8.866189951914226,-0.008442237961398619,0.0727357364276162,0.0205597656493132
1691525292.6631775,-6.152944266497851,-1.6125666616811907,9.14361407909262,0.014879242308044308,0.006135245552959122,-0.0009580696753169
1691525292.673203,-2.256970653369059,0.3518270558444387,11.869745803919194,0.014420066289662055,-0.08037970639571677,-0.0015241969196999
1691525292.6831996,2.6626790426555904,3.463510679727575,8.999992495584006,-0.02431029268713304,-0.04763736846955577,0.0132161949475353
1691525292.6931856,1.9046511171212344,1.3393958333891292,11.623016002650242,-0.04441823631371657,-0.06305660698943452,0.0101860084285085
1691525292.7032945,9.96285243021218,-1.0408140184535692,8.598648274602255,-0.04410624481354023,0.03720679197948464,0.0021209659351093
1691525292.7132366,7.796556496437519,-3.978906102538917,7.338865877872772,0.010771583290635158,0.1434636349300019,-5.242629622907551e-06
1691525292.7247314,-1.5742087747708666,-2.5420051215189665,9.383083788588747,0.04160794483774804,0.11921426738467927,-0.006998265842622
1691525292.7331457,-5.761577313737537,0.9253905524918423,10.879626125300943,0.04479341176168881,0.04724314248602239,-0.0106207697938139
1691525292.7431571,-6.9294466224260045,3.6938681729837777,11.446519231334854,-0.005232351382857769,-0.05886625922554258,-0.0062217868219072
1691525292.7531495,-2.797714656230898,2.071412332277376,10.8776523832654,-0.03747948614902525,-0.11719611327528603,-0.0056398801791424
1691525292.7632692,1.5027430458002515,0.3390530523060637,10.157240939451025,-0.04174666099653243,-0.13119826893536737,-0.0070159367571527
1691525292.773149,8.342250494965562,-0.5026560130748652,8.464422275357162,-0.035177671780307236,-0.05063829000589738,-0.0043782957184071
1691525292.7832432,6.799219867593671,-2.605992464306757,8.628909260213849,-0.01016508230989853,0.034491987333426274,-0.0048853393929953
1691525292.793141,2.2230811748457775,-1.1256897990511607,9.97174916941561,0.014581028638588999,0.047370146867993054,-0.0139201420645172
1691525292.8032525,3.1091038247865597,1.5477752164041594,10.24720315860798,-0.006618874957182618,0.07216788781529657,-0.0135674585874135
1691525292.813244,-1.5971788660712134,0.19083346826761216,9.691546370195601,-0.009415134599949238,0.047750826486974846,-0.0152761523897702
1691525292.8231702,-2.1484040482851126,-1.6049971263861285,10.017057778346729,0.002973044503372915,-0.0005164056069023687,-0.0237317734683806
1691525292.8332095,-1.2659231633962522,-1.6869540390835003,9.44442552859273,0.027053187336000477,-0.03034411050617234,-0.0249208004499728
1691525292.843191,-1.5332972881474576,2.4426779095914237,10.182963776080852,0.008244318904054925,-0.0676528123712606,-0.0197561567003781
1691525292.853186,2.676289627926863,2.2573399489089465,10.771716269144017,-0.025866453413042712,-0.06699100075760543,-0.0184155383433158
1691525292.8632717,6.266322864510438,1.8936593010719542,8.72049402303033,-0.045431444029598624,-5.769272404835301e-05,-0.0093839501316601
1691525292.873263,3.336272835947808,-1.417743683903444,9.750058420195774,-0.03979263044140885,0.034341515019427116,-0.0201868393744284
1691525292.8831544,3.7435453644824697,-1.6333588243509582,9.821373132289397,-0.013614657887517336,0.05855875421696856,-0.0167282742734009
1691525292.8931432,1.9361542222682084,-1.4935858494518433,9.3374948758213,0.00032972569549975306,0.08067391374660447,-0.022279603155976
1691525292.9043188,-1.476609877577151,-1.691108902859958,8.736038554884567,0.025863313255329024,0.051629755690211256,-0.0280608495051915
1691525292.9131627,-5.399352736018653,-1.2216271632824027,10.20767403860999,0.04138953733228132,-0.022129535409051094,-0.0338678506488854
1691525292.92317,-3.1854369746499143,3.645652646382592,10.938773646484446,0.0071841754992443135,-0.09035575499289494,-0.0257336178149039
1691525292.933187,1.8418091563938865,2.5873010050368297,10.94169950930325,-0.03471860804040317,-0.0983478432217211,-0.0226465200359875
1691525292.943196,7.724715397406545,0.5646013986163215,9.121521345916346,-0.03917332373392687,-0.025854143555995163,-0.0215816960955912
1691525292.9532726,6.001453893036113,-1.9528911490434426,9.068656220145725,-0.02619341243254376,0.050784405063645816,-0.0261945796485001
1691525292.963151,4.629533695206051,-0.2593072854247423,9.918472550548705,-0.014489180528690996,0.08577128599625732,-0.026574406522041
1691525292.973163,1.5071000873586924,-2.1913796270852983,8.930520245650758,0.007482025114909189,0.10597886114793652,-0.0347458121652657
1691525292.9832113,-3.304998761850226,-2.0561793259804957,9.010735013809901,0.03387458384031893,0.059249090844566345,-0.041032973426109
1691525292.9932053,-6.56920232209996,0.7094473692478479,10.746069321182036,0.03629968249527606,-0.04247981143820699,-0.0400578302617127
1691525293.0031986,-1.3461538829057778,4.5982195948121465,11.133366847748437,-0.022213778564108267,-0.09147262288042443,-0.0357926671679074
1691525293.0131798,3.3240102998598053,1.8117143604162431,10.34364026145316,-0.04668494546531865,-0.07554439703244807,-0.027533257129317
1691525293.023445,5.11683795498413,0.30225872838423423,9.215719773528427,-0.057592021556567105,-0.020871914680677266,-0.0318878514046723
1691525293.0331478,3.8721218050751243,-2.002197730904136,10.07978602409581,-0.03243329510194712,0.00550929358649075,-0.0295566224778945
1691525293.0431647,4.396478268535239,-1.4449722699167478,9.198937843009682,-0.016645101312199588,0.04973205079278874,-0.03462716539455
1691525293.053519,1.7874845955969911,-2.8412257062445936,8.572911088883156,0.02163743567303696,0.06268633902711417,-0.047639798122173
1691525293.0632036,-2.379258519638468,-2.409092073571061,9.303327579771294,0.046586542125789485,0.03353162770485024,-0.0499182825262601
1691525293.0732298,-3.1620973291882404,2.7588603693052978,11.399468794108676,0.02891148222453289,-0.04260799965617887,-0.0432837938244397
1691525293.0832057,3.6091211816112634,1.6354266746440924,10.145467283231149,-0.0020423727491403875,-0.018145895994850867,-0.0326161233062798
1691525293.0932462,3.775214418549356,0.48418372430408174,9.395243442390274,-0.0057912289080542445,0.01156345461959209,-0.0301834603126103
1691525293.10335,2.209516543031811,-1.1565309588020023,9.576346176284824,0.006243167629386322,0.03529275594681596,-0.0326463987405354
1691525293.1132145,1.5141977668021647,0.9744114309825059,10.491234049169062,-0.004840655740557832,0.0327384514394236,-0.0328379792447144
1691525293.1232152,1.2364893629561322,-0.9102567661501919,9.325772770437839,0.005547373796410941,0.0414133911596978,-0.0354459953780228
1691525293.1332035,-2.782618724309281,-1.446063120019796,9.746269121292519,0.021251403377745264,-0.0008313725989260296,-0.0408917625720555
1691525293.1433403,-2.0968839325201403,2.000729132018457,11.010091694775788,0.008316353317239797,-0.05514512020065857,-0.0312282328779751
1691525293.1531825,3.382532755798058,1.425719731224383,10.119506099899493,-0.02169803188256529,-0.03980415264889038,-0.023202195512777
1691525293.1633682,5.468279091178566,-0.7845809252016054,8.579852844636019,-0.003237809366675814,0.009859233284702725,-0.019485478969937
1691525293.1732218,5.16022041133764,0.6904039231025823,8.269514680993083,-0.01272687516552367,0.0741981175669354,-0.0179182307149226
1691525293.183205,0.4927724913600052,1.5634659453151882,9.964108570875828,-0.03074629947308601,0.07017019647309658,-0.013560125353461
1691525293.1931734,-0.7098123987020426,-1.4985098306435922,9.76297987130581,-0.01850983547143878,0.050103166714663916,-0.024987142282253
1691525293.203263,-2.941099339617762,-2.650967912869284,9.37593902773704,0.013284523237601202,0.0035252647538916845,-0.0283624173427874
1691525293.2132778,-3.2397653774458144,-2.19951939649848,10.516105648551179,0.04224077310946134,-0.05422759176148804,-0.0269032416219765
1691525293.2231972,-0.2484340959743121,2.448003091175283,11.13179435573521,0.016202937434966185,-0.08891364883451884,-0.0231263951684291
1691525293.2333677,5.1465978607570655,1.5362536431796996,10.1898284538667,-0.0036406577465265652,-0.04176655413365069,-0.0093688580493385
1691525293.243193,6.0146911609587175,1.0289913889190294,9.29842612534931,-0.01758158045116313,0.015624653791169077,-0.0047697389784211
1691525293.253198,4.407302402812359,-0.5209756465316809,9.133611472033023,-0.01285716493697553,0.0673812308557622,-0.0013393827068562
1691525293.2631962,1.5556231343973577,-0.7697127960092319,9.690646914578103,-0.0022514734138546597,0.07258053490978958,-0.0050025803322846
1691525293.2732413,-1.614429962869469,0.002788948229769173,8.613742427691255,0.004498279771467544,0.05040933859787967,-0.0089386335859949
1691525293.283237,-2.1402956034141383,-1.5020176863465962,9.700291817061975,0.01699722571709236,0.0049528989805142165,-0.0001995892782638
1691525293.2931716,-4.032576686284898,1.6450825718302535,10.653399345754426,0.010840979931624115,-0.05907098088006068,0.0019586460728255
1691525293.3032625,0.8869006249221685,0.831626487478628,11.472294353965673,-0.008050121061842642,-0.07776418009917248,0.0042515427519624
1691525293.3131754,3.690344762744524,0.2538667364616513,9.945556755186491,-0.016153611218244435,-0.049054629793833564,0.0163769184325878
1691525293.323495,6.383893616811162,-2.7005499129249784,9.559823753260812,0.018952722705315398,0.02007854204366152,0.0285641255502646
1691525293.3340745,2.6666539322102656,-0.16099827704684047,9.716512607246045,0.026795010955883377,0.05065111695056482,0.0414385276560728
1691525293.343558,0.81433474521813,3.3460386000880127,9.439612627641331,-0.0024827267193445576,0.05423234336260756,0.0358501600747053
1691525293.353298,-2.2242687739135527,-1.527311438935865,9.866941756040763,-0.010714661800553629,0.024133099081775376,0.011091649783129
1691525293.3631952,-3.16911946526772,-1.0328970646101465,9.676633825441895,0.020847693569712417,-0.023958120722007283,0.0052014601131027
1691525293.373228,-1.0385423796045248,0.8883237674777246,10.344769995808292,0.006412136648032751,-0.046518463058909214,-0.0102784510056431
1691525293.38357,0.9954058868217222,2.6557552253945595,9.582470321703248,-0.029699746400189277,-0.039965158577116626,-0.0081293850491697
1691525293.393241,5.755543794501242,-1.563491628392925,9.184639992786506,-0.014613903219273514,0.01907676525118404,0.005086441542307
1691525293.4035225,2.7859284453962228,-1.8072128305434207,8.698274623026034,0.005778010269028303,0.07299102360299266,0.0207858963583653
1691525293.4132674,-0.26354274675594563,0.069662889474007,10.169218265295472,0.02270408827910467,0.06566436127391541,0.0293712599848454
1691525293.4232783,-3.265395718156088,0.04043537492672089,10.122104365393026,0.007841352075666885,0.04126536166109432,0.0195500890438502
1691525293.434203,-2.6127454074284704,-1.2241735362385222,10.955050667274014,0.03312829861513662,-0.006150491771129078,0.0106756475468223
1691525293.4435062,-2.545176019979795,2.8136285298339914,10.336631413636738,-0.004358741027865956,-0.022445015668497527,-0.0040319782967621
1691525293.453334,-1.5193856381617252,1.9557572294968306,10.766155377433847,-0.036716920528500875,-0.046511454750684425,0.0010738686285271
1691525293.4633698,2.3121194529408493,-3.4668591323625106,9.39158246272969,-0.00037210979436502544,-0.022512492448660815,0.0030748526512702
1691525293.473234,2.1808550918490237,-2.816492373930491,8.354963330845862,0.04574210727383507,0.010023217357120277,0.0048696019400899
1691525293.4832644,1.2621449880704891,3.1466841882998176,9.25783844459826,0.020387212782687597,0.03201416548762187,0.0179897307132427
1691525293.4933317,-1.4014847026187878,2.9072042667912337,9.522359903470395,-0.025290286622588615,0.02342495163617662,0.0162826695193593
1691525293.503272,-2.417554579938819,-2.6821110681981346,10.532670466242655,0.0022081226608370334,-0.0038244739200555098,-0.0030663760664815
1691525293.5132968,-1.994417922765414,1.1912909397508482,10.198908552388476,-0.0009456683878290509,-0.025966391282945703,-0.0096337261895591
1691525293.5232098,-1.9047335727214596,2.0805733360805205,10.711839218186991,-0.03032558627912015,-0.04331579436570604,-0.0056600610080117
1691525293.5332172,0.5778844873861761,-0.9693347315007105,10.075462649331097,-0.02341581479124339,-0.04845422912617643,0.0037632140045111
1691525293.5432827,3.2859729945329095,-3.182176586661263,8.94843766280165,0.017862074146890908,-0.007657519774917116,0.0083011014101152
1691525293.5533311,2.8362955943247337,2.0100453992663945,9.10386974305538,0.010312424403230406,0.030487786735142984,0.0271028431777899
1691525293.5634158,0.3863447597700938,1.414562336271398,9.270933109034582,-0.015939244813233878,0.046347086262584526,0.0243617205594723
1691525293.5732548,-2.31551863989404,-1.6219175657467808,10.201678935787529,-0.00810069569261636,0.021593290636990916,0.0152989730884378
1691525293.5831895,-3.3949113000987583,-2.0536791903618044,10.299965590464392,0.024363313958256423,-0.01857024079811483,-0.0021519453550631
1691525293.5933988,-2.9753384685263864,2.3966854284320913,10.927552842113355,-0.005986128117179547,-0.05637242896537775,-0.0125576683605963
1691525293.6032555,-1.5832235437815754,-0.07493041275249097,10.376310258099249,-0.021195464266385893,-0.084681915153016,-0.0106697312842066
1691525293.613339,3.2835441395543565,-3.7018874886525293,8.944222730534694,0.027468644937272448,-0.051473233270350784,-0.000901740724867
1691525293.6232145,3.332137422713223,-0.3210338521717684,8.752622202744972,0.04495636742936712,-0.01463790848059168,0.0209027773414795
1691525293.6344512,3.616060408215805,2.6138771456794707,9.391398702993389,0.012288252441654875,0.03182080142981249,0.0354016127710287
1691525293.6432133,1.6250633672210177,-0.850691534867766,8.652149962621117,0.013838258651799029,0.05972433628968979,0.0291642251138632
1691525293.6534443,-2.15554717823537,-1.991370257186787,10.321355444923817,0.04172754737029928,0.03138776239836321,0.0103341818501298
1691525293.675679,-1.49922448202431,3.0385988063844906,10.108999445899636,0.0025806823945717845,-0.003023583946036484,-0.0010034229892248
1691525293.679655,-4.484769966232527,4.4933259927324585,13.03053859748945,-0.03810783958371888,-0.03248562498385534,-0.0119470401952917
1691525293.6884902,0.06517302019295185,-1.8123025943118194,9.608448776216527,-0.01625370091628405,-0.0453712530021037,-0.0063666079479212
1691525293.6978023,2.658447464466501,-2.5679203435051337,8.581902474581367,0.026369505657681633,-0.01714342880109239,-0.0032645773428435
1691525293.706725,3.0107363873207182,3.521230828462908,9.026279612366292,-0.0013727627064627121,0.013749606389920304,0.020301593718404
1691525293.713316,3.8283965024964393,-1.4992775421251239,8.893591920107973,-0.0008711728203594967,0.050193920613916615,0.0200440569494908
1691525293.7232966,-0.6765977621721745,-4.3307524932345505,8.922136780779573,0.052720226751515616,0.05679448002028137,0.0137736529757325
1691525293.7333715,-3.0455515969126,1.0822029956623977,11.489253445248837,0.051948092681679235,0.012096901768744815,0.0010270292002764
1691525293.743285,-2.5876138375806166,5.358258319735224,11.266094615424072,-0.029441485060777133,-0.013292241404843759,-0.0162172389502579
1691525293.7543108,-1.3648965820406211,-1.559541908551372,11.005756604163079,-0.0288132045475538,-0.03823345130406181,-0.0136327992479259
1691525293.7646763,0.41050912287917246,-3.9869509585778675,9.309010103006294,0.03284372043908721,-0.035810779839550555,-0.0179735084350163
1691525293.7746308,2.5510984643895585,2.3704860167811033,8.964355106552706,0.029483265464824625,-0.0101714009777915,0.0078291224961226
1691525293.7833276,3.865121571834897,2.072820432394829,8.533735638967862,-0.004078418300968328,0.03775071607468794,0.0165431734819953
1691525293.793285,0.5559748216723189,-1.7679104418083107,8.067168341886482,0.023672999453827507,0.05567863379297866,0.0178954734181111
1691525293.8033504,-3.3321461688302367,-0.2597600726641102,10.68479781511669,0.025780565676097406,0.01707236637508585,-0.0035617227951938
1691525293.8133998,-3.612266725322217,4.940983843052851,10.748165882107713,-0.03195934504618549,-0.0218652083586729,-0.0126082326571399
1691525293.8233223,-2.8671830760930583,0.0807911640305562,11.949829392007985,-0.052347362218283316,-0.06371942050411594,-0.0167587937141711
1691525293.833582,-0.6627973711941288,-3.626524320891372,9.411911537630331,0.004431969860426096,-0.07270118688855258,-0.0147365627164895
1691525293.8434722,2.976355714922699,0.21181984010470875,10.527369810678426,0.016214614954127918,-0.05193601496951611,0.0030027475620677
1691525293.8542414,4.228785119389514,4.01513067998982,8.685176767741254,-0.02895678584745974,0.017656946415147493,0.0105120802943651
1691525293.8632896,2.7519905604412163,-2.0219151714429966,8.936913285058186,-0.021253769755950707,0.05115732345559882,0.0121281726931278
1691525293.8733354,-1.6331786705785778,-2.622211232118271,8.474471325663439,0.017563907171912415,0.04791866280158621,0.0033320516993348
1691525293.8833284,-3.121788696229459,2.299963387432247,11.27245791317659,-0.006691934284027414,-0.0033409645188853766,-0.0071731579775864
1691525293.8932953,-1.6988177868729732,2.8306253834949673,10.032150572282163,-0.05574592310589195,-0.017052587568345212,-0.0180365198577697
1691525293.9033191,-1.5690826198988517,-3.842868776805394,10.133863847337828,-0.018841039646895593,-0.047544475018680095,-0.0150731836731488
1691525293.913387,0.9317500770024706,-2.34692133641381,9.353904874251917,0.02327524143448842,-0.03928561073446471,-0.0125896043430025
1691525293.9232974,3.0213627675611137,2.746837304629224,9.978407618127616,0.006375202044676551,-0.012043539881386026,0.013789367181534
1691525293.933293,3.1506976349098537,0.7577275036747811,9.169109935877389,-0.020396066264127766,0.027954275013798956,0.016760530201072
1691525293.943294,0.35254111153393575,-3.297150206406322,8.291519556083117,0.023579976289667282,0.04334633940980412,0.0087508007598166
1691525293.953395,-1.7227050889948181,0.9750195533669648,10.861789215123386,0.01817192336068495,0.015485253308430378,-0.0016367009195441
1691525293.9633555,-1.8663754205951864,4.282372134200347,10.239703252130992,-0.03685076533402029,-0.004828638995155568,-0.0142232130567486
1691525293.9732828,0.3674590100763974,-1.8476698066873876,10.91189690659395,-0.03744078003645439,-0.012036527808042737,-0.0198316497082764
1691525293.9832628,0.11728535379818147,-3.3950220713375336,8.335989797699368,0.02573231359596116,-0.005292469240712616,-0.0128031286696846
1691525293.9932685,1.2782020454286471,1.3443640815914673,10.972717691564911,0.016605185039478783,-0.007516166504148225,0.0034366399229561
1691525294.0033631,2.230324120368146,3.982592500773046,8.877370591468496,-0.0339967205460154,0.03052903105503214,0.0150929887493198
1691525294.0133,0.7768059925471008,-4.226952794184018,9.315078090878217,0.003019518348305851,0.03461152590743272,0.0106053960223739
1691525294.0236597,-2.613417645657227,-1.9175953913848052,8.537718355592695,0.04136607391795413,0.01635375453057202,-0.0021493620990718
1691525294.0336423,-1.777121814669775,5.455251390172758,11.460978392742192,-0.0192604278666091,-0.01923126217212841,-0.0121553370083625
1691525294.0432897,0.2832378575764097,2.3989328775333285,10.886986238080873,-0.07413196696370127,-0.00993920198300609,-0.0183130891348178
1691525294.053295,-0.05914455620319149,-4.682386313133637,9.475828220389051,-0.013795932145034967,-0.013476561710868076,-0.0101189238305146
1691525294.063286,0.5557046062425591,-1.7892046826099695,10.509599049635181,0.01958978718565793,-0.013185106057426793,-0.0014824459615106
1691525294.0733025,2.117802412933716,4.426426950093302,9.286136885075251,-0.013676804935663952,0.014296486402726252,0.0194123371218388
1691525294.0833309,1.9879564583573306,-0.8771674605770926,9.754608231246772,-0.03002572970122538,0.03651205152685938,0.018839245912904
1691525294.0932782,-2.1953417854233965,-3.856082239495691,7.502867432932967,0.028031058458493484,0.028926257252588967,0.0126325788621847
1691525294.1033385,-2.9843994254959227,1.3304318274067544,11.456238590039552,0.02156987133471229,-0.022719431841723474,-0.0012446429866308
1691525294.1133351,-0.3625367844685504,3.8130222580938575,9.734977709877896,-0.04246016433023069,-0.01946055574793871,-0.0103254949028546
1691525294.123304,2.087417779900242,-4.039259693415385,10.428692825918988,-0.012296191509683483,-0.007245255335686697,-0.009238418872183
1691525294.1332955,0.9839141721351794,-4.882038945240302,8.777856870347073,0.0574702861118737,0.016994226820917183,-0.0074027401681
1691525294.1433792,1.6623254163278771,3.2611238587113616,10.86834788250408,0.03834343607636481,0.023608000582661236,0.015439306636626
1691525294.153281,1.454108777051696,2.5827928402547142,9.920540311923585,-0.01272620708606086,0.0526680928613151,0.0185606575285141
1691525294.1633017,-2.558315693512819,-2.3695917446201786,9.209635447536959,0.017484412188823278,0.0258386732764821,0.021414255974168
1691525294.1732993,-3.9147465410051665,0.5753625010764526,10.929734551018221,0.023622522412850344,-0.03090140999988553,0.0078987882186715
1691525294.183347,-0.6034665208609645,4.753581435086414,9.899739141772665,-0.03528110052975297,-0.03948663377186979,-1.7105350917072208e-05
1691525294.1934247,2.9768818114306046,-2.471038685269604,9.97730476513575,-0.02677771021467905,-0.016964046229873343,0.0053954299253468
1691525294.203351,2.9232404399023535,-1.4003574144973459,7.073307155542116,0.015398694469681206,0.031576315156070546,0.0027185680990164
1691525294.213381,1.9310606922056677,1.5782993289174725,10.17933967367706,-0.0027373668967124766,0.053068364557267586,0.0158962302555387
1691525294.2235382,-0.6544065367880915,2.7859976926159535,9.521747056003306,-0.03580915362203362,0.05200713158208155,0.024246586737508
1691525294.2332892,-2.4805309241575153,-3.444894611305478,9.925732381150915,-0.0014072460640693915,0.020342801088623328,0.0201753454928343
1691525294.2433064,-3.834048620734266,-2.887626013133055,9.90017767875908,0.03841359910281348,-0.030081533075934006,0.0002091817039122
1691525294.2532911,-1.5196219284966164,3.135065714551181,11.12701716116035,0.010247745786744795,-0.05474960100454603,-0.0072148057918007
1691525294.2633328,1.7883653973076474,2.4492643166302486,10.783581172736021,-0.046015057759435464,-0.03428723360761422,-0.018087049695378
1691525294.273271,2.830316824578544,-3.0847993360578436,9.252916217931057,-0.009882221210906077,-0.000882813056379449,0.000821928307932
1691525294.2833433,3.891931999987513,-2.9028824294346864,9.134618346527626,0.03294932164178457,0.04827109746394926,0.010021682148153
1691525294.2932887,0.8287278265233229,2.7467947401277724,9.056754531710833,0.018867256739813914,0.06513628374214894,0.030073920515651
1691525294.3033247,-2.394483490756118,2.3973746046802984,9.691927317354889,-0.01998501551003978,0.044665062253523576,0.0314489791815226
1691525294.3132863,-5.127604132928369,-0.7960540786251539,9.995087659389554,-0.01885832836340083,-0.024514721126158875,0.0160033612226193
1691525294.3233604,-1.3729075454097759,-2.282249668702884,9.843717802734043,0.018513143641981693,-0.04224434205842512,-6.847826828608027e-05
1691525294.3333664,-1.5037737715933361,2.7139998948173787,10.390648904046806,-0.015129384639749315,-0.060255595252122304,-0.0051229989441985
1691525294.343294,1.173648065710975,-0.7715651841280632,10.736004165798139,-0.019034084373485877,-0.04677345592315651,0.001267833855099
1691525294.354154,3.385472861408881,-3.0730532092020924,10.000400188233066,0.02158254657722184,-0.00655319183114876,-0.0013169147825742
1691525294.3635252,3.6597878976198124,-0.012846152899096302,9.500108025164673,0.034454531826416286,0.04576900277860833,0.0151199654390161
1691525294.3733163,-0.0006388475407701336,2.8372183415505527,9.889993511458208,-0.001711593608912128,0.0538603043920601,0.0197935200010483
1691525294.383338,-4.142409304467972,1.0002560394237279,9.468413005788891,-0.01985403911602445,0.012084015446003491,0.0154547349263971
1691525294.393486,-2.645976335688937,-2.905680960366793,10.031980784754307,0.012164814146470027,-0.02929652201342519,0.0025465223186706
1691525294.4033396,-3.2382845765046966,1.0944345672480595,9.449517223282548,0.008134218136078604,-0.0656174034513033,-0.0035691938648874
1691525294.4132924,-0.3383675055858646,1.1303251476053686,9.870224203576226,-0.01192132281355546,-0.07294542306254806,-0.0046512738156075
1691525294.423304,2.2564515792652244,-0.08345128448712935,9.804023806500764,-0.01189562897283109,-0.060153167264885316,-0.0036035554769391
1691525294.433504,7.410597738931993,-1.5355312876580163,8.596410476537493,0.00285295806377728,0.037153831203192905,0.0099494161729758
1691525294.445161,1.7755648965997997,-0.6452714494326947,10.11834091396058,0.024219882261834948,0.06657834291919988,0.0186811520432179
1691525294.4535112,-1.5087479345549275,0.8535362509101379,9.615169720596453,0.020184832974025305,0.05857004958017037,0.0154588374023382
1691525294.4632962,-3.473527798369306,-0.20577031976876142,11.46968417906066,0.0034882585520365247,0.008653534850794358,0.0022892798476909
1691525294.4732869,-0.9142720562410148,0.4051707824826307,9.96715758818845,0.016527927963078594,-0.00535626947113311,-0.0034382866981382
1691525294.4832883,-2.2753338932134715,0.8236586196898494,10.749741893194978,-0.010288450473874708,-0.03655869044270348,-0.0160160788620764
1691525294.4932785,0.1191317333616732,0.5924054597661538,9.499669613291582,-0.018112621315931058,-0.04306168598327997,-0.0066785753990466
1691525294.5033038,4.134596431998962,-2.2908215864005483,9.265982351440428,0.012542539580811302,0.0006771731123363985,0.0017063111479451
1691525294.5133128,2.4846558704664083,-0.9564925214692233,8.860922360108399,0.02922668960662902,0.03834276425708093,0.0120649703492467
1691525294.523284,-0.5925499523001978,1.6055942780912842,9.101350541073117,0.0188394983177179,0.03473508733759664,0.015902618197078
1691525294.533362,-3.0783407521317026,1.6622082619635983,10.083780988602733,-0.01070757024450169,-0.00482179820823049,0.0061871812393014
1691525294.5433784,-0.8918458970279253,-1.157844856469137,10.585645534374292,0.0053351379407818745,-0.023861306200851324,-0.0026773835818226
1691525294.553297,-0.9523530390810759,1.8865078690491441,10.328163598439431,-0.015221554183944035,-0.031021970337931942,-0.0028356590594107
1691525294.5632863,-1.2561418312949064,0.06851982021173549,10.211411003003995,-0.020208855910262027,-0.049113466613892695,-0.0015564230090881
1691525294.5733547,2.964741984946719,-1.21232729036699,9.76569500865133,-0.0025029114952666693,-0.026450377680227424,0.0100667749245708
1691525294.5832937,4.150269395034978,-1.2172327914833667,8.924059046250374,0.017077427621752114,0.028067800229442656,0.0184848273818438
1691525294.593352,1.7805288212197685,1.6172666941978822,8.97365638190384,0.002606316761586974,0.05990761684444048,0.0221141523395722
1691525294.6033385,-2.845954416506279,0.6568599543914366,9.651812055809982,-0.005653385275327836,0.02929654554259298,0.0137960903992002
1691525294.6134057,-2.0371525386581926,-1.6397774542837424,10.78290852576059,-0.0005376030578051255,0.001509375240602027,-0.0093388899515325
1691525294.6300614,-2.3058418175074253,0.47023259348033725,10.179561843666523,0.0033533759347546136,-0.03640799977793153,-0.0115587736765796
1691525294.6333222,-5.194413047761571,1.8752729671589665,12.207722031253835,-0.010705332207833911,-0.06451201825115292,-0.0129797893862182
1691525294.6466024,0.41665626680651774,-1.1041164852320133,10.054720376028385,-0.0007159829287996359,-0.07563540310095959,-0.0020473908918852
1691525294.653328,5.901537276522522,-3.672154901946658,7.560689223033859,0.036897935643856565,-0.020518739253439423,0.0074911627632623
1691525294.663293,3.3778149187875437,1.7867019112925624,9.189649585211244,0.03088193243500145,0.02379388394465608,0.024195486930484
1691525294.6732972,2.009640255286987,0.3352039921493043,8.81581454478891,0.019373705171012282,0.05641044448767981,0.0320808442954962
1691525294.6834044,-1.0882983248521072,-0.8783858129177089,9.944492124069415,0.02339510006718199,0.0466216849301534,0.0216305761312191
1691525294.6933942,-2.5145211672117873,0.4173249227998694,10.511618708421265,0.028445076851132463,0.015988179858298496,0.0059585396845882
1691525294.7033708,-3.1014618380497057,3.8410429379461264,10.875631869131759,-0.027991240939131395,-0.019528369790847714,-0.00719607503218
1691525294.7133226,-1.9629164457438169,-0.9700311648561775,10.457516806882337,-0.02448320132775065,-0.048606331836178886,-0.0089011459897215
1691525294.723321,1.375666837278542,-2.8566371078563018,9.063009555530789,0.01937314256789602,-0.03972276527910898,-0.0119215433771664
1691525294.7333205,2.5789992169262232,1.2315116219293358,9.115105072912892,0.023816178704384464,-0.010145113603762692,0.0023519816056882
1691525294.7433329,3.0578008664280367,2.2145288231826292,8.947732139256237,-0.012046313619585119,0.03229416909872843,0.0093547145550196
1691525294.7532947,0.4129007299757417,-2.8854916572189397,9.23740073444572,0.01789851521893483,0.04137146598992886,0.0147200527315085
1691525294.763323,-1.514176727626464,-2.674499696542673,10.375181976129799,0.052065836717580846,0.0223816844685416,0.0033977674500142
1691525294.7733388,-2.1826510443598135,4.554221991035236,11.087326346744426,0.0033129102666243078,-0.001248013069771724,-0.0074361699919159
1691525294.7832775,-1.7722017696117933,1.3398018732707324,11.133451875546406,-0.03643808867402375,-0.023145477721782184,-0.0136670514295751
1691525294.793285,-0.7151742642142397,-2.3324689763439936,10.027217835099687,-0.0018150368960510302,-0.0416435104012238,-0.0105685095588619
1691525294.8033977,2.439958712521184,-2.4152591591214105,9.334750557001625,0.0383934949120192,-0.017899293686175693,-0.0048023473757261
1691525294.8133554,2.9524461810999125,4.233696152078301,8.59050241807573,0.0017671369792618095,0.02224188054990976,0.0123334268753474
1691525294.8233175,2.2467439971338505,-1.430532917827336,9.04900214996862,0.0027693563274557836,0.04941340745105116,0.0126153493945544
1691525294.8333316,-1.3801325062073582,-1.0530265706415554,8.655296208304488,0.027498891008085714,0.04452634668690907,0.0052131738227849
1691525294.8433175,-2.2663020133146667,2.8996497007908353,11.840495787926288,-0.010011282454681138,0.009805993019511985,-0.0043075426767523
1691525294.8533294,-3.6983523721125033,2.7496219796660855,10.388799321743734,-0.04847417431426534,-0.028568224758300984,-0.0110102963919694
1691525294.863309,-2.0066336233160555,-2.7358607980037117,10.953778348551577,-0.025440006656322674,-0.06689216767437213,-0.0118074349413568
1691525294.8733222,0.7209365667630746,-1.7767871799156765,9.426272913330209,0.012133141416503667,-0.0625208719390641,-0.0079101479898149
1691525294.8834176,4.313907330831665,3.004752075969381,10.03494185712777,-0.010095123507644198,-0.016290114641266257,0.0076650048320238
1691525294.8933697,3.1505917776146757,0.7164778745905723,8.430954833574173,-0.031169066109343807,0.03444846863555689,0.0113707755406444
1691525294.9033566,0.7037529175639614,-2.9691554962753295,8.47994638746953,0.0038653305915344618,0.04690211021272864,0.0120567737792675
1691525294.9133348,-1.8830714469641967,0.19399503722434758,10.490591767296944,0.010683001091598747,0.027087162057474024,-0.0013334371435398
1691525294.924223,-2.1213990541252867,3.6920767555428986,10.38406737135372,-0.04315406721161826,0.0003850645368105613,-0.0124853409181291
1691525294.9344108,-1.7738045328743137,-1.4545262819650382,10.632645275862869,-0.050449255296525504,-0.023283913161549513,-0.0166440529103333
1691525294.943324,-1.0579435499818863,-4.257538109054434,9.082390853394154,0.018645687069658468,-0.04204141024299012,-0.0131093046913797
1691525294.9533446,2.161511347986434,0.270955516632225,10.31049669711851,0.021825400759964014,-0.02504674853562589,0.0050036895734315
1691525294.9694045,1.7493402139006702,2.5694895054731166,8.929301385601597,-0.018823206543375305,0.009961791078884712,0.0173756818001215
1691525294.9733517,3.1000122292745025,-5.4663436696128525,7.5328429547244875,0.006459915381520192,0.03226506035950263,0.0075153990362828
1691525294.9833188,-0.913991386206862,-0.6500508680129782,8.817346339455785,0.02886081356122962,0.03006427417331284,0.0044963916477804
1691525294.993323,-1.4873578511833687,3.58420934764494,11.53614897384761,-0.01841040484949775,0.0062963849860414684,-0.0072721640865261
1691525295.00437,-1.5229227256096458,1.4238091917653704,10.0730184533319,-0.053956091194090554,-0.009114283025087572,-0.0159840693051869
1691525295.0135164,0.2560394142300689,-5.225122607867183,9.734355657142261,0.004790137053738829,-0.01342125329742206,-0.0129279342765862
1691525295.023348,0.07300356141508961,-0.7959012332736198,9.621190970218121,0.03147990732222454,-0.015039254864282184,-0.0074560015748197
1691525295.03351,2.434002880050113,4.3925782924650605,10.266722541396193,-0.010130882758069908,0.007295845532900603,0.0075144909967725
1691525295.043546,1.7241822410358347,-0.27293765665596137,9.12671419769803,-0.030578819362989926,0.032827689525220624,0.0099670144443457
1691525295.0545385,-0.7669409164208223,-4.0363290981741455,7.971067959727442,0.03064052898051785,0.03115911563763727,0.0048242516529803
1691525295.064638,-2.2550758675185296,2.424370813609171,11.154168389030556,0.010820438308960411,-0.003478015832550689,-0.0111398713017756
1691525295.079749,-1.1645544856664312,3.9382595081735516,9.77993386590156,-0.05555986428800574,-0.015344953117348622,-0.0156963781739527
1691525295.0833163,0.014450021695847892,-3.076642974487276,11.036662249206888,-0.04939156029372543,-0.020252097746608175,-0.0128666271741444
1691525295.0934174,-0.6319031623720559,-3.443881108351254,8.951040334036316,0.01920056970317095,-0.02192784374277461,-0.008981995965069
1691525295.1034038,2.246058653204709,1.762860818712158,11.348853636595676,0.00963420636568134,-0.011953708896293708,0.0141417805750911
1691525295.1133797,2.408060168982305,3.2186465924121266,8.387786169595756,-0.035094921776392445,0.03354461710985948,0.0225558357958739
1691525295.1235,0.22126802895227604,-4.1724631984328235,8.97584572757654,0.005496008848121522,0.03463736364195223,0.0167325243999307
1691525295.1333408,-2.8359018862647662,-1.2590457895912017,8.96362474857576,0.03460823049954096,0.007621121559244452,0.0066055895474796
1691525295.1433525,-1.8124030865898615,4.044643795607133,11.149414052155523,-0.020802298644673225,-0.02374413508525786,-0.0049122257444019
1691525295.1533773,0.6742133192163833,-0.13572560393253513,10.439591826307282,-0.046813823356365115,-0.017430639853318417,-0.0116815946350748
1691525295.163313,1.3723325547975387,-6.1389425819012455,8.747266075561763,0.03307898457628082,0.001762421668219951,-0.0098989752407128
1691525295.1733148,1.4163489902491797,-1.19378141590228,10.87032862424928,0.0593513773598144,0.009150932043669001,0.003442728211457
1691525295.183328,2.2152632994263697,4.865368953525438,9.431548343632365,0.008530329288718943,0.043845167999244504,0.0175061358784382
1691525295.193325,-0.26739044871908946,-0.7721156008153629,10.347118721456214,-0.0009260990621499359,0.04047704089168609,0.0181025082890932
1691525295.2033634,-3.7436357685991477,-0.9906717287619177,9.05746179098588,0.02438760385003023,5.49814905194716e-06,0.0127422299881522
1691525295.2133305,-1.6991935136224476,3.5613553630843304,11.630960321773912,-0.012983469298502616,-0.03605734802580916,0.0062225971085076
1691525295.223376,0.38341599042170244,1.6534244520477244,9.145376882748952,-0.04872574043105713,-0.02538807734585177,0.0046728195336704
1691525295.2333896,3.2088749935496734,-4.654498059796918,9.048271630394444,0.011544396614489241,-0.0014815312472017898,0.004607833008567
1691525295.2433896,2.865972781430296,1.1087243302646757,7.944635965400511,0.01220985598693473,0.04675525160978784,0.0031851496494432
1691525295.2534168,0.8721177729782597,3.3819398999121035,10.51913543460946,-0.021799612897563717,0.05488125629996144,0.0172160139952843
1691525295.2637525,-1.3413884830767084,-0.8384109964091249,9.451243167609034,-0.029839753966882893,0.04636572798189178,0.0191401506488268
1691525295.2733493,-4.272447866517334,-3.5491117202708615,9.603571914917095,0.01997499420651229,-0.006477840924775758,0.0107953373988216
1691525295.2833598,-1.821940433274824,-0.6592400893113027,10.577815884199461,0.035435014443964276,-0.03467059571340681,-0.0022986328515166
1691525295.293341,-0.9329986599239909,4.892713311582882,10.83861602386245,-0.02723865639435908,-0.048132821223477465,-0.0073243023182208
1691525295.303495,2.3233460842255704,-1.4922108869497321,10.528575545880296,-0.036217863211502416,-0.01938655678074961,-0.0059062165494019
1691525295.3133435,2.845739165403255,-3.5520571418116558,8.865474671426789,0.021074239847186958,0.008957957291934299,0.0052177731593196
1691525295.3298974,2.2443079737288474,-0.3794692227012772,10.16628453188973,0.034910137133894924,0.05472783169182067,0.0174818600242083
1691525295.3338735,1.0732452340732976,6.309854872515505,9.442509705330517,-0.0012988810271515625,0.06430891776000627,0.0271069316838925
1691525295.3433614,-4.630074925063592,1.101292533790827,9.713066801249104,-0.019172157370655748,0.018068346873972598,0.0247508625214045
1691525295.3534703,-3.1939429648383473,-1.7874014413035695,10.258250183949032,-0.006812591544751744,-0.03449026966032592,0.0043917426553612
1691525295.3633597,-1.5788375463770141,0.35829379676164563,9.906769640273199,0.0011353420672498352,-0.04790898636874685,-0.0007932679547871
1691525295.37341,-0.22835847829901565,0.730232034170118,10.272595670224847,-0.016339579837595673,-0.0524644332009958,-0.0056248677249009
1691525295.383494,1.0229364808374521,-1.5091283645287505,10.541651031747021,-0.0003153919941224165,-0.04142936555955414,-0.0017571761093045
1691525295.393344,5.0985654473202215,-2.504619845251674,9.849539021012957,0.03038221423292107,0.0182955590290263,0.008159934793884
1691525295.4034383,1.7529119524858134,1.8123716406424182,9.910423975087927,0.022125763403092028,0.05008396263996698,0.0170123207096998
1691525295.413525,-1.2519634944075382,2.043428613873802,9.37467897800019,-0.004915598915367028,0.04945192891176029,0.0217683559929077
1691525295.4234846,-4.280427297871644,-0.11801710820943866,10.118272950982181,-0.020020401452936296,-0.00679833459467309,0.0057513441604619
1691525295.4335804,-2.651900878243686,-2.001839960082842,9.333992573143826,0.018199734059796205,-0.03979584368734867,-0.0036649934302026
1691525295.4433718,-2.400442221444078,1.4031010516220457,9.97818260383147,-0.002689105054355204,-0.07310732203214282,-0.0082747207309062
1691525295.4533389,0.09755446687856859,0.5014380435946664,9.600015564263552,-0.011887916885164627,-0.07517142548827267,-0.0024711510452384
1691525295.4636502,4.619452320102382,-0.6159617404017592,9.596242470150342,-0.004636382597520768,-0.0320561014625368,-0.0035179501685256
1691525295.4733431,6.587455096510927,-0.7360892055251549,8.832785356873579,0.007358161152030154,0.059973198288429785,0.0201935249094908
1691525295.48339,0.853305922437194,-1.3118948690892707,9.933482609579052,0.025364166775848088,0.07144230848676851,0.0177529400860016
1691525295.4933724,-3.3086703654774174,1.41645821698139,9.696318780978695,0.01697181819333909,0.040443001979185524,0.0093117638205235
1691525295.504794,-1.5582419967655583,-0.6163033736986223,11.670963515405768,0.007544054797811811,-0.001720593311639646,0.0059065434795861
1691525295.513417,-1.5000202767867483,1.5712264319655005,9.711389835727033,-0.00739696173739061,-0.005634975824737707,-0.0068246281991655
1691525295.5234969,-2.0468582817717627,0.06647309412766128,10.451435013330657,-0.01086036260900311,-0.0404266497013594,-0.0083941293234879
1691525295.5335836,1.2975895760470146,-0.7014705876381735,9.518775636039935,-0.0032585577474823595,-0.03544912014988319,-0.0019890174555535
1691525295.5433617,4.144735289033465,-1.6448338873949566,8.801378864007194,0.019048476452484885,0.012075391253475006,0.009955548000807
1691525295.5534668,1.8313315645695305,-0.03463234469077167,9.363806945686113,0.026376198194208115,0.03618377587643571,0.0162295645748322
1691525295.563677,-1.505007574919123,2.172318063110206,8.75861840755787,0.007674701171105247,0.02759387364901405,0.0148730308462922
1691525295.5735147,-1.8261708469039988,0.29989703762455316,10.90654789973355,-0.011885296243482245,-0.006344183356250539,-6.491805491396895e-05
1691525295.583505,-0.7480506704398998,0.2638142084717386,10.061247892678217,-0.005570232120683197,-0.011949080522569972,-0.0028471795196587
1691525295.5934265,-1.8557046476621777,0.5902220397666201,10.592534778177479,-0.016912206656621548,-0.0323311629070489,-0.0053990038397664
1691525295.603407,-0.8114629761487993,-0.2515076140551848,10.286186433687597,-0.014014777639174756,-0.052939278610400084,0.0028581832482536
1691525295.6133907,4.348201725692721,-1.5434248193690212,8.994153716577262,0.009436065229835141,-0.005487277180333336,0.0132763555918877
1691525295.625349,2.899158999867024,0.7620063309670939,9.730284035024965,0.010174633635582015,0.03529960973759225,0.0208895413850491
1691525295.633478,0.7086188491902964,0.9040845839065698,8.420513292910309,-0.002563420895388988,0.055491182070268145,0.024024388072366
1691525295.643696,-2.6766248492877933,0.5438665208681629,10.466743235221703,-0.01411054248931633,0.018210468954438085,0.0062684628826623
1691525295.6534352,-2.038307226445833,-2.2280084916812517,10.222227287264035,0.00979364785019951,-0.0007193966205577579,-0.0088536578516418
1691525295.6633782,-3.1900996671274284,1.429804037060583,10.851456118571518,-0.008457657431321881,-0.04272197721768055,-0.0133917180175835
1691525295.6733918,-2.6393705165156502,-0.39358282329653954,10.294538259552429,-0.011970120364444744,-0.07576323277380327,-0.0086108359794075
1691525295.683504,2.0962584062309824,-2.3564738294692833,9.539161854510278,0.016181124397625816,-0.06660249786464374,-0.0030168031628186
1691525295.6934206,4.372323687377674,-0.87231414721811,8.880501478387325,0.038436494270278274,-0.011655368030411648,0.0147926763345544
1691525295.703513,3.843302542915777,1.6807277992012069,8.790182374844289,0.01555528968401802,0.04040977980670851,0.0256767498974745
1691525295.7134511,0.5663948188748356,-0.7257336141556948,8.856055295227783,0.024126471169843046,0.057241319770710876,0.0218230544303601
1691525295.7234488,-1.0906341675547178,-0.9053487865256543,10.416128912138893,0.029981288698299708,0.04304394105512153,0.0096034382184093
1691525295.7333834,-2.7214601225516835,3.153321785157831,10.900397153540478,0.0015008718388273847,0.012245481491229606,0.0016400906786379
1691525295.7434232,-3.145635633291235,1.1638008542217504,10.445061013977602,-0.028733158985626363,-0.024990645714958203,-0.0104345779220516
1691525295.7533846,-1.7097288285833505,-1.8077492582278971,10.253166029868627,-0.0038539712987324857,-0.06091790332041788,-0.0093641371752078
1691525295.763513,2.751813272049579,-2.1306504093619836,8.809306209638576,0.031974190599992944,-0.032106165346962416,-0.0058465457807237
1691525295.7733605,3.124495365685818,3.654888731982184,9.27427482907495,0.002303176890774061,0.0037380828690742507,0.0106157523294036
1691525295.783377,2.913031785566767,-1.0429320096377857,8.894202539568298,-0.0017284188844083688,0.04609586059223558,0.0100399071996157
1691525295.793397,-0.04682332797379372,-2.759481746741148,9.19781277158259,0.03740148981530022,0.0485605159055949,0.0128660111402218
1691525295.804116,-1.3268568275756816,0.5525534922821842,11.155473242800511,0.03745577893199312,0.031540305425854925,-0.0005177531677241
1691525295.813376,-3.1331563731206176,4.488754938827965,10.931479685303934,-0.02487941877381406,0.002369257591230819,-0.0113611721719557
1691525295.8234105,-2.2786962842323746,-1.2046167818048428,11.134253673509757,-0.026051080070428233,-0.032819494484903934,-0.0091090628231818
1691525295.8333955,-0.6103869195252832,-3.1316228073140615,9.44448892128209,0.023319549601807325,-0.04754470586847829,-0.0122856187920028
1691525295.843459,3.0968546029527575,1.0354997368552463,9.454708584852613,0.030954145881251026,-0.0178299280327021,0.003580028907681
1691525295.853423,3.3613739593046676,2.3365058879633893,8.127124976054468,-0.008269459521518927,0.032045605400493844,0.0104896810551231
1691525295.863454,1.7260076513181024,-2.512377092325428,8.61104992949341,0.022419996278836923,0.05635059088148059,0.0112966692720597
1691525295.873383,-1.6879114647394513,0.8724872933625555,10.327080680471536,0.017455892676211424,0.04359532156254843,-0.0044787654007727
1691525295.8833904,-3.081182979209089,3.735061937843591,11.490900331438029,-0.031541416740393464,0.006527548176903751,-0.0072126535053307
1691525295.893391,-3.8004646591775546,0.3434675310681526,10.808134180509011,-0.05085945123731734,-0.03713389351661434,-0.014470236125117
1691525295.9034705,-2.0964193592820646,-3.194071612252572,10.207707507053764,0.001156111583999963,-0.07567005823412572,-0.0121224249998981
1691525295.9134543,2.2518862360950225,0.5061583919482228,10.1668912540709,0.009546799660094809,-0.058900645415386435,-0.0008183244901652
1691525295.9234574,4.011087220847724,3.0640780813480113,8.597798658439377,-0.025226781961527,-0.002409943516566917,0.0102644835312907
1691525295.9334395,2.4519454926883695,-2.2629889643785837,8.71512258311316,-0.012384137468781541,0.03109948623001301,0.0051649103586619
1691525295.9434834,0.33919773939128434,-1.1598199313111421,8.50006272781031,0.015370522432768664,0.04613944715882029,0.005175009620661
1691525295.953454,-1.477743239194593,2.3574965082850103,11.569166111266222,-0.018989573132883363,0.022865189471630357,-0.0029610066960508
1691525295.9634182,-2.7704494136775266,1.9060443549127464,9.91275557492415,-0.05145819856636374,-0.002019920092529212,-0.0158113611216599
1691525295.9734654,-1.7854201197509654,-3.860219782401857,10.650809674206336,-0.016488834008560178,-0.034408663050793674,-0.0161510088766867
1691525295.9834745,-0.08362396609245777,-1.8221275179641678,9.176402803977828,0.02232491280459643,-0.0408311095412142,-0.0099184398825223
1691525295.9934788,2.745520333098296,2.569783818194875,10.50935312581695,0.002729641297909373,-0.02018747652589819,0.0067779447597508
1691525296.003457,2.671115467723318,0.2149975009404831,8.31135907127705,-0.015618010580382407,0.02261079461860124,0.0100037439440434
1691525296.0135608,1.2243843073047724,-3.032008322356502,8.44821989706559,0.023226747943593546,0.038449857882358746,0.0068657200497632
1691525296.0234604,-1.177978904321125,1.9477245739579894,10.401037264086437,0.009486432271105402,0.028837734260814582,-0.0050255718926841
1691525296.033489,-1.78393325468187,3.5541427602517026,10.724164498788387,-0.04165096007241115,0.007052977272212901,-0.0093659197266156
1691525296.04407,-0.8096283402746725,-1.7466373048085642,10.450300679269278,-0.03780375028956961,-0.010512756516625232,-0.0108053569967801
1691525296.0614278,-0.5835959825179259,-2.6606035850345187,9.491207797974944,0.02743652136864934,-0.017633283017468315,-0.0143075750495249
1691525296.071443,1.3201006761059577,1.6001469683225407,11.002290632345064,0.01726843875674412,-0.013572506086794256,-0.0055880409019942
1691525296.074232,6.617601156542571,11.12726806440712,9.02388486894791,-0.03292557373802906,0.018200479952546866,0.0096954938669746
1691525296.0834546,1.1636433204461518,-4.384333895929628,8.727083511785448,0.003278710593846249,0.031082730458831004,0.0016515100030751
1691525296.093396,-1.633618568797227,-0.8845435263627113,8.558522912759498,0.03589702096338896,0.02017752885456078,-0.003602531022107
1691525296.104432,-1.2418661140682645,4.254680610792416,11.4334529924657,-0.025508113320485973,-0.004780193859537685,-0.0134717046569044
1691525296.1134963,-1.6243777825740895,2.472389853840705,10.277523263814503,-0.06858397606371822,-0.017614311593249884,-0.0181400438125188
1691525296.1330504,0.4426931444226918,-3.6877349904711716,10.580221059377703,-0.011660641167465572,-0.019172412221018488,-0.0137011722947413
1691525296.13424,1.898406601059808,-9.386819233741145,6.104600622742629,0.017720183406252116,-0.017476643579786406,-0.0040859340044612
1691525296.1435573,2.4891523262056827,3.5229109398475464,10.40001331792998,-0.01130205114492391,0.0032526726397948897,0.0127784602989499
1691525296.1537883,1.7555689113447892,-0.23256624541844195,8.85781369620591,-0.02815965733696305,0.03302199591078187,0.015584481199557
1691525296.166263,-0.6984404196889366,-3.2507887665674016,8.091308331506955,0.024636793949087292,0.031651676215903105,0.0139337920297925
1691525296.1734362,-3.788665071106968,1.8469834059837433,11.597759864751481,0.01030360783367577,-0.009971878758220226,-0.0021017535875494
