time,ax,ay,az,wx,wy,wz
1691525124.598585,0.045691317010626106,-0.04980902744206055,9.76585930338482,4.454976762202192e-05,-0.0004842470095978963,-0.0007324814616645
1691525124.6084466,0.02336303160852101,-0.06196635979687188,9.787387237043097,0.0008790006420328646,8.908390088566385e-05,-0.0019249510771537
1691525124.6184032,-0.0932850042568574,0.11036691940884014,9.89692777804572,-0.0018471432979561616,-0.0016379897725316693,-0.0028406169551367
1691525124.62844,0.08293903356560905,-0.013996250309529059,9.76873050152511,0.0009412358705828056,-0.001777295685819758,0.0014929982023836
1691525124.6384208,-0.0452356182615043,0.004683241026628463,9.838395416786161,-5.267194914035294e-05,-0.0023185803269689096,-0.0001707094308862
1691525124.6485152,0.09711959586177382,0.06730462085915587,9.784242407933899,-0.0009843633801413878,-0.0008016481986317409,0.000523316982953
1691525124.6585004,0.11577961904599421,-0.01698558245019893,9.760138592720706,-0.0012797979671098198,0.0016399095386555504,-0.0009254470753426
1691525124.6688151,-0.11242984545903598,-0.002382576668432752,9.86827732948154,-0.0007861776611710103,-0.0012151539645362957,-0.0001919364842529
1691525124.678466,0.12889851597661273,-0.06137261419367617,9.724054558820669,0.0014095145488143832,0.0005383487993900157,0.0015458749437761
1691525124.688409,-0.13388241521053051,-0.03378066448485406,9.878057110573415,0.00012016689072541995,-0.0011704530235390864,-0.0023175978387648
1691525124.6984355,0.02386942674859504,0.16538249857119686,9.860215308664296,-0.002575805941933515,-0.0014207684862963595,-0.0009779790236557
1691525124.7084415,0.1274335792437436,-0.08315925383975796,9.717052499861953,0.0007259230962340671,0.00018147209106665784,0.001681492012512
1691525124.718431,-0.0006790332005876549,-0.02465520151126348,9.81553717078119,0.0010511320190656071,0.00012111242457752368,0.0008932676462513
1691525124.7284162,0.009269309816366587,0.06297661169143412,9.84360205963578,-0.0015610450941270714,0.000737277472278567,-0.0015207382204885
1691525124.7384362,0.015735701231559936,0.013217357583420982,9.819467758391603,-0.00046133226862937797,-0.00018361509660794586,0.0007162933068407
1691525124.748489,-0.028291612914198534,-0.1696680573553225,9.779343020571133,0.0025572821954269664,-0.0006466555482697443,-0.0006285048841441
1691525124.7584152,0.015333021940043863,0.18252816862219493,9.86143688775674,-0.0007627156393871323,-0.000948419857277875,0.0006939394695741
1691525124.7684674,0.11476319041469438,0.0038225504147574424,9.740819901077508,-0.0011296484560052314,0.001531135884157478,0.000210785208555
1691525124.7784588,0.01715483937463315,0.01789661795031928,9.816510870080922,-0.0017286849575556028,0.0017665698474562603,-0.0005521691457311
1691525124.7885065,-0.09412378015978598,-0.03923043406589352,9.846961145429894,-8.135815741269661e-05,-0.0008202690524973641,0.0010519379318516
1691525124.7984817,0.06966500127795204,0.08129339186268321,9.802081807958311,-0.0020669518468618858,0.0007555114258205359,0.0003381726744641
1691525124.8085086,-0.06630146932331209,-0.024709870770666578,9.843975819709826,-0.001665346691875771,-0.0008463516848263638,0.000188412395591
1691525124.8184645,-0.028423537555004753,-0.1570899634441544,9.775029695964578,0.0017280213497825002,-0.0017687073668531106,0.0002770760509242
1691525124.8286958,0.12342153242880696,0.25348188860526805,9.83801691216644,-0.003704212128630651,0.0007875557536411758,0.0002916232513321
1691525124.838413,-0.02506066690519155,-0.22623808552835495,9.746071132621493,0.00010825129121380672,0.0005063108766025042,-0.0011921766965592
1691525124.848438,0.02435747885709893,-0.02187196745916807,9.792167902492798,0.0012481989827426627,0.000545421766278901,-5.671333586225024e-05
1691525124.8584232,-0.07067516380954521,0.10691318368013604,9.8861318122625,-0.00195593774151862,-0.0006880021815027496,-0.0017911935976649
1691525124.8684385,-0.00010163952251043154,-0.006941722083294381,9.821033323169747,-0.0014761074969404445,-0.001254646200797305,-0.001392598944431
1691525124.8784542,0.224204822534923,0.13564670092196424,9.7452604056885,-0.0023232375180103427,0.0018589529080226797,0.0024455837153886
1691525124.8886278,-0.16517804586996396,-0.05131963077308419,9.882275380887348,-0.002160810693622795,-0.0013347362585120013,0.0007058555672933
1691525124.899675,0.06154887626407415,-0.012562239023034643,9.777645862288955,-0.002145174102445668,0.00018778279752925794,3.455406455895194e-05
1691525124.9139652,-0.0086976251530447,-0.01660170204883264,9.800287804829647,-0.0014429416345101398,-0.00022758334466849503,-0.000292154942354
1691525124.918708,0.08612736645284273,-0.10309574842889538,9.727494556340345,-0.0011792139967151801,0.001026739828120489,-0.0017401580518985
1691525124.9284751,0.011632531671132566,-0.01931286211178853,9.814072091398835,0.001216914662361386,-0.0003203336866266004,0.0019575405929294
1691525124.9384477,0.03913544378317466,-0.14353723677550137,9.742119079482281,0.002780390410838255,0.0011530458254771754,-0.0008922854724282
1691525124.9484153,-0.09390896299827765,0.18331932083388885,9.938643443903509,-0.0009083600252641626,-0.0011503230616938418,-0.0006345007388795
1691525124.9584298,0.05065500789285773,0.020181582488216013,9.779040882872904,-0.00022329190613148042,-0.0008370326533977702,0.0014192414708027
1691525124.968415,0.06469571426597627,0.12285423998857543,9.82492227510211,-0.001502554483454447,-0.0006455292929626141,0.0041774448652808
1691525124.9786298,-0.08278091583266547,-0.2615247232684165,9.780887819556124,0.0019262130264131247,-0.0013097710322942848,-0.0007399183052534
1691525124.9884346,0.018184572300605845,0.04495271182798433,9.820027156838188,0.0015849673511038219,-0.0013961659600395299,2.7851568820088e-05
1691525124.998411,-0.041892357541876105,-0.02606200759430773,9.82058335913042,0.0016885376528487602,-0.002103261901710624,-0.0008539142838622
1691525125.0084991,0.20967711447499401,0.06336904487628774,9.732766589153163,0.00018723400740985424,0.0021573467079583466,-0.0013315153594071
1691525125.0196834,-0.04718244196647141,0.1462046440307149,9.898300026226279,-0.0024927339801347767,0.00012707175057630014,0.0001303045026083
1691525125.0284195,-0.04879339647164381,-0.055269667201480785,9.822479836352262,-0.0007310387346682744,-0.001355963272244499,0.001538092404889
1691525125.0384195,0.05618075751820205,-0.019181021234867233,9.787660537595919,-0.0009336962800464987,-3.3119395038148724e-05,-5.112074380168429e-05
1691525125.048455,0.1221293242895863,-0.04741310683239541,9.729235213381894,0.0006622084254863122,0.0020176558685802226,0.0009234083879796
1691525125.0584722,-0.14575166686201366,0.13577565238546524,9.927929151451195,-0.0029058609068021908,-0.0006503968489081332,-0.0002839586052055
1691525125.0684054,0.0893024095158429,-0.19247051171546625,9.703172302148353,0.0010112630691145948,0.001115767506026887,-0.0003636742296571
1691525125.07858,-0.10421867469482328,0.05493885170284747,9.880877166921975,7.101554490806638e-05,-0.001396577634799792,-3.398126521507016e-05
1691525125.0884333,0.004124407790225129,0.04650653398207054,9.834122339342343,-0.0007846983211076822,-0.0015221133992152148,-0.0002772506379465
1691525125.0984387,0.03734296188727425,0.004466807448890887,9.807606194664585,-0.0010350214927625665,-0.0009223383672948165,-0.000711239623552
1691525125.108499,0.11492690433089227,-0.034046135051403074,9.740970288413497,0.0002553979001868763,0.0008683987738714186,0.0003362921013554
1691525125.1187537,-0.10459079063243705,-0.028943301208227197,9.871238973113904,0.0013838028014239263,-0.002083887068055847,0.0012773215055581
1691525125.12855,0.060624003582048204,0.17492147348501344,9.831019296291112,-0.0031871091023592843,-0.00040454682914700863,-0.0005708234204853
1691525125.13851,-0.002706725337189587,-0.22981465236104048,9.731776929678738,0.0011200492607048433,-0.00016834500987290645,-0.0020724681491906
1691525125.148483,0.018374004178238847,0.14288057837455295,9.858493020390194,-7.911710658092905e-05,-0.0011264905284299126,0.0011871591084577
1691525125.1584623,-0.07408817223120012,-0.10513317217771134,9.82098139483305,0.0003262143390705391,-0.0017892135033201588,-0.002048242353549
1691525125.168534,0.11959151323246271,-0.05418808440364045,9.73286252221346,0.0024741781274582224,-9.791072894148061e-05,-0.0001990116254369
1691525125.178507,0.05227410526202459,0.023587339238856746,9.797599964108478,0.0026548559720463347,0.00021501017745426725,0.0011208508256181
1691525125.1884344,-0.012054162811859451,0.11260858849148307,9.865468452454909,0.0006633383681052556,-0.0005326983558539524,0.0017619910829757
1691525125.198449,0.14653978401841944,0.08371281312511226,9.758551025406069,-0.0007780140204952233,0.0023130766478847804,0.002168021823099
1691525125.2084785,-0.1699393580792506,0.009589855116598505,9.909972969255668,-0.0008513712988741385,-0.0016022077977683302,0.0020741566729789
1691525125.2185,-0.050448528301655284,-0.21409362905809123,9.786670510010552,0.0023218223505553737,-0.002021284567930525,-0.0007574558078254
1691525125.228613,0.03625674779441689,0.12998986894191844,9.831303464559513,-0.0010279399292930863,-0.0009625684569283937,-0.0019424492313469
1691525125.2385182,0.1807241639657403,-0.027209786899077635,9.714419074118856,0.0010801694319370876,0.0015479125393701295,0.0009122480876335
1691525125.2492805,-0.10136746010155501,0.0902547220663771,9.902865338205906,-0.0012034232231538484,-0.0007863721793199507,0.0004111873165761
1691525125.258491,0.10458027655854431,-0.03359510421275456,9.74567402855447,-0.00022366509832709918,0.0008825545370915853,0.0006410321982634
1691525125.2684777,-0.026323406993639206,-0.11343411678107282,9.795066635242419,0.001632273380721042,0.00037182099791679214,-0.000555909802852
1691525125.2784688,0.047795644297348845,0.03189141530836471,9.792109673606026,0.0006994720145403013,0.0015441734331714352,-0.0014540564554686
1691525125.2884576,0.0941783098393475,0.016690613488302187,9.7659638782911,0.000409235787431466,0.003308093661210556,-0.0015256036824489
1691525125.298445,-0.23955692344119361,0.08882979500578274,9.96481704576643,-0.0005272714161941665,-0.0022690335955770366,-0.0005361559853831
1691525125.3084965,0.2531991748945862,0.04271692479318034,9.691787982611554,-0.00044980041590747066,0.002421849941947834,0.0008053351664507
1691525125.318652,-0.029740334448673845,-0.018594971910038748,9.821252904452548,-0.0010715304172499093,0.002253841890621757,-0.0012920098199451
1691525125.3284864,-0.04670416668602217,0.0499104931543454,9.856238109770732,-0.0012674867500615768,0.00036549590928868365,0.0001984822045137
1691525125.3384886,-0.042926703829000164,-0.1612122914954689,9.801295418782022,0.0031477280956141644,-0.001421533950429258,0.0016081179671978
1691525125.3484669,0.02307908191782119,0.046636985288308806,9.82668436945062,-0.0006550569374455542,0.00040793906830473303,-0.0035130448925251
1691525125.3584504,0.09247814471776347,-0.04785643485541068,9.760262374612454,0.0016013615558030383,0.001185808487638455,-0.0010953054117912
1691525125.3684244,-0.06581509058390013,-0.052370254513818784,9.83384624768602,0.0022618330246521883,-7.404370672191406e-05,-0.0020396646398062
1691525125.3784444,0.026455522318650386,0.16068924017793101,9.86860407702455,0.00045024106928200715,-0.0006705135911970547,0.000443223066913
1691525125.3884704,0.018659491366935056,0.13202536821875435,9.845554055769325,-0.0019752884169221704,-0.0008180343056270622,0.0011953580940548
1691525125.3985229,0.08245131239204354,-0.15151409634118979,9.721269197830715,0.0010183568515429319,0.0009347093359499382,0.0005628091928606
1691525125.408547,-0.03155561634366752,0.11835471020823915,9.878830488364667,-0.0014478044201452116,0.00018965241548573564,0.0003068715630156
1691525125.4185174,-0.06147665602168503,-0.012235873901338895,9.846664519106717,-0.0017070783484012142,-0.0009253206739350396,-0.000855784379592
1691525125.4284964,0.015353739273720642,-0.07533064815526608,9.78485241736239,-0.0005235582028031208,-0.0005256115794606538,-0.0018247451919073
1691525125.4385304,0.03610887123416699,-0.079098492340648,9.775023424438837,0.0016680409480080104,-0.00028902840948308306,-0.0011012763536477
1691525125.4485002,0.05332792359723816,0.03341397966794659,9.806568793126525,0.0016781111884236761,3.0944018725091804e-05,-0.0002273254615197
1691525125.4589925,0.034045160889549,-0.0712781595603576,9.777568176137937,0.001772699054629935,0.0015408083858153428,-0.0029121676745767
1691525125.4684794,-0.016541958999580435,0.11936423877317348,9.883646331506483,0.001027278157400014,-0.00022496419706605867,-0.0004247731815035
1691525125.478644,0.05406303470315018,0.1708332743113494,9.850979509835636,-0.00021433566698410744,-0.0008374040527158867,0.0039982665509974
1691525125.4885018,-0.038296477031919816,-0.2363817756652045,9.750676718946647,0.0028497001787241715,-0.0007058829299371769,0.0011141636093902
1691525125.4984946,0.042252741792651094,0.1100840550340869,9.811616380662114,0.0004107584493433131,0.00016842016584952171,0.0009804105100279
1691525125.5085251,0.04161636647293874,-0.08681463757921648,9.77781881216776,0.002225708018415954,0.0006910953180507139,0.0008761197566577
1691525125.5184977,0.003741295207431939,0.20643135596454532,9.887702125412861,-0.0026067243821864187,0.0007894227080565648,-3.1381361832709224e-05
1691525125.5285258,0.0759679994094303,-0.1368244737971673,9.738831208976805,0.00013061513706057106,0.002218457616755205,-0.0003990385268757
1691525125.5385897,-0.16222524479077705,-0.03473046025937229,9.878537627456321,0.0011822614623403153,-0.0016048035998440006,0.0001332796125729
1691525125.548696,-0.07061076564355903,-0.01067225889927684,9.853715517025474,-1.764918216630651e-05,-0.0024623687561427595,-0.0027169415081793
1691525125.5585594,0.23565032421661453,0.10624517905990877,9.734570184478699,-3.441350325812684e-05,0.0006709622756245413,0.0011175012075632
1691525125.5685012,0.09104551822822446,0.0446778803105765,9.783793531540393,9.222933587814683e-05,0.0017587529667729166,0.0028735989651699
1691525125.5784795,-0.07565309298401637,-0.14211094691363035,9.826197999509674,0.0016065690942580113,0.0006411640749008084,0.00066858322295
1691525125.5884745,-0.060408917045423734,0.04053156557237363,9.858395677123115,-3.851511389104002e-05,-0.0004667387148611564,-0.0007987855753804
1691525125.5984647,0.10889928251421555,0.017981476923776402,9.772253258120712,0.0006633331681571807,0.0009004410782214948,0.0007699353043512
1691525125.608575,0.00028177301794824524,-0.040712791405874194,9.809116099541598,0.002049887233653996,0.00029805670156999014,0.0009614192129169
1691525125.618487,-0.049466528918994265,0.08493173769070632,9.86675068161009,-0.0006144422791354355,-0.00043694211169939887,-0.0004936854640896
1691525125.629901,0.06704016556624148,-0.029305819089646253,9.7634886563142,0.0017224338915928805,0.00015724113992934808,0.0024008652142306
1691525125.638644,-0.07635023557592908,0.122703879131956,9.885658661630789,-0.0009437613733186399,-0.0010657689029538,0.001562675013492
1691525125.6485274,0.10113061106935706,-0.23226672413718835,9.686122953609237,0.0025568795119508413,0.001767327441799298,-0.0012443281996006
1691525125.6585114,-0.10418594119924059,0.23565773048849195,9.95308454951418,-0.0010342782758525845,-0.001533663480057376,0.0010355445736145
1691525125.6685607,0.1382164682757213,-0.012873763724310594,9.738378386213517,-0.0021109119651531935,0.0018321369692341051,-0.0008848355903233
1691525125.6785836,-0.024806811509799635,-0.10441315724466643,9.786405440209135,0.0010038194005891096,0.0005290277450065784,0.0005512364039254
1691525125.6885722,-0.0213080448293858,-0.062116051007157606,9.804250844646315,0.0010809347409753871,0.0006724874820494635,-0.0018105497403944
1691525125.6985488,0.011746773459793242,0.1918226612306922,9.885861944130415,-0.0024115224496237277,0.000182559466582184,-0.0006188768713677
1691525125.7086194,0.021682752022946734,-0.15499948663250845,9.749544336242694,0.001668781055432612,-9.048498652573682e-05,0.0010504306153684
1691525125.7185895,0.1942308166281471,0.12153303538149249,9.754247875122985,-0.0008193249496054696,0.003667216767790488,0.000931253354583
1691525125.7361598,-0.05028527199765282,-0.09618578683202032,9.806158252880541,0.001581233137742638,0.0017032470657325118,-0.0010051710816974
1691525125.7403696,-0.18827937648892334,0.32054971734161813,10.034127241186034,-0.0010897988263774581,-0.00024396844619620144,-0.0005041167425865
1691525125.7484832,0.0006708876828097625,0.09997135819865477,9.839296368673837,-0.0015789238694248553,-0.001082908146148377,0.0014628346141484
1691525125.7585304,0.049544673749198256,-0.11308387231960164,9.75208998265216,-0.00032647152910127695,0.0004884178522149022,-0.0008416303719336
1691525125.768505,0.10165412716500154,-0.04584702996033013,9.74195163520711,0.000548234443328275,0.0024147717447881253,-0.0009533727827424
1691525125.778535,-0.21327226402520658,-0.0523720350187754,9.92014532237878,0.0007102583960740153,-0.001979178555727938,-0.0026450499246771
1691525125.7884903,0.16112929016325248,0.15110276046144724,9.78258971043926,-0.0015617852577436801,0.0005379744393459747,-0.0015110601491237
1691525125.798485,-0.07141326609418137,0.054417155685523556,9.885284917913623,-0.0020226027442185397,-0.001696472413647571,-0.0009522714937979
1691525125.8085468,0.10690036244685908,-0.19321013951673524,9.683394908753815,0.0024857465905647738,0.0002380781232194198,0.0002416934765001
1691525125.8185172,-0.15364587575840127,0.09546983494007563,9.930852910913838,-0.00042631772025749205,-0.002747003032350523,-0.0012029756146425
1691525125.8292189,0.18839582149571146,-0.02393781412505269,9.718136930366665,0.0006908872384409625,0.0006959378479442746,-0.0003074087255577
1691525125.8389082,-0.07207815004935156,0.03868337899510365,9.859543539925932,-0.0008278859597989536,-0.0006094218726809787,-0.001491321232816
1691525125.848483,-0.031137666132362875,-0.0897528677556315,9.812628478442493,0.0017265295933820617,-0.0022034718770938514,4.089078335663566e-05
1691525125.8585303,0.09451459790410566,0.1296089604580313,9.800475025749458,-0.0018799174947332505,0.0001039745978287897,-0.0015200034069771
1691525125.8686178,0.13988848250503302,-0.0029425195897445837,9.738227473391872,-0.0004546551745014471,0.0017553978229745497,0.0012389348901428
1691525125.8785472,-0.12829919511405125,0.01701010339257744,9.89355496519284,-0.0015114951436894187,-0.0008128252936956479,0.0001060837128256
1691525125.888596,0.08803483933733183,0.004748988695306359,9.778976147693664,-0.0007575013690090861,3.356435093018102e-05,0.001649466739554
1691525125.898554,0.012031050311571055,-0.026749919531841804,9.79699224307223,-0.0010912877084937305,0.0006784165709689637,-0.0003219459724555
1691525125.908681,-0.04672134070590057,0.038635059147626646,9.861875682482669,-0.00213361431426868,-0.00041870304712124146,-0.0010517488519603
1691525125.9186409,0.0033630220125569145,-0.03972364550221133,9.79966787365924,-0.0008022011387929349,-0.0008724254951588257,-0.0005518002255762
1691525125.928627,-0.021235881307525135,0.03791691710598755,9.83755374981976,-0.001377755284800136,-0.0018499416251564747,-0.0003480295238027
1691525125.9385457,0.09992624120879211,-0.11823828696434005,9.72723347617122,0.0016736294277777924,-0.00023092981489644562,0.0002442922157292
1691525125.9484887,0.0857279733972178,0.08981387040954876,9.795094063872627,-0.0006144646854178233,0.0017661877022552006,-0.000763422093069
1691525125.9599795,-0.002896025321770239,-0.04340344720699617,9.807670564706111,0.0015685688844273395,0.0005234552780110248,0.0015444125053995
1691525125.96851,-0.04753400822187263,0.03356439401707785,9.86374692875552,0.00027478406356322226,-0.0003106483364029073,0.0002949630904999
1691525125.9785106,-0.041095046049481374,-0.06083609539553889,9.816014607427903,0.001203138142574366,-0.0011361620540015051,-0.0002530129679421
1691525125.9884987,0.1044274992758499,0.19876873473284404,9.83263870399281,-0.0016493230172790914,1.717163841064216e-05,0.0019530890456458
1691525125.998521,0.026189450775784887,-0.1220012839513136,9.768140043270527,-0.0008174668543631037,0.001351202862836556,-0.0013460363081599
1691525126.0085402,-0.03224086863098417,0.13531968587687387,9.880728760197908,-0.002229732417878032,-0.00036504422071997124,0.000951356476225
1691525126.0185769,0.04219119196261905,-0.14267231914512096,9.742799933083967,-0.00011710940792259981,0.0009742018506326004,-0.0011321904423589
1691525126.0340114,-0.0753115042526249,-0.005431934494072439,9.844269308774848,0.0008354435369278265,-0.0022060708854241247,8.857740955999383e-05
1691525126.0385652,0.3847807815555966,0.1271631971285499,9.652031961028056,-5.0831210532291275e-05,0.001176865269325462,0.0006194403574859
1691525126.0488107,-0.07987619827263666,-0.13108345072461733,9.815866704898998,0.0013391129957682354,-4.356163906865635e-05,-0.0018291931885237
1691525126.0592053,-0.011778053233348004,-0.004462963941537002,9.823562465135513,0.002050993022550816,-0.0008712907325983168,-0.0010495008720959
1691525126.0685833,0.11304969518025125,0.06603900973631943,9.78462605877938,0.0017511279535388443,0.0004154083739534269,0.0004987408354004
1691525126.078546,0.05496066033275072,0.17035518388501036,9.850812346874651,-0.001504424761917938,0.001090426993748546,0.0013223919047682
1691525126.088693,-0.060044563886092354,-0.018418471589428814,9.839528144975649,-0.00155657933990642,-0.00025142562054193413,0.0006801426823308
1691525126.098741,0.06837211380484025,-0.025927598097437957,9.776087303121761,-0.0010376343368114851,0.0008669126771554669,0.0008686522958391
1691525126.108576,-0.008529043440304593,0.0427692827609097,9.841799687905766,-0.0017201104326184738,0.00031407662169701835,0.0008872722862811
1691525126.118582,0.019952213284480973,-0.14360530304291746,9.744808864958362,0.00018794437592169305,0.0013668349862327898,-0.0015408936708177
1691525126.1285625,0.12110120516367623,0.1736422030489536,9.822663910697477,-0.0004036010331329938,0.001712184823819646,0.0032219083693867
1691525126.1386058,-0.17449783580696987,-0.10679762711087518,9.86287803707851,-0.000514253092300816,-0.0006809402113160544,-0.0008677129919583
1691525126.1485336,0.10999578575544296,-0.007267050677718286,9.741517397007806,0.0005836139620546689,0.000977923412428096,0.0007267103826684
1691525126.1585977,0.061936786926723816,-0.0065695582272364845,9.768151298312947,0.0013387219966197442,0.0019155851752527709,0.0017522947344054
1691525126.168519,-0.17203812494215998,0.08019988707080988,9.945381213481122,-0.0011065433151681426,-0.0014092453786927089,-0.0001483582711721
1691525126.178517,0.18751412043346705,-0.06556276457129193,9.707708057376587,0.0003816856310074581,0.0021692793287792322,-0.0002098185761774
1691525126.188516,-0.11667770839319914,0.09602101798729679,9.914108035853314,-0.0015837714612287033,-0.0006004809698835988,-0.0002552646730969
1691525126.1985214,0.000322959991518335,-0.06790390261301217,9.785118828120838,0.0009304340958549478,-0.0014904507780281275,0.0019463788664956
1691525126.2085507,0.10822371614608826,-0.052753592699217276,9.737744718983047,0.0008645047072260763,0.0013232525148687262,-0.0001021669997776
1691525126.2186377,-0.06001464128966993,-0.010925827187135707,9.843464620836455,0.0010418234854079043,-0.000243223552451389,-0.0003454217041785
1691525126.2285695,0.0882568369766719,-0.005495667200920113,9.76775615139245,0.0012466982753169687,0.0013780308960944705,-0.0004504776845628
1691525126.2385688,-0.05641759174421727,0.13102980474540932,9.887681026053109,-0.0009679778342986455,-0.0003609451486883721,0.0003713231597152
1691525126.2486217,0.011989265927106764,-0.12040105928051223,9.779672454589432,0.0010876444691328112,-3.4974464487090596e-05,-0.0002936377243081
1691525126.2585351,0.05847373673292672,0.20658490126390894,9.854502690706415,-0.001808772952182856,8.348324525392711e-05,0.0020503119628933
1691525126.268674,0.11230510532104732,-0.21626976780466461,9.683180193749623,0.003291479522614269,0.0021164142378030174,0.0027331892813613
1691525126.2785406,-0.11287257610682541,0.13628491964365033,9.924864998566484,-0.0008908733715849676,0.00028912985453123197,0.0003258845133764
1691525126.2886229,-0.005590462822828508,-0.12279064019501772,9.782552604347408,0.0013755967152919472,9.838785059983654e-05,-0.0005138169328624
1691525126.2988358,0.08103958203128747,0.04756908474043343,9.793860774260647,-0.00041740867241902793,0.0018533760834597327,-0.0017528349819535
1691525126.3086584,-0.09006702183787085,-0.04317381188731398,9.844263248418965,0.00018094054902843647,-0.00015044352387703558,-0.0022952174588049
1691525126.3186562,0.07248901784825854,0.09958522298907518,9.816164287452466,-0.0005529920714212737,0.0003520788439480231,6.770984670719394e-05
1691525126.3286555,-0.0037383990479913517,-0.16748155542503407,9.767015647043356,0.001627032275876045,0.0005801115106531832,-0.0024233818805719
1691525126.3385892,-0.006370335126109682,0.06791614772952641,9.848788746794526,0.00018014322590978406,0.0003300934275548878,-0.0030093823845441
1691525126.3486202,-0.07109104166746112,0.08120578420829146,9.89152431446548,5.648864468787354e-05,-0.002619578662182432,0.0002167298405488
1691525126.3585737,0.16910030550758015,0.001941473007989711,9.719014848128358,0.0004882355537928027,0.0004202567477075619,0.0007032509490904
1691525126.3685925,0.03893605353697422,-0.033008295801043815,9.788667268408954,0.0013759956933934142,0.0008356031275373697,0.0013060138114901
1691525126.3786583,-0.0882573008644139,0.12428528270402629,9.896644618090864,-0.002616790342878773,-0.00026593727546638153,-0.0012145230832452
1691525126.3885484,-0.007103201751883779,-0.17293975251088228,9.75436037505338,0.00043422249524417803,-0.000209727121580657,-0.0024979109696055
1691525126.3985882,0.0630647168468487,0.06116139563710372,9.811059737771156,0.000877918675280653,-0.00012923371312911888,0.0004339038457778
1691525126.4087634,-0.01582937028588775,0.2654466828741952,9.911656035714737,-0.003533962038794765,-0.001455824177016922,0.0029384161059801
1691525126.4186416,0.11433122379354058,-0.2825695871544191,9.661107449239065,0.0016751327450405338,0.0011116525890542686,0.0016472560416964
1691525126.4286096,-0.0655534805631338,-0.03791246217177624,9.835614986977943,0.0010451488924545956,0.00041356643999778964,-0.0012178835279251
1691525126.438654,0.04293525224384723,0.14056258146688264,9.844995763578968,-0.00023596868220307623,-0.00010538514854735769,0.0018923700734098
1691525126.4486556,0.0034984811674599577,-0.009132356838892219,9.819200952855482,-0.0007630990480170797,0.00016283190943322816,0.000282652635878
1691525126.45856,0.05942755490504942,-0.05457928607956657,9.770886132913796,0.00033475057116712925,0.0012521190191757074,-9.3949009379239e-05
1691525126.4686954,0.01537718821664763,-0.03961489778640516,9.79776474111375,0.0017794130225561703,0.000902691554042813,0.000968870113656
1691525126.4786785,-0.07168303095584232,0.04600351597279174,9.868540281242717,-0.0003708088153663839,-8.677314111933168e-05,-0.0009533930390084
1691525126.488563,0.04524760173535052,-0.20354217220745208,9.731624608232236,0.0029342629705105235,0.0009239045588552224,-0.0026666640589887
1691525126.498561,-0.05319619582082545,0.10567144138583756,9.877424031703622,0.0016475285597088482,-0.0010754659422995163,-0.000788385263359
1691525126.5086112,0.0729442206528522,0.20199824890993281,9.846636937181612,-0.001041738044485226,-0.0006705203442654029,0.0016405338426643
1691525126.5185685,0.004686947432879072,-0.05325688791785711,9.808410974800221,-0.001609109398545986,4.548488271207523e-05,-0.0017040287896002
1691525126.5332844,-0.05338505714025833,-0.11238076141042097,9.80380473895421,0.0018464704610481931,-0.002124862141859912,-0.0014738270367438
1691525126.538566,0.4292737599911083,0.08590788093306567,9.60628158209698,0.0010540963834904942,0.0025034540883546183,-0.0011556474312151
1691525126.5486207,-0.14694257944150832,-0.003553263529690204,9.890869648498072,0.0010455526596616015,-0.0009610792996606177,-0.0011709423090274
1691525126.558626,0.005329161704747122,0.07154365285234246,9.831700605223059,-0.00018007684617543147,-0.001123878494721438,-0.001030872790789
1691525126.5685558,-0.026832983034197906,0.1562380204671763,9.893343940347453,-0.0026231217100303604,-0.002589790551715914,0.0003001832117383
1691525126.5786164,0.20876128113680414,-0.04570277236848381,9.69338401670856,-0.0016273526791130899,0.0015847743199704203,0.000460365572298
1691525126.5886445,-0.14648185874536557,-0.13812344115018435,9.86275810936704,0.0009002581500759156,-0.001823847852496183,-0.0001658666699136
1691525126.5986152,0.15015882055067312,0.10828680164065264,9.764220696366259,-0.0009880987490284727,0.0010222581125409439,0.0001746115920191
1691525126.6086333,-0.0895365003338336,-0.12086684005422652,9.821416869541993,0.0013264190395909418,-0.0008221260411305693,-0.0002247349877784
1691525126.6188395,0.07683247860525613,0.2093511975804852,9.852613184754563,-0.0026782697331284746,0.00012631223034211705,0.001051210539817
1691525126.6286578,-0.09941065032771662,-0.06839850017363455,9.837352854865866,-0.0016213879110080888,-0.0018138097424540978,0.0005862756113578
1691525126.638631,0.22008503768122611,-0.2004208130813064,9.64406666619685,0.001979089200157079,0.0027757515149990745,-0.0008464825625474
1691525126.6488357,-0.01663303244757103,0.03632634436150823,9.833151209575947,0.0009013295703938445,0.0023250015674676342,-0.0014313647809381
1691525126.6586685,-0.07426271497695343,0.06000424780811088,9.879894257721253,-3.705963080877263e-05,0.0003666116391528327,-0.0011072549789155
1691525126.668711,-0.03703011528770564,0.01778397955463483,9.837011895430615,0.0013115323200416438,-0.0016141175011924046,0.0019668657512461
1691525126.678589,0.11708739042727048,0.0394466931437472,9.781098458734535,-0.00018083940775224836,0.0008877798360382191,0.0009539599884824
1691525126.6886566,-0.13252709805607937,-0.008740319236285314,9.872451221613431,7.921091859645648e-05,-0.002042529854084506,0.0008355067000315
1691525126.698616,0.1272243125034016,-0.10254507019421862,9.721069033090295,0.0012336704135041527,0.0009604172043309989,-0.0010468920047337
1691525126.7087128,0.010515782246967208,0.03424586328153065,9.822729600630007,0.0009862899665052437,0.000647137561742567,0.0001492863700782
1691525126.7186508,0.16062129523538318,0.0443571314729934,9.73180583161315,0.0004029316326456529,0.003627353817028939,0.000569887535466
1691525126.728716,-0.24266586364442824,-0.10218460693907148,9.90479543535978,0.0028016438945034612,-0.0016562056457857881,0.0005717391793673
1691525126.738621,0.12079392377569445,0.11939529304417716,9.79786489543181,0.0006774814769771212,0.0004157841075626964,0.0012303736819098
1691525126.748593,-0.13815948510243636,-0.13740558226372382,9.846039320978113,0.0018189027346770168,-0.0015560157124372466,-0.0020493787999207
1691525126.758618,0.1730370833610963,0.09461768333563907,9.756931211963327,2.4804157400614598e-05,0.0017751156598289086,-0.0013930122188235
1691525126.7686553,-0.010813029716068095,0.009169942482022624,9.823776232738915,0.0001473644423029549,0.0011902780044831707,-0.0007034154661873
1691525126.7786815,0.04530889557008582,0.04033763298378778,9.80795024665324,0.00010565180757751095,0.0013571606546182364,0.0008995576534011
1691525126.788951,-0.1865857455399036,0.02514797009485147,9.921521709816174,-0.0014030802245074935,-0.0022414614954479545,-0.0011824944342429
1691525126.7986364,0.12743163351841788,-0.09624918350280011,9.713022242439791,0.0008850068067424075,-0.00015492609018611604,-0.000622182484431
1691525126.8086236,0.004441155838798432,-0.034288860519327856,9.801362942687543,0.0017716060316836884,-0.00043357358919624304,-0.0001349270862469
1691525126.8186207,0.03737724543598375,0.23080770580000212,9.872927370094073,-0.0035425262294794158,0.0003796375934980914,-0.0007831416844333
1691525126.83728,0.07155935768394267,-0.04918370124240304,9.766350259799069,-0.0007020057686314891,0.002108552358596481,0.0002469027129059
1691525126.838549,-1.2317391934819244,-0.12900209102633123,10.42668307863451,-0.000363736214654225,-0.0012132682541125784,0.000297208916681
1691525126.848581,0.06778270863167346,0.15250469283031406,9.834399321710244,-0.0030138972409463373,-0.00042911850073786765,0.001296698857704
1691525126.858571,-0.10049172108581468,-0.1837357203124102,9.811371361775635,9.85774484029012e-05,-0.0023155958516706417,0.0002077775023003
1691525126.8685637,0.14216275103919435,0.07017612302579866,9.764394983139008,-0.0009601447943694048,0.00017699307762429668,0.0010187727782699
1691525126.8786323,-0.06884443329148048,0.00633902726888908,9.858667561889426,-0.0017905287354616152,-0.0010627890550431191,-0.0003688877734298
1691525126.888612,0.13062690696722665,-0.07408559904497501,9.71036882166391,-0.00012233021396598306,0.0017367843605297078,-0.0006914696243534
1691525126.8987134,-0.14352274787052322,0.002999969439011186,9.90575557741075,0.00010378080903004832,-0.0019877683416406034,-0.0002813510184119
1691525126.908694,0.10234468023537115,-0.02927206372797094,9.752978247783822,0.00043645641974656313,8.572752056444658e-05,-0.0005357676238695
1691525126.9186416,0.1629707783328978,0.04976806936488433,9.744467632857837,-0.0004926351443665113,0.003146409478109687,-0.0003856760269905
1691525126.9286408,-0.12893565986513536,0.004172507489787451,9.893412510237727,-0.00028289169441995504,-1.3001798949908639e-05,-0.0001692131447548
1691525126.938634,-0.06499098313284242,0.08227612470540324,9.881278940391963,-0.002844021383869022,-0.0010214213958703124,-0.0019525107747817
1691525126.9485974,-0.008982218618363067,-0.129543978725126,9.782087513905463,-0.00023595135673118493,-0.0012822070895496262,-0.0022009885690117
1691525126.9586704,0.15416665337685764,-0.004218914014637867,9.731335603082515,0.0005042357535128914,0.0013560641486423234,-0.0015650787210966
1691525126.9686954,-0.01939301729143952,0.12376385891223157,9.869017577498337,-0.0010853225616028173,-3.3724276552160553e-07,0.0006142130767052
1691525126.9787085,0.048660128523224586,-0.07669786429527037,9.767623687544368,-0.00046506356056203715,0.0012774451455363801,-0.00170924489451
1691525126.9886992,0.008192839778289291,0.04939276736799459,9.827392871277231,-0.0007113126127983886,0.0008114067176322676,-0.0001028994849825
1691525126.998655,0.008005421246219308,-0.12975394676569002,9.776950406246456,0.0016486773364246985,0.000946242411850184,-0.000872194749018
1691525127.0086863,-0.03480049217416823,0.1414700058046353,9.880497545262987,-0.00042969020623805814,-0.000567322823768943,0.0005207145766412
1691525127.018888,-0.04033854561211773,-0.08673828955367156,9.807465462356525,0.0011211773331326795,-0.0014874709127499096,-8.193130547713354e-07
1691525127.037945,0.02310332704985646,0.03655373847464489,9.810058153829974,-0.00021621351536527854,-0.000986794601510452,0.0002238010236119
1691525127.0388927,1.5060923452145865,0.34112170502231387,9.11591438066314,-0.0012253854472938938,0.002221803985786707,-0.0004053950362781
1691525127.0485787,-0.06250168548613302,-0.09369192840087627,9.823052318650129,0.0009911562658566015,0.000507051991102536,-0.0003044409497583
1691525127.0586271,-0.11670686466728032,0.1354992946135312,9.920157373540682,-0.0020442130136901805,-0.001968415890641219,-0.0006315189932415
1691525127.068601,0.03793670935326765,-0.18391371760527636,9.732484647227613,0.001666551264079277,-0.0014170579864503647,-0.0007801619178558
1691525127.0786772,-0.05235005807825081,-0.021278534941756206,9.84093238999812,0.0018628482444178363,-0.0025674274880776514,-0.0010338856193179
1691525127.0885918,0.1394230230515303,0.11287272370363546,9.792763135332569,0.00040292725645825077,-0.00033896148320043825,7.814636389365682e-05
1691525127.098591,0.04765662685755087,0.07544348996002598,9.82826518842356,-0.0014228422828071756,0.000381499344161084,-0.000783137959143
1691525127.108632,0.11064051268781147,0.000902261955638635,9.764273123337317,-0.0007183758849268103,0.0018608240027680357,0.0001753872673084
1691525127.118704,-0.08917087427076845,-0.002506513429031189,9.872078502905982,-0.0005533490810475744,-0.000517032314955994,0.0002029434724768
1691525127.128625,-0.09431103115315592,0.08489213758116163,9.889441672562201,-0.0028682534141305717,-0.00222545871322282,-0.0010200629296655
1691525127.1386447,0.07443534458836149,-0.062342556887488604,9.749153217182934,-0.0009862261915091232,-0.0012956208822454173,0.0004577490797323
1691525127.1486554,0.161493802176798,-0.12479121099229828,9.691314400863886,0.001259371949993691,0.002253846678896688,-0.0003919695557037
1691525127.158665,-0.1384048691438784,0.08089651075375338,9.927254006005024,-0.0005782974605195296,-0.0011115775369245524,-0.0005950104498247
1691525127.1687038,0.12977334974509874,-0.0003937006192002955,9.75059948154338,-0.0006755160524702817,0.0014316604295677385,-0.0008714196558053
1691525127.1786633,-0.07179034085495432,0.027021109406338843,9.871133719680099,-0.001436243170019453,-0.00020002549191062098,-0.001357218232652
1691525127.1886158,0.06208072909193212,-0.11255333897966303,9.757721754951575,0.0008890895787286623,0.0008214503889669237,-0.0015457179217542
1691525127.1987436,-0.05842786928621395,0.09629241691823502,9.882155285969905,1.587439129909312e-05,-0.0014885824688803183,0.0005303943942358
1691525127.2087502,0.08127079681738643,-0.10291325540948539,9.730526419630676,0.0017093850143650722,0.0003766782825967532,-0.0006780827936659
1691525127.2188432,0.16421858683222618,0.0823979387164562,9.745952433711436,0.00047110550268981825,0.003448160549658494,0.0003239852556084
1691525127.2287035,-0.1657105237380087,0.022492831902942677,9.93194316380775,-0.000246763843544189,-0.00027078585455447,-0.000399059598049
1691525127.2386978,-0.02231626161433217,0.08596864361191331,9.858896158348882,-0.001841167063568119,-0.0010002168270491494,-0.0004311053601036
1691525127.2524652,0.0838348551591685,-0.04876623489979548,9.757333796199136,0.00017345511774462697,0.00043589607806626473,0.00043167635501
1691525127.258623,-0.07042751203341907,0.013252450892876548,9.852949023275581,-0.0011631961252030897,0.000238441900774674,-0.0018109525374079
1691525127.268752,0.06811423064851871,0.009280220655004542,9.789694117615179,-0.00035181587718528627,0.0007644673840137707,0.000343009905709
1691525127.2787025,-0.022708268867412867,0.0811147757155093,9.849378226959844,-0.00244619296871417,0.00055507839271066,-0.0005860904750356
1691525127.2886903,-0.09038257251876851,-0.141277679273675,9.83983361794142,5.238253287485796e-05,-0.0014248911710810623,-0.0020273900411034
1691525127.2986565,0.1272717217855034,0.025066721102052388,9.754594252476831,-0.00019462235557112198,0.0007395071919879074,-0.0014324616461003
1691525127.308783,0.14452062437930183,0.09449858077663657,9.75415233464255,-0.0011713866500079292,0.0030383845028741393,0.0007513506168556
1691525127.3186927,-0.13021201067892976,-0.17162601860837726,9.825427227744354,0.0019317837947754656,0.000509297344732454,-0.000607306934608
1691525127.3286617,0.022218999431193577,-0.01104041185534226,9.80082899377907,0.0017015429206321093,0.0012133938296469992,-0.0021119448176527
1691525127.338905,0.022126896014697302,0.09266978715911185,9.83840782917717,0.0007530877948838912,0.000708597713586481,-0.0001200527005771
1691525127.349212,-0.03474582656204182,0.17636942824327848,9.890642917041808,-0.0029982576902156826,-0.0003728683219597174,-0.0003148739744851
1691525127.3612757,0.01378975001147059,-0.195190225447036,9.729441343516358,0.001682942063822874,-9.644390002660579e-05,-0.0007294975041354
1691525127.3686252,-0.15539107642777983,0.11240774172465186,9.931374140972066,0.0008496048003533164,-0.0030539443004341258,0.0007375243183282
1691525127.3786376,0.12611897870307318,-0.015724033135330162,9.75126360687654,0.0010857848061531497,-0.0005446067551079381,0.0006835041165409
1691525127.3886838,0.0037979818255419674,-0.0022563292419867666,9.821390232365072,-0.00043714740549432153,2.949008267762267e-05,-0.0021506864397729
1691525127.3987658,-0.05383471368213703,-0.00965134364693255,9.83967711498947,0.0010123923895408093,-0.002253015767516221,0.0001492976623644
1691525127.40876,0.00624647756805007,0.17798970746339904,9.885441142898205,-0.00299490321584978,-0.002510055541138343,-0.0002392630378658
1691525127.4186676,0.2115808437401742,-0.11991133623847859,9.651867922239381,0.0013361069175181312,0.0006590545295247996,0.0028918541682009
1691525127.4286609,-0.02531748807805865,-0.1906476801650884,9.770852902702623,0.00289476406255722,0.0013203118962101191,-0.0015944998997206
1691525127.438733,0.01937434298040526,0.10819061060165656,9.859507052009482,0.0017596859177822933,0.0006631432283097257,-3.9191898604721935e-05
1691525127.4486265,-0.026192254152994508,0.09320515027884149,9.873153369096602,0.0005575278275312228,-0.0006369938428882901,0.0008421921700296
1691525127.4587207,0.07414577009989769,-0.07109293330410638,9.758051398711629,0.0010459139228618341,0.0013102363662902234,-0.0009064373846108
1691525127.468643,-0.0974692015516648,-0.000682502280020979,9.851115769905487,0.0010164771880222265,-0.0005487099970397407,-0.0009489361948276
1691525127.4787412,0.043798018287970475,0.08321141045654432,9.822464095907556,-0.0005339712705744297,-8.378542560489319e-05,-0.0001826291956881
1691525127.4887,0.018096403991373973,-0.12348405593602743,9.760410728133142,0.00037721564198650256,0.0012003171076151037,-0.0032433334092552
1691525127.4986663,-0.07308762033681224,0.14196178183607736,9.918361611595401,-0.0008212010503002054,-0.0018514217224349437,0.0001768662075569
1691525127.5088177,0.2560191143777841,0.01965273011018276,9.701005370968875,-0.0012358008628229995,0.0030767659978903766,-0.0004452453979233
1691525127.5186615,-0.1857185082118067,0.20138838814832205,10.014119396965159,-0.0023031040140071434,-0.0024176900218798167,0.0008962203462665
1691525127.5286703,-0.18138748619583325,-0.5624353560499088,9.686993748197578,0.003333326116378236,-0.0013714668368852683,-0.0304546912486607
1691525127.538646,-0.4139984651001027,-0.5353115468635097,9.767068386190966,0.005885485401591697,-0.0035355415893337573,-0.0743047480757291
1691525127.5486865,-0.04486187070008434,-0.1003823410847872,9.823153436725125,0.00310977736688855,-0.0006196851923043014,-0.1089167331631238
1691525127.5586572,-0.12510294421574608,0.061418574223943534,9.692164807317763,-0.0007743172949100993,0.003338296105608783,-0.1257703115518147
1691525127.5687606,0.9101953546903582,0.08546844004744895,9.70486389811952,0.004909338014744436,0.014636002801173978,-0.1054514234240109
1691525127.578711,0.5615966785963212,1.0293730911099235,10.036913088317954,-0.004699455971850102,0.022701776554603526,-0.0884353776748235
1691525127.5887103,-1.9537815967838124,1.5193765076817871,9.863064067914655,-0.025136075915095302,0.01272524961855971,-0.0758602877433354
1691525127.598711,-1.0726194550264272,-2.2906851691396675,11.370767465089472,-0.03319996752777285,-0.018269105106626393,-0.0973767002399022
1691525127.6092684,-2.7606151865235504,-3.7565982080125435,9.216724627321211,0.057307139529166655,-0.054143531584140085,-0.1179948260362202
1691525127.6187468,2.9028248930536344,0.30482902815098334,8.833241772951192,0.024042472904987462,-0.01349604701700681,-0.1482718249137456
1691525127.6287696,0.24803629043643477,3.6530022392503394,9.062442116270123,-0.010118869332031991,-0.004748636834041199,-0.1590993662650639
1691525127.6386757,2.3533358885749607,0.14397471579160898,9.979877356124,-0.030038016261771435,0.01987408359475561,-0.1575799246604497
1691525127.6486566,-1.3523179000083414,-1.7457636058828743,10.255682888491744,-0.012711196375166848,0.0082258043234342,-0.1536422779138142
1691525127.6586869,0.6681670848744862,-1.4075020555459266,10.023700730661789,0.012679159275622232,0.01040587432878748,-0.1566914131219441
1691525127.6687934,-2.0214849655689635,-2.1943827746403644,10.289884361917874,0.03771399172171198,-0.014040420937332935,-0.1943296601350362
1691525127.6787658,1.0272998344452806,2.0403610651307638,9.372931666085979,0.00929814696974234,0.001393135030432501,-0.221546333032375
1691525127.688647,-1.2615617784318667,1.8548671709856228,10.32978286955151,-0.015580515973558943,-0.009161382017118417,-0.2388528992707783
1691525127.6986492,0.910340244467641,-1.1363684160917358,9.07756354717064,-0.009972470591239051,0.0028143627023893337,-0.2568317015941198
1691525127.7086997,-1.1821675910582552,-0.7588602214190743,9.950396700304626,-0.0021864049802506965,-0.010185771504400401,-0.2677522857959325
1691525127.7194328,1.2610059915168474,-0.2546695978999981,9.463771237886109,0.001749004934938247,0.0017574588666760314,-0.26260807712627
1691525127.7286549,-0.9009401696312263,-0.24396580664798276,10.376180070872827,0.002455625245665594,-0.007905124824097744,-0.270226325588947
1691525127.7388036,1.3216103728913497,0.41688561444546746,9.684355436918406,-0.003847534853093821,0.005123257071774022,-0.2650278170878942
1691525127.7487457,-0.8401740244867116,-0.10700945473595137,10.031474474469373,-0.0028123710660111676,-0.004318766209768662,-0.2701328357036168
1691525127.7588108,0.6539739361598231,-0.2313594487270849,9.553421750675689,8.120189882935767e-05,0.003994543186478694,-0.2793510218436772
1691525127.768847,-0.39888496612009866,0.4286864309041486,9.938104194090188,-0.005495516385368456,-0.00016006867168215298,-0.2845592160995061
1691525127.7786753,0.7350163515442967,-0.003404215418736205,9.366690338694616,-0.005076605477053341,0.007153106751964206,-0.2875913937861974
1691525127.7886617,-0.6276291145409504,-0.14218709333739693,9.929685982792575,-0.004931844741874363,-0.0002718938714310267,-0.2954372723872716
1691525127.798767,0.9616639640951171,0.23503975437209226,9.647757896070418,-0.008756100811260088,0.01049836204131732,-0.285646464424854
1691525127.8087263,-0.655581165605277,-0.7667845509269823,10.171485293800982,-0.00028025508688300186,0.002847981226819989,-0.2877303918178136
1691525127.81872,0.5777526999190388,-0.7261291387825587,9.730454823071776,0.009511512109850299,0.009088186972419653,-0.2895411511237676
1691525127.853664,-0.23240809171681187,-0.036530439361419316,9.776594293487847,0.015767514395668227,0.0072262019679450095,-0.3042872210319097
1691525127.854606,-5.208918140649867,-12.833502544266896,8.57065107828052,0.02571335529180578,0.006052218955046263,-0.3341725130851323
1691525127.8553314,-3.8164978494179596,-0.22883390719247448,11.179715308287173,0.01768927226652124,0.006593924721012755,-0.3525681455905492
1691525127.865214,-0.8647088358507486,1.3540580774110247,10.193619150660712,-0.00653721145872025,-0.003470351705868322,-0.3676944931323583
1691525127.869235,-2.2820583892289736,-0.020875037560658668,10.696606587546643,-0.012531286999533521,-0.01571757006400132,-0.3807802756602819
1691525127.8786864,-0.03427739363184944,-0.6176821558099477,9.760391852463716,-0.006924997015897777,-0.01994071470158991,-0.380991603928333
1691525127.8886654,0.35585672689745546,-0.6140889763232379,9.545475858251352,-0.001571386806999172,-0.013032162675298576,-0.3855598529155309
1691525127.9012623,0.16200908273066011,-0.802096817078154,9.564503528228933,0.0075360312057927235,-0.011805164788047873,-0.3875861426169927
1691525127.908797,0.18450926444848378,-0.03679935376906154,9.634495340577558,0.0116230513134014,-0.008795640922247034,-0.3864941855247075
1691525127.918764,0.230875297018724,0.7823758112300256,10.243304306696112,-0.0005170939102183437,-0.006891297751712785,-0.4068069716270024
1691525127.9287229,0.4741638412489367,0.9010190070836409,10.214008049689852,-0.013550830965427894,7.509905447687446e-05,-0.4181318243320043
1691525127.9386866,0.5816948287518651,-0.184219487654535,10.00209667530539,-0.016151886659775388,0.004737894362435997,-0.4341277440364415
1691525127.9486854,0.8141082836974736,-0.4806436228043849,9.391253407294602,-0.012281142695583386,0.020642199892082772,-0.4481596906955297
1691525127.95866,0.32883915650054196,-0.4041770811095438,9.56351405351674,-0.008730326691242891,0.02392262730816813,-0.458824570971256
1691525127.9687426,0.12484563422269937,-0.25118638511544766,9.45653642825079,-0.008234695181443938,0.02961483494653768,-0.461723591881519
1691525127.9789104,-0.7973275263561008,-1.0713819279922758,9.798169039628334,-0.0009385167726160844,0.02003768243054202,-0.4678304453666265
1691525127.98869,-0.7209946603735737,-0.9738893543062965,9.680484317374017,0.015208429202262208,0.013247159951079245,-0.4591719766433293
1691525127.9988077,-1.3263318853978638,-0.16006724827940047,10.228933866182372,0.017962525244943715,-0.005743080716781267,-0.4573396106536443
1691525128.0087464,-0.5158576567456136,0.7740654744396094,9.978184452265554,0.009592865013168405,-0.011624061792774937,-0.455494846897846
1691525128.0187123,-0.11621430278350899,0.4214468281278069,9.96657876048433,0.0018894025408998792,-0.015714210701105628,-0.4600011368567998
1691525128.0288775,0.47403357081769104,0.010162860445208147,9.51403786467269,0.0008829832567251582,-0.006947792720471504,-0.468615945177799
1691525128.0387034,0.5311730790394877,-0.09865497480232599,9.591263507969732,-0.0020516042171169644,0.0014076235332949455,-0.4730036516959722
1691525128.0486906,-0.41353076136166494,-0.6866558191833445,9.61449180290446,0.007892685789753323,-0.000554396101172298,-0.4755975266273076
1691525128.0588806,-1.0030586318999268,-0.7361042101101539,9.950688301338234,0.016291703058670032,-0.015688833058697785,-0.4776187797362859
1691525128.0687137,-0.4930348093091096,0.38041185799924004,9.848159091302872,0.016077228864148935,-0.021334901299322,-0.4790678282554204
1691525128.078719,0.3687852774687635,1.0954175228945926,10.031316773706514,0.00011084898955712181,-0.0173955907379387,-0.4836428721721227
1691525128.0887158,0.8246898744407708,0.9928581597847771,10.002581048609239,-0.015355853458484612,-0.00899948775516509,-0.4813129862124974
1691525128.0988345,1.107986254967639,-0.2374021377759185,9.630680298895374,-0.013710503601515949,0.00400154831893647,-0.4799930711562688
1691525128.10872,0.4188819411852719,-0.588604230528124,9.499392750642265,-0.004668503624063525,0.010301981171523403,-0.4843035300548131
1691525128.1187384,0.17494030127417332,-0.38951396141636324,9.583321473063435,0.0006590723573815002,0.013714505577126865,-0.4855388363177831
1691525128.1288123,-0.26651306367515515,-0.8972722228584851,9.953897896435539,0.010172728473682448,0.011311718579951176,-0.4882882197673375
1691525128.138698,-0.05531885417231144,-0.6338259963788397,9.857653449972732,0.018351114642321448,0.010861757810267554,-0.4862120409781987
1691525128.1487017,-0.45391562588131606,0.1840026171723257,9.853964240388564,0.020380963400107515,0.010332632275883834,-0.4854360183055455
1691525128.1587996,-1.4019276329847852,1.4257315838100046,10.324529268764136,0.0029778561779921172,-0.007095732874790423,-0.4812142213161046
1691525128.168738,-1.0467770609905633,0.9277933831176284,9.971988813178047,-0.0058180427702619174,-0.020141042975278224,-0.4790122767264897
1691525128.1787467,-0.6328079790094971,0.2553238841625662,9.82509283014358,-0.01213757212690347,-0.029449321541581697,-0.4840016921336705
1691525128.1887422,0.20471360164864974,-0.4186738410626408,9.434088166906305,-0.008403075201850733,-0.025076277169410577,-0.4891843756015355
1691525128.198828,0.4388135268010926,-0.6874667528040661,9.486658509202565,0.0012583197137337701,-0.01939026271837302,-0.4889166017348821
1691525128.208769,0.7097307059243435,0.7777924113129955,10.058719662160739,-0.005259383198553449,-0.009137355377640446,-0.4914039333636815
1691525128.218717,0.8181604980810536,0.8195390307909765,10.158441752931953,-0.017280252912660145,0.0008907719697862806,-0.4899156649882848
1691525128.2287536,0.6361847521640465,0.1929681378466995,10.08086111387476,-0.021881036186724545,0.007708133208338846,-0.4892966111476476
1691525128.2387538,0.3888945298490522,-0.8124035311865249,9.6084632245835,-0.013053392188147545,0.015580807964439279,-0.4995361824805791
1691525128.2489517,0.12857896107823613,-0.024600283247463387,9.651280495819,-0.009627790567430242,0.015323719869921868,-0.496346588927036
1691525128.2587025,0.03715895714314896,-0.23777356905935,9.468683097453276,-0.00741976040436008,0.018364942832739383,-0.5027097125823552
1691525128.2687726,-0.2990682039184812,0.005235184286078065,9.653226714028863,-0.009648818825242272,0.014944639861284066,-0.5061939020927007
1691525128.2786863,-0.04096576655657106,-0.5614197164744451,9.522649362203794,-0.0008708450331294779,0.014970445888581516,-0.5000488420302922
1691525128.2887409,-0.979053626534562,-0.62710800602729,10.12370033245589,0.006031073525430357,0.003288085143907527,-0.5007901449973637
1691525128.2988088,-0.42610130483818354,-0.06935355485535288,10.029783275625984,0.011326458851280571,-0.0018706184756229834,-0.4916111191089208
1691525128.308813,-0.46882897989705574,0.7820036412086887,10.135843426711437,0.0029860772269048436,-0.006932201456436555,-0.487167175608402
1691525128.318774,-0.1878912996557914,0.41468564846643907,9.865770354401395,-0.0009814095680858589,-0.008440220207551329,-0.4898581465060765
1691525128.328733,0.10837789734141484,0.4446173124411418,9.596588646425888,-0.006990273814950595,-0.004172018087916437,-0.4919556041534001
1691525128.3399513,-0.22903030767547877,-0.14904355548921544,9.591056421259987,-0.00406657284316042,-0.007686696696168954,-0.4944693704421575
1691525128.350354,-0.6394244708780865,-0.6660768522843112,9.57555483954509,0.0024713310228591276,-0.014029447550743417,-0.4998941083724553
1691525128.3586798,-0.4490034346547767,-0.3046645039915784,9.70995888239675,0.008320831410283088,-0.01980828115349774,-0.4942615290458257
1691525128.3686852,0.15846789473241557,0.8385069865766368,10.188544189343707,-0.0016418233835632321,-0.02011355601470869,-0.4931768735225255
1691525128.3786952,0.8452425938158548,0.5318458210973238,10.003841104079832,-0.006773072733644572,-0.011326556971895354,-0.4938816686446721
1691525128.3887007,1.1299539820422098,0.49532202568266326,10.014408768161232,-0.015294005976965083,0.0003967366916676369,-0.4915449281508977
1691525128.3987205,0.9651552242294339,-0.39134919096245696,9.547332411108453,-0.010916465134939613,0.014193835902780711,-0.4951904376323278
1691525128.408733,0.5676022641276888,-0.3788692504986255,9.517355399515555,-0.006678389915104661,0.0238044441931572,-0.4955245812709386
1691525128.4187346,-0.33682970664673784,-1.3187537840770815,9.720906221672047,0.010011875647030545,0.02128180943647026,-0.4979279299552495
1691525128.4288735,-0.5462418887799684,-0.5844999449103785,9.844958019303974,0.019361751311641678,0.013367412167256227,-0.4954534431273992
1691525128.447452,-0.26582662784400957,-0.13054472253683003,9.62125850376801,0.02492372821055682,0.012237134734355976,-0.4936647971446569
1691525128.4488404,-3.360933615719322,3.0451114236480223,11.937935199539282,0.015087559609214964,0.005082720279945581,-0.4972996075923497
1691525128.4588337,-1.3165499010761978,1.2367365006394626,10.193224962208875,0.001393974683002348,-0.010936918363455115,-0.4885493179137761
1691525128.4687226,-0.9692213885924508,0.7835649329786425,10.034058399127057,-0.006488374775846869,-0.022418692830487412,-0.485449041920429
1691525128.478751,-0.6681317205798117,-0.124754324729838,9.997632439829717,-0.00678522107773588,-0.031617666573574316,-0.4878152867133672
1691525128.4887493,0.29148100379558656,-0.20829439304013742,9.793052106565778,-0.0027277222095762953,-0.029068087615457056,-0.4908133109386022
1691525128.498796,0.8047860607057058,0.48670763666737177,10.120094379431043,-0.008653174242550273,-0.019179981480902077,-0.4984682460601384
1691525128.5087636,1.4036362839170808,0.5704206527694908,9.851288284011448,-0.017312347807065885,0.0007610756700475398,-0.4993193407828862
1691525128.518837,0.9406209296253888,-0.0742288738197492,9.759501313840044,-0.019505868063515616,0.013550712520512705,-0.4991307516868169
1691525128.528806,0.043953621755698204,-0.6834742422534297,9.58609707978143,-0.010712666742789399,0.014594880708015259,-0.5023755689437444
1691525128.5387745,-0.1913960621683279,-0.2855417219053243,9.488767330154436,-0.006112285074042167,0.011540035661501944,-0.5046146174247319
1691525128.5489347,-0.21533969679105502,0.43477279398785784,9.665322842946921,-0.012236940078657997,0.009341579386405596,-0.5055426617438847
1691525128.5587587,0.011479448213803242,-0.2720516615136937,9.62391650845868,-0.011167754731014981,0.010736544184203632,-0.5073452254111821
1691525128.5687523,-0.4108903321372887,-0.9212171202944518,9.923413959225595,0.0006393586406775599,0.0040426018437705975,-0.5010218282516057
1691525128.5787315,-0.030637093937627632,-1.443714517055823,9.841303836116058,0.017145844436518717,0.004203627546203495,-0.5012282987411076
1691525128.5887108,0.06402027893978739,-0.6909918661548011,9.675131070310396,0.030244005952765794,0.006366478771985021,-0.495407309132343
1691525128.5987556,-0.15502622684853062,0.7453544297015627,9.725357947416306,0.02588491600864361,0.008187143233483348,-0.4933269580180699
1691525128.6088634,-0.8515021160209855,1.3862034202968505,9.92137347308489,0.009896266482055523,0.0007136210825820416,-0.4938830991561467
1691525128.6187465,-0.798913586847918,1.453773281354624,10.052119913138796,-0.00658190156957402,-0.009913705659973628,-0.4904793461139257
1691525128.6287568,-0.5031664242900857,0.24006066722519176,9.909831412092405,-0.010713302499230493,-0.015715236933379693,-0.4932090600307042
1691525128.6387346,-0.2412257898353119,-0.3137445709332726,9.731582172074445,-0.008347666804211661,-0.01834260432898401,-0.4963880737597997
1691525128.6488805,-0.25492797674094053,-0.9206719779496498,9.739431650490522,0.004975333937300247,-0.020665056508305902,-0.501851822930103
1691525128.6587906,0.3896609606816367,0.266461838323474,9.966810965877645,0.0052990487803145185,-0.016511709937755577,-0.5037604232604558
1691525128.6687863,0.8688600030597874,1.0294740204349673,10.087263945634705,-0.005894561288362941,-0.007634965646557752,-0.4952048619563634
1691525128.6787205,0.8826566352164821,0.4231876079864183,9.909538402829458,-0.012710554404573625,0.002150327563209035,-0.4924645086104924
1691525128.6887765,0.5072896988729662,-0.3250325989260285,9.66480959264215,-0.010691158928115289,0.009386474167693936,-0.4957151969249303
1691525128.6987429,0.5989004969448057,-0.548131163139397,9.505684472471618,-0.0028359582468186727,0.017105154949583163,-0.4950793643767888
1691525128.7094026,-0.38097419198637233,-0.8708287743905466,9.72324420579234,0.0086532522963599,0.01310942695589723,-0.4998179932410772
1691525128.718868,-0.1303257926622294,-0.32123856698777986,9.65241239016117,0.015799375077811276,0.011386229072184338,-0.49574115474773
1691525128.7288082,-0.3897410507750022,-0.1776830118839906,9.70765273585702,0.01695705034854999,0.009155202350551664,-0.4957417507941777
1691525128.73876,-0.7162003974000279,0.434562154876351,9.806368778787007,0.01352199838440817,0.0021223489973248707,-0.493780728178745
1691525128.7487328,-1.2747666037982708,1.0062033973331623,10.1643269836748,0.0032068774184026132,-0.013565604115906476,-0.4869160910422856
1691525128.7587311,-0.7893717647472941,0.7758913003251133,10.037711483351675,-0.004391093424022849,-0.02398194945956363,-0.4867731889064366
1691525128.7687545,-0.2605271034611701,0.34952465069697347,9.911588733782123,-0.011988313124429158,-0.025811044315181123,-0.4876310487563665
1691525128.7788737,0.5115681779742056,0.14343348534914505,9.784166534711126,-0.010150356296477255,-0.021640457739565258,-0.4882233401114995
1691525128.788834,1.1746105747106799,0.9069725551488329,9.863971259789576,-0.021253949461902268,-0.004661249185493472,-0.4908815284545476
1691525128.7988887,0.8362933649292452,0.5316549147804819,10.012392663961487,-0.028276728015434016,0.005535603768838139,-0.4925184508140142
1691525128.808796,0.4488533303499271,-0.2626277930303115,9.876024227489054,-0.02764874829488334,0.012523155265491416,-0.4936852415378148
1691525128.8188765,-0.28248438796506486,-0.6451168483081493,9.78178672659555,-0.020178233198742693,0.01023993162672259,-0.5008023043448979
1691525128.828787,-0.24448745084434184,-0.08775481321581435,9.665058800449748,-0.017507415912829904,0.006651596606131045,-0.4977179129893834
1691525128.8387642,-0.37647645685610304,-0.2034408653568016,9.766947932389739,-0.017762456752649217,0.0010419292335192248,-0.502873506146198
1691525128.848774,0.24381437914626233,-0.48352831980217414,9.527329970389642,-0.01360204621356757,0.0035686088724264636,-0.5037797947700078
1691525128.8589492,0.17640452386821817,-0.8155276013429318,9.641124138035234,-0.003779382035092224,0.004498145624297643,-0.5002584119613225
1691525128.8687675,0.06506549211745824,-1.171278244973163,9.624623628977771,0.010099853240401538,0.0061124601708264946,-0.5030216236884648
1691525128.8791025,0.20857271386018278,-0.6594892641556473,9.756578308923906,0.02014656900588201,0.008600395879493366,-0.4966069122130925
1691525128.888742,0.14740887370581296,-0.1411319918179358,9.635574058997648,0.022649853689240707,0.013000858846419244,-0.4944317003066594
1691525128.8987503,-0.4390882266352059,0.47936189794755973,9.702325426313118,0.021839675013626967,0.00834314579412808,-0.4902396758372838
1691525128.9088116,-1.0941672222781036,1.1901209323291149,10.00905827541363,0.00930487350742369,-0.003718643572366425,-0.4921471734817083
1691525128.9201572,-0.8838808841074307,1.1835871334690697,10.105321388087217,-0.006141908799830204,-0.01645542601524434,-0.4945875962550695
1691525128.9321818,-0.20951323012006032,0.38706954203061744,9.878671394980223,-0.014034105486704326,-0.019204936578234594,-0.5001902242476994
1691525128.9338036,0.72973694672161,-0.6933685506103292,9.346308958852434,-0.012035038908264987,-0.016886526658598362,-0.5009542961890752
1691525128.9487848,0.5833704784068393,-0.032324198686734085,9.955043248433673,-0.010798513401823273,-0.008165944751537998,-0.5068597455794865
1691525128.9539218,1.496434389247968,0.4740032416269827,9.582245763669896,-0.012141292653597542,0.0038522284123157988,-0.5002647896583134
1691525128.9677577,0.3127455707221953,-0.09284614572771954,10.023390827511289,-0.011183921748581493,0.007298095607875093,-0.4998319407279546
1691525128.9778235,0.15432151891599513,-0.3289981557823033,9.86819722882447,-0.006527302608290576,0.008972435963991412,-0.5006120463187749
1691525128.987788,0.18084589660265332,-0.3454389158431703,9.784655350770405,-0.001889125700936889,0.010671987173264496,-0.5005267520721013
1691525128.9978702,-0.22471821096076372,-0.42880067730764904,9.704735729510187,0.003650196140611297,0.008947740081832325,-0.5026825924689824
1691525129.0079086,-0.29369939787546007,-0.15707701360019302,9.585118198550447,0.0056385033441947174,0.0066301500623678665,-0.5070778985793645
1691525129.0177882,-0.4067569473504614,0.09297877749843406,9.71110537582787,0.0060726702581187925,0.0007780989710217548,-0.5018343587691838
1691525129.0277846,-0.10007682635589826,-0.32468541488255914,9.566614636818946,0.009160360602242809,0.0010371002890755489,-0.5027897020156438
1691525129.038381,-0.1276637987723371,-0.2551019488150559,9.544610158680541,0.013315434145065752,0.0016531495330790618,-0.4990496893699224
1691525129.0478046,-0.34824485901645014,-0.5484361777500744,9.502346154482916,0.02131176717694204,0.0008757827605164424,-0.5024084111030156
1691525129.0577507,-0.9808348575413413,0.9288068059595949,9.958732110704894,0.013521544535425782,-0.00724263313950623,-0.4990299006278569
1691525129.067746,-1.4658010294986623,1.2594428481164857,10.464126906077292,-0.0010398305279099643,-0.026776660799183147,-0.5005631109054143
1691525129.0777638,0.08235496649792122,2.3033011674017345,10.740717781962365,-0.029748438770510147,-0.02907306366203265,-0.5031242032821233
1691525129.08777,1.4767072364218357,0.9243367782412417,10.110215520552408,-0.04586087127024912,-0.010590687686899004,-0.5014242192084843
1691525129.0977745,1.2772682878500243,-1.3056549850483923,9.610652738788541,-0.03202866905712356,0.006243725397998279,-0.5084570904548222
1691525129.1089876,0.6649226310683269,-1.1441089976576038,9.31851158357942,-0.014446022634094998,0.018934362749720747,-0.5135390420730168
1691525129.117884,-0.3475512126238927,-0.22631628648740562,9.531106132663353,-0.00808466484337713,0.015629201494509817,-0.5150195618445927
1691525129.1278005,-0.6411312024139925,0.45834358660985414,9.827456773511472,-0.01548360489188044,0.009972777440004606,-0.5184067745978886
1691525129.1378083,-0.46123485379649737,0.3475569142633382,9.956237508512109,-0.021985534175785474,0.0013420746782698348,-0.515364195900684
1691525129.1477911,-0.10750719387464824,-0.7974499147399212,9.799956256447649,-0.014567062571911924,-0.000493906694265099,-0.5116566677863652
1691525129.1577773,-0.18855773948741114,-1.0245782629531173,9.726078584042764,-0.0014161867152012433,-0.005229165478985124,-0.5105544586951787
1691525129.1678195,0.47646953296548494,-0.7473201696254754,9.470016591611769,0.00988752879486284,0.0021245731301286716,-0.5067512651259953
1691525129.177858,0.3787200950763825,-0.20033576325336458,9.70355244887484,0.011813828733443544,0.006402996384102091,-0.5033920665557439
1691525129.187847,0.32827132374657053,-0.43688475177494407,9.435819730237391,0.018614103455488522,0.013638629943486061,-0.5009723563964421
1691525129.1979043,-0.40032453801495615,0.27232826395630627,9.69260276555991,0.020790423498553715,0.008776809641425897,-0.4968699773128087
1691525129.2077758,-1.170263370597241,0.9908025281504985,10.137727832989928,0.00734159325265788,-0.00367590701311332,-0.5013568063552434
1691525129.2178502,-0.7212578511588593,1.222120766519276,10.126644451975407,-0.0061269228635662185,-0.014885388409346884,-0.5004259010131413
1691525129.2282794,-0.16351528798096968,0.2004325123995497,9.866168059664105,-0.009752095115796713,-0.0169678828033659,-0.505151953297382
1691525129.2378032,0.29889699506740786,-0.35392469817324673,9.606696326580666,-0.006005939628022429,-0.012870839570536313,-0.50838604171825
1691525129.2478151,0.5508492079828003,0.21463038692439496,9.889357085258663,-0.006463631577660717,-0.006732835491135688,-0.5098072548682744
1691525129.2579305,0.36242741386261806,0.3005566480828557,10.000811522003026,-0.00798707590718702,-0.0015058333476809078,-0.5065107007796819
1691525129.2678494,0.21159477791768203,0.4296096881438496,10.224420994502772,-0.012497093169159416,-0.002151217982768854,-0.500277902680164
1691525129.2777584,0.07469059978206087,-0.3551443467418478,10.008834107552552,-0.00998281585848153,-0.0009949920005441742,-0.5055461784179265
1691525129.287948,0.5393285290811093,-0.9094993480459942,9.761067230393278,0.000169452646223656,0.0037687042155729817,-0.508914913731342
1691525129.297819,0.510081701681642,-0.5184674626562781,9.4431802509829,0.008455095056183621,0.011606061315732706,-0.5076696534926946
1691525129.3078086,0.08002918915289282,-0.1762680915592251,9.494234599984901,0.011111154976847998,0.013141943155274909,-0.5108250041778142
1691525129.3177872,-0.3479173090780661,-0.022218037152330568,9.49247894778357,0.012486414961641748,0.009925491114076744,-0.5078524013335759
1691525129.3277977,-0.21636724912841587,0.11401873720085713,9.514417075900388,0.010894934391473895,0.009662359392610521,-0.5024765988166386
1691525129.3381786,-0.8745974890639092,-0.5146635958472954,9.777267617079954,0.01674700318139487,-0.0019253936387155675,-0.5035521050269658
1691525129.3483567,-0.2662073549708288,-0.0042842246450101725,9.614085408726746,0.020427594099437802,-0.005577459643192333,-0.496108825999027
1691525129.358668,-0.4649243782430721,0.17082069301860955,9.748568710089602,0.0207993791139447,-0.007374274433831239,-0.4957866926963384
1691525129.3678064,-1.0375447778349287,1.041748261422543,10.175654225097015,0.011128845626378643,-0.017809944167046142,-0.4922938903148229
1691525129.377928,-0.20995594562684067,2.1184233751998476,10.776158085253792,-0.011679773971524768,-0.024545040841411018,-0.4955647249991948
1691525129.3877995,1.2496614660746042,1.5941481732588239,10.377060150880391,-0.03487324946128877,-0.010970621376896058,-0.4948436280067022
1691525129.39781,1.5651814620004996,-0.32759508460371817,9.847628351573126,-0.03368223274636493,0.008522126251794873,-0.4996426959807927
1691525129.4078567,0.9654692066117447,-1.2564605203789034,9.406404539726513,-0.01881126845834951,0.02455458301810417,-0.5064881702239568
1691525129.4179027,-0.17155422717302962,-0.7244446643554981,9.33792314386819,-0.006595285226121898,0.025390699099805736,-0.5100176592643315
1691525129.4278395,-0.8212086282054597,0.2635177764281964,9.780258359524009,-0.009612583308085405,0.01579037026215934,-0.5099509020621831
1691525129.437956,-0.8568710088157847,0.014064133511621791,9.76526955074234,-0.008668624308683042,0.003767012764210975,-0.5099261661346013
1691525129.4478283,-0.4194206855459165,-0.23437320903330372,9.820064050734889,-0.008578916381462302,-0.001375848072759792,-0.5070309301192815
1691525129.4579625,-0.456242275168507,-0.7060964254334902,9.765913491295215,0.00123448391574196,-0.00947782595357125,-0.5039497872169072
1691525129.4678128,0.21004707709391604,-0.7921308772466131,9.599033448564223,0.013702829353939258,-0.007625781559616535,-0.4995393415267522
1691525129.4778693,0.5943331818340113,-0.32259175332581863,9.543845528883125,0.01926880662439832,0.0009424807576072069,-0.4950124283607061
1691525129.4881127,0.11201927799924279,-0.2251545143850603,9.666375898242881,0.02399418500856261,0.0029060414262543697,-0.4946721454436834
1691525129.497815,-0.6553093394273916,0.8680720289428044,9.928088094912042,0.01724077346276168,-0.0025580292760114163,-0.4945759733493383
1691525129.5078342,-0.8805732882496256,1.2221505476843901,10.089393668708935,0.005931304861541851,-0.012053687818757496,-0.4915194769675786
1691525129.5179026,-0.5751870927897317,1.0821208579651782,10.176044151996,-0.00761003251022122,-0.02072646778766347,-0.4910675247485692
1691525129.5278342,0.22022703378474984,0.9227220234716361,10.273449142842233,-0.019100715742168255,-0.021894333946956723,-0.4939077754790837
1691525129.537824,1.1317795691097396,0.48716390874320065,9.901916707997628,-0.026595383586981425,-0.009848465604483811,-0.4955371578509862
1691525129.547844,1.3707230026678607,-0.3667246239260403,9.511933585612399,-0.020464052171404307,0.0080586849228746,-0.4940281470592076
1691525129.5578856,0.3173117121753078,-0.5326213870841294,9.726628671148303,-0.014322864072867139,0.01314404750806556,-0.4966609438235814
1691525129.5677936,-0.0978194463682862,-0.4460966228760126,9.700682158835276,-0.0077711090112492715,0.013519498718693644,-0.4976969619567449
1691525129.5777955,-0.3381977120505121,-0.17587685971364422,9.909665170965146,-0.0046146863721471115,0.008078873350523987,-0.4950102825934941
1691525129.5878167,-0.5326456007350645,-0.4403042152596669,9.861015159428652,0.0006285440296696957,8.550078757796074e-05,-0.4975554307277257
1691525129.597859,-0.2690512575239435,-0.2886296687602664,9.690877664975487,0.00544533549093809,-0.0030554548176595776,-0.4974920709903295
1691525129.6078303,-0.016319493965396916,-0.14153831031140932,9.619875412999585,0.005181782711592288,-0.0019527114392186601,-0.4979897101695592
1691525129.617808,-0.05680733868720207,-0.47902386894714216,9.565046175622161,0.013135863309963329,-0.002307155836995417,-0.495317753153568
1691525129.628255,0.1555429964119759,-0.3324109664875448,9.440136682551822,0.019268348905661013,0.002160951268354899,-0.4933499654109533
1691525129.6378722,-0.2921788598970893,0.39337592961296164,9.599451360996328,0.017689901190803835,0.000521385352153281,-0.4899350364978368
1691525129.6478078,-0.9196837333304199,0.8805975713597548,9.98272519520315,0.008307681107812008,-0.007513989204060061,-0.4907390137488897
1691525129.6578372,-1.0884391067900188,1.5148934136408911,10.531442876831305,-0.007367413439824767,-0.022917619567479997,-0.490950818854099
1691525129.667894,0.3718242411483029,1.6932116569442703,10.498783470268997,-0.03014887288247214,-0.02035020994641921,-0.4899425168807561
1691525129.6780224,1.2290480563012345,0.5947244654418309,10.144060051944736,-0.040441961874785236,-0.00555724312960022,-0.4868720134074742
1691525129.6879337,0.9317578330879301,-1.2812039052786774,9.633008274448514,-0.027703302933666445,0.007468301264144388,-0.49647557337833
1691525129.6978023,0.7449442199767329,-0.7511923594111624,9.287549125323272,-0.016046577114945934,0.020088228056910278,-0.5008536239440495
1691525129.7078874,-0.2827730314846304,-0.09955777179387086,9.474536924612568,-0.01254584700246402,0.018917298511859852,-0.504917110996967
1691525129.717886,-0.6872459349256804,0.2601653410236233,9.805958206872962,-0.01767335702064496,0.0115327695380772,-0.5043882985885197
1691525129.7284515,-0.5502592230998615,-0.24585175976532075,9.828885804576323,-0.014519531369330032,0.0022295424581072042,-0.5008275767142827
1691525129.7378714,-0.556992379289829,-0.8297254697320505,9.964302564555293,-0.0067917841938954,-0.00649112276354667,-0.4994510670478398
1691525129.747888,0.1287699568901209,-0.7958139844586246,9.721191616655656,0.0034450430676668986,-0.005464812348081119,-0.4978928526217992
1691525129.7579525,0.2237185784207351,-0.36603989172859996,9.63740845386744,0.009120926850495864,-0.0025889060053119186,-0.4951965173060949
1691525129.7678545,0.308818753055722,-0.19682529691661038,9.582689795763859,0.011957152998677965,0.0010479497023677445,-0.4934818108851964
1691525129.7778883,0.33156383370085346,-0.2928236365264875,9.4504218032579,0.016332779165645735,0.007778920132897678,-0.4905258079345281
1691525129.7879083,-0.020792951070750243,-0.2397553544468827,9.560770971354888,0.01954797671950266,0.008450675805301858,-0.4896187444503362
1691525129.7978528,-0.71745412105876,0.3832018859640791,9.770548843781684,0.019028379491632084,0.001878887016996418,-0.4905151685054357
1691525129.8079002,-0.9841521671717167,1.035609340145528,10.212951881359887,0.0061907900096852125,-0.011371501726185255,-0.4943540354545171
1691525129.8178277,-0.7425388782575812,1.0580034588302292,10.281088288826794,-0.007906083660522463,-0.022656042288001776,-0.4934934337909276
1691525129.8278427,0.4219599939076894,0.6512669047613547,10.14351609930192,-0.015448104664053008,-0.019887281265283385,-0.4964246412093694
1691525129.8379772,1.021180186748154,0.23813789234409755,9.87877485465025,-0.020288846193321646,-0.005975252439002615,-0.4961191376025731
1691525129.8478956,0.6183421928176112,-0.7614173249213222,9.866600638107606,-0.012391653534084418,0.0006754401126380373,-0.5001586337859685
1691525129.8578527,0.26059856535670234,-0.6211298470212621,9.663745097561655,-0.002503256110921101,0.003698829303752357,-0.5007371564681584
1691525129.8679068,0.03763093428470582,0.03670031952191607,9.80350426051623,-0.003642894944279621,0.003481098894156314,-0.5019284745032841
1691525129.877861,0.1294363361093308,-0.1718038527126511,9.691579004401238,-0.0029071527200807564,0.006482638486172638,-0.5023323555762822
1691525129.887843,-0.38080806518588817,-0.6257601626302082,9.734868422428827,0.003398729899175594,0.0011635551132446675,-0.5050507446105534
1691525129.8979063,-0.08882857092376202,-0.1828599155674322,9.646176288657475,0.005509637204395887,0.000651075089502643,-0.5026356240088994
1691525129.9078922,-0.18827804003631513,-0.14632493191315457,9.605161956196717,0.010170963602139886,-0.0030721782608622134,-0.4997846146400029
1691525129.9333377,0.05797759922118894,-0.05818821832374456,9.643702070732337,0.009403694018843235,0.0009435395704444902,-0.4989872833068425
1691525129.9344184,1.8402754094719451,-0.657964363724622,8.51788368115161,0.01269663217579918,0.003953799169387372,-0.4950282533938939
1691525129.9378977,-1.0175440860036025,-0.4697090560832545,9.775305800092944,0.017421731936198157,1.0580867472487164e-05,-0.4950820465858037
1691525129.9478662,-1.586982753010279,0.9285257446353371,10.306558904970782,0.009850599043251904,-0.01962876653050933,-0.4921093543345983
1691525129.957828,-0.9210893150116246,1.4634479076166957,10.334402777973335,-0.005933300845294304,-0.03192802011033858,-0.4923118313129003
1691525129.9679449,0.5710409812784002,1.7985424399511354,10.445516249102104,-0.030394863086000194,-0.027380142591493455,-0.4970119555766637
1691525129.9780016,1.6761663806837395,0.794129351226657,10.00931882606334,-0.04379776955666087,-0.007290557898579435,-0.4965819974715764
1691525129.9878297,1.4837287552044796,-1.1287014064324008,9.54229368435136,-0.03390768516297467,0.013326526380706355,-0.5042410155112798
1691525129.997921,0.5693697523010804,-1.0502072991104952,9.347766880232264,-0.015957538248275886,0.022630947538148753,-0.5066997667129094
1691525130.0080054,-0.2355441739599004,-0.08523862649056826,9.65822180357749,-0.013529099039315096,0.020614398464311255,-0.5112491508300359
1691525130.0178585,-0.5753926964725353,0.2142320599982805,9.926643517070183,-0.0194340379474715,0.013901743090655404,-0.5140024681861455
1691525130.0279703,-0.5648454264985076,-0.23112004428047866,9.940749501333189,-0.0194421423175128,0.004075041469010532,-0.5129773875052983
1691525130.0380237,-0.3485830472354217,-1.0351377695325934,9.758015887154064,-0.007221846994439964,-0.0010806534870371782,-0.5094526072318608
1691525130.047911,-0.006291757653729527,-0.8122936156109861,9.533837361369185,0.003929682570219443,-0.001500096065050322,-0.5071283837134892
1691525130.0580702,0.007550739660308108,-0.2277327537379203,9.50581572030711,0.010814669560916952,-0.0020228901578812565,-0.5015213747794682
1691525130.067883,0.12512478094289853,0.25582345680521124,9.518205797654337,0.008579883000252298,-0.0006899558453644716,-0.4993466993148381
1691525130.0778787,0.17991673042621734,-0.13270309857900076,9.670352185927278,0.010165971259451899,0.0009594306548305516,-0.4962354858691747
1691525130.0878458,-0.04185100588191351,-0.1212737601078541,9.676458089199713,0.013295212102199505,0.002794912771675075,-0.4936982055480535
1691525130.097842,-0.9444343445190642,0.2968866949784705,10.163064569750679,0.012818992978805763,-0.008650061320085925,-0.4956527014548833
1691525130.1079018,-0.42528761740330323,1.1923915214749612,10.235690131613072,-0.0002316126771169132,-0.015341688230885052,-0.4938347597892339
1691525130.117913,-0.08210369835655357,0.9389147612192372,10.205886620037354,-0.009941258429666743,-0.018174624042293294,-0.5001868267829472
1691525130.138296,0.7777408597614767,0.5936829553670033,10.004386710601834,-0.023055406168079946,-0.005570414788453701,-0.5028869171912724
1691525130.1395772,4.063006510715223,0.4800840901651867,8.227515811249512,-0.024955942392842774,0.004689246182801493,-0.5033828874404485
1691525130.1478772,0.26611964318703224,-1.2202031424316606,9.507908342177231,-0.01134227906671873,0.008658310434341919,-0.5054858585174138
1691525130.1579564,-0.36788663480801403,-0.3993355851757128,9.677436903217703,-0.004701972541022039,0.004414839631450301,-0.5078701039130742
1691525130.1678834,-0.4065353741059543,0.47091167440165227,9.825829664303646,-0.00930945330375405,-0.0015346823906896717,-0.50653639038158
1691525130.1778798,-0.18770204706525867,-0.2653486620907273,9.863586417290735,-0.006878206655248128,-0.005995807463468687,-0.5067013760383183
1691525130.1878767,0.0367907746478004,-0.5303791239869377,9.695928660854952,-0.001722589932138747,-0.004676731817821828,-0.5064636131103093
1691525130.1978986,0.25266587311055494,-0.6101324349483109,9.617962190438984,0.006034799751441069,-0.0012761406945191677,-0.504363026219135
1691525130.2079692,0.32603416407614094,-0.24209102471267,9.563598289754559,0.010392244288017213,0.003130367925428294,-0.4990320463950689
1691525130.2180746,0.13060931873960585,-0.24362845292471808,9.619714881564049,0.01675648233417938,0.004334875475130757,-0.4935068448360021
1691525130.2278545,-0.01834810912675789,0.09855272279711201,9.573304137863127,0.015463514129067157,0.0064543396378604866,-0.4945135970885808
1691525130.2378483,-0.990285293945964,0.8295865181562473,9.901881374440185,0.009126413292564256,-0.0025967374240753794,-0.4895816107566411
1691525130.2478986,-1.5337406361284218,0.9712772617817961,10.441673131538396,-0.004761572790704406,-0.023563971008529822,-0.4914658923919255
1691525130.2578678,-0.49508409235966444,0.9697368712667432,10.228568729515555,-0.014902914435669126,-0.030609412218288105,-0.491659488278156
1691525130.267868,0.897543388563043,1.068867244094261,10.289507878311632,-0.028344239365661165,-0.024731677402536255,-0.4933785756404454
1691525130.277901,1.7300473898282682,0.22246553051899207,9.82907940623181,-0.03444491498283617,-0.0027734961241203965,-0.4969004352862889
1691525130.287856,1.3839700244774498,-0.8291555714632257,9.539733153222983,-0.025281750697255606,0.015219329224182477,-0.5014573593909795
1691525130.297855,0.28233835858726697,-0.5089874815262826,9.562357367784314,-0.018470142420444046,0.020590707407671886,-0.5050798316772038
1691525130.307884,-0.3243279290624756,-0.34472365183611126,9.66088895442337,-0.014332953459240854,0.018547581059230493,-0.5062462945754582
1691525130.3178852,-0.7301757887510273,-0.11352026634271964,9.96480441295961,-0.015208073464438608,0.00800123067929655,-0.505495872097736
1691525130.3279889,-0.2526216084650468,-0.6484894862175243,9.651824687140167,-0.005893305776870431,0.003738051340084402,-0.5048703809554631
1691525130.337942,-0.26643140368769685,-0.5399847533030993,9.76462010026394,-0.0019171520972707061,0.0006216665666856511,-0.5064012070472295
1691525130.347914,0.1476213680014696,-0.5780706988489259,9.538657932169011,0.007221373025739617,0.0021100418468630844,-0.4997679253394658
1691525130.3578796,-0.07801850893869314,-0.3213295738831266,9.541561082528759,0.011959735472770594,0.0010793813804526819,-0.4966450889880712
1691525130.3678863,0.14426277114503738,-0.17061952279776424,9.635747453943745,0.013814379501998946,0.003935267884872703,-0.4944074710185582
1691525130.377917,-0.09195319189796729,-0.0466664176278966,9.624705722163615,0.01694230293555144,0.004562493999426909,-0.49238222439838
1691525130.387876,-0.6562199530348762,0.6479169373786767,9.998087463158988,0.01191206381174716,-0.001708609496279167,-0.4906079133327062
1691525130.397957,-0.7826794488521676,1.0456320822360277,10.292342684289427,-0.0008427973002805585,-0.011897863862744603,-0.4923092087085302
1691525130.407951,-0.45833959245071054,0.44843671707768845,10.026574897634504,-0.007171458537542545,-0.016942123954904225,-0.4939804335410649
1691525130.417897,0.20169953338460242,0.4247553041081216,9.981626409176174,-0.011843720380210395,-0.016081154709967634,-0.4977276583488042
1691525130.427945,0.7158656133211173,0.07567728342831936,9.76861954691876,-0.013353308673339307,-0.006574388306118551,-0.4987300892646367
1691525130.437901,0.5486780827463781,-0.06561110895906573,9.927601818738877,-0.013226919182754229,-0.0015492964478760955,-0.4992031117255742
1691525130.4479566,0.26150610534952734,-0.3825956767092413,9.8164498429595,-0.01051448793127893,0.0009497913039289872,-0.502600159245258
1691525130.4578743,0.16955817222128752,-0.2038569745958103,9.593230056997127,-0.005900841849680806,0.0031402018318263517,-0.5026857515151555
1691525130.467888,-0.01610691618455952,-0.1231358476878676,9.70949823136043,-0.006063530405682846,0.003142611197279468,-0.5067963262374455
1691525130.4779196,-0.0764265604336695,-0.5332315803544033,9.692168978776833,0.002286978296732194,0.00052951147960183,-0.5058073659713322
1691525130.4879262,0.010271455611822593,-0.35604074397595087,9.759271099392166,0.0050349224568162435,0.00032781479095259596,-0.5043223758513982
1691525130.498068,-0.016641482124557055,-0.5681660341817631,9.664769084398836,0.011990887759392834,0.0012502814838669736,-0.5070318241889531
1691525130.5079796,0.3267406579712548,-0.19259344438066578,9.715844747742691,0.015293459008016574,0.004101406252877669,-0.4969790538127477
1691525130.5179317,-0.11313567891803246,-0.4408494223095501,9.5886386428546,0.023486164622862783,0.003164201764538369,-0.4958766361053044
1691525130.5279274,-0.1579937609092733,0.34058738808219985,9.56912562423728,0.021337673828114915,0.0040152237308506205,-0.4941299219901616
1691525130.5379045,-1.2373071090057572,1.0403320114330497,10.078905593093573,0.011996816640593464,-0.01071338305450173,-0.4919063409144933
1691525130.5478892,-0.9704174868800693,0.8772241890666062,10.099872627601174,0.0028373741980994866,-0.021703918985948603,-0.49497291048122
1691525130.557875,0.11440412308811906,1.7320134130917184,10.58678290975408,-0.01649609396292057,-0.02482142359596666,-0.4944055040652806
1691525130.5678897,1.479922152268358,1.1156315113684203,10.148071765384316,-0.03523535137782085,-0.006768728177391113,-0.4956202169234807
1691525130.5778663,1.4184519674316636,-0.5422312342710535,9.888974520169088,-0.031203183096344105,0.010174131439485937,-0.4986089726264531
1691525130.5879817,1.0385105863047452,-1.2097134558515423,9.318682038278547,-0.01585550874958591,0.0267232145920259,-0.5033999343688542
1691525130.5980206,0.13727957947289607,-0.6670906194425297,9.557114120685394,-0.006412989138874078,0.029450254592566463,-0.5060352941329533
1691525130.6079535,-0.39334173982540327,0.01818020715534341,9.751515954875652,-0.007456069912224877,0.02697669259408326,-0.5075006147201115
1691525130.617885,-0.8087889603731954,-0.19603085327266587,9.9082021746889,-0.005235567579341489,0.013560942782293054,-0.5042242070014531
1691525130.6279726,-0.46732074563065173,-0.32317624768460956,9.709752146816776,-0.0009775137337275663,0.007598981792612888,-0.4987792034919316
1691525130.637938,-0.5845157813962695,-0.6566543319970947,9.744781524917205,0.008374481803423225,-0.0021444565226605124,-0.4989081879432256
1691525130.6479342,0.3808856506021212,-0.16832908480950323,9.637882050559526,0.0094009488053877,0.002575712875993466,-0.4926226993377263
1691525130.6579273,0.25740910992020494,-0.5660006437178036,9.521079882307568,0.019002784113348603,0.005679215770033963,-0.4898432453448827
1691525130.6679168,0.17341398130563915,-0.3140837643375403,9.551901183000266,0.02342046494765886,0.010355196974231401,-0.4907475670154149
1691525130.6779132,-0.5153706174857979,0.6036880100037122,9.78364624567726,0.019490899647002454,0.005656955196129984,-0.4882197042281682
1691525130.6879258,-0.9080863660113403,0.9877776380539498,10.15283138692566,0.008604396994008496,-0.0065512351021695244,-0.4887359102542455
1691525130.6979082,-0.5945611826038182,0.8257856242046514,10.233561075610437,-0.0033033796399358404,-0.017324985988970695,-0.4919828434760625
1691525130.7079206,0.3812352091330144,0.16312472382472862,9.85794584561597,-0.006051845504905116,-0.013551724038720077,-0.4932818671042974
1691525130.7179246,0.8464905499403477,-0.06053278731937365,9.914532631255945,-0.007365772840811051,-0.0029404971342291836,-0.498126830654865
1691525130.7305117,0.5126868274058893,-0.234178664781534,9.929757750479522,-0.0020551895190356684,0.0033602714537989994,-0.4960295220191533
1691525130.7380111,0.41715228756216294,-0.15910157200870517,9.870237303011791,0.0001764009083697537,0.005562261546356633,-0.4942176302249486
1691525130.7479353,0.06996538494816115,0.03323682453163924,9.732735167317122,0.00142993022215147,0.00592136655933719,-0.4968699773128087
1691525130.757927,0.3312458680077006,0.12749732767011432,9.765925749108913,-0.002381508421677657,0.009108664998960028,-0.4996690412337835
1691525130.7679148,0.10776325947048077,-0.13096040731962438,9.688283690433554,-0.0008166285794039552,0.009882353273180232,-0.4973594506557042
1691525130.7781537,-0.0237061455359947,-0.5132606120393246,9.66557276304553,0.005443964757291436,0.009865062187500148,-0.4977630337054784
1691525130.7879276,-0.14697959264474503,-0.31163048040167063,9.610360099071686,0.011462062884617541,0.007703026769925002,-0.4945551117236669
1691525130.7979178,-0.02521522670272883,-0.04883847410779398,9.759235711516407,0.012322898530809718,0.006216013307690651,-0.491200800734287
1691525130.8079407,-0.027617395638772007,-0.2803567397741893,9.633837956575395,0.016628238807237794,0.006594588732428699,-0.4908124764735753
1691525130.8180313,-0.06501922510744568,0.11594932138468855,9.57900021324545,0.015968089018144296,0.008854343419104013,-0.4905844589049871
1691525130.828025,-0.9236188036115851,0.6005796518973129,9.967553748480324,0.011475059113302,0.0008260757208465497,-0.4888786931808049
1691525130.8379414,-1.380435384793774,0.9904526235259328,10.287557552002788,0.0011021919717027291,-0.017587518788788756,-0.4872670133884008
1691525130.8479602,-0.714109439005699,0.7217195216367388,10.310647909212893,-0.008763026745913737,-0.029278239805835913,-0.4874650796229894
1691525130.8579102,0.6856683486014514,0.9473541880283419,10.20749078061229,-0.02010610266301285,-0.02400497620189333,-0.4969754179294164
1691525130.8679209,1.7625897600342282,0.47319977797873103,9.825130882157172,-0.02919037079083295,-0.0013222439766839502,-0.496759231882816
1691525130.8782148,1.5635836138558994,-0.44839836582279513,9.572316466914522,-0.02467916518442761,0.018284093624139935,-0.4939097126300389
1691525130.8881738,0.459337863673209,-1.202212419571477,9.543975096282841,-0.012261644566805157,0.027676857466883573,-0.4988450070197637
1691525130.8979414,-0.28364370014034523,-1.0022847230553544,9.746160644469395,0.0017745088489996166,0.02215945293368249,-0.5004652996833379
1691525130.9081235,-0.5286889621736696,0.07946565538024748,9.805335130246931,0.0013223250510663199,0.01589678798190953,-0.503562655049091
1691525130.9179764,0.06821075140659935,0.7489460993917639,9.67819189330443,-0.006626731984493696,0.014931773277391414,-0.5007168908889348
1691525130.9281282,-0.31964965335698614,0.21184376195459653,9.732323422132525,-0.01347084464713011,0.011427021560892668,-0.4987273474509771
1691525130.9379709,-0.39502879829512444,-0.859149495613091,9.514968862103823,-0.002098072573086242,0.00680981239095791,-0.5002547760779912
1691525130.9480443,-0.5553823220153112,-0.4935187438195643,9.642496555546028,0.005412304923639607,3.360924481903391e-05,-0.4973636229808385
1691525130.9580374,-0.09837765996170329,-0.08797035439278819,9.747104198203264,0.008639347834759689,0.0018089760295670046,-0.4950929542357976
1691525130.9680116,-0.5983742173670558,0.5671760989736284,10.178915564889746,0.0032202676928022585,-0.006615634512991211,-0.4909180959041173
1691525130.9779682,-0.20728763540009837,0.6317683500636303,10.122682770553784,-0.0032278360628739742,-0.010059345365781647,-0.4887243767554814
1691525130.98794,0.0803020860600157,0.303626945055967,9.902293667973879,-0.0077649405214709,-0.008719691791322514,-0.4899013896758611
1691525130.9979985,0.1386750997729418,0.03973643951397542,9.637860856261826,-0.006005225789976577,-0.0077740137975904336,-0.4884861667926366
1691525131.0079522,-0.07342655112691514,-0.2927334947843022,9.553930531395073,-0.004300432475936597,-0.007645052296489842,-0.4968202968413884
1691525131.0181053,-0.13655602631025274,-0.4567369355602675,9.638146141994591,0.0043443209069863285,-0.008527866812583308,-0.4984508117015416
1691525131.0279293,0.13398369559142465,0.4831730702199994,10.064089707070869,-0.0005494879349160739,-0.009137341016865346,-0.498328771191364
1691525131.0397537,0.38345099999169385,0.5803042800517626,10.09658977105011,-0.009386019571990251,-0.006306250474989239,-0.4924081822211797
1691525131.047915,0.27659397114616274,0.3454234535224167,10.052515754262403,-0.013291142104171146,-0.005467217196116678,-0.4925754328544194
1691525131.0579762,0.4852100830147044,-0.10408599769947069,9.65824639875772,-0.00895963699088405,-0.0006242193493200688,-0.4910898168857152
1691525131.0679252,0.3981217627336652,-0.07584672098913285,9.655302038073247,-0.01045186400225595,0.004132439452730712,-0.4961759408290441
1691525131.0778997,0.4294689302188052,-0.9136632387085871,9.482502200526769,0.0006380554187390824,0.011789813799552757,-0.4989447851951177
1691525131.0880604,0.1409174960281408,-0.7119770157188846,9.738765122933355,0.00971154496140968,0.012373627188223452,-0.4963309427077825
1691525131.097978,-0.07226453927128608,-0.6935431656139122,9.566349765215733,0.01912788316526909,0.014072877221068982,-0.4960774143512304
1691525131.107954,-0.6325298307696697,0.4363619450650476,9.704840768514332,0.018876929896244114,0.00881567889938604,-0.4944825728709752
1691525131.1179512,-1.4183113364014208,1.5173166359170551,10.275244978943274,0.0006400602564062685,-0.007137155924557765,-0.4909614880855138
1691525131.1282177,-1.1325579909831756,1.2150205348364194,10.315779039688529,-0.015289863476187354,-0.02346071899805966,-0.4912616272742803
1691525131.1379943,-0.3162112444152699,-0.05691841220264909,9.991947960169512,-0.015612159472729573,-0.02848263841835351,-0.4925863405044133
1691525131.14793,0.8154220096340803,-0.3003979006221313,9.52212438320915,-0.013252802271343303,-0.017428887454017203,-0.4929583628947789
1691525131.1580243,0.9162338867350371,-0.009901735570668644,9.709166276879198,-0.009417381157917652,-0.005868778076927884,-0.4973047335918004
1691525131.1680148,1.0454595369938697,0.7316703705030986,9.842812720355514,-0.017866886180867514,0.006743295535586533,-0.496024038391834
1691525131.1779804,0.6130600878633286,0.36329159458621524,10.064408302734229,-0.026497012511177406,0.014319700057261964,-0.4961950441176946
1691525131.188053,0.13320064354128697,-0.7182002814838111,9.841931384538556,-0.01940777134908721,0.016869078444122828,-0.4982764383132512
1691525131.197999,-0.08065169403356325,-1.0874717452757683,9.830853121301459,-0.005630160623811798,0.013755836816427766,-0.4973201413924749
1691525131.2079592,-0.0655205932327861,-0.7177989294740194,9.619381679325922,0.004994698183067855,0.012430935713469588,-0.5006038804824406
1691525131.2180889,0.3352975703260417,0.2661168432566246,9.582812342583097,0.00038270203846891367,0.01630124770682152,-0.5034114380652959
1691525131.2279863,0.28172880543899786,0.11194759585092186,9.423931966201488,-0.0025397810537034684,0.021724035143176505,-0.5038210411841924
1691525131.2379627,-0.29228270383333976,-0.10826272168333338,9.747786431519557,-0.0019682623549127937,0.01763348351015729,-0.5009484549338872
1691525131.2479825,-1.025922074454508,-0.1974838830905743,10.06112049756058,0.0029428816075634774,0.003927807082231426,-0.4935076793010289
1691525131.2579858,-0.5562133195459846,0.3223359120994254,9.956901893605234,0.002239560942521955,-0.0016652964527499045,-0.4899860580737645
1691525131.26804,-0.45776194384269697,0.8249275556719544,10.205485358617313,-0.008408503977555586,-0.008719974758493431,-0.4888624211127813
1691525131.2780108,0.287000191440436,0.6249155207475967,9.767837953902175,-0.015934097835645363,-0.004727429752103127,-0.4884252508456762
1691525131.2879822,0.06776018402302385,-0.4034994730778589,9.634686758706694,-0.014373427208375682,-0.0016831352517553617,-0.493304516869312
1691525131.2979848,0.02849462051988762,-0.5441342466116733,9.408758554334671,-0.005718437564529463,-0.001285437552876881,-0.4906142314250524
1691525131.3080149,-0.6903316316125387,-0.9436693759667858,9.66903884326206,0.0048039406782345705,-0.008693356492176556,-0.491412039595371
1691525131.318017,-0.610765504655824,-0.16370266706558115,9.902668689239016,0.010778846698553867,-0.017638967309615717,-0.49188533027721
1691525131.3280182,0.1477481936131615,0.9581527423216932,10.189789993887404,-0.001860334836991379,-0.01809143549292353,-0.4908227880771215
1691525131.3379884,0.7555180668677535,0.791084468558399,10.143356967356533,-0.013179629882387859,-0.012253661823141977,-0.4890909751231725
1691525131.3480313,1.0444080357670333,0.17757272237663504,9.677831696643251,-0.01531511265672634,0.0004405462823999212,-0.4858071168239171
1691525131.3580396,0.7423313528649145,-0.14976041126217893,9.54628493283903,-0.012123401131829407,0.008809561666940512,-0.486831869679218
1691525131.3681476,0.3399201908046818,-0.30886410601363484,9.451951054603912,-0.011303971685957672,0.01594547754871115,-0.4931555946643407
1691525131.3779843,-0.009446580345224834,-1.067059128223224,9.666061701947726,0.001601224436523507,0.0161828779784009,-0.495463039475208
1691525131.388046,-0.16734987611209282,-1.0149932379423263,9.751162756160943,0.014348806872504803,0.015159334279040237,-0.496651377278095
1691525131.397957,-0.6719977807037402,0.09544006040691305,9.949187392641662,0.016181669179856473,0.011678783653033393,-0.4934910496051366
1691525131.4080305,-1.5546522596004813,1.0687478121640688,10.416155965639595,0.005873592230060655,-0.007327497386243408,-0.4872052927787358
1691525131.4181817,-1.1747450324420379,1.0410048442962847,10.215055885209646,-0.008003526884706257,-0.021299459457934943,-0.4848425944621617
1691525131.4279833,-0.4517555645394331,0.2280908371187158,9.951070853344111,-0.011659853961305934,-0.028387465389881412,-0.483336027460819
1691525131.4379785,0.21342702314765066,-0.46805105857321944,9.519643912720918,-0.007441141613616859,-0.02501506623458441,-0.488784070807224
1691525131.447978,0.6734489721308473,-0.6303866163372345,9.195038062982224,0.0029146297245045815,-0.01301391733788503,-0.4898592193896825
1691525131.4579651,-0.012388114622613966,-0.5261172249298939,9.550957425137579,0.010421023925428798,-0.00911851129681318,-0.4919190367038304
1691525131.4680758,0.03640327897623304,1.2020288196332711,10.248226014165288,-0.0024038971132577954,-0.009211978403546178,-0.4950420518691594
1691525131.478075,0.4480610506551439,1.2403532465753555,10.287394444753726,-0.016380242628334627,-0.004964869996572931,-0.490327324467426
1691525131.4880457,0.8000043700785585,0.19098865338355994,10.014568025191261,-0.02227380004139603,0.0045416084040463415,-0.4907446463878209
1691525131.4980795,0.4758563485913249,-0.5048390688743463,9.859425288765678,-0.019481070788981307,0.010788325079640974,-0.4963574071700627
1691525131.5080438,0.8201239107444598,-1.1479296963707817,9.380859994981858,-0.0028109549548356195,0.020367274383661833,-0.4978961010749395
1691525131.517987,0.25627767348652963,-0.6216010541552341,9.439156458531539,0.0020353156912156483,0.025944817955585092,-0.5010139008338506
1691525131.5280092,-0.12921594060927025,-0.5745916207739016,9.343348035116806,0.012224148952736763,0.025712962435295323,-0.4975565334136541
1691525131.5379915,-1.1178973931806802,-0.016838448004577095,9.844410558770232,0.013792114032650776,0.014241650377614868,-0.4956489463622625
1691525131.5480072,-1.3493104408735186,0.5402770739075456,10.171648244034586,0.007912650075440043,-0.0035335897458893626,-0.4925241728599126
1691525131.5579946,-0.8192553156886514,0.6911553156907305,10.08195041545693,0.0011559447310605874,-0.014722180879433992,-0.4865386744315679
1691525131.5679798,-0.05361907626449807,0.5093698876581274,9.951239954363874,-0.005932203976435214,-0.015521703797202873,-0.4856413563067968
1691525131.578015,0.05290578511890499,-0.004500257760548678,9.828128082249464,-0.008767532814039709,-0.014764415682676972,-0.4872319658572728
1691525131.5880191,0.26920542936849384,-0.9193339373769776,9.401064701188249,0.003395137808923601,-0.008144954657787539,-0.4925284941966588
1691525131.5980394,-0.47417474932910114,-0.5223362483504782,9.795128454216396,0.010330723293097345,-0.014886420415078724,-0.4917141755397374
1691525131.6080456,0.049720982265032417,0.525018405862539,9.943078304845876,0.007043035405131705,-0.014890086443004262,-0.4938782711799199
1691525131.618079,0.3222962136043603,0.918456452322466,10.09315817697787,-0.005624799057003101,-0.012720599464053255,-0.4906737168605382
1691525131.628008,0.7913634974284488,0.39240002711817445,9.86761783195689,-0.012246295830236181,-0.004815812024577077,-0.491155143576389
1691525131.6382065,0.5742096375793025,-0.19588945595512308,9.732564699567677,-0.009578158315620524,-0.000548619949304777,-0.4918044765765721
1691525131.6479864,0.8127591090751644,-0.15554286889421304,9.32335501329499,-0.004703471989878576,0.011704758698396545,-0.4957538803393895
1691525131.6579752,0.14641698173326637,0.25806954064555515,9.56187600015045,-0.009080559814483552,0.01618470669054104,-0.4990629216010625
1691525131.6680348,-0.19436423265012612,-0.5883974611561025,9.805614890805469,-0.004971153090720261,0.015878973707199203,-0.49715357621265
1691525131.678164,-0.6324563673400485,-1.3077667211567652,9.983150655024222,0.012204332389226209,0.007769087449821515,-0.4942049642379338
1691525131.6880226,-0.3735170668079348,-0.8304295011572854,9.904425907328877,0.02400287137551903,0.0018827971037401223,-0.493437196808582
1691525131.6980245,-0.07064718294711134,0.4853090645355892,9.642117190878507,0.02168119841341049,0.004466285585731042,-0.4910967012221868
1691525131.7080162,-0.7745270290562704,1.374875029564619,10.025254736969204,0.005348132275018919,-0.0021224583031312543,-0.4882724841411168
1691525131.7180176,-1.0500205730566905,1.0856591708994603,10.075404677719881,-0.008074362109513525,-0.015072079981101846,-0.4883176048572118
1691525131.7280557,-0.6014514996060144,0.3506537535280766,10.061903957236346,-0.016207669276507464,-0.02294335497953264,-0.4925844629581029
1691525131.7381089,-0.07788360260983362,-0.560341701895119,9.725025665698523,-0.008678487405236706,-0.025742547932769033,-0.4968367775256688
1691525131.748006,0.4397825843390661,-1.1050626585234877,9.426113761184874,0.003056403206136966,-0.016213600464004132,-0.5039660592849309
1691525131.7580123,0.6778880025035215,0.501580619583144,10.025345923941563,0.0032013340368180518,-0.010350516552904417,-0.5058819313819463
1691525131.7680783,1.0795349180520804,1.1555400569452394,9.985065789790976,-0.014672360516630924,0.005755842710114254,-0.5075592656905705
1691525131.7780576,0.9044987564352142,0.5953972547051051,10.02614539236751,-0.025124014684834134,0.015305776866770352,-0.5045637746627385
1691525131.7880893,0.37798707418115657,-0.5769837366335149,9.621939773102447,-0.018846949540183844,0.021139635383841292,-0.5050434132392461
1691525131.7980452,0.201614778949037,-0.4723165535535136,9.60140997906688,-0.012796682247712637,0.022179100564300787,-0.5049802919204289
1691525131.8080745,-0.03972518514713915,-0.3442927964140042,9.551300277554748,-0.006424760188719516,0.021402064757344692,-0.5032623072440678
1691525131.8181944,-0.030629259213783948,-0.317338311492905,9.540063596260017,-0.0029665363288002467,0.02066674074468134,-0.5039529462630803
1691525131.828277,-0.25881010427443124,-0.922222153718912,9.673284152840258,0.007639064137204765,0.01986339699621236,-0.5027069707686955
1691525131.8381174,-0.838148751490108,-0.2922658205941688,9.943910030030745,0.013828439337110358,0.011083414551540407,-0.4993415137107427
1691525131.848005,-1.0186796082015552,0.6037588898741806,10.251528867799552,0.010144251366602613,-0.003758491240986045,-0.4923273881251866
1691525131.8580327,-0.3719550660700464,1.0077640048108722,10.042060608650631,-0.0020058867353236294,-0.008295663967383774,-0.4913402159984166
1691525131.8680403,0.014846901511193996,0.6200875028110536,9.803087330024509,-0.010372917083507897,-0.006961114890460009,-0.4930579324538762
1691525131.8779862,0.09584262351726204,-0.06936857021772662,9.749338795382071,-0.01211820091445617,-0.005822566032723761,-0.4938207526977117
1691525131.8881073,-0.28404170276265595,-1.10173059765224,9.507603983420255,0.0018103943996947583,-0.008573558634160185,-0.4989328642661626
1691525131.8981328,-0.33251215983776317,-0.7751243155081184,9.64363727962483,0.012829965234240664,-0.011938469566675238,-0.4994431396300847
1691525131.9080136,-0.09645673251546165,0.6705344918889883,10.118736503809288,0.004850343231282853,-0.016015212819358495,-0.5011349578673894
1691525131.9180305,0.517988064509254,0.6707540484021164,10.072269763537566,-0.004404033580056392,-0.012176561348711229,-0.498104538517719
1691525131.9329154,0.8660805048997513,0.29519767481426457,9.88146972866454,-0.012526525136824255,-0.00027893363567293127,-0.4966324826057012
1691525131.9382114,1.137465267951778,-0.3345738402788853,9.2956092701032,-0.0075871055399398,0.00870321107845122,-0.4945532341773564
1691525131.9491818,0.35033621097806045,0.09738477621904172,9.570638323043314,-0.007576734147181305,0.013020745262131542,-0.4957971235091741
1691525131.9580235,-0.03193919070633848,-0.5202606933986254,9.61854309423188,-0.0028758693619541993,0.015344550983648638,-0.5001867075736577
1691525131.9681349,-0.13563092086594578,-0.9205340547609077,9.908269471977434,0.008619190642301175,0.011853862473894151,-0.4994444509322698
1691525131.9780042,-0.317501150633238,-0.7291220387876657,9.945008715276725,0.01631371629853965,0.007286758011142516,-0.50058415134502
1691525131.9880185,0.08615553103674489,-0.2861465423574512,9.540177106718243,0.024185692016884558,0.010948653581861029,-0.4989946742827947
1691525131.9980216,-1.0554072585777377,1.2499626272681976,10.116649712891014,0.010320533632436043,-0.00012305319616082424,-0.4922931452567632
1691525132.0080185,-0.9761834586670242,1.0924353958152013,10.005511569117305,-0.0012975359198645646,-0.01303033935033215,-0.4897519012267644
1691525132.018017,-0.8156834399351698,0.4698359921315288,10.118010829340236,-0.010728794272612238,-0.02583536898122894,-0.4929305871303136
1691525132.028129,0.38029046926740934,-0.210700257330066,9.569497557986226,-0.007983759230807177,-0.021951118849456393,-0.4936606248195226
1691525132.0380569,0.35017000232243745,-0.8135920088221348,9.57785931759216,0.00017895999616403873,-0.01757509925816746,-0.4954477210815007
1691525132.048057,0.7032282740935012,0.1418870006266164,9.901732082792954,0.0030030934878742793,-0.009764888405517152,-0.4992504378135259
1691525132.058092,0.894912675337441,0.7895221673139403,10.04223770766887,-0.009673536105307747,0.0023018878821323297,-0.4995559116179998
1691525132.0680785,0.7781916628326102,0.4012151163538003,10.11327023403382,-0.017197217107589233,0.008957119990352846,-0.5006729622657353
1691525132.078036,0.7286047172038282,-0.3446461928610153,9.643763105815493,-0.014429695389508975,0.018497274482326517,-0.5030051728065068
1691525132.087997,0.26034002660294137,-0.5124478466930634,9.585213227575004,-0.009539163293805707,0.022058624006941408,-0.5071635504539067
1691525132.098077,-0.11959875368182293,-0.5416364922136218,9.545290729477193,-0.004063276362891558,0.02141944391506103,-0.5132654567534978
1691525132.1081574,-0.3785881713852484,-0.5609221461486404,9.598426470760131,0.003311797100613937,0.016915550261721337,-0.5142059584434087
1691525132.1180296,-0.252509060523266,-0.7615696377355596,9.694623004523853,0.01159312928591948,0.014905994187789927,-0.5141151805694157
1691525132.1280267,-0.6221945238407284,-0.06402931258478246,9.965848633363041,0.01296706364916192,0.007960623411848375,-0.5089202781493718
1691525132.1396496,-0.49234310115792124,0.2382216270302701,9.971092838256615,0.011380432819130357,0.0023035423659287825,-0.5043996830756718
1691525132.14802,-0.6468252469334028,0.6860137723532416,10.05052374522391,0.005107661668244216,-0.005510014799606629,-0.4987803955848272
1691525132.1579895,-0.11539700023637786,0.5917302156100495,9.859264108049315,-0.002872095733746817,-0.0075218065899707075,-0.4992563386733586
1691525132.1680665,-0.18938899303150972,-0.011031381342878304,9.732020332992244,-0.0028425915937539663,-0.010445043205876015,-0.5031943579490239
1691525132.1780214,0.0695963665803401,-0.3962287342975616,9.566635633385534,0.00037846515634108784,-0.008067256366802127,-0.5082268973166997
1691525132.188067,-0.4607300543952466,-0.7250075882152517,9.68610566619891,0.009284272018313562,-0.012253988712029677,-0.5080535670096928
1691525132.198032,-0.42470560941915586,-0.33121730738182714,9.89259004798326,0.01800663455546446,-0.020487744676500864,-0.5078694482619817
1691525132.2080536,0.15257413013274077,0.9442577757680983,10.026437560616706,0.007218772090676633,-0.017988872785232493,-0.5108567734534795
1691525132.218913,0.8233443110857833,1.1506855509852905,9.961042182925015,-0.00873242488623235,-0.00874548547468804,-0.5069262047584111
1691525132.2296226,0.6469841397377857,0.17925718497334212,9.90481057555732,-0.014204208735881848,-0.002718947586534297,-0.5067517419631535
1691525132.2397156,0.9183496858523956,-0.24136439071430882,9.505406323890867,-0.007875918619465181,0.008240918549825352,-0.5030458827788884
1691525132.248036,0.2348139500769778,-0.3080087284484731,9.491889570049809,-0.006371706055583086,0.013525773027029966,-0.507830884056812
1691525132.2581508,-0.15275722473566866,-0.8611572112603258,9.751065867602705,0.005013240445903716,0.011341843418623711,-0.5069749017531926
1691525132.2680335,-0.3921488769416682,-0.7011711472801787,9.99840220546224,0.012590290103160004,0.005684432786774727,-0.5068907399947697
1691525132.2781184,-0.025987249050973184,-0.4488526387192293,9.730580869342255,0.02330321102832351,0.006998975531095379,-0.501932766037708
1691525132.2880473,-0.8769841034590703,1.0438697127141874,10.073450747249533,0.014096959127266937,-0.000824638272859446,-0.497983928519016
1691525132.2980683,-1.1030150085718582,1.2997903932001906,10.237222247715536,-0.001139687228951511,-0.01481502306798266,-0.4939058085258062
1691525132.308138,-0.9116148136861153,0.6723992218824898,9.974801169085008,-0.01258848644243307,-0.025743241899072372,-0.49731146891666
1691525132.3180404,-0.12424043972957198,-0.003985867325544436,9.672036993182905,-0.011323375847952953,-0.03071197858802961,-0.4956199785049016
1691525132.3281,0.3642533102841885,-0.8286181141977429,9.321200542925885,-0.0010195356323503015,-0.023089331154995337,-0.5042375584418828
1691525132.338083,0.7680850727776872,0.45872252231056265,9.926083300655414,-0.0029740305257563836,-0.01308480940587002,-0.5082877536590154
1691525132.3528516,0.8541100040133884,0.7140535699953316,10.10016379033638,-0.01630432748019728,0.0012579056436970398,-0.5044411083037907
1691525132.3580754,0.7684703960094312,0.24408592485673525,10.03839632470092,-0.019858619144588883,0.007089131300493487,-0.5045172830398137
1691525132.3681607,0.31644184277908227,-0.5681518092597073,9.758201898846155,-0.013155267260138794,0.011202711493563512,-0.5068217178161198
1691525132.3780165,0.16141032853628082,-0.41975908128932143,9.516182353135935,-0.005590886800803732,0.014652083093135237,-0.5094888468558842
1691525132.3880312,-0.1535571438686132,0.182798040656112,9.709535002139564,-0.008179296904822489,0.01173426215605013,-0.5112509985740239
1691525132.398147,0.052398562418121956,0.19652030160951303,9.600083800464434,-0.012555827215561434,0.013011300545947865,-0.5134884973342473
1691525132.4081037,0.10441879396585385,-0.49095041115559646,9.49342411603645,-0.004961685817224328,0.014683049375737453,-0.5080706139380986
1691525132.418104,-0.37636324582822483,-0.9576405282843684,9.655131421303116,0.007642856368050779,0.01253630512610689,-0.506688203411823
1691525132.4280572,-0.8624592793247238,-0.2878664123799289,10.117475675322012,0.012724216351931938,0.002801365787590003,-0.5040624996001775
1691525132.438049,-0.7578409505911347,0.5713846806521574,10.247742558097508,0.008928692657334578,-0.008241862248682116,-0.4996544380958135
1691525132.448048,-0.15188488408617815,0.9261014999159868,10.017967091712867,0.000181148696365849,-0.009625326030123558,-0.4931152423198278
1691525132.4581478,0.07151829553024555,0.5020711004010024,9.743732332117373,-0.006774711754607599,-0.006804220794975522,-0.4966281910712773
1691525132.468128,-0.029084815232512932,0.035992615923168034,9.585854194392814,-0.007735693287287715,-0.006079920740229258,-0.4975292642886693
1691525132.4781084,-0.2242503228275106,-0.41338550952415654,9.42311589953295,-0.0017213268209962877,-0.007749540311134868,-0.5004834194953496
1691525132.4882412,-0.40685955301247667,-0.606554490479186,9.56341410815653,0.007522233832822675,-0.011869595583017768,-0.5002836843307072
1691525132.4980924,-0.140311496902528,0.7015334270322393,10.2222563765956,0.001536449626580007,-0.017888098272115033,-0.4997225662047918
1691525132.5081146,0.7441398680487706,0.7933317020778717,10.128471594114577,-0.008695505067741222,-0.01009784864277355,-0.4957341213996465
1691525132.518074,0.969369428013039,0.39260266818327183,10.010662046151714,-0.016176106063900277,0.0010131376475279196,-0.4954798777873571
1691525132.5281236,0.6974782408850345,-0.20779406252706836,9.756853881878328,-0.011602130334549586,0.007666578794026955,-0.4930044074828679
1691525132.538663,0.4950033592751438,-0.33105476749596413,9.488745792355536,-0.008266890643370765,0.017020036281247788,-0.5021825691039616
1691525132.5480833,-0.0977612142833575,-0.7583118212719959,9.721727483158872,4.490708009755742e-05,0.01667844549168889,-0.5037420054252202
1691525132.5619032,-0.2100372132035182,-0.7695122534608343,9.749707521461417,0.011687981982783145,0.01514895414746633,-0.504906501370197
1691525132.5681558,-0.5784948878743483,-1.0231401164212746,9.676997482908329,0.022924060501006958,0.010431001589261293,-0.5029654165084416
1691525132.5780554,-0.31750003077484334,0.21613452946649622,9.627205490544812,0.023072768155280376,0.008455779493135553,-0.4987936278159673
1691525132.588032,-1.171430399891981,1.117116864669945,9.981461662900305,0.011725030990668076,-0.003476622618282977,-0.4965198596293981
1691525132.5980463,-1.2457188318584396,1.2295206084515482,10.221613003820382,-0.0014356539807120915,-0.020033946013941185,-0.4923152883822972
1691525132.608111,-0.7300039230918358,0.6912394177719212,10.092309665433305,-0.012140014978488977,-0.028399257207826527,-0.4909870882804448
1691525132.6180692,0.01067546455287864,-0.19995776309188046,9.848274464413207,-0.009085942426132112,-0.028902187508251846,-0.4948485453898961
1691525132.629346,0.7541797354683898,0.2928793845653575,10.007802835083591,-0.011770097392539937,-0.018566376697779073,-0.4974658151443059
1691525132.638811,1.010298992279324,0.3927566937097515,9.975670557147698,-0.017348471820626574,-0.007007856922966927,-0.4990144034202153
1691525132.6482644,0.983324348440721,-0.26718579140658916,9.793847658333133,-0.016376573494097216,0.005317450682120448,-0.5017916818435246
1691525132.6581616,0.5253337928192624,-0.3756212846268213,9.510734778971031,-0.011380496611373001,0.013493269616416354,-0.5033302565391118
1691525132.678038,-0.2584390225264681,0.056447162812150356,9.520832559685251,-0.010996014688107817,0.00987073502050141,-0.5031402369315678
1691525132.6880507,-0.352613099168309,-0.10021942236463482,9.755374458666795,-0.010398839920248707,0.0033692510115184873,-0.5048128624732549
1691525132.6980517,-0.17198025259854607,-0.5879244651347917,9.804551873958589,-0.004924880694903012,0.0016273651955693842,-0.503971066075092
1691525132.7083485,0.10082386466088024,-1.0909985896487393,9.744110458519394,0.008368592694271199,0.003605367336526352,-0.5032830496604497
1691525132.7182322,0.15859668751089342,-0.918543208003143,9.789539102516065,0.021406953126779496,0.006092768488391175,-0.4975263734633977
1691525132.7281165,0.08500218287028632,-0.2573511963348021,9.548047774662715,0.03095487268961828,0.00870158668099796,-0.4931504388625676
1691525132.7380564,-0.7433195873588152,1.1702588307135915,9.901367279378874,0.01999891657764776,0.0024892206658092726,-0.4930837710673864
1691525132.7480693,-0.6687182103230656,1.5640601513583499,9.98277830608088,0.002183272606805907,-0.004687030961335197,-0.4923855622584874
1691525132.758059,-0.7633565989085371,0.9098544063408385,10.066510502788471,-0.010927276477102047,-0.014378302524894351,-0.4947491844470555
1691525132.7680664,-0.04421263690425622,-0.2111278660299771,9.677903636615135,-0.0070155405014028505,-0.015263279558638109,-0.4961138923938329
1691525132.778162,-0.12527390319396048,-0.5860398655685406,9.748736036010623,-0.0005007988511879778,-0.016323152995908394,-0.4998843332107122
1691525132.7881382,0.3058547315405935,0.04737131873649128,9.964145127851944,0.0016257545639648885,-0.012867991823813988,-0.500350083904987
1691525132.7980738,0.3764863894535036,0.5792214035951969,10.148433870593564,-0.004319627888048855,-0.010043275497956536,-0.4984088202292974
1691525132.8081858,0.8798319283144462,0.35594263155437483,9.861762594091445,-0.00865775641206003,0.001550605695166111,-0.4957621057803685
1691525132.8180864,0.4742552566179057,-0.0321548002745139,9.773381133414722,-0.009983602533018226,0.007668753070534717,-0.4979169030959661
1691525132.8282666,0.5886314775681473,-0.393466841574026,9.569171010648994,-0.004571821614147616,0.01573576715720713,-0.4982111414248998
1691525132.838173,-0.03614158046391604,-0.7714485470613479,9.642175904080629,0.005469667224172346,0.01572141418264737,-0.4996088405425603
1691525132.8480732,-0.4957959842941144,-0.6844328796034298,9.631570699140209,0.016082089238497764,0.010677779259137354,-0.5028610487754399
1691525132.8581574,-0.36348633119535045,0.11211738378194339,9.814669482201428,0.014332373961531435,0.005930235323073039,-0.4995771308715398
1691525132.8681169,-0.33163986044967664,-0.007448799001473188,9.629018892255761,0.01592841699033964,0.003068825919267655,-0.4981100221450383
1691525132.8781433,-0.37179528717204774,0.0855867871069583,9.660948710288677,0.014595264523728845,0.001510940670571491,-0.4958692451293523
1691525132.8893633,-1.1309836822483437,0.5874628937437018,9.942751759945871,0.010066261502179643,-0.012188972870661337,-0.492538656788593
1691525132.898087,-1.1363515902403243,0.807300694640274,10.16360028502391,0.0015572025540401423,-0.024130462862071454,-0.493917789059406
1691525132.9082172,-0.24847377411139845,1.1797789320234209,10.232427915477231,-0.009760047936474147,-0.02950576641914567,-0.4946061929042394
1691525132.918085,1.193391225910133,1.4633105877413843,10.161564956919921,-0.029514056319249807,-0.01582080380792731,-0.4957937856490667
1691525132.9281836,1.3049036804372818,0.45786569258495197,10.08513014122131,-0.03952748096747556,-8.125325549806116e-05,-0.4974992235477025
1691525132.9382486,1.1722377052875976,-1.1934843410715785,9.461022555786329,-0.025606711152380057,0.01789784375144176,-0.5023777147109563
1691525132.9482422,0.01388864299565975,-1.09198135515101,9.500628436974962,-0.009831784162388125,0.019694920948127838,-0.5058700104529912
1691525132.9581528,-0.4074882586973019,-0.00420320470751304,9.573117985877102,-0.007831643722113894,0.01673114862414836,-0.5081551929290349
1691525132.9682124,-0.7635006166837176,0.4467840107126456,9.893963703653785,-0.013853692954078933,0.006246543380266269,-0.5095145960624272
1691525132.9781342,-0.24816996238567918,0.18314351165609769,9.865682920959912,-0.01925680276560423,0.0023803883119366096,-0.5099135895545537
1691525132.9881575,-0.28636406882876364,-0.9311850725593714,9.812121435488102,-0.009445801359591619,-0.0023734327945256345,-0.5106192489440495
1691525132.9980617,0.1781912497761201,-0.8872040002760687,9.569304615520275,0.0021881627475434993,0.0007534372530739858,-0.5084508915717656
1691525133.0081422,0.22521092728240638,-0.830702095251333,9.703800471122216,0.014139630930270874,0.0025096923516651545,-0.5054477711494023
1691525133.0182254,0.4703416193075514,-0.0913343469724721,9.605384986101152,0.01609362434091712,0.010073445002399256,-0.4994519611175115
1691525133.0282376,-0.03586182916233964,-0.1889727071536887,9.587841469548076,0.020663285367690024,0.010015208489298112,-0.4980673154170568
1691525133.0381036,-0.4643350154838738,0.5412608737854312,9.580585928336687,0.018934816424599977,0.007697307789842804,-0.4969087501342351
1691525133.0480914,-1.2138448675906963,1.220672755925159,10.146968789064262,0.005700790481033452,-0.007690681518260942,-0.4984421094234044
1691525133.058092,-0.8990873356644242,1.0133774535312665,10.148506341602511,-0.006083386870311286,-0.01994521261898233,-0.5008105893905217
1691525133.0682034,0.03099130614790768,0.6534645647162756,10.126697366691234,-0.01445127706576209,-0.021460876632445582,-0.5032092591102177
1691525133.0781422,1.1096556137459244,0.3096998630140476,9.917868675597727,-0.019738476120383434,-0.007156603862127666,-0.507548000412708
1691525133.0882356,1.095607264697861,-0.002140579053876624,9.911324356473745,-0.020899266210810452,0.005783190306348356,-0.5053004880721623
1691525133.0981135,0.6666930800996548,-0.5867060637752631,9.68348740971797,-0.012940765665776703,0.015648347776415304,-0.5029087324912602
1691525133.1081553,-0.11266464438162364,-0.557995309882741,9.806374708755971,-0.004858176347461744,0.01329783025524355,-0.5028428693587834
1691525133.1182623,-0.250281887999539,-0.47323692511628157,9.820636561871877,0.0019143148847802626,0.010546702714781874,-0.5060686131293828
1691525133.1281044,-0.4330616086968991,-0.13949509298229829,9.831272353796884,0.00423671068742753,0.004490704673590348,-0.5071085949714238
1691525133.138093,-0.33649778830323523,0.053109787692224436,9.734834966217592,0.004081023267358462,-0.00021421980703896553,-0.5051363964850957
1691525133.1481123,-0.25882856939530313,-0.055009513832612794,9.668365938614917,0.00394112754272339,-0.0030603733984366534,-0.5049929281051213
