time,ax,ay,az,wx,wy,wz
1691525094.598972,0.013916222173626492,0.08303948971166675,9.844432076284788,-0.0013468514803406267,0.0013675948308560736,-0.0015527808393294
1691525094.6090443,0.03434523712998609,0.02145228490996524,9.803171674027741,-0.00201067751711285,0.001904412989279768,-0.0020650082553679
1691525094.6201706,-0.01060787338969311,-0.11466801766940782,9.779806136190123,0.0010708657768218586,0.001012201101430759,-0.0014179393003637
1691525094.6290438,-0.10923791039521782,0.07816229587397028,9.907052558149347,-0.000606237609730021,-0.001218876565456525,-0.0020624047431106
1691525094.639435,0.002906635736023345,0.017875519421853354,9.822180594861749,0.00019543650858878472,-0.002315228944590327,-0.0003599508020038
1691525094.6489484,0.10252161837252577,0.0337900149323516,9.780618882799612,-0.00016033420108651247,-0.0010374522312769521,0.0002945805497524
1691525094.6589704,0.11466433334712961,0.03741075867495771,9.76469338090273,-0.0008640498236543999,0.0012114987650962725,0.000155995734321
1691525094.668963,0.018148572254507073,-0.1561765877995421,9.7598832315857,0.00234007900934249,0.0014223668475060827,-0.000384894530935
1691525094.6789937,-0.08198542144604185,0.07695643152380646,9.881089542290345,4.565241445177139e-05,0.00018855043295024488,-0.0019949772215391
1691525094.6889906,0.003897164078463205,0.251951988188292,9.88831125170736,-0.0036989916830128234,-0.0008482313679673623,0.0004294447314982
1691525094.6989834,-0.024805949264401075,-0.047947729641179083,9.811312660214167,-0.002468901613263903,-0.0016923674112621803,0.0005233275185396
1691525094.7090068,0.2497691089619433,-0.14089389819281706,9.631471440672032,7.733366926335993e-05,0.00354876935116303,-0.0009097601107264
1691525094.7190647,-0.1659317739504239,-0.0015631647576750606,9.906184875943268,0.0010779603370341536,-0.0007342189297891371,0.0005095382982922
1691525094.728979,0.009784474117773449,-0.052589989962790955,9.798636478821836,0.002292028970117509,-0.0008284688705370358,8.110906282572834e-06
1691525094.7390556,-0.04952774263846642,0.19885835641889765,9.910235387758581,-0.0029446288806211193,-0.0015120486815778664,-0.0020813951088989
1691525094.7504284,0.03643776925815545,3.641770392827142e-05,9.810632225277846,-0.0017484412329051866,-0.0017162062805243523,-0.0005689397041628
1691525094.760083,0.08291150449884699,-0.049066983241815805,9.754818516951635,-0.0014373842808832566,0.00035132980925968004,-0.0021376523475105
1691525094.7696087,-0.04168714898167069,-0.01594063519383483,9.834297941038523,-0.00025010502302945235,-0.0012792353349797404,-0.0007980414486432
1691525094.7789602,0.04446465513190415,0.10323264479092736,9.819953663944771,-0.0019112211007893739,-0.0009081917487772035,-0.0003238125757257
1691525094.7889504,0.10243780242401239,-0.2260253371088745,9.684530750018263,0.0029130208500781447,0.001118037994674732,-0.0008103071997816
1691525094.7990415,0.008348298383991051,0.11386282116132222,9.853023437062676,0.0001991447557330392,0.0012558423198174126,-0.0017807665101195
1691525094.8089836,0.0005395429928815145,0.011039804506469264,9.81839205336131,0.000593276540424038,0.0005867626016239382,-0.0009474484070146
1691525094.819008,0.03607742615387314,0.045070600702352755,9.811100147474114,0.000833565908694529,0.00041318357062654213,0.0008720061339495
1691525094.8289902,-0.09421253932187096,-0.10902658016697943,9.822594064752622,0.0021907100178763525,-0.0009525059395127099,-0.0014998758963252
1691525094.839048,0.13906141794039256,0.22837826832961633,9.817765756836529,-0.001314790571582238,0.001110546858539369,0.0005855263041389
1691525094.849077,-0.010830009399049335,0.008552906261644795,9.834318963175628,-0.00242717148806748,0.0010256112460524237,-0.0013832833903784
1691525094.8590922,-0.07753879137130242,-0.12106601952499302,9.816236389006992,0.00109695643879878,-0.001491941907457043,0.0001224689365421
1691525094.8689651,0.2382389558034708,0.08347299947437171,9.734270954489336,0.0009304024123180282,0.0022017010549934967,0.002463433560269
1691525094.8791685,-0.2324092747923447,-0.09594050138090465,9.891751277487232,0.0017347250758604782,-0.002144616430478295,0.0003351924422254
1691525094.8889885,0.010648654151131896,0.062363025412869394,9.826212173133682,0.0008551848522528181,-0.0021449763340782566,0.000781108526798
1691525094.8990643,0.1841366969500674,-0.05899039401661016,9.690645097744316,0.0014780355498009749,0.001814260908444337,-0.0004400573491061
1691525094.909183,-0.09281824537712328,0.27003119832673156,9.957310114472401,-0.0028876101284445277,-0.001044898931282243,0.0010660918813023
1691525094.919026,-0.016892831997742573,-0.33077431475460595,9.719307413989002,0.0027334826162017374,-0.0007383251617258289,-0.001699555181613
1691525094.9295633,0.0672745318915844,0.1112673094108137,9.81579008372205,0.0008198064038386246,0.0002485243059379807,-0.0012778478960449
1691525094.9390695,-0.030098991953126944,0.06349249809760203,9.855279111919605,0.0001440248975381521,-0.0009387277382635071,-0.0002291892708221
1691525094.9490936,0.06590288434400667,0.06982987378908231,9.796807360089906,-0.0004404744384266631,-0.0005300709971389403,0.0014758743816578
1691525094.9589906,0.05265384702501979,-0.08103136864549929,9.762417498683051,0.001295872266034473,0.00026529473066945263,0.0011074608517169
1691525094.968985,-0.05795037298539511,0.08904268540882504,9.889463936921251,-0.0007962418805658181,-0.00111978655960167,0.0002599383185674
1691525094.9792366,0.016374582081976206,0.09578465747257761,9.84811330272156,-0.0014015991199040313,-0.0018287096655824574,0.0023423741984238
1691525094.9892871,0.1893483777357211,-0.04982972758508473,9.706599957768136,-0.0022710764818126227,0.003179940753445324,-0.0015099583945179
1691525094.9989872,-0.17366507599914596,-0.007075454436074329,9.897511396942022,-0.0007701602921585337,-0.0014658608077421516,0.0007494398339708
1691525095.0090487,0.03163175020779898,0.007843012312092163,9.809875029089367,-0.00045090357476335963,-0.0013373398317825323,0.0012188278267508
1691525095.0190089,0.11006944896795728,0.026802725860989036,9.759273787558143,-0.0006803848625444073,0.0006698460011904316,0.0012165728474151
1691525095.0289843,0.08638831249024538,-0.07122820295070373,9.726496259571263,0.000434962948498064,0.002666227608036528,0.0004301772749108
1691525095.038976,-0.02209917122060959,0.01067873356307707,9.820770234042804,0.00013804051705801357,0.0021514010141026815,-0.0002563842392469
1691525095.04898,0.011616953452451603,0.060854311816114275,9.831254437922839,0.0003157445518892866,0.0013601488949376089,0.0017731557197926
1691525095.058966,0.068303282075734,0.07150978859464105,9.798010423462788,-0.0013699166232732484,0.002982883204206433,0.0012873815355937
1691525095.0689712,-0.17163678299823457,-0.04432342990063219,9.902120072744852,-0.00021248628114644484,-0.0010612938783314636,0.001061993028788
1691525095.0789857,0.1087266713096538,0.11850634091412994,9.799275777850442,-0.002781447937586642,0.0009171994688189713,0.0009372107340545
1691525095.089038,0.07293261901285412,0.009087862950489719,9.779153406435894,-0.001572231194895304,0.0013240039125163102,0.0030706647264828
1691525095.0990572,-0.07409316765043998,-0.14215622887486412,9.808625555626666,-0.0004579730526365424,0.0008277991328660964,-0.0007835114194954
1691525095.109063,0.018410753118920303,0.030253636550848426,9.826817696529604,-0.00024340939142427986,0.00032040491902945144,0.0003098437043895
1691525095.1190133,0.051528786988599785,-0.038636577949422185,9.779944009756527,0.0011342006363344957,0.0007357879889776228,0.0009752139046845
1691525095.1401825,0.008168188754187511,0.01826557275665171,9.820558716522285,4.2333134716945494e-05,0.0005130113347765804,0.0004920286771898
1691525095.145978,-0.1724462993522815,-0.1498275682193494,9.863153944002482,0.0021787816325790515,-0.001915494095398242,0.0007524328136873
1691525095.151291,0.05896083058937615,0.14647920493411232,9.834727338823066,-0.0008010927957795057,-0.0004954207006996107,-0.0018206320057565
1691525095.159219,0.03123971956949254,0.19717533639849538,9.863854608186458,-0.0025188100978716143,-0.0011387886559217765,0.0006149511498456
1691525095.1713026,0.08993171164217442,0.008502770325234686,9.76794716857574,-0.0017983570787685355,0.00022951418693221905,0.0019448930577432
1691525095.1793046,-0.03774750047103177,-0.3420213027313578,9.721247375357308,0.001981344687760166,0.0007361511244481325,-0.0016965784418339
1691525095.1890318,0.09236106275173774,0.15180248850930342,9.817608262390154,0.0011930723565490998,0.0009891002020841104,0.0018144956736882
1691525095.199046,-0.017454703905582573,-0.07504270015810935,9.797098608822493,0.0017470042150204554,0.0009701182911229694,-9.28365445638608e-05
1691525095.2090218,0.06854676045605101,-0.06556566078656029,9.769128822872464,0.0030739313466007375,0.0021428490189692915,-0.0009128015774244
1691525095.219067,-0.054081473450333005,0.06126480392228635,9.859490031779126,0.002493185649294095,0.0005439498550046069,0.0003635120990743
1691525095.2290962,0.017764103538121277,0.07629698744920604,9.824704265223387,0.0006525420840415295,0.0009753168234486479,-0.0008911671868468
1691525095.2390392,0.06596149949711548,0.12798400577197544,9.823034132865477,-0.0015312411978843706,0.0018112668700533633,-0.0002757574950287
1691525095.2492542,-0.12434792275495805,-0.09735398591560927,9.844429873916646,0.00037349802150673047,-0.0009003628674813322,-0.0011105963314826
1691525095.2589948,0.022822010925481966,0.07114868524655267,9.837905860078363,-0.0007112904039847392,-0.000889566304112588,-0.0008703181340301
1691525095.2689905,-0.003914325596055422,-0.06040113226029773,9.790331469247805,0.0004416695776116327,-0.0009972286162455279,-0.0015289480618143
1691525095.2790356,0.15302928924171152,0.12256321912143565,9.768334868027791,-0.001573728133554083,0.0017673264925787099,-0.0009366050182784
1691525095.2889905,-0.04661927836613346,-0.07159429848269741,9.815933519747146,0.0006599772361471609,-5.434454775548495e-05,0.0004596290707645
1691525095.2993858,0.14113972624806434,0.12186540834447027,9.784574800675244,-0.0013196545504546226,0.002273580148509859,0.0013034043766033
1691525095.3090448,-0.12369879347427452,-0.2271597203089591,9.807506975838326,0.0016818285778711752,0.0004638527964252816,-0.0020586682769412
1691525095.318992,-0.0032217316117005715,0.08480127470236587,9.837155194730085,0.0005772877655594581,-4.803622088959631e-05,-0.0009608403599763
1691525095.329019,0.08290291432839754,0.036321869151582774,9.789326890519739,-0.00037566851177624005,0.0015791927327774315,-0.001708873063972
1691525095.339125,0.05632725678174202,0.010916352159828049,9.78871759703474,0.001399821345751177,0.0014149021303187172,0.0016431318542977
1691525095.3493085,-0.146852945698006,0.06897727244762446,9.919806977056854,-4.298404392303617e-05,-0.0020760686758586294,0.0010336787270439
1691525095.3590193,0.1254955340963292,0.017344640083739604,9.769474444898213,-0.000764207870876066,0.0006713319367569575,-0.0005637270917127
1691525095.3690896,-0.004128244158090997,0.041776027093926096,9.836242326172817,-0.000995916006045794,1.4937383198480267e-05,0.00073193166806
1691525095.3790317,0.10356562441542394,-0.26538811952956504,9.666929430854863,0.0031838340989490967,0.00278098827910586,-0.0017058984196687
1691525095.3890178,-0.17760680886695715,0.07690207912585607,9.92401003810725,0.0018226594300169807,-0.0011070960443834378,-0.0014264720777923
1691525095.3991785,0.1322245220016748,0.10927018432477072,9.793285873832536,0.0014955719999079223,0.00010507797543376413,0.0015466401125827
1691525095.4090042,-0.1512363620033654,-0.07296851512578648,9.879843995216682,0.0025949043972158348,-0.0030267636763975335,0.0001277144945283
1691525095.4189982,0.2555394407644393,0.1565721452665123,9.729385061486479,-0.0012127517662278262,0.002353679295877378,-0.000781266000768
1691525095.4291296,0.011628672086206392,-0.07134909409017584,9.786254262710461,0.0025364161954072304,0.0008263253445306371,0.0029886865702514
1691525095.4390678,-0.06994159278491788,0.06454870952876847,9.869460977280065,0.0007128795474387003,-0.0005103278561496057,0.001760481118044
1691525095.4490323,0.12513479113161108,0.03270052932039949,9.757564435960672,-0.000506799356281501,0.002330582041028507,0.0003359359868859
1691525095.458985,-0.1384858841720443,0.09480877221958789,9.924857474647887,-0.003244127234921809,-0.0003155210406346298,-0.001129235122999
1691525095.468995,0.01387251244227802,-0.23723114848446197,9.730091571688737,0.0022305681870926504,-0.000560586493271499,-0.0004210086592415
1691525095.4790063,0.0968506267424064,0.2008440662063892,9.823677184367854,-0.0005451598479417103,0.00046011531018571173,0.0017992254759242
1691525095.4890482,-0.016283092553667743,-0.002961524241030017,9.822918996520007,-0.0003633597054115759,2.8726593968723102e-05,0.0013708301592209
1691525095.499004,0.040094129400711546,-0.09401520410966416,9.77158385781398,0.0007154788525032965,0.0010751442930771655,-0.0003983439930657
1691525095.5090442,0.036910071759961555,0.06774432751831477,9.80919792143442,-0.0009866296145491487,0.0019207739220446875,-0.0013207504345978
1691525095.519072,0.0523814444050385,-0.07408791623772708,9.771768990009727,0.0012820969974044175,0.0022244155488577383,-0.0003394525085518
1691525095.5290363,-0.17072459734761244,0.15837141773267957,9.964555496526186,-0.0017055749071450122,-0.0019546216244913472,-0.0001327059983218
1691525095.5390112,0.13459473117812085,-0.13036750633961555,9.706730352976559,0.0012858388967571072,0.0007033818582263488,-0.0005033459567407
1691525095.5490084,0.060975218470944954,0.025594424268161504,9.805091064322852,0.00035598135421179434,0.0019085287302821078,-0.0018828105932975
1691525095.5590234,-0.03576125037844037,-0.00551355803428438,9.816224446452502,0.0002587794307358325,0.001257698603954584,-0.0017207995808626
1691525095.569066,0.04453704551579156,-0.019870250346612196,9.80006067351899,0.002081169422454358,0.0010896765492237745,-0.000318619288219
1691525095.5791476,-0.045556642121205596,0.1487894509734672,9.883114462187288,-0.00015585439487749485,-0.0005874387811480997,0.0010698200237761
1691525095.589056,-0.024357386371170457,-0.1780417158286214,9.778519540890137,0.002295755538719946,-0.0007837445969315938,-0.0011809894169623
1691525095.5990276,0.03337863477408177,0.18036634918626018,9.851526847599946,-0.0008737225836663832,-0.0004939454456404694,-0.0005000239291171
1691525095.6090405,0.06259755286439175,0.015106441651292307,9.786679024079687,-3.10724810534436e-05,-0.00010389437230218437,0.0012732324119219
1691525095.6203778,-0.04903693401106458,-0.0826821302265579,9.822424883525649,0.0008182911925358107,-0.0009111592664898515,-0.001278612279048
1691525095.6291084,0.05544137255222346,0.03836578062553582,9.793813530970928,0.0015533222946398186,-0.0008273718701235262,0.0007587570469418
1691525095.6390655,-0.03533411225222856,0.04092765297940361,9.840891710581289,0.001099191309829233,-0.0018164097461485546,0.0010377834003243
1691525095.64908,0.2249229255815266,0.03726496559358365,9.69986786022333,0.0009188698165945034,0.002519455248334637,0.0016845069074129
1691525095.6590571,-0.1723894223558169,0.05442107855935734,9.92883152569638,-0.00015474688684728553,-0.0012859307673808871,0.0012445332393049
1691525095.6690743,0.10112337543848701,-0.0050968157860951015,9.770969563687535,0.0004435384156527664,0.0002664047009097507,0.0021136389875841
1691525095.6845284,0.03137841090490948,0.028858202382556812,9.800103389023343,-0.0012965492447412383,0.0019636409464322715,-0.000181497289514
1691525095.689293,0.08025494521757234,-0.1320211803026966,9.719940611771687,0.0009375052934702731,0.0021014774934659773,0.0012258911845215
1691525095.6990829,-0.10972117919092839,0.06949578981322713,9.907023449007243,-0.0002508646933942048,-0.0006861560829623056,0.0018044456553702
1691525095.7091153,0.0212277343074358,-0.05698164800301023,9.780217295647898,-0.0005715985557186151,0.00035133746180464364,-0.0013415601390356
1691525095.7191834,0.07726404849158938,0.11619949921688731,9.813025132323267,-0.0020930356027279557,0.0011835509371900545,0.0001973475043719
1691525095.729082,-0.09377490896749084,-0.04501152925103883,9.8399129466271,-0.0019834897070334636,-0.0001799049049464752,-0.0021216410498077
1691525095.7391093,0.010250655808800998,0.023963114383166024,9.810541193278883,-0.0002840084804539349,-0.001499391757889984,0.0017522910673228
1691525095.7490487,-0.0129021497418244,-0.1842099770089981,9.769721210726084,0.0012738707175452657,-0.0005304158103509334,-0.0027553227084631
1691525095.7590585,0.016207195008358065,0.02902922940719292,9.811684200886964,0.001976869137807841,-0.001252017809687941,-0.0010316120280826
1691525095.7691083,0.0732613571504807,0.1695891258170542,9.845241136290992,-0.0008629059962575766,-0.00035535076441109534,-6.041324762055388e-05
1691525095.7790866,-0.08690592730273757,-0.03818114012127095,9.84804034762099,-0.00042295644897719797,-0.002159152709096818,-0.0012428404117877
1691525095.7890658,0.2539407014576656,0.06206378906722769,9.710900713381712,0.000947568023820673,0.0013470945931949795,0.0026318439229448
1691525095.7991202,-0.11256824730314331,-0.019409066357638477,9.868379353460886,-3.739669653791497e-05,-0.000384783955141447,-1.4612433215470226e-05
1691525095.8090916,0.1134537545912295,0.07506325871161444,9.78677792774233,-0.001566628856115405,0.0016212869826444658,-0.0001088524988795
1691525095.8217142,-0.051741703522016645,-0.10848579153370397,9.80263198380816,-3.107615369791823e-06,0.0007793538708833075,-0.0025638327754045
1691525095.8291335,0.11096045289646263,-0.0011748623676510568,9.758518411013819,0.0011792599714895327,0.0017561483809280071,-0.0011657262041176
1691525095.839049,-0.11627259929858212,0.09102220800349742,9.906443121929561,0.00048713030479985485,-0.0016409482545684726,0.0009621437236723
1691525095.8490822,0.09151237320426403,-0.010071563860590252,9.76075371110664,0.0005340592300597658,0.00022801908421812476,0.0001448202126716
1691525095.8592055,0.021129296756961354,0.13546446770630938,9.852218160321728,-0.0019328209709535713,0.00034089581909309936,0.0004990969498698
1691525095.8691256,-0.08628539193680974,-0.23054853103413794,9.782751538578554,0.0022477060976760694,-0.0014174266741311314,-0.0009712639550621
1691525095.8791535,0.11095875782241156,0.20073251394739375,9.82201446185112,2.853161700147496e-05,-0.00044624978955106354,0.0022403003129234
1691525095.8891516,-0.0008363330147888567,0.04544858267404389,9.821482924293388,-0.002321745243654623,0.00043143354396983765,-0.0010647666460777
1691525095.899136,-0.006351866792611896,-0.09185200810484342,9.792353825394837,0.000914040772487809,-0.0007632703426651227,0.0009193147887067
1691525095.9091256,-0.03815062529746998,0.07032268294123378,9.861351907955637,-0.001171731833002973,-0.0014978931416954064,-0.0009362590319419
1691525095.9190617,0.09736319856829935,0.06865390243413803,9.782392248194519,-0.0021820501437928874,0.00026601263179014644,-0.0005242414592708
1691525095.9291425,0.010564206388260453,-0.049311389310814184,9.786879548286501,0.00012912351673236952,-0.0006366130210266953,0.0013898150098334
1691525095.939105,0.04988028662141339,-0.09288614857185075,9.744503439206188,0.0013163519210982863,0.0006646310038493622,-0.0001342139259854
1691525095.9490752,-0.0028144806777224396,0.14642392295534007,9.880064727665498,-0.0014381166088542415,9.46575385821615e-05,0.0002238096383457
1691525095.9590795,-0.11970052203603283,-0.19680276941055302,9.809023905186738,0.002362824822926847,-0.0024843759364145132,-0.0009306475805992
1691525095.9690993,0.23012650744668545,0.19929937573197595,9.76147766568947,-0.0002542223296072962,0.0012386987277973821,0.0013674849722242
1691525095.9791374,-0.10192925171000207,0.04946814489353425,9.89183048866628,-0.0017230867243313865,-0.0008418710705152088,0.0002159838511665
1691525095.9891071,0.16775126459899958,-0.07088875812335749,9.702938693543532,0.0008201559189005209,0.0015948549309438905,0.0020428441528288
1691525095.9990723,-0.17678939703608515,0.06088681681074605,9.935712719198447,-0.0013848267305815209,-0.0016960981558420494,-0.0002858153131733
1691525096.0090697,0.1216600147445622,-0.05750625493423418,9.737997630366545,0.00031389287518951,0.0004731558729731957,-0.0001412682288269
1691525096.0191224,0.11020101515239085,0.048593221921161854,9.770601934529786,-9.365336788568285e-05,0.0022311155580727344,0.0008153965352625
1691525096.02905,-0.09527394928627951,-0.027404649820327084,9.853013138305968,0.0009617220017681353,-0.00013331885363838147,0.0009483797946536
1691525096.039134,-0.01662864286588723,0.041301446442306454,9.847062187140827,-0.00014990070446376915,-0.0009081891122234769,0.0003426397631933
1691525096.0490742,-0.03989503663753209,0.06842898844324723,9.860025775371914,-0.0006483414721346042,-0.0025163962776720726,0.0015541053324063
1691525096.0590513,0.08435660599988246,-0.10190490434512874,9.74820164037905,0.0004945817543982917,-0.0004768197984335833,-0.0007552152785415
1691525096.0690546,0.03361880339355813,-0.06591978124479268,9.776633484157301,0.0018535547147937974,0.00018817268963373511,-0.0013992991118634
1691525096.0790536,-0.030264446907181903,-0.07924952317870701,9.808239219883957,0.0034204011127664936,-0.0006925022682546561,-0.0023444345972443
1691525096.08908,0.09056802693525838,-0.035594750519452205,9.750141820769754,0.00499771246676436,0.0006516131996656861,-0.000907521909749
1691525096.0990543,0.011428873847241058,0.24597071601157927,9.898380700672709,0.00020286817099439799,0.0004269654711178112,-0.0004310989572609
1691525096.1091058,0.08263606784041165,-0.08221048757591028,9.75167943800764,0.002114700463113295,0.0019036541982327673,-0.0007168543345237
1691525096.123764,-0.02422190463059782,-0.06841077809144908,9.799861616879399,0.003335837864151417,0.0017982445288690398,-0.0027199333819503
1691525096.1290853,-0.10190263639837487,0.7196158699021471,10.109475558395415,-0.0027937381144856016,-0.0007141091436171601,0.0008109044754469
1691525096.1391635,0.11017916039734585,-0.08573251036088962,9.732776668349976,-0.0014232132269646276,0.0016048849100265576,-0.0002411245188618
1691525096.1491437,-0.11626850722487439,-0.04368603865491324,9.86901700470893,-0.0008886528031894001,-0.0008798821259291062,-0.0012912717468048
1691525096.1591792,0.12506342111122176,0.07416389316884776,9.766133509329327,-0.0005753166451915487,0.0004783603050600066,0.0017694254818429
1691525096.1693273,0.12048729680198902,-0.08646217350024042,9.7161184167811,0.0014575274567367302,0.0027433596631654417,0.0017370277962704
1691525096.1837122,-0.10311041903420545,-0.039555725140947136,9.854228346250919,0.0023769602616220127,-0.00031249620642841077,0.000976695580693
1691525096.1900065,-0.1455102102417104,0.272590554717566,10.00346964757091,-0.0021902542135336504,-0.001821255935425138,-0.0009582177556062
1691525096.1991851,0.1878114905931873,-0.11241964064855135,9.673782497988375,0.001073485353927755,0.0011001184250873518,0.0003717086690535
1691525096.209202,0.004158744302953983,0.04101043475570812,9.834639293346717,0.0003734950422781802,0.0009242875221250864,0.0002990589889754
1691525096.2195213,-0.0714546141440254,0.09048170622956779,9.882995699423933,-0.001126672548528592,-0.0013358514506690785,0.0015179680374508
1691525096.2291267,0.15686378204391385,-0.08414275572164992,9.700202938234652,0.0016546231052348963,0.0006933189650870249,0.0035806668636446
1691525096.239086,-0.07035017340682836,-0.15340474511206034,9.807729841359892,0.0025974945408362873,0.0004318286727005222,-0.0012622081960494
1691525096.249162,0.19815274426885185,0.15427389066336572,9.756282948217168,0.00027737885452518314,0.003984984612146027,-0.0001211438613886
1691525096.2590666,-0.1116424338047592,0.006066450061824919,9.873455197771804,0.00045321688576703155,0.0011690379093001182,-1.1255713825912388e-05
1691525096.2690609,-0.18847134044077302,-0.012570764615914665,9.92890354920557,0.0010038257118727427,-0.0034287185726006083,-8.986469422826281e-05
1691525096.279095,0.12661247362686495,0.021400513782191554,9.7359450110306,0.00024236258057717564,-0.0004239130799936224,-0.0013426914631331
1691525096.2890942,0.13936289537852542,0.08070844200808394,9.766986563338364,-0.0009258565830182235,0.001934201426530931,-0.000901609408384
1691525096.2990663,-0.017716820536518137,0.002736255055001656,9.83018495276122,-0.0004658308610360317,0.001126568092444348,-0.000620348128205
1691525096.3091702,-0.0574639659826669,-0.004141663902832934,9.845805795088841,-0.0005652733986542009,-8.454022919930744e-05,-0.001783759315213
1691525096.3196404,0.06949791639791024,-0.09432635218379465,9.737872944025277,0.001964183358600844,0.0012930915245874654,-0.0019640712819004
1691525096.3290975,0.020490620648832784,0.10766958291178941,9.835418549641194,0.0011070120257665873,0.0006649990192560541,0.0003895713196193
1691525096.3390958,-0.057731558383172364,-0.09678435166637128,9.804308070048762,0.0023006014980390087,-1.4845364959187552e-05,-0.0019454210816825
1691525096.34918,0.04506870506802158,0.21399425990419216,9.861069530131209,-0.001195579695060606,7.379143423001989e-05,-9.582562436708918e-05
1691525096.3591418,-0.027763647750385957,-0.026807247113159956,9.823814282959944,-0.0008528774553185906,-0.0006313849700294334,-0.0010744600842649
1691525096.369136,0.06369607653144982,0.029618091288113907,9.803657362193919,-0.00024713767803150516,-0.0004149545900973809,0.0007688079965823
1691525096.3790643,-0.03224575299175592,-0.22958451654142104,9.752462357557945,0.0034021842326593227,-0.000613157824188904,-0.0017963894463087
1691525096.3890593,0.11441569639959509,0.1870852344309532,9.811211999839701,0.001012374108370514,0.0007316982282748772,0.0004115529188943
1691525096.3990693,-0.03241515678449951,0.025133334826037256,9.84800432062544,-0.00034099634172443216,0.00021160988521313307,-0.0015978691919649
1691525096.409113,0.0203685016373056,0.07495546902632863,9.838221651667643,-0.0003853422132754926,-0.0007256455647122188,0.0007662100140528
1691525096.4191997,0.01742851488649543,-0.047841878628466665,9.788963716546228,-0.00046803853587525416,0.0001628331580640916,-0.0016459151922667
1691525096.429145,0.04479226376054188,0.003914500631165393,9.785804493693915,5.088276095019225e-05,0.0006783988798935636,-0.0011713346286619
1691525096.439139,0.030450712972466563,0.1383642301298537,9.83971545499587,-0.00205391234067165,0.0008210858829009672,-0.0003990526131297
1691525096.4492626,0.06917105720248294,-0.05714165534511489,9.76735559211124,-5.415508205096773e-05,0.0013672182815315408,0.0005412124044319
1691525096.4591622,0.046815276373769095,0.1445091512834865,9.840499480516838,-0.0013658446991957711,0.0010718023069747206,0.0033832215883826
1691525096.4691918,-0.06485536590108205,-0.1305692498286067,9.811348790087715,0.0005765199557937972,1.494772581055617e-05,0.0015671460021344
1691525096.4791918,-0.11386319026064749,-0.05196478197373903,9.859260709496208,0.0009766370621282204,-0.0022563592522314045,-0.0002463218809048
1691525096.4893773,0.11184587068256449,0.16278871240821796,9.820425116277843,-0.002713254441299662,9.801157277092481e-05,-0.001647416484257
1691525096.4992476,0.04613697856229009,-0.07790531706819943,9.777085862610367,0.0004569433346315278,-1.3370385700603211e-05,0.0008772110920922
1691525096.5092378,0.028482492142227308,0.04412670516305136,9.821667188606169,0.00024014852033490502,-0.00030841581526942346,0.0018755891540144
1691525096.5191853,-0.0465209176441236,-0.14473333410842967,9.781531286545706,0.0016445558904091026,-0.0003281321455740299,-0.000924326927116
1691525096.5292225,-0.04422598001577609,-0.050203332864149304,9.80891398218931,0.003657347078556001,-0.0021993776653171653,0.000741246465413
1691525096.5392509,0.13296795699531636,0.1438557833921808,9.781408931803924,0.0008995034281453912,0.0005018361086449828,0.0008399634860047
1691525096.5498652,-0.07402477614191315,-0.023898280966794746,9.850501434547128,0.001559650560925227,-0.0016781806091195988,0.0004681982861888
1691525096.5591793,0.12019435066446298,0.05575256803284687,9.770936082962455,0.0002554251681672531,0.000463463210959251,-0.0005041057995463
1691525096.5692203,0.08096140139596951,0.18264648489465835,9.830677671386303,-0.002134360188722824,0.0011612090974583763,0.0019657511327472
1691525096.579186,-0.11929697928616272,-0.21992790418990044,9.80702917436409,0.0007907275265129606,-0.0006440623116592738,-0.0016049449152255
1691525096.5891488,0.048192744258599325,0.08925676945225312,9.81140556087902,-0.001461955465692115,0.0004772548006945782,-0.0028223611700291
1691525096.599198,0.03585401669134195,-0.10013769104000098,9.764348132241349,0.0025472069028442965,-0.00020337187368837709,-7.573222340443841e-05
1691525096.6092782,0.00074034584344368,0.0835457850903224,9.846054081228145,0.0002952742725522806,-2.7900145359959828e-05,-0.0015255850559974
1691525096.6192336,0.049730147699697455,0.15130893656534466,9.828718737081562,-0.0018952047211687724,0.00037927199692093093,-5.595826608488074e-05
1691525096.6291456,0.01269411928772161,-0.14202847314498768,9.752654232764272,0.0010653011632652263,0.0003833769737255435,-0.0005059605284536
1691525096.6392062,-0.06009989734264501,0.0749941237487179,9.883839371219766,-0.0006893411249571098,-0.001037463297516026,-0.0014358097507561
1691525096.6491954,0.22084790436453985,-0.023986681528638646,9.698094511587549,0.001658311857422047,0.002266528160034199,0.0012482643960715
1691525096.6592133,-0.17855144338348575,-0.01646640593938079,9.889160532816044,0.0008350417738158643,-0.0005337632168335513,-0.0017297246779257
1691525096.66916,-0.030593459980459734,0.12378011404285248,9.880936901441997,0.00019916716543111793,-0.002802119429050208,0.0016926776331906
1691525096.6793015,0.15032371817447343,-0.12762229896715238,9.693558693788368,0.00203946315872703,0.0007421091820112348,-0.0005938854121545
1691525096.689379,0.044509914795171523,0.06661414903493973,9.811741491926798,0.0007456560965483683,0.0014018721229361428,-0.0003066679748649
1691525096.6991885,-0.16415688300240186,0.04897367599674416,9.933566081464408,0.00037723569466904843,-0.002846825699740134,0.0006514717422482
1691525096.7091997,0.09732539263938993,0.09397623086945067,9.77933265795186,-0.002285237939069083,-0.00037397086205598714,-0.0011303296598548
1691525096.7193227,-0.020998300154946897,-0.04389360496445702,9.81112228188329,-8.023637053066989e-05,-0.0017448892266258573,0.0006607799039279
1691525096.7291656,0.004517520135048134,-0.1008433004782391,9.778413961786427,0.001802903407185837,-0.0015921361696269259,-0.000490696267871
1691525096.7391503,0.13785351230908988,0.030762658119205488,9.759514615802235,0.001100304084069379,0.0010502040300358845,-0.0009891432530189
1691525096.7492356,-0.051495952252833425,0.13905952090508486,9.897078841235706,-0.0012581735403826013,-0.0009774787855940065,-0.0001047674852366
1691525096.759208,0.03069668997408394,-0.1544416700962875,9.740563788346355,0.001629299293322993,-0.00027675647472179927,-0.0012130369252468
1691525096.7692187,0.0566969127803148,0.11674985115199049,9.834441798992819,0.000594028327014934,-0.00019403565836897762,0.0013045088706071
1691525096.7793095,0.10079952849728967,0.035040878735966306,9.7869516719582,-0.0006714596324597637,0.001826166354633902,-0.0003908916662389
1691525096.7891438,0.00809624062800298,0.12742708389099988,9.842717619548727,-0.0026369234778545886,0.0015903525915120726,0.0006775436520633
1691525096.7992344,0.06162809931300229,-0.21536318237063842,9.706518264326272,0.002123647168062845,0.0024471999207225656,0.0006932760768627
1691525096.8092082,-0.1206994382251659,-0.1736491788587242,9.821580967873784,0.00408761010976497,0.0006392688978685172,-0.0026495356398577
1691525096.8192444,0.009767782277413529,0.2900944548637727,9.909179495030921,-0.0013289579665015175,0.00017810176979313135,-0.0015024959395582
1691525096.829214,0.12466330373677648,-0.03229324037785559,9.741809023954463,0.00010974648021981381,0.0020165323917010394,-0.0005354224524403
1691525096.8392882,-0.04930606361882102,-0.034573686977484426,9.836719015756378,0.0010664150676532734,0.0005428110195529501,-0.000136791826872
1691525096.8491688,-0.02045180931605432,-0.07953697472213951,9.80269471973834,0.0019861856390431354,0.0004090988215957798,-0.0020631318732107
1691525096.859159,1.4298254031919302e-06,0.17684481685618128,9.873587770606047,-0.00015921179373452294,-0.0006384789924366388,0.0002211934368183
1691525096.8691757,-0.1053821507637432,-0.043059156761677105,9.858808363067961,0.001905343207791781,-0.0038377470015188227,0.001617452118598
1691525096.8791585,0.184420777579659,-0.06359946574211803,9.690026083038306,0.0029681590430186687,8.83498581155043e-05,0.0004435926855598
1691525096.889845,0.036985756783689976,0.14317989203718243,9.849972662546723,0.0004502411953964249,0.00029099070334356517,0.0013316855072566
1691525096.900139,-0.06825516060154235,0.10699486626246756,9.893359867809604,-0.002354521608330863,-0.0012870445292985397,6.696793186119088e-05
1691525096.9092238,0.14053889270941322,-0.09772381266428988,9.713344841319083,0.0003351457637363839,0.0006959098955976282,0.0014687900291114
1691525096.9192245,-0.03646535856365154,0.05614336304474098,9.850607626213064,-0.0019514615247116828,0.0005662842145896097,-0.0010122379573936
1691525096.9343302,-0.004861322388469392,-0.017589141749465905,9.809502646906463,-0.00011414270164113325,-0.0005092003564444008,-6.304039218822232e-05
1691525096.9391782,0.24094440859086338,-0.08013280203913505,9.663632898338745,0.0005247358040345761,0.0019223006449980418,-0.0004884647025669
1691525096.9492605,0.03572049861674029,0.18716376496218953,9.87391573936392,-0.002114645458739994,0.0014577301503383264,0.0015228283189294
1691525096.9591842,-0.1020745695743759,-0.18738344620289424,9.809511914463588,0.0017898557906970468,-0.0009703883966481587,0.0013324539502441
1691525096.9692204,0.09077477400403243,0.09941077729918613,9.806125468297338,-0.0007049446242604333,0.0008780894308729318,0.0002428117620815
1691525096.9791565,-0.03182904357595216,-0.09907308858443659,9.796677659162064,0.0008965235059872306,0.00025337018086941704,-0.0009440679388994
1691525096.989169,0.03827686089644694,0.12334308836266124,9.862585614629214,-0.0005950737691167914,-0.0001839915894079278,0.0004730252146778
1691525096.99945,-0.038644050451528134,0.0024295864213114988,9.827554005335744,-0.0006367906662611784,-0.0009663037105251146,8.82042984535385e-05
1691525097.0094128,0.05277133324501648,-0.09154796800709919,9.756470648716844,0.0019545164269851494,-0.00027264778068291837,0.0007896933127717
1691525097.0255983,0.060324851599556556,0.06166244892038477,9.806115914342572,0.00039658196293633144,0.0010498291679549453,0.0016390494308957
1691525097.029252,-0.08465947776027395,-0.07237406583988604,9.823228084438218,0.0006286767968578396,0.0006355775026489692,0.0006998800852393
1691525097.039167,0.09123728825947999,0.0004957136512030829,9.77455247901613,-4.746119592471326e-05,0.0026375439208888413,-0.0008207666507864
1691525097.049196,0.037517543682826546,-0.0016893984883422683,9.790266918308083,0.0013226835715947675,0.002399126649282172,0.0011543470934789
1691525097.0591576,-0.1253696575228525,0.21932503846881432,9.960324080663984,-0.0025139767426836253,-0.0007968118249319305,0.0019474876060207
1691525097.0691724,0.03389874332523982,-0.10733287286509313,9.75378501038038,-0.0008770860278805112,0.00018331907378571396,0.0002904880273213
1691525097.079166,0.022949345272441437,0.09282116157526557,9.823046119251762,-0.0034225707037115975,0.0009008109140110852,-0.0004560523486638
1691525097.0891454,-0.01431461728056945,-0.2347690312460593,9.744325587244951,0.0026053270223897794,-0.000204484999184025,0.0005341235262399
1691525097.0992482,0.013644284981865632,0.04470505400087251,9.819973102191346,0.0013033055899919377,0.00018779264687177242,-0.0004959462496394
1691525097.109285,0.031075229285494544,0.05238144872104084,9.833829460947124,0.001394605885352669,-0.0003195906017690821,0.0008835550868475
1691525097.1192648,-0.01497698846082163,0.17001502138727964,9.868849376042549,-0.0022301131345886667,-0.0005259782760236039,0.000148563198099
1691525097.129278,-0.01013600872911518,-0.03697984983410076,9.811297799300162,-0.0007563757644318871,-0.0012494261487466076,0.001472895517299
1691525097.1392736,0.04244884606149276,-0.09947239856032239,9.76062187220717,0.000903609934271034,-0.00044660940268767367,0.0001288186938559
1691525097.149252,-0.03104528221453429,0.0020986670424357873,9.829547000987887,0.0004535996905740273,-0.000816920284982467,-0.0007261449756974
1691525097.1592383,0.23908726646161196,0.13884925411372165,9.743441878965026,-0.0001238220334026897,0.002400611529985268,0.0032245298096036
1691525097.1691494,-0.08121524389201107,0.05498424575318831,9.875657291088096,-0.0032944278083356605,0.0017304222276492854,-0.0007131302083785
1691525097.1791575,-0.03392239115525715,-0.16029873384373333,9.78040818191084,3.52317490404455e-05,0.0008393437192804648,-0.0006710249983648
1691525097.189153,-0.0582727550668953,-0.03720364606547025,9.831725281537782,2.9658666472493885e-05,-0.00028310442322886206,-0.0025239784556383
1691525097.1991384,0.10545904773742476,0.029443871627392742,9.7629236030422,0.0009665745363332446,0.0008777066690387143,0.0003880891197418
1691525097.209275,0.035096830696684345,0.037657385881900846,9.813960849325241,0.0007061562353756643,0.0011045971119304678,0.0008861646818054
1691525097.2191963,-0.01018339471638944,0.026849470558130455,9.829933181712088,-0.00044493349878327434,0.0011276694368417793,-0.0005671046494449
1691525097.2292297,-0.06929585870159512,-0.062064547379065686,9.838118931813872,0.001230312241641789,-0.0008612488874195251,-0.0003949770291278
1691525097.2391863,0.13321087835927298,0.11787432385504046,9.784677090080283,-0.00027917815159885423,0.0013649853042013121,0.0005251802683865
1691525097.2492404,-0.018805417969037935,-0.12969044406250413,9.785836969297689,0.0026660531780276823,0.0005103931315460987,0.0005977936850917
1691525097.2591956,0.02603625454757169,0.0239245502254412,9.806107564785718,0.0010261333719956674,0.0015575862763938264,-0.0018567943300063
1691525097.2691803,-0.00744379230156756,0.013086401187576863,9.829247050850318,0.0018781508540532568,0.0003975485051760364,-0.0001382672746608
1691525097.2792132,0.06835937239592346,0.19065613682511975,9.841999648007958,-0.000974694393005466,0.0009052770478191944,0.0018621920787786
1691525097.2892375,-0.09140662475001082,-0.108892300711509,9.834369251537705,0.00016563680991850258,-0.0007155896605396712,-0.0008501943486685
1691525097.299258,0.10053141073923944,-0.021500676658398738,9.776008555918349,0.0014132214943776515,0.0004321845549781549,0.0001478113879506
1691525097.3092463,-0.02060778994839479,-0.011880640383017173,9.832089097776262,0.0015309566696860648,-0.0002458431126328728,-0.0004914472631121
1691525097.319136,-0.033726416462593445,0.13110032079961317,9.886790406325288,0.000434969129389598,-0.002383023586542448,0.0019694819527735
1691525097.3291514,0.036764737702843824,-0.12771175369683682,9.7534991369512,0.0018829877816820683,-0.0009577088911525135,-0.0009425782884413
1691525097.339214,0.15982238311748898,0.10989350149456964,9.76661510445261,0.001279117850872721,0.0012010766661468024,0.0015119976776709
1691525097.3491807,-0.06101740692123667,0.007162402485064789,9.849483320344465,0.0012653383011787256,-0.0001400307882524919,0.0013182976506591
1691525097.3591774,0.06336848284441486,0.12111309692454376,9.817606224373673,-0.0015315952403866615,0.0010304502135051305,0.0004532681375799
1691525097.3695405,-0.030174406315713533,-0.1354355672865745,9.791562150329254,0.0008670903282925903,0.0005197204428649748,-0.0007637769269699
1691525097.3791716,0.0030050737491891717,0.04495171417700099,9.84236742755606,0.0005169267305514981,-0.0001646177111392835,-0.0002988512680808
1691525097.3892035,0.08214504226093082,-0.05101668652000188,9.756577630485161,0.001673646685937467,0.0012498676072729641,-0.0005704017641896
1691525097.3992493,-0.022666422035729578,0.03563165361809155,9.849108861373162,0.001980588333813842,-0.00027152232458266853,0.0014263291266338
1691525097.4092214,-0.09647865252463077,-0.03762893399727222,9.840707996391696,0.0017172113904013226,-0.0014684539360374515,-0.001223472627526
1691525097.419186,0.12812475647393304,0.13700088364753124,9.800342707278606,-0.00033132181120720653,0.0005808117908350684,-0.0001837404963503
1691525097.4291785,0.07818573490165931,-0.07701543260480838,9.749606287122997,0.002363169334881879,0.0013176869498830663,0.0011234802257326
1691525097.4391782,-0.022494146572093917,0.10599725465632867,9.858198885436904,0.001019836441814714,0.0002071696906403023,0.0023848352900763
1691525097.449178,-0.019602256372408686,0.017205518110011572,9.846812725810093,-4.9695578484614355e-05,-5.173919338837727e-05,0.0006201767426041
1691525097.459255,0.037697224454228906,-0.0675578187044054,9.775558176987436,0.0014664864019964725,0.0005167459921290678,0.0002282604289298
1691525097.4693377,-0.11284734655017824,0.052462091142794307,9.908056589860875,-0.0010592490017639678,-0.001313111721422963,-0.0024833639438206
1691525097.4792163,0.11878438704574903,0.09740032016465201,9.786290362476192,-0.0008334936922106828,-0.00048089657829644765,0.0015198302460425
1691525097.489189,0.016795881376802047,-0.07811259918557084,9.785877211649277,0.0005251110380657579,-0.00028158749742670044,0.0004990905470271
1691525097.4992626,-0.05848496417765994,0.004713991295499429,9.848260601363618,0.0007061740152744839,-0.001866697260433413,0.0002692529412975
1691525097.509204,0.027109160819682097,0.008803745889930308,9.809445444399085,0.00018761870092662142,-0.0014177855485712218,-0.0011109611771012
1691525097.51932,0.03121269819171951,0.03425279883342764,9.817912190409109,-0.0009966618326963006,-0.0007647734452473593,-0.0022658095515275
1691525097.5294032,-0.0027006967984651463,-0.08050692181645311,9.783005329391655,0.000974020193239388,-0.0010397060485946175,-0.0025932602404559
1691525097.5392094,0.21757640754166646,0.11807158930774092,9.744618739194667,0.00045657459683739755,0.00206758049933927,0.0003765545150322
1691525097.549379,-0.01544011137563298,0.14769047165845958,9.880851270314661,-0.00256164042888053,0.0015698837180761309,5.058049625357875e-05
1691525097.559307,-0.11498743123850941,-0.06948844701546426,9.841668374712567,-0.0013647109235055003,-0.0007952994506043776,-0.0004210428853462
1691525097.5692267,-0.0034726353404118046,-0.10740501655281012,9.77774916530952,0.0006912567305079962,-0.0009234542839330467,-0.0006371058809513
1691525097.5792055,0.019134323091968847,-0.005799782477954682,9.796471098061943,6.57434887142994e-05,-0.0002946345666095868,-0.0025083357288444
1691525097.5891836,0.11249455477772172,0.020724752530441624,9.771491644000399,0.0011129667035758286,0.00073989110706469,0.00039406972407
1691525097.5991838,-0.0896218977180878,-0.06307433050277134,9.84162292761079,0.001383416760728202,-0.0008526803716641059,-0.0015796231857443
1691525097.609256,0.06669114361719725,0.037572866202491215,9.795038272006558,0.001092116648948037,-0.00011096304054329789,-0.0007775395463163
1691525097.6192112,-0.0018698981941644131,0.1416665681254946,9.881922071707955,-0.0015208251427311062,-0.000875055652605357,-0.0005402661447356
1691525097.6291847,0.08535112510199444,0.0033078027635377377,9.765823966344414,-0.00016703764464511564,-0.00015381769763373048,0.0013682096357747
1691525097.6391876,-0.08958601309048343,0.05781761862671512,9.90213686008789,-0.0007865388389735741,-0.002830427149643401,0.0021236950012912
1691525097.649238,0.1378187415063715,-0.014977397401651278,9.732953263500697,-0.0008338712050354874,0.00015240032672061792,0.0011670433775811
1691525097.659215,0.11012105560420066,-0.03693753261032626,9.739432187128562,0.00038654440782184975,0.0020124394978324805,0.0013674702747898
1691525097.6692493,0.00014155365774016495,0.031591717363891714,9.832740141074266,-0.00021768459466307678,0.001446940224131876,0.0014047222973836
1691525097.6792536,-0.12190840317318573,-0.2289738680954343,9.79427846956584,0.003198756223756637,-0.0003810524057270748,-0.0018750394049043
1691525097.6892226,-0.03539550626803095,0.10764680689505975,9.876159197777106,0.0002993581345498096,-0.0010855148232882315,-0.0032328956115002
1691525097.6991997,-6.747101336986173e-05,0.02037142140851121,9.823075073105503,0.0020431831594976994,-0.002529048545018826,0.0002688906568159
1691525097.7093086,0.185708394945892,0.03998979001888491,9.722016865142077,0.002043552356903479,0.0008322695999885068,0.0013227623601501
1691525097.7192495,0.0037467988426322487,0.21243388696078766,9.882920746542812,-0.002120587866307326,0.0005755886096407087,0.0008440644776505
1691525097.729225,-0.1039805893692457,-0.20220877060150888,9.808546735332456,0.001823010496962437,-0.0016178452031836482,-0.0002709226502979
1691525097.7392373,0.006095707151747737,0.21937320246038952,9.88930084009085,-0.0016426215645189903,-0.0023755848054463815,0.0014300551736318
1691525097.7492774,0.1188951190244064,-0.14452280876597537,9.702279417655145,0.001398694507731129,7.529984319049469e-05,0.0004756365849693
1691525097.7592015,-0.05933407245034272,0.06343725823552199,9.872248066325236,0.0002569012198699365,-0.001431213988511984,0.0005523731413354
1691525097.7693198,0.1777070235721274,-0.05368698752807868,9.691744362681852,0.000767652707012003,0.00261072865033068,-0.0009224396019185
1691525097.7792964,-0.1011030610876047,0.1071408185075283,9.914376504863045,0.00035599413330239033,-0.000889185413219532,0.0017496805119385
1691525097.7892296,0.014684675940225007,-0.0356476439389293,9.802991794650385,0.0004301254693189918,-0.0006403321574845991,0.0005881220747773
1691525097.7992156,-0.00449206832647788,-0.05843506712929049,9.78906143332699,0.00047704697834766315,-5.6564840533953754e-05,-0.0018806014961505
1691525097.8093112,-0.033388533536886804,0.14646771271374698,9.88668390422457,-0.0022457389690808786,-0.0013202065129365552,-0.0013646620611602
1691525097.819414,0.015458813336685487,-0.1375882589820874,9.763040429562132,0.00046516180093180267,-0.0012017432660028238,-0.0020698539267236
1691525097.829252,0.2318310241115728,0.10287164743236996,9.719333428723441,0.0008290749464520225,0.001995690369961142,0.0018498843017091
1691525097.8392737,-0.04655316949477712,0.04591870763102805,9.862814878279153,0.0003377287531668709,0.0005331375338115494,0.002247004554892
1691525097.8492064,-0.0015002726467189685,0.02543597673296581,9.827652559577526,-0.0010365323230175519,0.0008240767310909086,0.0003337151317914
1691525097.8592978,-0.012670725101885601,0.04493276797677807,9.845035602278196,-0.0022844907482187176,0.0002261594371723638,-0.0003334999603162
1691525097.8692024,0.08811388896610542,-0.09284675786767738,9.737950554734606,-0.00012269833246932016,0.0018295215034124987,-0.0005071192101518
1691525097.8791957,-0.08923677964799352,-0.032530734739285486,9.857986281115725,9.708955001717012e-05,0.00013897172859872825,-0.0020367072249705
1691525097.8892035,0.025674165841059467,0.05421634018213973,9.816303668001261,0.0001965243435074271,-0.0002283261477338118,-0.0003469317273179
1691525097.899201,0.02348904416988294,0.0509673043093867,9.82057334899693,-0.00045760904216612166,-0.00019553880965087207,-0.0001707001176605
1691525097.9092524,-0.07731485888615018,0.061079278924841135,9.877188508815044,-0.00031008417994048007,-0.002944804404684883,0.0019266337219682
1691525097.9192953,0.1129847252292227,-0.06079782544089494,9.731231670254868,0.0011230331977572854,-0.0007748207491472968,0.001672565518465
1691525097.932679,0.03807187110797454,-0.04127333285096859,9.775662516534245,0.0017183008510744165,0.0004444953534942653,0.0004819732455593
1691525097.939297,0.11979013227018524,0.2576407047814963,9.837756768983278,-0.001708601138172621,0.0019554402562379438,0.000458885176858
1691525097.949252,-0.018363246441557075,0.06061038673602469,9.85150910986688,-0.0019879601836375743,0.0007458419459703731,0.001839086897025
1691525097.959242,-0.07719930512173122,-0.2339831415546581,9.783357229424196,0.0010045775056097606,4.326560816566283e-05,-0.0020713328669721
1691525097.969237,0.07038323931977614,0.024667537938257007,9.799339285563697,0.0026038271436142173,-0.00029834334298821846,0.0011524957333399
1691525097.9792624,-0.025805771512594933,0.05352529996199785,9.860444995991106,0.00026694958821390054,-0.0004145866340722571,-0.001344547821855
1691525097.989285,0.007784292492258873,0.12387738839781369,9.83624769039606,-0.0019022837226215633,-0.0004034083703596907,-0.000538383476151
1691525097.99926,0.014170948819204228,-0.047199755210471955,9.7977652036723,0.00020512172793077493,-0.0010605505642867104,0.0009625324344319
1691525098.0092642,-0.11388151600587555,-0.007882623998977146,9.87128478607524,-0.00041440041292943244,-0.003137035365249451,-0.0011377865268791
1691525098.019256,0.11821411920528516,-0.027670481237119533,9.737071944265274,0.00063391013909015,-0.001034476061451467,-0.0008151684707904
1691525098.029259,0.013240252811979068,-0.06542255208585156,9.785895512248603,0.0018762745654168497,-0.0008660792822712131,-0.0015509326296801
1691525098.0392425,0.10670060040295633,0.2132401119354148,9.825657838025784,-0.0009016693649745079,0.00019822296371317403,0.0013253603790594
1691525098.049258,0.0462493599316822,-0.11350651696161547,9.755358651325862,0.0007203247132588457,0.0014424781856317856,-0.0006456691591943
1691525098.0613756,-0.1474224555532145,0.11966885652060194,9.934055363156007,-0.0017271944886892252,-0.0028192565688298925,-0.0002113077609742
1691525098.0692234,0.19920694172154801,-0.24370295545931353,9.629831400835391,0.002438053616401359,0.00030513741298596647,-0.0001315965603048
1691525098.07928,-0.028739593423843485,0.19389247428872605,9.890585286620668,-0.0016307119084509156,-0.0004525765922158696,-0.0006896226952726
1691525098.089218,0.027518170936535573,0.06837369966331969,9.823542747450123,-0.0023817255199687676,-0.0005490654664735635,-0.0002582415292913
1691525098.0992522,0.03126725794687017,-0.2030904144021804,9.742486964115256,0.001133440401625648,0.00022541273869027475,-0.0022915210395062
1691525098.109263,-0.04256352523828367,0.16104353727077872,9.878388459742995,-0.0006680824814329664,-0.0018208826013390647,0.0005929825308789
1691525098.119493,0.09285232597891784,-0.0011113802069349667,9.767275274244215,-0.001075261550398103,-4.654106031713614e-05,-0.0005484642281139
1691525098.1298006,0.06341417392080158,0.11454092044354863,9.824395762110024,-0.0020021118345569127,3.3193059412256695e-05,0.0020950223731865
1691525098.139327,-0.03801398655317659,-0.20163535375898162,9.767885865885598,0.0009162689211633385,-0.00017765481824756832,-0.0005860787170881
1691525098.14942,0.10343084862710715,0.031203368633728672,9.776099828331288,0.0010142518330708953,0.0011470520362231507,0.0005642973299195
1691525098.1593127,0.046056463197484555,0.02280970741089567,9.797183033773132,0.00030529595862674626,0.0020064855698435045,-0.0005190085905546
1691525098.1693325,-0.11703830869102684,-0.03511523436452583,9.874174332132124,0.0013435688475406712,-0.0008102174066909721,-0.0003968310595432
1691525098.179263,0.0699451359485853,-0.0009799398877018,9.771709017981062,0.0010753319143550779,0.0006687232941659469,-0.0010800666461641
1691525098.1892817,-0.09160478339867861,0.027373205000300247,9.869185547941543,0.000224883957498917,-0.0011596716391239087,-0.0017930650903786
1691525098.199224,0.10494822032854823,-0.03369256933043724,9.75034807806375,0.0010499979574907332,0.0008017582329420859,-0.0020687184116745
1691525098.2093158,0.06720081976489439,-0.047939873000988883,9.750231058130716,0.0030132351332688417,0.0016384436201703633,-0.001077049393853
1691525098.2206194,-0.022656996480394116,0.13128118753547868,9.875041117268555,0.0004643858881423123,0.0004232390121349431,-0.0002832102875168
1691525098.2294252,-0.009070568726426406,-0.12927298366581977,9.777696647867431,0.003314981988827328,-0.00019327883981690977,-0.0001584103849659
1691525098.2427213,0.03701141472411117,0.13637130409785025,9.84357313032376,-0.00031157891910540937,0.0005960871632628591,-0.0005368974345678
1691525098.2493238,-0.0325016360343463,-0.14727247541327296,9.787270787641093,0.001314867026968878,0.0002760862485764944,-0.0012357735360915
1691525098.2593167,0.052337796841106385,0.04588804267081116,9.80711103353916,0.00138489374926259,0.0004970115159207678,0.0001634578400348
1691525098.269251,0.062057990050299376,-0.07577616663022162,9.76912172426514,0.0029454401387258057,0.0014879133068733277,-8.580110100457183e-05
1691525098.2792792,-0.26358497390726066,0.10686758190049608,9.992940967987733,0.0008704675016696135,-0.004599941814416017,-0.0001137149340415
1691525098.2892818,0.19181862374049868,0.18247397735127105,9.778511067729074,-0.0022438858346990978,-0.0014651177103889067,0.0007285865319949
1691525098.2993884,0.049848165045517236,-0.08746512617052314,9.75083802366728,-0.0007388784096301701,-3.237242302787929e-05,-0.0007745751465613
1691525098.309869,0.1650499808576512,-0.06739505692490586,9.713339537457063,0.0023747383770037554,0.0022251509334847534,0.0014192453270602
1691525098.3209977,0.0433360445713654,0.0888090965791878,9.83679160404107,0.0010552313241352584,0.0023689501568334116,0.001600285078684
1691525098.3294098,-0.15900582964740742,0.005056900239504794,9.893962111184019,0.0010455434044130837,-0.0005442190824551097,0.0013242475577221
1691525098.3518903,-0.01813427440013277,0.025449150808649183,9.836670905829848,-0.0014176106474416636,-0.0010840336870819615,-0.0020557069039846
1691525098.358493,-0.022204298293555084,-0.24419695726395868,9.74074968265025,0.002445890673404523,-0.0017921999938104833,-0.0014015307935828
1691525098.3702412,0.11783254181833186,0.10256197023481246,9.779007837332115,0.0005884611407022039,0.0004537743818030744,-0.0004646248237172
1691525098.3726275,-0.1282353145498938,0.19296975220135626,9.9542752253734,-1.995624354141226e-06,-0.000489834719312093,0.0001884382397924
1691525098.382442,0.09317127515988273,0.03788729840063992,9.788701089178932,-0.0009217891617958104,0.0012357190524165393,-0.0006542425655702
1691525098.391268,-0.22525619826507867,-0.11357955750833341,9.907680083457237,0.0016285490867165835,-0.0033378173868365175,-0.0001871104870865
1691525098.4010177,0.2035440771531886,0.09003695845800386,9.73576522497411,-0.00031978667907793133,0.00046979654073548636,-0.0004333387880528
1691525098.4115615,-0.011451979259136007,-0.015415855483940758,9.824925080803352,0.0002114300837118463,-0.00011134011844517985,-0.0009433366178477
1691525098.4205377,0.07761669834717179,0.019915568129682253,9.794464271287405,0.0005251171033948773,0.0006791505514814771,-0.0002686973714212
1691525098.4304786,0.04632188256283754,0.10939584082289694,9.816472292756176,-0.0013915406196975872,0.0014677980363790824,0.0002647772378345
1691525098.439705,-0.005981342781164623,0.01139139452861834,9.826618012993196,-0.002021500689280923,0.0013929224535063078,-0.0006810630259046
1691525098.449446,0.009851606764216213,-0.10865905511932765,9.762851564803325,0.0011394129419049943,0.0011146602707121775,-4.164623742790134e-06
1691525098.459251,-0.18367283048269076,0.028850999861750666,9.922566984735182,-0.00021545470276826422,-0.002441139550118395,-0.0010610511346662
1691525098.4692442,0.1475330906031226,0.08896806707465334,9.758772559742571,-0.0013900655271066578,-2.1568946500640974e-05,-4.291683965721837e-05
1691525098.4793627,0.008025880138867654,0.04721006305721568,9.820913962344397,-0.0018356026741517038,-0.00015531328917816763,0.0005654147423861
1691525098.489252,0.03549793474239188,-0.15002758180010564,9.740738443928256,0.00042153839997601217,0.0010427299950234669,-0.0016232200252766
1691525098.499323,0.09006438657768917,0.20586363027664537,9.836503518003292,-0.0017029837523873479,0.0015396990379876175,0.0017712593724077
1691525098.5093825,-0.05273640131474319,-0.14511295529859972,9.79917505484639,0.0012612394612075252,0.00033233822260853133,0.0010340150509086
1691525098.5192814,0.05064150962211289,-0.04451223864481611,9.76856050989042,0.0021702040612650436,0.0011895352874116345,0.0006693643697594
1691525098.529306,0.049258850322374995,0.038664759178394965,9.796911098366747,0.0005120653551992103,0.002594698513613636,-0.0013955978031212
1691525098.5392518,-0.13468140830280842,0.08769341133414472,9.93028976590848,-0.0017018797339763713,-0.00045405432433069025,-0.0024390246073658
1691525098.5492642,0.05277842151762837,0.04307609219023894,9.81107664190866,-0.00092698642693403,-0.0006869044485709395,0.0005661597422381
1691525098.5593264,0.18631424420305612,0.02417892059635678,9.732425534855208,-0.0004993305639191354,0.0023004044154622113,0.00214009012031
1691525098.5693934,-0.10967021134833448,-0.051779969287023254,9.858694700301792,-0.0003845936249580652,0.00033494691355636145,-8.538549830564967e-05
1691525098.579349,0.00444302729178283,-0.009869375537681014,9.80446647628294,-0.0006021510651676881,0.00040871127510961843,-0.0011079755897576
1691525098.589316,-0.019611982350439525,-0.06233575649726079,9.798642769192304,0.0010690131988168104,-0.0003248126929424303,-0.0006289224659035
1691525098.599314,0.01437692414102501,0.120728884880229,9.852902081022393,-0.0016973870214743324,-0.00017356731053428667,-0.001200374197861
1691525098.6094952,0.13683841509504377,0.08069936154117949,9.766223215638584,-0.002116106894326343,0.00183660334568611,0.0011044496238987
1691525098.6192791,-0.17842353324727647,-0.0855958573968776,9.886266320174373,-0.0009217729104493528,-0.0016685142156051614,-0.0002750118548924
1691525098.6293871,0.1125210273388113,-0.08731123897701289,9.739752116705262,0.0006446978613374372,0.0006840121398085728,-0.0012134113169218
1691525098.6393168,-0.017538678314378695,0.08364864506785424,9.854141449919108,-6.79471942117285e-05,-0.0006358670889279197,0.0003724430751112
1691525098.64936,-0.1088899675545184,0.016495609136703566,9.892798468115734,-0.0011479027322302,-0.0028926371969104584,-0.0012126725452894
1691525098.6592782,0.23119167573224725,0.014613094466528462,9.699965244580927,-0.00031195712002980665,0.0008032105088866982,0.0006641213729103
1691525098.6692855,0.029873904577253273,0.0015793767534094867,9.806071352900426,0.0002915395306258212,0.000770061450445134,0.0010794953448289
1691525098.6793928,-0.10429790733025598,-0.1869646923172752,9.80390933017641,0.0027356907246148606,-0.0007166898339660388,-0.0022714081971848
1691525098.6893497,0.2155458831622951,0.18992408068876157,9.762063562936516,-0.0003384311765236972,0.002817483517754704,-0.0007142147335166
1691525098.6992776,-0.139245775889828,0.04676032581377321,9.910016486396664,-0.001326344474488053,-0.0003143686786292668,-0.0016023299942667
1691525098.7093225,0.15286510017360555,0.07745830157669244,9.754833135159988,-0.000955696086156475,0.0016883419665368645,0.0013897973729121
1691525098.7193663,-0.03641522623704921,-0.05081184924796092,9.807183339683881,-0.00010557092045283348,0.0010464722802108674,0.0003802686294597
1691525098.7292888,-0.006153303805289803,0.04074310139953825,9.830526028933516,-0.0008651717569901937,0.0007860706100332237,0.0002956923160759
1691525098.7392845,-0.05219332524385912,-0.0687396733121608,9.809440467333923,0.0014378120372798332,-0.0009346175799826437,0.0012620317827618
1691525098.7493129,0.10788266763777392,0.030998848933249248,9.767101149940933,0.0004062697265371151,0.001389579627004192,6.810030369660148e-05
1691525098.7593637,-0.000114709173260909,-0.051938177714471914,9.799152519868914,0.00091179359596706,0.0016101148944978488,-0.001560982997244
1691525098.7693326,-0.07316286157840055,0.09254734018629256,9.89277901063435,-0.000295942460869187,-0.0007267733919504523,-0.0007168319827819
1691525098.779386,-0.025478125835133054,-0.0075107796531674815,9.833665317499316,-0.00035479051963368434,-0.0014517111402790129,-0.0014838692552352
1691525098.7893014,0.052166806030926695,0.11476710391130442,9.82803700139287,-0.0010435996863072316,-0.001695717685484546,0.0013082274633866
1691525098.799299,-0.05214823593897602,-0.18006169653339868,9.788389629029528,0.002137053051511623,-0.002802476221931602,-0.0002403852815682
1691525098.8094044,0.1473293627679675,0.05070598895595203,9.755660330613027,0.0008328265119804133,0.00034164821604673465,-0.0009008662129695
1691525098.8193595,0.06434146733276859,0.0015703074618633086,9.783995542587524,0.001273153933949184,0.0010982558441153512,-0.0004840111180151
1691525098.829379,-0.07188368468694321,0.0484701848038887,9.859025575847495,0.0005888155406326038,-0.0006988111106611516,-0.0003778198554123
1691525098.839371,0.10008276553337604,-0.06750430162320507,9.736454769223666,0.0016758692744675999,0.001430172594939537,-0.0012786132103706
1691525098.8493512,-0.04994974503775265,0.20372397073762794,9.921680539401706,-0.002661502414325809,7.490443287006573e-05,-0.001914888136735
1691525098.8593342,-0.0031810805506415595,-0.014107572215012373,9.807766516045666,-0.0013524235020808495,-0.0007468810050820311,-0.0001412702078873
1691525098.8693297,-0.18596458246686748,-0.0833287986396791,9.705602291905606,-0.00015027207774155485,-0.0030546963191238068,3.0456012400000183e-05
1691525098.8793888,-0.9300051172252909,-0.08672030385205584,10.045293862522199,0.0019004692150266344,-0.02194417848197475,0.0016246260090788
1691525098.8893218,0.28478041696664524,0.49298894559251005,9.901554598093545,-0.0017285853413068525,-0.033338780114071195,0.0168000452865903
1691525098.8994918,1.22600026016158,0.43634809308536315,10.02493592057531,-0.00480371064679061,-0.04061098334519992,0.0393581057612841
1691525098.9094155,2.7718616974550296,-0.023907590965547825,9.528824896431376,-0.0015383103443534485,-0.02806454899483624,0.0544250535492842
1691525098.9193506,2.2230608347177716,-0.4088951558359061,10.015754600231794,0.006514871013903361,-0.01587391466062136,0.0455438608949129
1691525098.9293437,4.026209309231144,0.28627640454047704,9.693051977869239,0.013158626784896162,0.016611689560360316,0.0384542087738459
1691525098.939311,1.486284034673068,1.6452957472647847,9.124171526332098,-0.011844939573704465,0.03273802679628491,0.0289404171233122
1691525098.94938,-1.5993295359082291,-0.28266717260913543,10.548899421647544,-0.013730759881890561,-0.00897881460093489,0.0218055027251189
1691525098.9593496,0.4098195011769689,-1.4662498717547825,9.767655325708711,0.009090917997840304,-0.03180333761677326,0.0257402884488051
1691525098.9694617,2.1926116319776265,-0.44406099671755,9.007274775732832,0.009242059446497449,-0.02088642428744382,0.0272410682116692
1691525098.979311,2.5112624548635054,-0.4041879507051709,9.738488871538234,0.025721781885872524,-0.0016643121603230804,0.0368335324053709
1691525098.989305,4.519607276973391,0.6447206799553963,9.509889089299886,0.016844740541999602,0.042053638353099936,0.0491869154100363
1691525099.002602,2.1197794584412697,2.7758671828331036,10.302716327939496,-0.013315355691127663,0.06407375300015253,0.0536884034697955
1691525099.0093176,-1.7249031353381543,1.0897935617463965,10.782974117672321,-0.02933242359919512,0.045019990559556224,0.0322430751000588
1691525099.0193949,-5.139881191350467,-2.4956482435048324,10.573819485680612,-0.023046289821550277,-0.02403217676047766,-0.0339440067584569
1691525099.029365,-2.196042175592104,-1.6417153779510205,10.368349660117875,0.0014376426631933443,-0.07249187077239733,-0.0618306805665547
1691525099.039331,3.785707635544264,-0.5907151556289161,9.48775195358426,0.0027845490498734477,-0.05247635553642182,-0.06798156698299
1691525099.0493083,5.213767325732005,0.7630179998541986,8.115360359717702,-0.008603365436922283,0.013530917318959028,-0.0533746701951081
1691525099.0593617,1.8327812909103502,-0.004875877489902541,9.45908764372475,-0.010484465404359905,0.027467873397043523,-0.0442782414431626
1691525099.069404,0.7488163802252941,-0.007377900063140909,9.650278247314365,-0.011602756047685021,0.02691865274349995,-0.0387311351771409
1691525099.079411,0.01466260979881057,-0.09988183382762215,10.040726413936893,-0.010055273432278187,0.01715963865219397,-0.0415442806954438
1691525099.089375,-0.901391929667801,-0.9845342002702959,10.425922567271853,-0.00011202484699405327,-0.0011994162583522136,-0.0379422043736035
1691525099.099404,0.009419900789654071,-0.5687643555678312,10.309499227472395,0.01249600613292339,-0.01760497692958595,-0.0392800306255871
1691525099.1093256,1.6313554447480392,0.010474730154113139,10.088457188721987,0.013958806018137723,-0.005818412519893308,-0.033631268637901
1691525099.119312,1.5561524540144076,0.6041324913617029,9.414253421108913,0.007542211047133246,0.005899679237544325,-0.0300375481422002
1691525099.1293652,1.0055038357166834,0.7025011736767597,9.621959854647754,0.0028993926776822937,0.012046690673487528,-0.0269945410366112
1691525099.139361,1.6482858343433056,1.149151077805109,9.397631047940683,-0.01137249550302096,0.028892062560199033,-0.0287048516149575
1691525099.149331,-0.3239300620360873,-0.37700015563056233,9.584884481882701,-0.012940353007659621,0.02790121127409537,-0.0316159759934003
1691525099.1593933,-1.0690702155266611,-1.218803183276735,10.014980722259844,0.007566798144976984,0.0023214699845550994,-0.0297603865439946
1691525099.169303,-1.0326940658393993,0.11541468417997432,9.86297018299121,0.017946282575470058,-0.017523799567055225,-0.0220839527721459
1691525099.1793027,0.8005841615395871,2.1394038583221127,10.491262283327504,-0.008182233137305726,-0.02292176052719874,-0.0136466517399008
1691525099.1893644,1.5640076076137193,1.6585013232565065,10.220289638311895,-0.02944237361917943,-0.013965284017491699,-0.0022188068653399
1691525099.199458,3.302346924460278,-0.30593913532053113,9.274037981411464,-0.02399665417608427,0.02298178894710442,0.0046434395660703
1691525099.2093563,0.8768277883976859,-1.39211203724873,9.598047170735498,-0.0094276588706822,0.031547836488006215,-0.001952720322361
1691525099.2193809,-0.1635692840332155,-1.6676430482317697,9.58294273293177,0.011563170336584274,0.027251928395048232,-0.0051850538986677
1691525099.2293382,-1.3688710604749865,-1.1532672614766404,9.923884276618066,0.018487739195170237,0.006124903478012695,-0.0242042911524827
1691525099.2393997,-0.26698682614808544,0.04850166070995838,9.330974690636776,0.015286489463748018,0.0032208914971616574,-0.0249610037828738
1691525099.2494185,-0.16815783231914627,-0.4282988654361021,9.842906531435661,0.012281411463712961,-0.0031200271576969775,-0.0197646000708396
1691525099.259443,0.1873334294936133,-0.40561907176382395,9.552845700788835,0.017720283023464352,0.0018394711386403428,-0.0081511658902222
1691525099.2693226,-0.2309541937449473,-0.28694547177969887,10.109938605237005,0.02610929619850712,-0.006691870514179257,0.0051555785064642
1691525099.279334,0.1505156119344007,1.5117970888772614,10.137407089438575,0.014068837805360685,-0.004671420723553843,0.0148588682239001
1691525099.289347,0.0030251459911129473,2.4594977803901585,10.5397229717212,-0.013395551408881663,-0.005594519257408792,0.0187607689474766
1691525099.2997005,0.23086822277613087,1.4128441656067179,10.07572872494173,-0.027145898480327044,-0.0018233520659689585,0.0197537339006607
1691525099.3093638,-0.33828428390349075,0.22780091408206038,9.661607872798825,-0.024537840562046526,-0.006338986157672585,0.0151604099844639
1691525099.3193655,0.25050022397169847,0.4657862746429684,9.2286310818542,-0.020768307154633257,-0.0027157745266488524,0.0141160928358381
1691525099.329372,-0.1949547697504691,-0.46906997809645534,9.865566592197633,-0.01746051524244952,-0.004302562581402483,0.0133920659025256
1691525099.35029,-0.01839979624189516,-0.6209949630909101,9.757835374265758,-0.00738926844711262,-0.0009346621328143223,0.0061436535504703
1691525099.360949,-0.17996342648583089,-0.7880135843718875,9.973398800207164,-0.003797696937981162,-0.0014762841711804305,0.0052246449229364
1691525099.3635435,0.2931834902581187,-2.5561585963383244,9.019416235439255,0.002447699999435646,0.0032094198557420356,-0.0031736448693031
1691525099.369329,0.23996795632219042,-1.0366585954901926,9.563846122202401,0.008309509735219447,0.005656495719939637,-0.0027411386656517
1691525099.3794508,0.21729762275768041,-0.5112808899593441,9.406999693455276,0.011904512510218531,0.014136947947501265,-0.01176010699076
1691525099.3893745,-0.22469218475134903,-0.43531885728717956,9.699167688241115,0.013156277825374261,0.01421671904768901,-0.0267284454132373
1691525099.3993568,-1.0869923837083413,0.5053773720480025,9.588801029346868,0.007736662871716911,0.00938941203020019,-0.0473156568880135
1691525099.4093769,-2.858096500957318,-0.5512763700179223,10.262069871305313,0.0037419067941226966,-0.022310922837504174,-0.0779897754366452
1691525099.419327,-0.3670255031318,0.4440702221695555,10.350624164794281,0.00253441382006734,-0.03417065220250166,-0.0930645873124654
1691525099.4293492,2.4029182149221207,2.8139592124199897,10.161445772852229,-0.040987580931657594,-0.007662577488471393,-0.1185922210390622
1691525099.439359,2.1841057562242403,-2.0042723664884314,9.27935263898915,-0.031179218857542802,0.030738876683458403,-0.1476309408719594
1691525099.4508758,1.2513220138002348,-4.526164011635905,9.643701857445095,0.017587689076925178,0.05226150571181783,-0.1755364944512898
1691525099.459348,-0.8287737505191384,-1.5331681772644248,9.044152957261073,0.049773027142717786,0.056613251727763034,-0.1845280637319142
1691525099.4693663,-2.790641510228906,1.1333635177308508,10.387311644400464,0.030071418837743412,0.0288296621641387,-0.1959798147256428
1691525099.4794776,-2.6317436780633954,3.287009090734414,10.325750400318562,-0.008918406835394518,0.00023833168182888772,-0.1939824183757359
1691525099.4893472,-1.319024974099934,0.4266408656914704,10.22586099244988,-0.026782996210288176,-0.017036146443659462,-0.1898129244620854
1691525099.4993875,-0.5013480739790245,-1.04695258107972,9.379327876836903,-0.014245641585127733,-0.01950109585564827,-0.1835125197942311
1691525099.509389,0.18627039338574342,-2.2428962409651167,9.460352199295311,0.012557173902481227,-0.01668981450196786,-0.1849854548747594
1691525099.5193677,0.24553494877860335,0.5148254392899085,9.35286270226685,0.009069823316755122,-0.005045137882162982,-0.1856490929896886
1691525099.529377,-0.12610436369364827,0.8939238893058206,10.001594168025761,-0.003042035030918627,-0.00245703133928986,-0.1869250943238789
1691525099.5393884,-0.7787003834635279,0.2910718413518314,10.327683346281978,-0.014501489793142145,-0.007946720312330484,-0.1936345805699879
1691525099.549377,1.2669300344424914,-1.4542280329121335,10.40871136956357,0.00010692418446120471,0.004488040842477226,-0.1939286996896321
1691525099.5593808,1.9732897744046842,-0.9155715223950779,9.539728171849859,0.00880406409701685,0.04155954666531735,-0.1926372011478001
1691525099.5693803,-0.8027350217412641,-0.6690556921643536,9.552925499896185,0.02066857757018804,0.04635463026003499,-0.1836839278514439
1691525099.5794728,-2.1187912394105775,1.4264451574315526,9.76888906846143,0.0012614644404952188,0.03136846977294141,-0.177470188337093
1691525099.5894442,-4.001064249196842,1.261056302437173,9.878604430872649,-0.016754473212864083,-0.008112894261571675,-0.1680101861531789
1691525099.5993848,-2.935516625739713,-0.5242682113890573,9.904623205506402,-0.01627789852235548,-0.04362284766936977,-0.1601075043256337
1691525099.609613,-0.5011093664049396,-1.5507994136511145,9.358862651347263,0.005625838994466347,-0.04680739866097037,-0.151052187877422
1691525099.619434,0.7541209890115995,-0.5882609802231276,9.578741259390897,0.013222485923466972,-0.03119982403699836,-0.1494889070565755
1691525099.6294825,0.7671578418308345,0.13168363221292984,9.96556674741561,0.011669751701404937,-0.014467196906043232,-0.1476510723407323
1691525099.6393783,0.14113100603779707,0.6170401481668367,10.111411337313427,0.0034423422964360126,-0.0033832171104231285,-0.1572706361587102
1691525099.6493852,-0.769680797410967,0.5624165255965476,10.194168247593371,-0.008307273911692106,-0.006949543779697431,-0.1675699313457066
1691525099.6594057,-1.1062961944081358,-0.5358516594570247,10.014563286978907,-0.006469601798348059,-0.016743942236520853,-0.1869365235145146
1691525099.6694417,-0.1489017786840813,-0.7406455250207639,9.571063875885494,-0.0014159454084414587,-0.017416903449932006,-0.2035102804477269
1691525099.6793537,-0.07412005584915385,-0.9932331676267885,9.668113464536205,0.005080028188324212,-0.017013615155569654,-0.2207115252788121
1691525099.6893957,1.5380666913231287,-1.303880620326084,9.589700352652333,0.01946455339824393,0.002522537778596811,-0.2369174023444707
1691525099.699368,1.3044733198904765,0.19491686762024274,9.616394665063792,0.019001887597874856,0.028360868336015536,-0.24978670080257
1691525099.7093754,0.33204899761955003,0.5107262107017118,9.964956697872344,0.0071960350092764285,0.03878189144591889,-0.2589912970836217
1691525099.719368,-0.6429204439043839,0.35014876070104267,9.91862341155028,0.005045318077268699,0.03850865432185674,-0.2678619583423192
1691525099.7293715,-1.1288217313694946,0.42503504048183444,9.75362026120333,-0.0077861388651283185,0.03376423210932705,-0.2776560147578771
1691525099.7406642,-2.408881125867433,-0.7900086326899574,9.847820663477036,0.0010154735695823314,0.009937165537021588,-0.2811620493705327
1691525099.7494757,-1.974166165532902,-0.4330643352120826,9.849062833714468,0.004930621844325485,-0.010752250063839156,-0.2819140513713414
1691525099.7593913,-1.945841290316748,-0.14879939248221655,9.694301150549936,0.0072250202267166806,-0.0281265518240213,-0.2862314840133245
1691525099.7693822,-0.08568006916667116,0.08988681816071285,9.62198597276149,0.003572048498269077,-0.027415243412048085,-0.2805011530692632
1691525099.7794335,0.15745968110864755,0.122116073479194,9.72597782335275,0.0035251140028270843,-0.02231543101404453,-0.2803666551883275
1691525099.789469,0.8200898125830303,0.784227976332487,9.718259808862914,-0.008507763738495423,-0.0031547742059599283,-0.2816258033092076
1691525099.79944,-0.6830523835734172,-0.18371909220247448,10.225277253552942,-0.00627301737097893,-0.0039061336012761218,-0.2863869627292211
1691525099.8094945,-0.9712352214673804,-0.59319515442031,10.164450460017328,-0.0023265072258540115,-0.012373791330661195,-0.2934463282401616
1691525099.8193944,-1.1858578409209586,-0.7913155377030178,10.27012574365813,0.005651346354225081,-0.022878111845029244,-0.3002772887523229
1691525099.839427,0.019889055464514374,-0.5323224556645535,9.799270964127805,0.015421181803402803,-0.023030902915872453,-0.3096798022563512
1691525099.843221,1.114668027628875,0.42132627167522674,9.136484457436758,0.01240915496047571,-0.012783981195926462,-0.314910437660938
1691525099.8503363,1.8829937384668516,1.779926457450083,9.495784020491357,-0.007183871525279573,0.008623752637725005,-0.3197674711520726
1691525099.860558,0.27144480193649284,0.3684253716570531,9.678537320081519,-0.01522977390093582,0.02016794771146803,-0.3316822310264165
1691525099.8693898,-0.06969137928713409,-0.521456024534479,9.742735122110805,-0.015155217198759566,0.022045836946449744,-0.3421091993625219
1691525099.879377,-1.1229887390538722,-1.0351587189342446,9.70503415537695,0.0006577183431795143,0.014016926502609134,-0.3520572145755345
1691525099.8895118,-0.9546792699734331,-0.25230499106103915,9.957897575623857,0.0021274466870067677,0.004130999015086859,-0.3647819717700536
1691525099.899382,-1.021657044954476,0.4269908323285428,9.912001297811381,-0.00428961801135717,0.0007104472102937291,-0.3743458648498113
1691525099.9105897,-0.7307461279787811,0.060440795219216976,9.920430508303644,-0.005622283159529698,-0.008131474408991738,-0.3766750057513768
1691525099.9195635,-0.6371244457112557,0.112131782069842,9.70605389599377,-0.006323148269073533,-0.008769849464927586,-0.3790892620856816
1691525099.9294658,-0.27838850189520403,0.27783472003508713,9.84569993311923,-0.012013414234536238,-0.011031207511007234,-0.3813182969863469
1691525099.9394605,-0.06884006507467574,-0.25327936845367005,9.543648234404122,-0.0068756350386686375,-0.0053824141946138115,-0.3814742525394017
1691525099.9493785,0.060878268487997954,-0.43699488997358005,9.707668749084018,-0.0032238094660543655,-0.0007676379334109975,-0.3840433319385106
1691525099.9593756,-0.5029188146747566,-0.4964233358638613,9.833893206239695,0.005162953187078717,-5.547593939494741e-06,-0.3845294674212987
1691525099.9694955,-0.5330272970747826,-0.38216804052543824,10.054564299634752,0.008546332042156109,-0.00382516444054319,-0.386639740067249
1691525099.9795582,-0.5976627301216126,-0.16918028314373695,9.93200609960096,0.013791688067613262,-0.006333274625298408,-0.3838715215499456
1691525099.9894392,-0.2430088291544649,0.10447693488629027,9.84189783552936,0.010894032609721133,-0.006734545905390869,-0.3854654689605291
1691525099.999454,-0.08502577597892814,0.6045017026931682,9.726024037365104,0.004849429017002939,-0.004212152983030687,-0.3832772930438573
1691525100.009417,0.23269612660781014,0.3873437463608625,9.666075053240208,0.0007899847359768637,0.0013091623378919416,-0.3884663244063909
1691525100.0194,0.04659861952295317,0.44924223399047125,9.648171066939828,-0.005753937486834072,0.007752429657821508,-0.3918870647723729
1691525100.029422,-0.34036091016928716,-0.4939026913617658,9.77059584336394,-0.0009893392988426263,0.00642624081749876,-0.3979152103240544
1691525100.0393784,-0.7111988441912495,-0.6298147770366003,9.837112488066516,0.007501725113045348,0.0007898495347807734,-0.4044112821395452
1691525100.049815,-0.6710465162558004,0.07223676920268299,9.976473028366913,0.004477195227815816,-0.005971285875484064,-0.4133113284881169
1691525100.0593874,-0.16377273841368348,0.14289086479756063,9.76665899270702,0.0031096772544466312,-0.0044821070358068565,-0.4199851711566503
1691525100.0695696,-0.01774643343087531,0.13450255523389948,9.64866648310649,0.0015315090781414069,-0.0024022065620965993,-0.4232771654899175
1691525100.07945,-0.19179765994278358,0.4169094893373057,9.603778591923902,-0.0026165590018312436,0.0012167025361543228,-0.4276235063846166
1691525100.0894454,-1.230321592102768,0.25600310605138143,10.125574157045763,-0.008808901553734202,-0.008676535676475201,-0.4339027663047368
1691525100.09942,-1.1340026949213258,-0.16413343687514909,10.163186034231849,-0.006269861398543518,-0.019769703511977217,-0.4325437804038579
1691525100.1094265,-0.6838361558768238,-0.9236550034023074,10.279838275416726,0.00023633782684637843,-0.027481696541419513,-0.4350437482173497
1691525100.1195655,0.3957801703566214,-0.6615483550828717,9.697030179355933,0.012340682337711534,-0.020533733519187303,-0.4298352261359746
1691525100.1294682,0.4694526490676114,-0.2095120158453602,9.669591555866527,0.015999650535160274,-0.011824932933784674,-0.4334380884940679
1691525100.1394732,1.097702359192598,1.342199587743578,9.570306728377046,0.00475630162014687,0.006941918197768375,-0.4330753048236425
1691525100.1496236,0.1433076545823351,1.2123298583334339,10.01672542623138,-0.016745044441007894,0.012921722274837477,-0.4420853813464696
1691525100.15959,-0.21628308873286542,-0.0453417073947819,9.769787829941277,-0.016503357223473087,0.010930408102674498,-0.444520439701801
1691525100.1694553,-0.46244449083850203,-0.8227148481808416,9.57507791416131,-0.009043601233935909,0.010578468058342415,-0.4532493611152227
1691525100.1794388,-1.007067591197099,-0.71771246747389,9.702732350145894,0.0016713505782066647,0.0012242129238782455,-0.4600101669604833
1691525100.1895351,-1.1044703882449487,-0.055096310951133695,9.958367343009474,0.0008489829039151078,-0.01125561746335166,-0.4673180242354924
1691525100.1995258,-0.4036375200874482,0.3629467928204934,9.887124116615436,-0.0030400802315032876,-0.015425225073800881,-0.4678153653914983
1691525100.209432,0.1578754221717346,0.23709200436824224,9.705080849582844,-0.005874229990007487,-0.010992098955060946,-0.4682065208728368
1691525100.2194102,-0.174877157920754,0.22057255706378529,9.765251999878448,-0.007003326302770627,-0.010664178616083242,-0.4682120343024785
1691525100.2294056,-1.4306938198649686,-0.34226428703201023,9.653483586719261,-0.0022197593144141258,-0.024375859619184686,-0.4714963694388921
1691525100.2394783,-0.4476637112800725,-0.32450960097831166,10.079961267939009,0.004315040960017974,-0.04060496888097371,-0.4758408923919255
1691525100.2495768,1.584555274938241,0.14670446129363726,9.656029113666898,0.00038380578852578116,-0.022355175158756586,-0.4757697840507085
1691525100.2595952,1.5898034342064475,-0.6024272293091991,10.059024782850198,0.004976289220845841,-0.00723280940718838,-0.4706757922942693
1691525100.2694418,0.955914343417842,-1.3692919006056123,9.623661344936291,0.024284540646029133,0.006067629483490758,-0.4691796561057622
1691525100.2794757,-0.3855997789334615,0.22071510033789712,9.939502061750337,0.029293536038044115,-0.007215985729460164,-0.4661824961478765
1691525100.289492,0.8456884564270651,1.8013494571176911,9.791452176996279,0.009206147972283913,-0.004513171188065194,-0.4559268017585332
1691525100.299405,-0.9894096661360585,1.4730306534171664,10.08444317499789,-0.013266809220224053,-0.024151015509946368,-0.4516162832553441
1691525100.3094847,0.6371093350846179,-0.44261525220173076,9.573427759927432,-0.007806097791303118,-0.030907133488063242,-0.4489648898418004
1691525100.3195276,1.5256389208685937,0.006878494190889736,9.414081114247551,-0.0063853322396264746,-0.024377366376961286,-0.4438151379401738
1691525100.32958,2.5078780042025004,-0.05873860379374383,9.354930386878754,-0.0067242148906070534,0.0008837622093152095,-0.4359253307159001
1691525100.3410046,1.4102533564858095,-1.6519700339554688,10.302354268045537,0.012500436403713712,0.008729119759864087,-0.4350325127418096
1691525100.3548377,1.0492321562590816,-0.2062243814094403,10.090121069993113,0.022487618714474005,0.019485930380498902,-0.4241276045615728
1691525100.3594167,-0.3339346642343555,1.8865504040709244,10.762207822909323,0.013044911490640089,0.010949703421663539,-0.4169621129806096
1691525100.369438,-0.23018163184387253,1.1080799110907638,9.842012712898166,-0.003471763592631912,0.0035198242065826585,-0.4203398187930638
1691525100.379436,-0.7450916574252493,0.24772311312237877,9.50146076308752,-0.007211476776260161,-0.01035916357466094,-0.4242479463393743
1691525100.3894322,-0.14339857801219322,-0.14403915767324713,9.315847023822894,-0.0057510761926095316,-0.0174439437973514,-0.4276643355662877
1691525100.399437,0.35161024216591275,0.03658011412590453,9.359859032573887,-0.005266705587355631,-0.017435933137888777,-0.4327954908187444
1691525100.409479,0.675105154854205,0.45250138977825427,9.738006355270517,-0.01095992740407542,-0.01625040161622901,-0.4350429435546453
1691525100.4198332,1.7971725759207615,-0.878783968569706,10.37101410084687,-0.00555114299172563,-0.0011730393380823144,-0.4323044081504399
1691525100.4294426,1.1376714395097185,-1.3880006783698362,10.353939176913045,0.013201065574405677,0.005625278194566374,-0.426480170088535
1691525100.4394948,1.1741404711958214,-0.00414123038433864,10.020416670018971,0.01875666467494636,0.012956416046780155,-0.4188545306499059
1691525100.4496512,0.05792317069444457,1.2062543525820126,9.79203331215369,0.003639648199865277,0.01009369522900785,-0.4194952209765966
1691525100.4594636,-0.8257328767940285,0.6765344480639114,9.506486977983087,-0.004944008587724766,-0.0019108993989499546,-0.4237544496829564
1691525100.4694517,-0.2950704624789037,0.04497886183118345,9.546694404386225,-0.00838755173323734,-0.014616583048126132,-0.4291341265018041
1691525100.479478,1.052288733473318,-0.37741910874551104,9.390305597247327,-0.004109426331291427,-0.006955804166549459,-0.4362386723334844
1691525100.4894347,1.0010593120474058,-1.0471829213228674,9.906426106837479,0.004088097071925594,0.001210770107632027,-0.4415500720317418
1691525100.4994285,0.8472960538558715,-0.7163789574461831,9.888273701314017,0.01870306666404457,0.010298187514624862,-0.4388192554290349
1691525100.5094547,-0.02953586479282783,0.6596013084662439,10.29309081510885,0.012263563474686316,0.007455414438574616,-0.4402623136813695
1691525100.5194511,-0.9844937761001357,1.7144701495029777,10.027377939107863,-0.007380575403669381,-0.007281663523583597,-0.4398130734736974
1691525100.5295055,-0.7898321405238999,0.05260765859843236,9.897808952407917,-0.012866894722562328,-0.022017894597379028,-0.4470480640704686
1691525100.5394666,-0.18706670673615705,-0.25542580467062675,9.37948579467179,-0.00977799178892886,-0.028430100068947507,-0.4542479177291448
1691525100.5494292,1.5006653994244783,0.1123191372392273,9.332333583245154,-0.011637117875454926,-0.016344484688380165,-0.458334292965656
1691525100.559465,2.2462084583212953,-0.148703086626906,9.415522833430181,-0.012235876090165193,0.011991750907564115,-0.4599264522368962
1691525100.569461,0.7585188697347066,-1.5334673965846712,10.210585009895741,0.00420461052751486,0.018980117827522607,-0.4579855163867528
1691525100.5794702,-0.20239846352337149,-0.7905825153119814,10.303250397621047,0.018486320501518886,0.011498457778509183,-0.4529637654597814
1691525100.589442,-0.40455117295090287,1.3352947346620843,10.111440980385733,0.008559043504768946,0.0004464373856276569,-0.4449685772235448
1691525100.5994625,-0.5624297964449969,1.2472282613753956,9.948898547543633,-0.011270657752697269,-0.011978676316776252,-0.4418283065135533
1691525100.609452,-0.3214068951237728,0.260213276633883,9.689125091984542,-0.01450124296261037,-0.028665100189256137,-0.4422483702476079
1691525100.6194696,1.7535089597251163,-0.5873594007959225,9.262145881635925,-0.01007567265632772,-0.0142518983712922,-0.4442234297568853
1691525100.6294532,2.0671603248932353,-1.3030038985026013,9.356868324514672,0.002505609135077978,0.006732802367674532,-0.4525208731467778
1691525100.6394737,1.5951731557214202,-1.214908226401308,9.90482380362711,0.01802444777140694,0.02556089471311893,-0.4475786646182592
1691525100.649761,-0.02999539265938856,0.19845188784816398,10.094079553507846,0.020523990907321984,0.02204914841260492,-0.4419564564998204
1691525100.6594982,-0.9174878465376878,1.8017824261695978,10.214870910720581,0.0014507796777149305,0.010068938591905595,-0.4422704537684972
1691525100.669513,-1.511711623739066,1.3818751089939745,10.19334613249964,-0.019226647940122903,-0.013236702816796137,-0.4445692261035497
1691525100.680359,-0.48773455174575375,0.011734336291363346,9.596015679759594,-0.020514427102149863,-0.02715383106426908,-0.4491796453769262
1691525100.6897326,0.8914708662649389,-0.08672274583571621,9.242569731014363,-0.021146858311862044,-0.02159427841890851,-0.4539865513618047
1691525100.69951,1.9039526636651543,-1.030479008352978,9.1420926802779,-0.011529007006433726,0.0007961504221524834,-0.4573445280368383
1691525100.7094946,1.4098683146245075,-1.997139807412498,9.953213416418356,0.012031171377413606,0.017322645183504057,-0.4586251636321599
1691525100.7194653,0.3038833774638443,-0.4448870346298713,10.1280754161568,0.020834596790306945,0.02186406936421677,-0.4544724186236913
1691525100.7296648,-0.36289034391019537,1.658367098235571,10.353070307745783,0.006082429659095778,0.013736853083831727,-0.4481824596698339
1691525100.7395062,-1.8853479063687422,1.6755706590561381,10.073145493878593,-0.018059469983617096,-0.008950674534431536,-0.448947872715717
1691525100.74961,-1.5596465445987964,0.21454442239830748,10.238375763277048,-0.022941570108891626,-0.045769418600195226,-0.450360055762058
1691525100.7594728,1.7903804323903103,-0.22906335583591095,9.265260290693693,-0.02232739689345994,-0.0308422942284413,-0.4503141005809362
1691525100.7695963,2.4520778913981824,-1.0567212566440622,9.705990024757337,-0.016382730607561624,-0.012880105826223176,-0.4446928461368138
1691525100.7794728,2.9932553119901053,-2.1806287761720324,9.384811693272034,0.012632939322953363,0.017178234039283827,-0.4341453572089727
1691525100.7894912,1.5318236338242974,-0.1748164392962778,9.501135350339409,0.017617238251667586,0.03254249743382699,-0.4245974381740148
1691525100.7995398,-0.14228930161563932,1.4036493940695192,9.595022533365448,0.006642856358701791,0.02897350795857454,-0.4091910382087285
1691525100.8095863,-1.73890674504799,1.2838995765324306,10.402689203179216,-0.013614952603271537,-0.0009481889423626034,-0.4034027715499456
1691525100.8195715,-1.0591754684711647,0.4151671798478929,9.884488663700843,-0.01891834048052034,-0.023279282774626472,-0.3977707584674413
1691525100.8294933,0.9865560923686294,-0.1933609602932059,9.660398260505126,-0.01723070655172994,-0.02227303827117206,-0.386727448302036
1691525100.8394542,1.4063169758395944,-1.9466359082176956,9.906389083003221,0.0004978200405781014,-0.014413127886052568,-0.3819552620227391
1691525100.8494585,2.4914722208660227,-1.1399217078784056,9.409398131249691,0.021984838023348812,0.012696949761835991,-0.3701349159057195
1691525100.859531,0.7622559808963085,0.5190749806841483,9.861788215056151,0.015878650588528345,0.023518642036591042,-0.3664042611892278
1691525100.869552,-1.2465607635505858,1.0277442107618646,9.874410293748683,0.005530777698884038,0.01085259496647596,-0.3689722379024083
1691525100.8794775,-1.8392561488171584,1.086330406569367,10.308322757661024,-0.009788459704903949,-0.01795752675674909,-0.3781291504676397
1691525100.8894727,-0.3531332614714478,0.019008577233586815,9.824784482369893,-0.013701258056743703,-0.028051607946845802,-0.3883420785243566
1691525100.899487,0.8032857575215345,-0.9781278314250734,9.510919912779595,-0.0058417350222848856,-0.021066928551575905,-0.4002216418559606
1691525100.9095278,1.3233994577796093,-1.2601677872216317,9.542468188334349,0.011606811192117178,-0.006445056827148579,-0.4022228081996495
1691525100.9195237,1.0962679884128623,0.30702085009062813,9.578993303425838,0.010812272357670644,0.008849151584166626,-0.4057067294890935
1691525100.929491,-0.1939539818964515,1.4894287847855654,9.959081737199668,-0.0059162716153248465,0.007557019124446834,-0.4058930834109838
1691525100.9395185,-0.7990682527608167,0.35892060601485665,10.178144614580935,-0.011699704684993425,-0.0054381724725727845,-0.4087186117942388
1691525100.949515,-0.21148510973446644,0.43020440932155074,10.135065763301448,-0.01934243588532517,-0.011706669587789062,-0.4140661021049077
1691525100.959536,1.267537100024835,-0.001047087153761794,9.779340952315692,-0.02179478637216556,0.0006771388058357186,-0.4155693014438207
1691525100.969458,0.8820533883203142,-1.5205111063675685,9.741081186462619,-0.00639119795349978,0.013268171013812058,-0.419627781706577
1691525100.9794664,0.5004013870178448,-0.7918246957046462,9.911680222777349,0.008028213276167708,0.014351011468395037,-0.4137538035686071
1691525100.989586,0.4412652207875978,0.9080764051343635,9.59165072313519,-0.001032443234330883,0.021646102344698385,-0.407144244509464
1691525100.999534,-1.132165194045795,1.1619957575608613,9.841417592810874,-0.014264818473393073,0.00647993638312011,-0.4018727203185613
1691525101.0096078,-1.2618177569743791,0.8168669356095929,10.049573263158305,-0.025629015986046468,-0.015221939113305426,-0.4037927349383886
1691525101.0194786,-0.29579612757073714,-0.10972019025533451,9.80631094676643,-0.02760926723625868,-0.02343829750142966,-0.4061384161288793
1691525101.029528,0.7206804582879431,-1.458378951494347,9.74472126876014,-0.012387627444379691,-0.01897201215853545,-0.4117153843219335
1691525101.039476,1.3095615876275815,-1.1412804793739313,9.696082587362643,0.0021090697181546983,-0.005215234248893984,-0.4124421437556798
1691525101.0495572,1.1460381187614015,0.075964704925918,9.475758939388516,0.005521730901684387,0.007842886344202675,-0.4091588517005498
1691525101.059572,0.2368117729232446,1.2495793450203123,9.465517382972116,-0.007665923331506508,0.01553277719159228,-0.4079079588229711
1691525101.069613,-1.120668870349899,0.769521849395319,10.17326915014244,-0.021678892761988866,-0.0006622850553257962,-0.4115721841628606
1691525101.0795352,-0.42669885484486825,-0.22275389731049908,9.929868203048576,-0.019308887602124576,-0.008967300095185133,-0.4160745998199041
1691525101.0894835,0.2612531048203489,-0.203006104154201,9.925740209044152,-0.018907534898048167,-0.008681100809011686,-0.4154269953544194
1691525101.0995352,0.7426216814243805,-1.6418157960930888,9.992275424434,-0.0025069923769173662,-0.0012462733195987713,-0.4143465121562535
1691525101.109561,0.7575670561270483,-0.4651173963352432,9.711121293571537,0.007328376216224606,0.006742482293644567,-0.4094987769897039
1691525101.119629,0.4573526533537267,0.7013826543455295,9.614829204863263,0.0013451800570767338,0.013220369060101714,-0.4031180997664983
1691525101.129516,-1.0754651388119125,0.8626896196731336,9.694830190197848,-0.010786922740724353,0.00363441335118361,-0.3995175321872289
1691525101.139906,-1.325797833598239,0.40855462144906585,9.97217474416378,-0.017100624344694254,-0.019713173032422628,-0.4048829038913304
1691525101.1494794,-0.1321421941595653,-0.14033376627439392,9.839881364140439,-0.017353531429935773,-0.027815244243752514,-0.4050693770225103
1691525101.15953,1.0263030806398077,-1.3580343577140295,9.902561466965716,-0.008520043368168381,-0.01766657263064612,-0.4100999196345861
1691525101.1694722,1.6906435079095972,-1.620699007085742,9.812497502943803,0.013611739076239865,0.00025024371150936356,-0.4090304334933812
1691525101.1794617,1.1401175143296276,0.34151987501872116,9.661577672765072,0.012577966247265178,0.015034021990185786,-0.4056234319980199
1691525101.194491,0.33711845209080826,1.4493791210299611,9.739754317006124,-0.006067080578136138,0.022083827358713257,-0.4027264376456792
1691525101.1994982,-0.6399635958081747,2.2389088330656826,10.690736715802123,-0.027148835633564794,0.015635249206239314,-0.4020992477710302
1691525101.209493,-0.017170511124738885,-0.661272478359049,9.910852171647102,-0.02260031182208922,0.0120364948747329,-0.4081515034015233
1691525101.219502,0.36775590713957534,-1.536009424164737,9.695162253893407,-0.008663556298215013,0.015968450969980553,-0.4131874998385961
1691525101.2295306,0.4445885140688879,-1.8445961798285797,9.81867088192519,0.014145319510629133,0.019332718718450145,-0.4097380002315099
1691525101.2395246,0.2804006058604064,-0.31605781899998425,9.496182852969493,0.021982894225838687,0.0243268338879717,-0.4060120840842778
1691525101.249467,-0.7038052279392129,1.3442950672750427,9.587024150645187,0.0051285634462129,0.019193432264450392,-0.3985393305594976
1691525101.2595294,-2.737681640853454,0.439536417661342,10.31064362243302,-0.0013874836053793893,-0.021004518119320286,-0.3986591656978185
1691525101.2695055,-0.35397830278834974,0.9084988827248319,9.972959729881815,-0.014985189986848004,-0.0342242348392229,-0.3956088085944707
1691525101.279512,0.9491193727966108,-0.11435666488222186,9.928476256956927,-0.017339089866240665,-0.03290810719892726,-0.3933182318980748
1691525101.289508,2.666196582120753,-2.12735541773455,9.70347882606782,0.00015823192230372254,-0.007054920022809725,-0.3953329582984502
1691525101.3009017,2.283713271230415,-1.465006520868279,9.236396309732937,0.023109314360425046,0.021375237219482677,-0.3895656724746282
1691525101.3094883,1.4364069637223063,0.5434199127147032,9.086158340414283,0.024019430137886988,0.041248767444604185,-0.3829053898627813
1691525101.3195405,-1.663206590914305,1.026583006178224,10.1968358965995,0.004731429557536421,0.021041624096144566,-0.3905566294963414
1691525101.3295193,-0.9676206783543132,0.6727881497429483,10.255129369180022,-0.004246149572057497,0.004349519272617549,-0.3882500787551458
1691525101.339522,-0.9696256158425098,0.3895541232521502,9.902174272985347,-0.010886122945709805,-0.012717477662339913,-0.3926884790237004
1691525101.349554,0.37231516776856477,-0.46589466114084843,9.548162887189449,-0.008221141945247468,-0.01308962616006864,-0.3900661130721624
1691525101.3595371,1.10083134242916,-0.40748944036600737,9.710654274600493,0.0004594090731528643,-0.008503816868491713,-0.3790662546927983
1691525101.369553,1.4569386408973073,0.3744572022011082,9.686425248511204,-0.005639584654600797,0.008482910960024188,-0.3683873971278722
1691525101.3795292,0.10958242223184256,0.5577068430042893,10.219945288471836,-0.008398492164417987,0.005282733054981113,-0.3553982933337743
1691525101.3895254,-0.3760234049418635,1.006492864785417,10.200856245265719,-0.021145497884009892,-0.004308548889626829,-0.3583210666949804
1691525101.399537,0.1285908807136148,1.434419063692821,10.18421782517982,-0.040084433767596094,-0.011482248879705144,-0.3544854183967168
1691525101.4111118,1.325401889885278,-1.0794397189640912,10.171442103737983,-0.03398643617747182,-0.0013235584304989128,-0.3543486555392797
1691525101.41949,0.9965784395229436,-2.2144582078283266,9.280486124546758,-0.011651209325417966,0.007373582719171215,-0.3585931320960576
1691525101.4295487,1.3438381479187202,-0.5837962126912998,9.091861073968344,0.0001602371214973728,0.02064822876113659,-0.3504191895301397
1691525101.4395156,-0.06786623932962285,0.06244319645272561,9.160079222777927,-0.0006225002003069974,0.023100479116785453,-0.3515073319251592
1691525101.4521115,-0.5382755316649735,0.10525771276469151,9.967879036990437,-0.0021386206797392913,0.006791561154865004,-0.3515880962188298
1691525101.4595594,0.6137313629450498,1.1642404926929595,9.791281935861944,-0.013003913940649606,0.010364133216522584,-0.3499083479220922
1691525101.4695165,0.711342992120842,-0.3269854377437037,10.279998548530159,-0.020488961029710834,0.01496675235888243,-0.3571238776023442
1691525101.4797666,0.7344654138844701,-1.1237481898908672,9.823588023437189,-0.006050159223151511,0.023253752959206505,-0.3506637473876531
1691525101.4895158,0.07716952092533673,-0.724769052336941,9.926270284549975,0.0022724122413834615,0.023406539885811938,-0.3474056084926183
1691525101.4995344,-1.320809495811718,-0.033441882111395156,9.877392955001929,0.007661017008462434,0.00838114990299145,-0.3389226456458623
1691525101.5095222,-1.268294192885768,1.550278720101951,9.849906522246249,-0.01327202958134647,-0.011403866540573683,-0.3370199163730199
1691525101.5195005,-0.5188165167812026,0.9623732016291555,9.883864761059554,-0.030943127927543442,-0.02776936796468361,-0.3385681172187383
1691525101.529492,2.125833735214283,-1.2733168949170477,9.680726967454426,-0.02011063330182502,-0.007602046192572033,-0.3358654936130101
1691525101.5395296,1.799002089105173,-1.9245673447650875,9.594453594945978,0.0011782864209019838,0.013370344148038194,-0.3370125253970678
1691525101.5495012,1.167360676342904,-0.7472219355233684,9.400380402675474,0.01673121657958222,0.031323337953158434,-0.3311121125991399
1691525101.5595317,-0.803455599225331,0.09539674101735485,10.153753557370207,0.015279573247301328,0.02085026902279713,-0.326320703821903
1691525101.569512,-1.0589046345997972,0.7127493469327854,10.107527465812517,0.0024522228946737357,0.007974926701552521,-0.3316377063567693
1691525101.5794926,-0.5239662095406535,0.7411116024594336,9.947823402065039,-0.0067411606907479835,-0.0023050007076773197,-0.3290854950721318
1691525101.589547,-0.22396731880521661,-1.1145552389124487,9.942492671465626,-0.0022634927428306422,-0.00510383871719871,-0.3296073337371404
1691525101.5995052,-0.2768329679270511,-1.4590299400182716,9.567883799672634,0.016108983850318746,-0.009632526659845589,-0.33006253440929
1691525101.610319,-0.27789543129689726,-0.6963991560568481,9.509551076320205,0.026563227309342467,-0.008383151570801248,-0.3246987720305974
1691525101.6204371,-1.3788092121802749,0.9682559930042525,10.037865292753526,0.017103464863107022,-0.02923635292053224,-0.3268631358916814
1691525101.6295185,0.21528480989531373,2.5584440746713684,9.724726828876452,-0.013097840741613041,-0.027493071708528206,-0.3270469864184911
1691525101.6398222,1.1485251463823243,0.6619823166772155,9.99992710696444,-0.03385321039401582,-0.018905509357624337,-0.3293986578757817
1691525101.649505,1.8960197260961325,-2.5646034231584194,9.757923166849407,-0.007671509786176606,0.007428957612754688,-0.3327957948024327
1691525101.659556,0.7003222706104574,-1.7374510714992424,10.083428968653536,0.017502090084850694,0.011274830646760808,-0.3270104785735662
1691525101.6695316,-0.21989438003553438,0.5236574682484766,9.870914885672624,0.017709330856334384,0.013000191947850879,-0.3191219528491552
1691525101.6796074,-1.658962073122504,1.3603945545761822,10.535181849412746,-0.0014787062878557856,-0.013168047980934875,-0.3242145736987645
1691525101.689611,0.15741990209597312,1.7325063753809968,9.479776568537243,-0.023586111234812718,-0.013914179846220325,-0.3217774589831884
1691525101.6995287,1.5051083822468743,0.7955310189683764,9.342447259633142,-0.03874223391737468,-0.0030995217677156077,-0.3258029480750615
1691525101.709596,2.408013612107466,-2.38241985815765,8.801967210369458,-0.018175704760183604,0.030407121934307318,-0.329888727265125
1691525101.7213254,0.19708898868072142,-1.885132247828768,9.507437987222263,0.009709108282611272,0.03426131421673947,-0.3237616976077611
1691525101.7296371,-1.3599455391283768,-1.3082544802047213,9.992814781240423,0.02799495477725261,0.022620273866686105,-0.3129400571162755
1691525101.7396169,-3.057272722310015,1.424906928042275,10.622531521758315,0.018788133814939222,-0.02064228254546435,-0.3042668362433965
1691525101.7495463,-1.0415052697800307,3.096425059093018,10.457103931287879,-0.02052272520760234,-0.039780613146002806,-0.3040251096065099
1691525101.7597091,1.202015934612825,-0.18229290782262644,10.4059701556126,-0.035052078603938906,-0.034720627141431065,-0.3057305475051458
1691525101.7695603,2.5962505666711317,-3.066745190800848,9.24211798783358,-0.0018252379532821435,-0.004993145442474583,-0.3090660830314214
1691525101.7796028,2.2284718916362034,-2.461393445270401,9.125103770661019,0.030916028773056187,0.022858832444926282,-0.3093247671897466
1691525101.789616,0.4949974711665084,-0.10125690091549404,9.366735253475944,0.03495237390372573,0.033885205112961746,-0.3073339422519262
1691525101.7998118,-0.937906414318812,1.5994605942690434,9.9347485792019,0.018869927257820898,0.023214366399987706,-0.31097513039661
1691525101.8095534,-0.6076302078513071,1.93382296318659,10.012444728145176,-0.009269196801481623,0.014929119446616637,-0.3123302419955785
1691525101.8195703,-0.4741869694431531,0.039166600524892806,9.948945530227272,-0.020211948566218354,0.007291868111525754,-0.3167479892547185
1691525101.829548,-0.4340602569177448,-2.8665225680372104,9.911231990752123,0.01055998364435295,-0.000646889611183661,-0.317282434302097
1691525101.8395212,0.321539338072288,-1.462184677174576,9.176468110750289,0.0316833267437387,0.007443450978125073,-0.3107753952319677
1691525101.849602,-1.9615645169656077,0.013426047870499143,10.059982510788887,0.03365202866488342,-0.012769343108502867,-0.3069638570125158
1691525101.8595576,-1.7842325878358796,1.9532687446866583,10.164964733675292,0.01031462620716358,-0.0380100908272619,-0.3084815104777867
1691525101.8695529,-0.06523492326920649,2.512264783263658,10.037326853536037,-0.024266813846622045,-0.04239024108942419,-0.3103834946925695
1691525101.8795748,2.2758395706316015,-0.8888249660969189,9.82863944790864,-0.026092988037151165,-0.016556864595342724,-0.3144430478389318
1691525101.8895323,2.0529574521399883,-2.754962545277885,9.614849006547104,0.005675915993790776,0.008375643312899339,-0.3130676110560949
1691525101.8995297,1.8902954230803435,-1.2996877477640567,9.384633112642138,0.028014581045106367,0.034712968558968445,-0.3090249558265264
1691525101.9096198,-1.1561572876011839,0.6347214348282512,9.847386673793041,0.024408959963098005,0.027748811900192724,-0.3114053269202764
1691525101.9207115,-1.7339261538914748,1.9669604574242132,10.352236124480807,-0.0025582220031111253,0.0031030057618960283,-0.3158330281550939
1691525101.929566,-1.381547477830632,1.7840234882497887,10.212798866940343,-0.024079907498265503,-0.01472119265655679,-0.3197443445498998
1691525101.934649,0.5570463703736949,1.1608019346706187,9.883504279443775,-0.04024096041558714,-0.01246196711594891,-0.3239382763679082
1691525101.949564,0.9318087652212962,-2.281676371096043,9.715670209304296,-0.00949569402340422,-0.00032383920632798153,-0.3203326125915105
1691525101.9548275,1.878002452318202,-2.6897119960037696,8.328343306268906,0.014312981968301117,0.01645720483486771,-0.317242767410999
1691525101.968577,-0.6126832981856685,0.1909075485904331,9.593212844812742,0.019407781527210358,0.015273997237709547,-0.3085298498446996
1691525101.9786563,-1.9148238194519478,1.772332066023249,10.408084353766576,-0.001953617882652509,-0.011630975837553124,-0.3075472076709325
1691525101.988617,-0.6915329025203452,1.4657180722440044,10.37857307495632,-0.025462643900252983,-0.02317726071395777,-0.3076277037437017
1691525101.9985564,0.5065133478902074,-1.5548178737265719,10.453517674288394,-0.015957655971933497,-0.02390559307490578,-0.3085126241023595
1691525102.0085814,1.520186160473484,-2.3023285614009326,9.520550489749656,0.0146216346294033,-0.006801842230670633,-0.305623020725971
1691525102.0188313,1.2948394295821866,-0.8228195960172153,9.157483205548345,0.028277348757891212,0.011309358222008865,-0.29834085305286
1691525102.0286274,-0.5707504835217216,0.9329641987497954,9.540365669446741,0.02182580923491888,0.007032817735683879,-0.2974046130950505
1691525102.0386431,-0.8398293861903408,1.4619031884585447,10.080096974742212,0.0010337089788542031,-0.006600967793719245,-0.3027622957999761
1691525102.0485845,0.022276243326523195,1.4812575661969458,9.760349575161413,-0.019281437330326057,-0.005634836463568341,-0.3049915393168981
1691525102.0586293,0.05182299170202112,-1.578138647663741,10.042465433783402,-0.01092758347740398,-0.004677901770865552,-0.3138266762073095
1691525102.0685756,0.7185459251594402,-2.543343363591465,9.63436244032602,0.023717735971300974,0.0018157662674446878,-0.307361062365299
1691525102.0786033,0.9781013182733906,-0.5932524654378423,9.155729631795454,0.035411252991283455,0.01926094596462412,-0.3040553887660558
1691525102.088671,-1.1394443783883796,0.9455332610538428,9.715922753309428,0.02670073085046709,0.010813674361777131,-0.3029490669543798
1691525102.0987296,-2.036127900665391,1.3719385745071093,10.308418517306752,0.006032862109011129,-0.016708963043142813,-0.3043975790317113
1691525102.108618,-0.9314191944769478,0.3122305370350623,10.176132385131147,-0.002190465506449506,-0.03204862949031805,-0.3061662276561315
1691525102.118614,0.09051810825532619,-1.467075191179191,10.053713936734622,0.008857250966565366,-0.03353558146181421,-0.310780342417484
1691525102.1287289,1.6701631413668858,-0.7668409710951481,9.513171457135249,0.022624511617009183,-0.014780688268123732,-0.3097771962459142
1691525102.1386683,1.6410718539541624,1.3247937963086545,9.763338855268747,0.007645894561794395,0.006838112269492446,-0.3068061133201177
1691525102.148648,0.570766995018756,1.7356246405184559,9.591031427474633,-0.013722897612953592,0.02118785982537086,-0.3044051190192754
1691525102.1587286,-1.2599153868485693,0.6077220939873526,10.341290060265388,-0.024291344927752086,0.004656118474084927,-0.3106397946651036
1691525102.1685815,-0.6735272084429561,-0.045369516456301606,9.994162968465103,-0.02661937418696781,-0.00433456687265501,-0.3137050529296453
1691525102.1786172,-0.483959065196724,-2.014521210872108,10.059673110410857,-0.009043926020213082,-0.011975864333026344,-0.3174317737395818
1691525102.1886196,0.8360816205368561,-1.7311039459850588,9.44005077865142,0.018345652991339643,-0.0044393219264005,-0.3084195216472203
1691525102.1985612,0.9582572755875026,0.27233535119789837,9.112988690249022,0.018614290358703652,0.007782464281553507,-0.3049058874423558
1691525102.2086546,0.05752493986945597,1.257929297909489,9.282339068763287,0.005049550396658685,0.013092202826681389,-0.297704364853626
1691525102.2185843,-1.102273307996257,0.2629205973493054,10.18924397553199,-0.002691348902087994,-0.0023652958336047047,-0.3038279970462377
1691525102.228597,-0.6779346136744993,0.1786843724396449,10.11316630329214,-0.003838745976619364,-0.012156344560865144,-0.3009353240306432
1691525102.2385545,-0.21590653733474402,-0.865027387940889,10.716192896029693,0.000863669496521627,-0.022393112241794882,-0.3043605943496282
1691525102.2485554,0.9537098973557715,-0.28907697158694284,9.804345734460592,0.00627551374816672,-0.010642014223793237,-0.298980649309879
1691525102.2586825,1.2049622787530878,0.6948252669870543,9.487935228956715,-0.0013347988477658346,0.0015946056717247156,-0.292227115231281
1691525102.2686322,0.16570137818986813,0.7811208894387092,9.409874578996929,-0.012332787132324594,0.006881380655147669,-0.2924824913318212
1691525102.2785964,-0.08316838860607914,-0.04522146028712538,9.759297145557378,-0.015080894610875594,0.002647509692403807,-0.2995111604507024
1691525102.2885818,0.24508936425508104,0.0027929891736154498,9.704767332801538,-0.018795558593230968,0.007589107195023577,-0.3048472066695745
1691525102.2985866,-0.13220321578182717,-1.872930310337275,9.962408112692042,-0.0028950526044787778,0.004850572540374435,-0.3141609688575322
1691525102.3086088,0.3899402355231707,-1.5710724068945556,9.649302472348229,0.019617698214295154,0.010947809789220195,-0.3067961891467626
1691525102.3186786,0.2532033496221053,0.164267546534254,9.429772470596198,0.022345928876647464,0.01257360263295026,-0.3020270129020269
1691525102.3287282,-0.42282073333137293,1.0412232039838982,9.400888063946457,0.008152486078524323,0.013331285290794784,-0.2972465415771062
1691525102.349327,-0.7182623789084672,-0.3053152861601501,9.928428328613125,0.007873010233841722,-0.00565489750539091,-0.3012054224784429
1691525102.359457,-0.8655759995129512,-0.6756826621189344,9.866814175968475,0.01579318055022192,-0.014822813351917775,-0.3043908139045293
1691525102.3671484,-0.49295767848951433,-1.0692182707759235,10.532018403254925,0.0229733822357467,-0.026353651831864968,-0.3056305905158574
1691525102.3722672,1.0922593778606748,0.05788653505976418,9.498909923053601,0.02406071865769964,-0.016032765702207796,-0.3071722944552953
1691525102.3791,1.747795456920573,2.5780478237684545,9.936445130221827,-0.0012467754092691055,-0.00026241568539842454,-0.3055624922092015
1691525102.3887198,0.34608037096199484,1.8317716204915357,9.608889553583548,-0.024240441527727353,0.01198796395975098,-0.3085675795848424
1691525102.398698,-0.8022560238498949,0.6928939131246517,10.280244925080156,-0.03565500909312648,-0.002542844028262764,-0.3120841940219457
1691525102.4086237,-0.04828260527154803,-0.22426171213430043,9.815008391088055,-0.03559713013948504,-0.0022105673632028936,-0.3114229996974523
1691525102.4186046,-0.39930600704014113,-2.0495852988295553,9.951137842048604,-0.01624184628984296,-0.008452403751879597,-0.3168369193847234
1691525102.428781,0.5100043851213623,-2.014993276765424,9.610219928413649,0.010765112345123165,-0.0031967771673402116,-0.3091140349681432
1691525102.4387045,0.399663180423578,0.0767925627330104,9.236769140972493,0.015883075644812263,0.0005766261470445484,-0.3025888760860021
1691525102.448732,0.11050572837494185,1.415942175980225,9.31583374790892,-0.0011173208767565773,0.007668697435590326,-0.297539170580631
1691525102.458779,-1.0741194047033322,0.6823013131666985,10.257227279901477,-0.0126388158163172,-0.012492932058624034,-0.2962653001124913
1691525102.4686005,-0.23555292773046066,-0.214888412650358,10.010818211451944,-0.013526296708511777,-0.015879080802594196,-0.3030813296611364
1691525102.4785843,0.370439681615167,-1.3747599052857058,10.302991757922161,-0.0035556427113739106,-0.014636419504254539,-0.3053402860934789
1691525102.4886758,0.7305083041492582,-0.7254510978334894,9.68609542491981,0.011058395891136347,-0.006288671992671673,-0.305373962717777
1691525102.4987998,0.9813205997265434,1.4013495789554533,9.781778695220346,-0.0035254269673894874,0.003733876916426028,-0.2979975601012761
1691525102.5089784,0.3669186559817632,1.597058569505361,9.649567671087345,-0.02646208227938493,0.012196069544306893,-0.3006036241824681
1691525102.5186906,-0.44242130980515015,0.5515946249741756,10.163484741783433,-0.03607540925189959,0.0035054726220058604,-0.3053818901355321
1691525102.5287166,0.1919727615870892,-0.8488321990950647,9.70926121041127,-0.03061442945879343,0.00757533696196773,-0.311117496090656
1691525102.538959,-0.5974472080590695,-1.9163896484519127,9.891359456946212,-0.010436515583426486,-0.00016312674222490468,-0.310053374367481
1691525102.5509708,0.34475598934324764,-1.7561532502959472,9.602475822429161,0.015974543801817034,0.004372075080429779,-0.3076991101081426
1691525102.55871,0.2546566038560399,0.315569259322211,9.045608961039532,0.016601138146127424,0.00979305399291472,-0.3026118834788854
1691525102.5686362,-0.9706135103658892,0.7444934751503764,9.581298650425882,0.005521724793469752,0.00049316099714839,-0.3010502417857701
1691525102.5790956,-1.311068278843785,0.050111672392699744,9.897171839690602,0.0011198864849037604,-0.018320646559348956,-0.3074057360465581
1691525102.590193,-0.5679328990593753,0.20501385058858287,9.912821968823838,-0.003097286414638854,-0.026420522918357437,-0.3065538962657506
1691525102.598689,-0.14958560464850598,-0.9753168658697285,10.336293697203693,0.0005082673208712268,-0.03158657643591343,-0.3147234876926
1691525102.6107104,0.7044766103412856,-0.503485410636492,9.700685420879157,0.01037532891734054,-0.02082630440801981,-0.3094654341514165
1691525102.6187146,1.4510202063604427,0.985638313578867,9.781928087749266,0.0011073793342943896,-0.006405066688625052,-0.3087443371589238
1691525102.6286194,0.7911486729618401,1.6812486662780162,9.918135668200735,-0.02183082756652755,0.0073236731382210745,-0.313038792210346
1691525102.6387043,0.8037123880787922,0.7627358352271462,10.226711157617801,-0.03291789972397575,0.016828252527660924,-0.3130387326057012
1691525102.6486073,0.12560840820760827,-0.183632601464048,10.226656563677269,-0.03725544319880201,0.01887871530368645,-0.3161354323203618
1691525102.6586554,-0.33500057899637614,-2.0250116954132076,10.051693620518256,-0.015723041043173267,0.012643573392711884,-0.3173410256679113
1691525102.6686356,0.06817732947069635,-1.2659569469064904,9.575105779917081,0.0021679403669735225,0.012112766069182377,-0.3129174669559056
1691525102.6786237,0.11605970650441916,0.15722524389419426,9.09944732166795,0.0037927202126061205,0.012261912377781018,-0.3092477579886968
1691525102.6886148,-0.5815255435280637,0.7983454621132151,9.099153869573309,-0.005663743891493458,0.009284199418698205,-0.301709320145374
1691525102.698703,-1.227282517301771,0.21842186910662847,9.762030487632956,-0.011931439241304518,-0.010672784075346867,-0.3065728803451116
1691525102.7087605,-0.5274235003765747,0.06663334582316822,9.804314979018756,-0.016242617572949758,-0.015415965508624485,-0.3045442064578588
1691525102.7186112,-0.25429572644316584,-1.2444593759747051,10.489050061025335,-0.00570385844594714,-0.026102099470997356,-0.3060536046798284
1691525102.7286165,0.7969330203292464,-0.255675307191049,9.8612820713725,0.0017268926472755206,-0.014952753413428842,-0.3008753617579991
1691525102.7386367,0.9553310349170461,0.8576602347575176,10.012397287734109,-0.009959200835809656,-0.0064130518778828674,-0.3004515727336461
1691525102.7486184,0.6485304859734624,1.042272418868519,9.556753210316197,-0.024515098274782456,0.007227642001211582,-0.3024616797740514
1691525102.7586095,0.6105382748445409,0.10678578099316058,10.19961756769396,-0.028001810963436412,0.009067434418033657,-0.3046738167579229
1691525102.7686007,0.5951746522074421,-0.3336844718397187,9.790616189968887,-0.029259912357723582,0.019626584822674112,-0.3104948659713323
1691525102.7785995,-0.2024737220564839,-1.820831811431947,10.189816508288533,-0.011012394178647711,0.013852122219725878,-0.3123448451335485
1691525102.7886062,0.30441053197968554,-0.8629202012862347,9.490390606187527,0.001280876021384389,0.018548952420565645,-0.3065273423965032
1691525102.7986004,-0.3413078649333205,0.009026529296684268,9.126533037190955,0.0027694961402561433,0.015501970655114371,-0.3029990752513463
1691525102.808669,-1.505438715465136,0.02569029740203568,9.28627927538085,0.0006986866135782387,0.00029573505414960774,-0.3038060327346379
1691525102.8186066,-1.293621582949131,-0.3483888670692518,9.736609457067527,0.0014215812754609107,-0.02176528386203357,-0.3086488505179937
1691525102.8286483,-0.05353537966872625,-0.4768749384687608,9.63444342550611,0.0044767000542277734,-0.02222506412215538,-0.3118999858672673
1691525102.838606,0.4109467762580028,-1.1889804946834701,10.442119246292874,0.014710844745225072,-0.023168306545539405,-0.3093724211032445
1691525102.84872,0.9915822330478454,-0.2853776089712367,9.907455835409706,0.019646223127749062,-0.007440266820520127,-0.308081801729923
1691525102.8586488,0.8319598385211203,0.7845978843113691,10.026910063841516,0.009485153409697092,0.001520909491448831,-0.3064470549399907
1691525102.8686802,0.87525562424808,1.286175744542611,9.884360854263326,-0.00675138792500916,0.014860506280550634,-0.3083471318061406
1691525102.878699,0.9919517137840553,0.3914284288836941,10.272582661223336,-0.017291154350056046,0.023819194257847866,-0.315935965376621
1691525102.8886473,0.6884350428528935,-0.3777530550483433,9.788708253470622,-0.018116080305665704,0.03838441030890675,-0.3234360476310308
1691525102.898634,-0.3879978291459231,-1.340385337066071,10.190384243001501,-0.0021625943393992738,0.031015675695628336,-0.3158131202037389
1691525102.9086597,-0.6143824188416707,-0.4409208057198299,9.597074345089167,0.0034723703245953474,0.023343019419838837,-0.3113913794333989
1691525102.918681,-0.8429596237294155,0.5263770195718823,9.315232203001585,0.0005477676701825221,0.012529238049407213,-0.3016903062636907
1691525102.9287362,-1.5876840684207505,-0.1905078142944428,9.687566168815968,-0.0014629057649074239,-0.01016107836043198,-0.3005703945930059
1691525102.9386935,0.06317547521702585,-0.5888295359705021,9.349454350005436,0.005357595213901852,-0.013266804981136433,-0.3004889746482427
1691525102.9486809,0.3108813932568511,-0.6500525721062465,9.665218580013889,0.009739594154762325,-0.010296047566073808,-0.3057907183940465
1691525102.958704,1.343598734409289,-0.6110178191179676,9.805902787551338,0.01702286117799705,0.0064036034592175215,-0.3052101691539342
1691525102.9686496,0.14960771555268315,0.3550638610149487,10.07572979124313,0.01045509485272411,0.009700475395790843,-0.3108767827327306
1691525102.9786751,0.46855668461386285,1.3950679674245647,9.872927452000058,-0.004046043411110082,0.016158069323287092,-0.3035279472644384
1691525102.9886432,-0.0583281156128715,0.31511486691751445,10.414112837144677,-0.016285582740889943,0.011783205860975846,-0.306692834692722
1691525102.9986818,0.8082839857741169,-0.5561405053167818,9.787592868865257,-0.009041195057514181,0.018786794128806517,-0.3087837358291204
1691525103.0086806,0.8176273133231292,0.11794984737922011,9.700840069869404,-0.01503721947893234,0.029385640761556732,-0.314934190111881
1691525103.0187783,0.20131862581307183,-0.36097208505663725,9.562165477668128,-0.010923606086210144,0.0357916608746569,-0.3132384379680211
1691525103.0286913,-0.8220167109042646,0.20145942657812996,9.734876709446837,-0.013604778456791386,0.024880669631173243,-0.3096472283179814
1691525103.038666,-1.160857336839453,0.06607895532284855,9.418434713448018,-0.01443242427501788,0.013976293833823457,-0.3032131453330571
1691525103.0487494,-2.2866481753726178,-0.6545941088612499,9.702640664846143,-0.008432595360458334,-0.013659688337780774,-0.3010319133575017
1691525103.0586596,-1.17045020509234,-0.8705452499635725,9.812500854898598,0.0015919505576791637,-0.03470678730729824,-0.3039400537784154
1691525103.0686595,0.6021216965058166,-0.8863672946862668,9.64440461274783,0.007986982707897035,-0.02777009539987588,-0.3084822257335241
1691525103.0787675,1.4608729677091106,-1.0979714436240793,10.065904137453426,0.019389841234696035,-0.01306925657897682,-0.3071512242133672
1691525103.0886726,1.0716490939488055,0.33350651503056916,9.63262776903947,0.01527522154033821,0.005621728840258164,-0.3071343560988958
1691525103.098643,0.2362516062905302,0.8460169524579247,9.784640773778705,0.005154878638089154,0.012096133123527928,-0.3059166928107793
1691525103.1087914,-0.47162007096561354,0.45213976793550353,10.31317291103188,-0.007001862085052083,0.006290406366382683,-0.30794658859325
1691525103.118639,0.7201143457713975,0.5176411046158558,10.299262125358911,-0.014024933522109258,0.0098123190877261,-0.3116754551703984
1691525103.1287208,1.855441832828001,0.06321370263732412,9.77561025272587,-0.020215606008634222,0.03436858649935423,-0.3164196868712957
1691525103.1390035,0.6111648400455109,-1.252965256926356,9.675506565822436,-0.0094010723341976,0.04661268328288082,-0.3145778437430913
