time,ax,ay,az,wx,wy,wz
1691524819.59752,-0.013905247064307145,0.1705193401709319,9.882616449509408,-0.0004915312482788594,0.0007819800686209498,-5.708737829128018e-05
1691524819.607576,0.07733682156518189,-0.05172894776423291,9.76928035441104,0.0013297646921306596,0.0015058171884901163,0.0008198695320693
1691524819.617524,-0.08691709870634252,-0.020413750576760335,9.858421579984151,0.0008373142436549874,-2.3425564682331022e-05,-0.0011370279646421
1691524819.62751,0.08437705819045865,0.0883795621736671,9.813701170649376,-0.0004732419937329605,0.0007819675442983288,-0.0002370306576544
1691524819.637435,-0.028189828165162415,-0.13897539127693714,9.780476248309292,0.0019400000535169262,0.0003721929465431515,-0.001733455323329
1691524819.6474817,0.13990648139761805,0.26555263055563444,9.85115955567256,-0.0015532094544863856,0.0015650332721019549,0.0015105149539244
1691524819.6574626,-0.040451253855346314,-0.20835115923670258,9.789121391583475,0.001321227227382053,0.001166422032055592,-0.0018936488597596
1691524819.667455,0.005377020537374407,0.07809487890168869,9.83144882784781,0.0015182782066976883,-0.0001068690962159235,0.0017757613275257
1691524819.677454,-0.12968899321199923,-0.02890501801583849,9.874830773493905,0.0005862107557740207,-0.0021934235168342446,-0.0011068731366599
1691524819.687673,0.21158384351046594,-0.07773072369701199,9.669924534916827,0.00348001977747875,0.0013944206491462718,0.0004942728735563
1691524819.6976218,-0.08958242647766614,0.04906228050639168,9.90122755870571,0.002028648018060866,-0.0008657179904369729,-0.0003267981630692
1691524819.7075236,0.06706415921881603,0.2061288974729862,9.847622539315235,-0.0021947192127986467,6.74574192306915e-05,-0.0001185481489578
1691524819.7175472,0.030681865012246196,-0.04060445581847206,9.797200264752233,-0.0014395875717135096,0.00046645221667615533,-0.0012201156753058
1691524819.7274885,-0.08309938495823503,-0.045942764762473685,9.858018897240589,0.000843637642545861,-0.0025935077486026934,0.0008537426363268
1691524819.7374864,0.04597404646696959,0.020306896593099828,9.787195711245573,-0.001365079111524393,-0.0008079781278662422,-0.0023216882075125
1691524819.747475,0.22251700075093164,-0.01258915058380801,9.70336156713945,0.0003016225541887654,0.0025462663873368962,-0.0001457370637858
1691524819.757503,-0.12043285785643616,0.06549755063582541,9.895018052720681,0.0004502520741865851,-0.0011764067331322334,0.0021996959292387
1691524819.7674706,0.022889205869725225,-0.007617551789201224,9.809588927639467,-0.0005045561669552602,-0.0005144265777465059,5.392534128031024e-05
1691524819.780651,0.12393208217470697,0.04072046478451156,9.781916772914586,-0.0005984245123848245,0.0015013305476379078,0.0015269068133143
1691524819.787488,-0.06123585438625274,-0.21384188433629522,9.787292746127706,0.0014694708505200078,0.000945908057166681,-0.0006501459103951
1691524819.79751,-0.06283811729776298,-0.008810651185159064,9.841816189404685,0.00238515677945173,-0.0010825196265544258,0.000340777816536
1691524819.807554,0.02924263507018669,0.06923904796778933,9.819848218181379,0.00025056430425640495,-0.00021640146650388155,-0.0011225191230828
1691524819.8174903,-0.017933597947695393,0.0857276426478576,9.860178309273318,-0.0007086976044962894,-0.0013876331281485155,-0.0002388775867352
1691524819.8275294,0.09478697591960718,0.08475786997138457,9.799207905399577,-0.002179057261456165,1.754928100112845e-05,0.0001988398323824
1691524819.838025,-0.03216567805580377,-0.06305182389252563,9.80982111049247,-0.0005701074204485317,-0.0010527254372638382,0.0002174795552214
1691524819.847453,0.05423160854552434,-0.15431823077220583,9.72602445267234,0.0018271128049758198,0.00028801505607980467,-0.0015129137138778
1691524819.8574853,-0.07439218407553753,0.25864342127050777,9.942267317894014,-0.002524769838584692,-0.0023766972246072418,9.453007421097048e-05
1691524819.8675425,0.18475969011344281,0.10831280967142835,9.752105879533742,-0.003877408719269124,0.0006728394030891667,0.00144569922465
1691524819.8774548,-0.06574501113657186,-0.2275546863099681,9.780862439125796,-0.0012525991887709308,0.00018221562423011904,-0.0027925569849962
1691524819.8874552,-0.011555513738042728,0.053851345128999244,9.846730330506267,-0.0006956545439557821,-0.0014550592472293206,0.000162332569534
1691524819.8975437,0.010528809654069443,-0.02602132939431035,9.798061211726859,-0.0006725652658011557,-0.0011540665855718879,-0.0012394930056239
1691524819.9075224,0.04748382329187224,-0.012008736534910053,9.79157229648736,-0.0006543049915716796,-0.00045482011845174867,-0.0017196789669747
1691524819.9175029,0.13249326510894863,0.05032247061201725,9.765407201621407,-0.0016418848436477002,0.002038523487326714,-0.0018835826597119
1691524819.9275231,-0.09038932895395875,-0.020842077736123094,9.861183469492675,-5.7512489816251226e-05,-0.0009178798023208877,-4.96335380653452e-05
1691524819.9374945,0.08396259112777921,-0.046103645802363355,9.767310806892256,0.00015742514653039743,0.0007607266812257404,-0.0016586019012088
1691524819.947501,-0.015452269850913115,0.06640267740966835,9.844860364015885,-0.0002981738571862465,-0.0004175533483402742,4.351804433962592e-05
1691524819.957464,-0.004967555828684846,0.06672051811945276,9.839144539874665,-0.0026726556400243034,-0.000211167041588571,-0.001986404862901
1691524819.9674618,0.15108834456671025,-0.13496267668298279,9.688910494023498,0.001604338677957746,0.001831386868764389,0.0003154450275992
1691524819.977514,-0.08984727051025981,0.10010865288383984,9.910360161059636,4.455844062405578e-05,-0.0010545912825778896,0.0011312794629425
1691524819.987568,-0.025535422821782613,-0.008910917666072587,9.836884075613924,0.00030160536909130145,-0.0021207677816856376,0.0008995755522569
1691524819.9976046,0.09208154146778753,0.0015908935661030482,9.770341859497053,-0.0009731895029585282,0.00024032297808311407,-0.0015121786675358
1691524820.007589,0.12127930470253531,0.09504505195975854,9.785652870922721,-0.0016433837776562233,0.0016544379045039062,0.0006667503219155
1691524820.017609,-0.02951120734583702,-0.10824890753096224,9.808654566508972,0.0001637628428432373,0.0007871899961705798,-0.0003148776997754
1691524820.028477,0.05751684804697098,0.0048190600914427145,9.801619826047846,-0.00013650434920099906,0.001666352587550519,-0.0010796990065778
1691524820.0375893,0.001860955704554054,-0.0684332314765785,9.793797094580713,0.0006066563741795987,0.0017319324745328603,-0.0022483118629957
1691524820.0475166,-0.10266482727468033,-0.047754091004130354,9.86058547552599,0.0019928786515519908,-0.0010184453833276365,-0.0021056209045405
1691524820.0575168,0.09541064070801357,0.1760863925067583,9.829440009192584,-0.0007746415767807348,6.743961527907814e-06,-0.0004944307549799
1691524820.067704,0.019098736035283403,-0.10149043779359342,9.778043229970681,0.0013961076356683404,-5.360079593668637e-05,-0.0008643381117785
1691524820.0775232,-0.015063891375307788,0.08080137234657336,9.866021645221139,-0.0001275564808655544,-0.0009923868418963697,-0.0011564187991375
1691524820.0874865,0.18522843059281882,0.025566976690692887,9.727470308169377,-0.0010395126601657318,0.002848768973605045,-0.0020434055297578
1691524820.097697,-0.07375712886418466,0.036932737709259846,9.864269698818358,0.0011125951063537993,-0.0008396434473839379,0.003053540381888
1691524820.1075592,0.1525004800676278,0.09850035821243762,9.771395624925127,-0.0013010168784242963,0.002311586075252929,0.0016088230074906
1691524820.1176035,-0.19029288341310902,-0.07317338554400535,9.891963554692087,-0.0011799307146558196,-0.0011860972794059774,-0.0014939296345169
1691524820.127534,0.133103772588561,0.01984153380440043,9.764003402079732,-6.64312963560932e-05,0.00017734865325981446,0.0008235975872316
1691524820.1374893,0.026961645924210832,-0.04104514092658099,9.787908947848125,-0.0011892695162230833,0.0017069517329067602,-0.003044028049981
1691524820.1475358,-0.07767865141344346,-0.10156244517697711,9.83607879629227,0.0028232585691105884,-0.0015965895931597982,-0.000150581803819
1691524820.157526,0.12012732872515877,0.12142318922484614,9.809294535622346,0.00018425914279142458,0.0005294076453161447,-0.0011847233219946
1691524820.1677732,0.058758596961415645,4.248278902530529e-05,9.776524337371994,0.0002919056666661913,0.0013366697239115038,-0.0010066674842441
1691524820.1775177,0.08654727312884383,0.07180373613354465,9.8025856333801,0.0009062087021279412,0.001429050171518794,0.0023889705951382
1691524820.1875346,-0.09989967521378852,-0.0690044931922288,9.840258123875255,0.0015421195513705631,-0.0004399071916666472,0.00061534795147
1691524820.197549,-0.029844753340481433,0.025471825068909822,9.840276543985413,0.00020362236720831653,-0.0007793147248332085,-0.0014727071213478
1691524820.2075284,0.13275396979029078,-0.04109391701683859,9.721141062930334,0.001815573176361001,0.0012819106027286632,-0.0001766624447832
1691524820.2175214,-0.017075421006758795,0.03510922577258945,9.834722640046854,0.0007232728794166657,0.000979444632789879,-0.001033477234369
1691524820.227528,-0.09973610653713247,-0.07413047397615631,9.854087403972988,0.001853190191994147,-0.001161865646996812,-0.0024267351075018
1691524820.2375238,0.1432101705245721,0.1097693212252864,9.769718955782027,0.0015711761629802008,0.0004202607855409093,0.0010012784512305
1691524820.247539,-0.08402341754296636,0.07857895493551481,9.889551708447932,0.0004904845273920558,-0.0020600325048617174,0.0015213189651781
1691524820.2575102,0.09009046671707192,-0.05297515733605465,9.75893572874001,0.0007665215587568243,-4.3919156545597385e-05,-9.43336456025552e-05
1691524820.267495,0.023724154254164413,0.005098997256163013,9.814315250167516,0.0018077339033413392,-0.000523705727946109,0.0016051331656576
1691524820.2775254,0.08141960892057883,0.20532485998385822,9.845672616530459,-0.002638033165225602,0.000982387074501477,0.0014520313741463
1691524820.2875109,0.023003580672456152,-0.1428678443085799,9.759029399429721,-0.0009318416990913018,0.00200573699609734,-0.0012953672378266
1691524820.2975132,-0.05903604769716746,-0.022492836533648697,9.859707610918415,-6.110603088901937e-06,7.601975305446973e-05,-0.0009414832859242
1691524820.3075674,-0.012058065249384648,0.10724128426644529,9.868330053879275,-0.0010216168712027804,-0.0013477730903797475,0.0011402259731489
1691524820.3276272,0.0036044898945380532,-0.015894459257499632,9.827801032297035,-0.0011005882695531474,-0.001708766117088715,-0.0007723390410597
1691524820.337608,0.19712095841604338,-0.09038582292968318,9.682723995893785,0.0003138812508714593,0.0022653748747485597,-0.0016738858359808
1691524820.3476098,-0.10506103066063972,0.11017768202001,9.919860992380372,-0.0011162519561548163,-0.000900735682613869,1.668012170693168e-05
1691524820.357581,0.15179611869761764,0.09365388937577451,9.772719968230065,-0.001914590143956745,0.0010598754980920672,0.0020302107621041
1691524820.3675663,-0.08851310672304039,-0.06069406549914984,9.851353622385405,-0.0007798477479589984,-0.001104510031906913,0.0013521920589205
1691524820.3775802,0.015901227634989676,0.017448356945686597,9.814137194504637,-0.0012220340571210927,-0.0010892356524190361,0.0012925858461762
1691524820.387648,-0.027887055450092214,-0.031376928328420636,9.820912159176373,-0.0012224136948525061,-0.0013716201377352332,-0.0003305205429846
1691524820.3975997,0.10392733423366264,-0.08028007969519561,9.726946025481116,-0.0002650062054086093,0.0012293885002336667,-0.002015836518904
1691524820.4076393,-0.05986809646952418,-0.07707312340278775,9.836331795233365,0.002812078833100781,-0.0014561553899361372,0.0005128827940729
1691524820.4176035,0.13972435482477863,0.06629207582850416,9.773341655204286,0.001454934447045096,0.0011545163590657634,0.0001716389267762
1691524820.4284449,-0.04681924819801976,-0.009764219830448864,9.838024921135334,0.00170118801956488,-0.00025290464716132516,-0.0006140215375403
1691524820.4376204,0.06482379488210395,0.1857982718045025,9.848678240016051,-0.0013103282041639786,0.00037815549619248285,0.0001273272971679
1691524820.447714,0.06617887982582132,0.004912367872669251,9.795483196242998,-0.00047847150880999984,0.000724604579082839,0.0014606117508897
1691524820.4578812,0.01935037401160898,-0.08673246347022401,9.779043643014083,0.0019030976160316047,0.0005268063658445645,0.0019795340665673
1691524820.467754,0.11989381566978558,0.005682042812700736,9.758198976075661,0.0009427144847535219,0.0031713829764869004,0.000537854870135
1691524820.478893,-0.18036892040882696,0.0919906026121049,9.947290174346849,-0.0016377725796522485,-0.001189440894635489,-0.000616247514909
1691524820.4875233,0.08927327831640472,-0.09578832962107998,9.731858094325446,0.0005821085059061902,-0.00017281655287451855,-3.474157368192187e-05
1691524820.4975188,0.11580160211689951,-0.02172431674519519,9.758449170504713,0.001957505038719315,0.001307611291465495,0.0012460454561739
1691524820.5075765,-0.014667327875537223,0.16208382745245212,9.88753933154537,-0.00242009992796139,0.0011906195061288241,-0.000847977102449
1691524820.5175295,-0.04522140801447686,-0.03530620303821098,9.834261591669245,-0.0013684452754109898,-0.00033076775107208017,-0.0007734573266411
1691524820.5278504,0.05878072586328264,0.0759754918177273,9.815839831642922,-0.001260404901560101,-0.0004950497397416253,0.0023602557082717
1691524820.5565574,0.021703298374770082,-0.0641748903458426,9.784257469469749,0.0017652719700872199,5.667541218222858e-05,-0.0008799854951853
1691524820.5605292,0.3718366141713056,0.2771122066522602,9.711243233071125,9.892174452441587e-05,0.0025768337189962043,0.0002867867185791
1691524820.561994,-0.5551756172719898,0.47373891393326345,10.284183943554403,-0.0016761668496870403,0.0009939384924866552,-0.0002914006874839
1691524820.5692766,0.02127164963685255,-0.13700489388813142,9.767350027957493,0.0004569405445611567,0.001125803829791529,-0.0006773668394366
1691524820.5775163,-0.01393952619878054,0.06986103741277132,9.855779777696256,-0.0005898611935307984,0.0004440929508235209,-0.000484001688374
1691524820.587652,-0.022343346610916526,0.05993742622628684,9.857968442712298,-0.001436992802852052,-0.0007573172810195012,-1.3870052708179864e-05
1691524820.597603,0.05009086964377401,0.0065591629163691606,9.789691920634635,-0.0010570068306185148,-0.00031958907468636246,0.0001884142582361
1691524820.6075778,-0.014094728321081862,-0.010289263555300516,9.820909692834375,-0.001191476986914997,-0.00046339087572560303,-0.000790591100877
1691524820.617672,0.06096276790827879,0.04386251590023704,9.806395289089638,-0.0010134238553497017,-0.00017840744164212706,0.0010876969643227
1691524820.6288996,0.04021390121647541,-0.11422445346444456,9.76550217105033,0.001473969756368924,0.0005376027482146941,7.742959475716838e-05
1691524820.6413238,0.008227664675445173,0.1025357511023536,9.850377460967428,-0.0003302128639637147,-0.00026520687169531915,0.0013898132053959
1691524820.6475308,-0.1809466038832552,-0.10806284099908482,9.890127816445528,-1.2067788368307116e-05,-0.0023223178495447366,-0.0006598328293243
1691524820.65758,0.07942847573805135,-0.02121633139052251,9.77587346578663,0.0001317132886864944,-0.0007669838555165619,-0.0013274091581756
1691524820.6675506,0.07326018190359868,0.09811600491343012,9.816439485869742,-0.001936173991437557,0.00048245148643275677,-0.0017308648495877
1691524820.677653,0.042478093352609235,-0.052822184962425356,9.760073707975728,-0.0003197701374699386,0.0008825631296326342,-0.0007425236801559
1691524820.687559,-0.08627132059838957,0.14820195721455026,9.923055037944625,-0.003054881550046442,-0.0015463138741664453,-0.0004959205218533
1691524820.697554,0.10125852207596535,-0.20045876603874146,9.701420735602873,0.0019176379117215225,-0.0002711577624240648,0.0002670249848683
1691524820.7076006,0.020658751461188812,0.057216606907162584,9.825422197702034,0.00039362771888538326,-5.73329373572224e-05,-0.0004512133129815
1691524820.7176542,0.0815452700100524,0.00789378966703049,9.771136682073566,0.00041109746976203474,0.0014335150151032969,-0.0006215006398911
1691524820.7275813,-0.05442585100878193,0.03480359880260555,9.869920078555351,0.0002014037630955371,-0.0005308206383445988,6.996271601518878e-05
1691524820.7379868,0.01909955792330823,0.01661239727244477,9.829553788237986,0.00018611095785662555,-0.000873156987603436,0.0004462063259502
1691524820.7475529,0.16259835151440669,0.027272150936633145,9.737675200736431,-0.001261547848847223,0.0025689995486605495,-0.001055826182192
1691524820.7575738,-0.02005227493489153,-0.0019449236083526325,9.82508963804765,3.560189540778554e-05,0.0010353112194300712,0.000987487863103
1691524820.7675674,-0.026292999511232037,-0.04495648322492241,9.828482298122598,-0.0004579679609909948,0.0008393414792081482,-0.0013564652583504
1691524820.7775357,-0.03586522310644646,-0.08036353148024192,9.816662166718348,0.0010567231319986738,-0.0001988989612046828,-0.0015062196000421
1691524820.7876062,0.13402110545977972,0.11819436623829352,9.784582106040013,0.0001097560974418547,0.0012439088136373393,0.0009927211392728
1691524820.7975368,-0.03703259023617135,-0.018900796480395905,9.831627194782161,5.5741277015744985e-05,0.00037853188304091647,1.1103944206743328e-05
1691524820.8076522,-0.018127453351388986,0.02446908104076627,9.842309395016148,-0.0013922964767317998,0.00016318705276275458,-0.0019256991620118
1691524820.8175805,0.18729525143573272,0.22739093583869957,9.790640351526037,-0.002833220112500541,0.0017330309218835287,0.003502076975355
1691524820.827538,-0.18307012218114102,-0.16934316294031904,9.867216848650703,-0.0013807218995759883,-0.0012565052749956643,-0.0007950675028319
1691524820.8375373,0.10953697804001307,-0.04732862033518368,9.744303475607856,-0.00019312892058328783,0.0005416994033760747,-0.0006583470205719
1691524820.8475678,0.09042006100999932,-0.165170101525409,9.7231161206396,0.0037500870893100165,0.0017215193162984856,-0.0002493257454539
1691524820.8575585,-0.08994598804595497,0.25394769328784356,9.954374298370286,-0.0018497410782020375,-0.0005297061658456105,-0.000377461645467
1691524820.8676324,-0.16182919454548775,-0.07735975309453398,9.880333039632905,-0.000861775810335154,-0.0039666656867898605,-0.0018198818254227
1691524820.877582,0.2666807235109592,0.07157966141464381,9.72041489869724,-0.00014469637670584738,-0.00026482418790906075,0.0019322283512969
1691524820.8883922,-0.0947510640626711,-0.2788864933615066,9.775038130677942,0.003660683715918768,-0.0013876217373296404,-0.0026588404837007
1691524820.8976376,0.13566269019411029,0.3445014324788984,9.860376895602787,-0.0003205132982305562,-0.0008195250365109023,0.0020953925157023
1691524820.9076817,0.07360328982425592,-0.04192126363074914,9.77757200961016,0.00022374511525061205,0.0002257893730200491,0.0011759981241716
1691524820.917584,0.060788752375724134,-0.04504994643037759,9.77951795736321,-0.0002668995786527501,0.0018634247549373629,-0.0019402268628532
1691524820.927581,0.003859296336264101,0.017569680882528027,9.822510395965466,-0.0002881242917687566,0.0012886021610126572,-0.0012629809609557
1691524820.9375834,-0.02688509459864462,0.09239316488649305,9.86118576482804,-0.0006017900015540815,-0.0005241075846824512,0.0012877451042818
1691524820.94761,-0.09161272105980138,-0.09516421890818873,9.833335215197986,0.0011383109922577144,-0.0026724762524841785,0.000787815475423
1691524820.957625,0.17068294402619938,0.09180812405333687,9.759763601171635,-0.0003823618020413027,0.000501091374331089,0.0009893527201434
1691524820.968672,-0.03647610044273927,-0.04787740970143889,9.824045706346002,-0.00020168407804103936,-8.376836212125661e-05,-0.0013314944046492
1691524820.977583,0.051109849708841575,0.0037155234999204233,9.789417535179114,0.001513061705704667,-0.0003963147366087964,0.001398753247276
1691524820.9875772,-0.02461180368298587,0.01298791639673001,9.834796947137413,3.374678302231969e-05,-0.0005092047370345739,-0.0006151327217871
1691524820.9976788,0.07997448595648392,-0.21276734548565668,9.69937954459217,0.0040023113223424025,0.0012975398072852433,-0.0022952512192482
1691524821.00764,0.041413304815818064,0.18169373943675524,9.858288106319431,0.0016665420965282386,0.0010725558774062737,-0.0001185555995384
1691524821.0175788,-0.06754780383130016,0.060493448714466116,9.873844029459155,-0.00024713664054778155,-0.00014786501270198755,-0.0016980767070258
1691524821.0372837,0.0411911724513033,0.08643776450378976,9.834529313530194,-0.0026771359406642567,-5.8081836597114604e-05,-0.000235898635065
1691524821.038347,0.11178776238480477,-1.144071468617307,9.358969720847952,-0.0003823644974331385,0.0003323306015288423,-0.0007928337256366
1691524821.0476246,0.09428035782984806,0.13244976160381813,9.811211880067711,-0.0007418536674645221,0.0005059316679606611,0.0028620583650713
1691524821.0575702,-0.03443994580731621,-0.15956789573142707,9.77884112378897,0.0013305253801607615,0.00044149104202472297,-0.0001010373054946
1691524821.0676093,0.006531020789860789,0.11021758089483642,9.84287138840282,-0.00023521229637877612,-9.681965640613639e-05,0.0009461365296096
1691524821.0777411,-0.0811226926011855,-0.0030228142640866557,9.864350754365711,-0.0009202887639417363,-0.001562724545544173,-0.000720928637957
1691524821.087571,0.054974471872014465,-0.07573335676041386,9.76589054411101,0.0015529273839258785,-0.001342538744984071,0.0006589094589521
1691524821.0975692,0.007301926404205629,0.018204410987923855,9.82208029052219,0.0004953187629925265,-0.0010408070944171507,-0.000996976607194
1691524821.1076286,-0.05633688925489025,-0.07127379866740848,9.824251462272732,0.0024380678288402325,-0.0028572476679283535,-0.0007220331865305
1691524821.1175883,0.10407509828267689,0.17289157521743703,9.815522686704155,-0.0009854807071173841,-0.0010587034185320732,-0.0008393926366175
1691524821.1276278,0.0627728347930386,-0.018111127203352218,9.77995737423945,-0.00019795939380769185,-0.0005792434870514662,0.0001984714943041
1691524821.1377196,0.09467761487921937,-0.0999232234750943,9.737671482458914,0.002422409852605147,0.0006959296370096104,0.0007986018788592
1691524821.147613,0.03565431613168227,0.09637600092117639,9.825410076577896,-0.00030450030263762273,0.0016115901415399787,-0.0008233829687292
1691524821.1577349,-0.14790102743678304,-0.0856947682899795,9.866151739667137,0.0009058710521376156,-0.0015370016633244334,-0.0023876116431261
1691524821.1676989,0.1102322758965129,0.03690400684703351,9.775431080434315,0.0019500467522380214,-0.0007897220440929221,0.0003985238324908
1691524821.1775584,0.04815737026582625,0.17400586210696703,9.858057599600313,-0.001081594056430223,-0.0005866960632064143,0.0012564525784632
1691524821.1875887,0.04806553311884026,0.0037985900057962607,9.79255852600647,-0.0018497522680596284,0.0004407240406354129,-0.0002433666779602
1691524821.1977031,-0.003802571113918157,0.14243719796980522,9.874250670465148,-0.0038986618542536447,-0.0006854297850550174,0.0014322751119557
1691524821.2080555,-0.11572548554171334,-0.16468269142486555,9.81668230096005,-0.0014261840862157293,-0.0028047243439400095,-0.0010528547975177
1691524821.2175786,0.2579448389548243,0.06299499794960747,9.711268609651855,-0.002260662853464766,0.0017591220461597194,-0.0006277864851931
1691524821.2276096,-0.005151034209120233,0.02690480965303805,9.833554143289005,-0.0014034625576545875,0.0002906221029088049,0.0014173831621242
1691524821.2378786,0.0005951267642866656,-0.08352099484686079,9.78951008910793,0.000621976002656039,-4.951422764658827e-05,0.000816484436445
1691524821.2475843,-0.01016899914683336,0.12725659886444182,9.87724948773297,-0.0019182998100211288,-0.0007919648057245849,0.0006421572941412
1691524821.257686,0.14194881917946003,-0.014919350613086094,9.749607269514161,-0.0015681096684860083,0.0017345355709579957,0.0001716528966148
1691524821.2676046,-0.11822892545604427,-0.1618442237716809,9.825391420019676,0.00097699484532187,-0.00047231615573551327,-0.0016105291253829
1691524821.2776124,0.10777888172897297,0.08252032014481542,9.79881049953231,0.0004863598834679011,0.0005029712258724935,0.0004793756122758
1691524821.287634,-0.08733763974770067,-0.0041213010427290486,9.852430829454143,0.0011528364243265274,-0.001992977355420248,0.001060503363778
1691524821.2976542,0.1838882541402695,-0.01147814825581265,9.709170981510544,0.0006312938459297033,0.002114888191642252,-0.0007801635476703
1691524821.307716,-0.13447747448076208,0.013226485974598877,9.895309734152635,0.0007944729340099733,-0.0012058473710167767,-0.0006326263357827
1691524821.3176198,-0.029035007915515297,0.014209168551663669,9.844751637063048,0.0007378272454864385,-0.002225435843713487,-0.0009127950581664
1691524821.3276725,0.07122919746655743,0.09625659762180935,9.81668028044374,-0.0005589306994629234,-0.0015485637436716514,-3.547755134651175e-05
1691524821.3376706,0.050480177897075686,0.02980703597221415,9.798553918725599,0.0002230031490819841,-0.0016413177009854986,0.0019147122691442
1691524821.3476796,0.07777851572104089,-0.03742432733842456,9.761374998131563,-0.0006140662250745732,0.0008669098430105849,-0.0013858962158615
1691524821.3578572,0.05398949323079106,-0.17795153501758804,9.732629429432015,0.0027021856608254605,0.001929007288981181,-0.0024535441591347
1691524821.368138,0.0138545956915259,0.14768576726948776,9.875491447559062,0.0011889716758507732,0.00048805004304162193,0.0004279383754414
1691524821.3776026,-0.03617807961230844,0.08778459091281204,9.865556569762706,-0.00035441910040146765,-0.0007263899586380649,0.0003851128456239
1691524821.3876038,0.06785965626867616,-0.08811374239420247,9.764019025709771,0.001934770803129935,-0.00011394953504214553,0.0010560268163039
1691524821.3976698,-0.06006261941964865,0.14177991170763274,9.895111331345305,-0.002011410101163603,-0.0010415570580771818,-0.0011247612821812
1691524821.40779,0.049041954646386145,-0.0547973559853521,9.77313898649167,-0.0011009634421540728,-0.00025738126712685915,-0.0018590106449032
1691524821.4176347,0.15699053962160908,-0.005343993288312504,9.733702512871332,0.0006275640856768363,0.0015180957446066974,0.0011421160632103
1691524821.4289613,-0.022801490161370088,0.011676628384738316,9.836753726457356,-0.0002836548312863134,0.0008993267989804013,-0.0005987430742884
1691524821.4378426,-0.01136975155547123,-0.0124293553320093,9.816233460098571,-0.00046766875129718177,0.0005938497122402657,-0.0014209090552235
1691524821.4476657,0.04432396144660944,-0.04284634967552186,9.789593103750528,0.0005325501276062276,0.0009339615917745713,-0.0012067311729247
1691524821.4577668,-0.021421207553073536,-0.11385710221165739,9.787805774959656,0.0022145428291101294,0.0007018807023289195,-0.0029143832909817
1691524821.4677298,-0.03018805640648567,0.2637203667469697,9.939035401707056,-0.00328883085942906,-0.0005256388243799513,-0.0031732979516441
1691524821.4777036,0.17892317468629315,-0.0016631813519600409,9.723205077855354,-0.00027061284016367457,0.001015554261086405,0.0015958425535877
1691524821.487606,-0.03371735827341527,-0.04982263314637727,9.82809963670714,0.00023455175626440114,0.00021089662240568897,0.0003437742887122
1691524821.4976203,0.04403855782999553,-0.031964979988721456,9.767510635390387,0.0003805862797883085,0.001219697008014662,-0.0004169435526187
1691524821.507638,-0.017482702725841057,-0.009105576605665269,9.82945129279311,0.000982962094499038,8.571593225028245e-05,0.0002748413424064
1691524821.517668,-0.02228476390599777,-0.04843975101108254,9.809059985798566,0.001566342132875972,-0.00028156750495879465,-0.0008848262770975
1691524821.5277069,0.11569391259084294,0.15011138811930932,9.813941979851764,-0.0009732055849230655,0.0014804660648060056,-0.0002027419215942
1691524821.5379236,-0.1168310621837878,-0.03837824375951885,9.872273696699823,8.516164326936897e-05,-0.001399194759215659,-0.0006557383860404
1691524821.5489872,-0.004203731795317845,0.04589347825825691,9.841743312634604,0.0001745694728258071,-0.0027332161175081518,0.0008369815948476
1691524821.5622134,-0.023178184142460416,-0.0022616254248753603,9.84136375186013,-0.0007790896264976714,-0.0034335609424250694,-0.0013121324411536
1691524821.5676742,0.5591942058762113,-0.05957338645385652,9.496539320515863,0.0006964910027574429,0.002320522759310086,-3.91822361330103e-05
1691524821.57767,-0.23783311802225549,0.037269490696896126,9.970005938489267,-0.0005283772370528539,-0.0030837664611507005,-0.0008669576893503
1691524821.587805,0.23585194787373495,-0.008577913660933769,9.675470278070476,7.69615659294337e-05,0.0014141570543915048,-0.0003640547913441
1691524821.5977857,-0.05996555057413324,0.04043682311370532,9.858657799971636,-0.0010909192035388933,0.00018778838905699727,-0.0011273601378256
1691524821.6076884,0.062060698216178455,-0.041768507676426446,9.776767804876474,0.001199769880497874,0.00014271472970441175,0.0010124646976414
1691524821.6176305,0.008741391614825511,0.07843105469542416,9.833221559030326,0.00031836477050468606,-0.00046077881677001676,0.0019944349367228
1691524821.6277535,0.04896239292775398,0.032769485620293796,9.80786598342753,0.00031314942989969503,-0.0002223550128174519,0.0029238905006145
1691524821.6377094,-0.025036966252115107,0.10472853001996152,9.872897977590299,-0.002950945881140875,-0.0005196331090567004,0.0010020174847972
1691524821.647669,0.09622118553514171,-0.1896054264008968,9.704632690173488,0.0008056317939984744,0.0013001704599548834,0.000175380631635
1691524821.657792,0.04460157144561488,0.038688010423414604,9.81583228248614,0.00044017082039228816,0.001557218478887079,0.0003407882357073
1691524821.669526,-0.09641047023564495,-0.01055116513981436,9.87437174062583,8.628277999450236e-05,-0.0010259034679696076,-0.0007283768902475
1691524821.67997,0.1285231290630391,0.008829762520528778,9.762704235370247,0.000662957413056808,0.0007123111231837326,0.0008191018312295
1691524821.689452,0.07505010781853941,0.10253496103161334,9.802512587573885,-0.0017089442976971235,0.0022720945873106538,-5.4073502024502666e-05
1691524821.6996107,-0.1851891550342649,-0.07231883980963585,9.878192918539694,-0.0009735570676945205,-0.0011369138194400007,-0.0019275499327982
1691524821.707706,0.0827785674934124,0.10055030259984027,9.817925316309596,-0.0018113920036623536,-0.0007070304643669221,-0.0003942153236771
1691524821.7176392,0.12744397506128877,-0.10673498134923907,9.70911771586186,0.0005094642895677674,0.001672692417467928,-0.0004728343157971
1691524821.7276237,0.02740783434043934,0.02292486619047756,9.835061714011871,0.0009833229254457086,0.0010721864248365535,0.0006503631773461
1691524821.7376812,-0.06118502649207192,0.14701056535255486,9.90530669151186,-0.0016459762412263951,-0.0009737569108788822,0.0012951996575516
1691524821.7476244,-0.00901987568979356,-0.1452046968899673,9.779241174692801,0.0010332510851690888,-0.0011488348946696112,0.000244291400822
1691524821.7576609,0.13280628419441995,0.01756027789179471,9.752704045685501,0.0009960043203134654,0.0009689824130427101,0.0008556447462701
1691524821.7677531,-0.009843268432953557,0.044224935456618916,9.82844165732207,-5.6408461715792226e-05,0.00048470864537548833,0.0007486934953426
1691524821.7776556,-0.02298035904600273,-0.016380951930888017,9.816299543406814,0.00037797021338468957,-0.00045444671283209956,0.0005806915176158
1691524821.7876797,-0.022454225459949476,0.07874132473597865,9.85930462863057,-0.0024536195363695956,-0.0007290046292477251,-0.0017073915625865
1691524821.7976637,0.06297367741322867,-0.017625622035336387,9.783965057259104,-0.0008159821323568615,-0.0006466735799246349,0.0005650406417494
1691524821.8076918,0.04809767024255052,-0.00965584657205019,9.781030689476157,-0.00021248777830366853,0.00016097002688856703,0.0006618942895961
1691524821.8176336,0.028459897443227137,-0.0982789733403786,9.773282788924911,0.0006339111123640863,0.0010993878002310284,-0.0020214067592228
1691524821.8277657,-0.02442156095131022,-0.003107032777954405,9.833179258779293,0.001279500294298655,-0.00016611604824956331,-0.0012998389831686
1691524821.8378804,-0.002006917565761489,0.07519627769168093,9.850843928772791,0.0006059653738871871,-0.00117901827230122,7.741054805128662e-06
1691524821.8476546,-0.0261540154644852,0.16014062495090103,9.888667131858378,-0.0015055276710985196,-0.0027738201282458273,0.0017489359777477
1691524821.8576767,0.05136360736102337,-0.1065492386778135,9.762273258323447,-0.00012195857815946221,-0.0015459538913876812,-0.0006739897473658
1691524821.867713,0.13699224743911276,0.0464552871139195,9.757810306948201,0.0006476786812071233,-0.0003709821485676683,0.0029246284573396
1691524821.8776915,0.15416609781597837,-0.08212620880354587,9.708996698541238,0.002207079388565653,0.0025649062770332688,0.0022839169430603
1691524821.8876662,-0.15700267905890772,0.08908088467418983,9.937762662356045,-0.0008864021381096525,-0.0004488594549575468,-0.0002321702015528
1691524821.8976493,0.010737180102317695,-0.07140317237970807,9.788809537714277,0.0006580931111249096,-0.0003829065423467854,-0.0005666970794031
1691524821.908648,-0.023034535907778122,0.016674009576817125,9.834243863108712,0.0012683156839922718,-0.001961708708450053,0.0011063169547646
1691524821.917756,0.11586557859794014,-0.00914895277906413,9.764955398481638,0.0011453620992199676,0.00019897787753697674,0.0001012318714579
1691524821.9277215,0.20697032461915693,0.19273896834217705,9.76792915455691,-0.0019116103911577804,0.003477966328182722,0.0016058608778343
1691524821.9377208,-0.12521570095598228,-0.12442634045812476,9.844318129823872,-0.00028550723024745126,0.0009645151833366238,-0.0006337598717714
1691524821.947739,-0.03370490862584895,-0.07381150924524067,9.813665607383614,0.002126623834560402,-0.0008593709999339239,0.000939806504693
1691524821.9576588,0.047355927314077985,0.08753390943228806,9.824128658805037,0.00018946410568561892,-0.0002730265068368442,0.000381372363126
1691524821.9677403,0.04637290361106356,0.026672816147037492,9.800242728503108,-0.00037081225210516496,0.0003748082548121122,0.0003821418684033
1691524821.9780462,-0.09535586169343427,-0.0604363585723168,9.846575027907626,0.001207978269069506,-0.0023807793761948764,0.0006022743362059
1691524821.98779,0.11989618062648379,0.008186980397459015,9.748267020695444,0.0004178128799738048,0.0002518757676500807,-0.0007924600324536
1691524821.9976983,0.03188069441434148,0.02894456412337093,9.809313327070507,0.0015790057580437093,-0.0002689277942026837,0.001965756837098
1691524822.0077658,-0.07769298362773684,0.012712663762529334,9.86513579717963,0.00107423552080884,-0.0021412571272863253,0.0012315014526116
1691524822.0176706,0.02318798917684271,-0.03605512702751471,9.791718094216739,6.768762930028203e-05,-0.0008228606441313948,-0.0025608416001255
1691524822.0285723,0.13784147176207026,0.03272162748268854,9.76882510164477,0.0006543961735351941,0.000996924210591717,-0.000616621557338
1691524822.0390158,-0.11556571514884327,0.0035978066396806833,9.873550595267728,0.0008797812555098428,-0.0020350875100659054,-0.0001602584781999
1691524822.0491238,0.05986531559340747,0.03402887536110256,9.802664658290663,-0.00026093123648264905,-0.0009297843908443394,-0.0011396440497542
1691524822.059515,0.05950926841917221,-0.044809098081776834,9.776216864508541,0.0010373556348410077,-0.0003948353124592655,-0.0007272506884242
1691524822.067906,0.1933986247484725,-0.0409581247790964,9.711598438512308,0.0017544439100179966,0.0026155652986932618,-0.0009150372172648
1691524822.0776598,-0.08146236488813698,0.13960802462312477,9.922923365525369,-0.0003860826026191329,-2.827250337098586e-05,0.0002580838224907
1691524822.0877137,0.044593766128575026,-0.05088931574221194,9.777298457686488,0.0008860993182068428,0.00021350069944975838,0.0004860491205995
1691524822.0976782,0.13612126475593775,-0.010010001974559257,9.747674692502947,0.0007460001075084294,0.0027604810719206903,-0.0003975871770585
1691524822.1076815,-0.18256241424919775,0.07813256999578772,9.94961848227069,-0.00025494975234466235,-0.002007143888122527,0.0006298656405938
1691524822.131559,0.07439603588644429,0.05220528751076188,9.805213163474354,-0.0019674636497326765,9.279733046863947e-05,0.0013838652410136
1691524822.1376638,0.014838384819299387,-0.21166889428419214,9.744430172007544,0.0006275687621099253,0.00019450010157094657,0.0009547081024443
1691524822.147687,0.07676705759329577,0.2007007442392547,9.848363112434056,-0.0030213767844370683,0.0010971215059980654,0.001406949162419
1691524822.165831,-0.023228818667450777,-0.09950969670458852,9.800132142251522,-0.0006136889269712413,0.00022130469526190626,-0.0011739258008951
1691524822.1676629,-0.28475444555609175,0.13668687431576615,10.01915967847429,-0.00019162218346760197,-0.001554156103193742,0.0004935144277346
1691524822.1776888,0.1807295048741004,-0.03584645619144658,9.72263823502038,0.0005374479456367507,0.001770293002069316,1.221291656246671e-05
1691524822.1876888,-0.1565599253828325,0.05649296027266845,9.920652781026408,-0.0012928159396384236,-0.0014625276814889314,-0.0015043625428284
1691524822.1977575,0.10247402803683395,-0.06201608674983885,9.744803892590538,0.0005463514883772269,-0.00015343535931990708,-0.0006557375711331
1691524822.2077692,0.0064078040430306515,0.14103244510268897,9.868268544759369,-0.0026197739763921192,-0.00034417105720409644,-0.0011377804732824
1691524822.217724,0.08064798556652393,-0.0932701168310728,9.746716242264872,-0.00019014337179962457,0.0005562306045995477,-0.0005305686320121
1691524822.2276924,-0.0016712159149085144,0.07594023609639522,9.849227753342822,0.00014178642343799577,-0.0009674146331852,0.002636303444678
1691524822.2377713,0.11650694971254835,-0.06976207424152656,9.734766974655189,0.0005027553245712698,0.0019170751685353474,1.517685065618047e-05
1691524822.2476664,-0.1661862496294868,0.0012572951527156269,9.909412785098493,-0.00022327323114077998,-0.0014256460119093865,-0.0018575137766952
1691524822.2577667,0.032995682847855326,0.03464849750235907,9.816159129406952,-0.0008755815990715236,-0.00126543747173455,-0.0018999837159121
1691524822.2733133,0.07259167968632672,0.034032459559516115,9.790467199453609,-0.0012346938790399273,-6.738506468171309e-05,-0.0011195335357392
1691524822.2776968,0.02136042529436093,-0.006685645368423347,9.81431240280809,-0.0010901644026084147,-0.00018250918989867442,-0.0012502979773039
1691524822.2876987,0.1166344159314217,-0.09562482496095541,9.72317040589338,0.0028012702294057086,0.0007022380244862615,0.0020335941406024
1691524822.2976923,-0.12492489201520292,0.1072632550911818,9.916171358884805,-0.000853978791811029,-0.001337336157454414,-0.0004933100246767
1691524822.3077056,0.09059690935659767,-0.05917714735512517,9.751116264002674,0.0016464324203868373,-0.00047157979864199414,0.0013179310151549
1691524822.3176785,0.1059749319933138,0.09854259980585735,9.801115220511187,-0.00017002266985314247,0.0011917588964841744,0.0015358374983129
1691524822.3276954,-0.13266443912623058,-0.002957131096889457,9.880963506968685,-0.001187757534113976,-0.0011261166339100344,-0.0009202332987392
1691524822.3378215,0.045695088020879085,-0.06086867605074478,9.768995863884495,0.0013323912378790847,-0.001295609781934672,0.0008030896604118
1691524822.3479016,0.15400650529604687,0.034419583428943516,9.755108509654805,3.0001168033310874e-05,0.0017978667199643231,-0.0006128926581645
1691524822.3578565,-0.2155633660775061,0.058663023036851815,9.957010643078215,-0.0017335230405686342,-0.0026504981993423792,-0.0018988726480806
1691524822.3677125,0.3075794277010728,0.03590082581471915,9.653751484711982,-0.000416646988988634,0.0021029642490514072,0.0016852433216349
1691524822.380226,-0.09085809028854189,0.04723826172574823,9.884342617324881,-0.0021541064113083544,-0.0003847810737022416,0.0005892533406672
1691524822.3876855,0.17291591588260735,0.02260780639165236,9.734244870719733,-0.001866890303116963,0.0015199554957874978,0.0018808061902468
1691524822.397715,-0.1517592499993805,-0.1816841015725208,9.832839047002576,0.001254159945240414,-0.0016603166810006157,0.0002163449714948
1691524822.4077194,0.17685242199906664,-0.008005310308479051,9.714720828066884,0.001774583577916816,0.001543801661570905,0.0004838240163457
1691524822.418592,-0.09268739051958239,0.15080310601180888,9.91856396404168,-0.0020509215539633785,-0.0006995755135243656,-0.0005540331878642
1691524822.4277604,-0.030540123297837788,-0.14553133746220684,9.795708272699823,0.0006476773129973607,-0.001697952031514971,-0.0013348599716032
1691524822.4377372,0.10057083953054569,-0.03259676115411265,9.751895992839575,0.002022685740540334,-0.0003579598908383241,-0.000793950148573
1691524822.4479053,0.04150406432135424,0.12841798734756588,9.843136152450496,0.0005593941791628307,-0.0006299061238969336,0.0015071768900902
1691524822.4578662,0.08242392717616359,0.021559381831023038,9.783115551409724,-0.00019870463072566193,0.0007823498822328745,0.0005982000909802
1691524822.4683516,0.008627088219316244,-0.05912894079525717,9.80525998406094,0.00010377628103434031,0.0011224659638536321,-0.0017483699887002
1691524822.4777513,-0.08688250481825599,0.00036912294981700667,9.859276866315707,0.0004885858003366919,-0.001097452130332471,-0.0015297059255594
1691524822.4892056,0.07945699686755693,0.03223240358380766,9.79146003616493,0.0005862167299188173,-0.00023316345084058973,-5.4103537177534015e-05
1691524822.4977186,-0.0899108556502041,-0.02117155224574124,9.873883318731734,0.0010660426281091252,-0.002386389632569765,0.000137393962877
1691524822.5083964,-0.01879936045696376,-0.025922547251525926,9.82146259101243,0.0015186739164617942,-0.0029637843297639307,-0.0008367842349166
1691524822.517822,0.14932940121313085,0.1515514362139088,9.795262583991637,-0.0010618524108698673,-0.00047456651906589036,-0.0004419053259248
1691524822.5277522,0.05854240170850192,-0.18197315660554045,9.727120831079505,0.0032572402513585666,0.0002343781632130107,0.0002301541569699
1691524822.5378008,0.042634707611524075,0.23967548977811345,9.878233554609059,-0.0012399123911312742,0.00011588698054664225,0.0013678539142069
1691524822.5477593,-0.05603983993709388,-0.049854677000528265,9.83546960527343,-0.0007180054382956697,-0.0011711948342442262,0.0001194970862065
1691524822.5576916,0.12654723314029856,-0.210704507259778,9.68013174213549,0.00348262805205961,0.0011791002737996045,-0.0004698396480585
1691524822.5678694,-0.06417065312097066,0.10963015492112968,9.884565503685668,0.0003448164144587855,7.043542637551119e-05,-0.0020776868152374
1691524822.577856,0.07632216113221531,0.03866788025390816,9.779375362018357,0.00107572059373095,0.0006366792793724296,0.0003381646418069
1691524822.587747,0.03547570216320634,0.04642353642389691,9.802977815319828,0.0006547656020327226,0.0007614853990470996,0.0013492136311192
1691524822.5977345,-0.03890379379924309,-0.01216091226463971,9.848040569049708,0.0010876410095881858,-0.0006615707374214475,0.0013443693567473
1691524822.60778,0.1177501121267076,0.024514034767375785,9.764605496445192,-0.0002564726767779434,0.0020869424333451706,-0.0005894426542277
1691524822.617691,-0.10176210141276103,-0.11558926465262469,9.829195605780757,0.0019991924103403558,-0.0001750286417508412,-0.0014779169398302
1691524822.6277466,0.02032839903395402,0.07533780631995914,9.834077272774284,0.0005627435353127001,-0.00035572416696475086,-0.0013367228495831
1691524822.6377316,0.019340347087543258,0.06809880833862167,9.83307894483698,-0.0017309375436285477,0.0002559650911084025,-0.0030309797550494
1691524822.6499095,0.1285816886310354,0.039490989537225116,9.770584690420854,-0.00048704320520639695,0.0015169735699921629,0.000420863816334
1691524822.6595683,-0.18794269503634248,-0.026953291317526426,9.91897040479798,-0.0007701567549272748,-0.00223402172087507,-0.0013288950833434
1691524822.669242,0.10811738180702933,0.07494975397525906,9.795481373173473,-0.0005552116615157626,-0.0016491469793153044,0.0015965733507705
1691524822.6782887,0.022602198565784375,-0.02436373470294449,9.807368315384135,-0.0003406338066383016,-0.001484117141084918,0.000800853234768
1691524822.6877413,-0.0074785736556663394,-0.03366978057673812,9.81927758055299,-9.252796534932525e-05,-0.0016573438640247995,-0.0002291891544068
1691524822.6976922,0.15654739576316493,0.03806386349886703,9.758568660866802,-0.0008014525795984241,0.0009641403538768094,0.0001045984861498
1691524822.7077518,0.05743831942157261,-0.15506541105699254,9.741376363616856,0.002096813836163194,0.0018578342442509353,-0.0005808832176903
1691524822.7177289,-0.0011392200719884057,0.14165907848235088,9.863202770361829,5.16303701682731e-05,0.0008795782950030201,0.0008086910418291
1691524822.727713,0.0872228487624108,0.11027163405510403,9.827997523905239,-0.0007880660050578447,0.001288249027269828,0.0027067056105529
1691524822.737738,-0.08376079093487897,-0.1598578607431864,9.802995512989474,0.0010466691899279075,7.50386431694105e-06,-3.097786632725707e-05
1691524822.7477057,0.039924334166761,0.1169705756581853,9.850517657379793,-0.0011143755537493306,0.00012259947188053626,5.6536304118244736e-05
1691524822.7578232,0.0961827155164628,0.07628539489482988,9.803949790320855,-0.001404957608239314,0.0007901681611446128,0.0021680382376593
1691524822.767982,0.01172944241165799,-0.019694231958224142,9.801444042827349,-0.0021682756936190805,0.0015985452828160785,-0.0002783867350722
1691524822.7777529,-0.10910758627927836,-0.2137314750559759,9.795280157516686,0.0009874128221894114,-0.00015380799852245474,-0.0024811401783431
1691524822.7877858,0.047078687227797796,0.05007439056717643,9.800841296554072,0.0021247601572971482,-0.0008213879449961252,0.0011163970082356
1691524822.7977157,-0.01426559948755048,3.540506762308077e-05,9.829145760381804,0.002299478819259095,-0.0016934642687131375,0.000969224423688
1691524822.8077877,0.10333266675270947,0.07663387713396334,9.803007650221575,0.000538523792161127,3.9530815663960896e-05,0.0002584405190368
1691524822.8177557,0.08473934210004053,-0.01933418100697543,9.77852521238942,0.0003098231672297716,0.0017684516389778206,-0.0017665752495581
1691524822.8279722,-0.0034718684507426983,0.11852539490652225,9.864713765083494,-0.0004624479143799084,4.995454854915762e-05,0.0015585761755296
1691524822.8377447,-0.036531721051073676,-0.07425505047370065,9.81635544786161,-0.00015213712678960743,-0.000306214860422305,-0.0010774652293826
1691524822.847743,0.1518125015717557,-0.022563850183768195,9.737697062151375,0.0012500635799806811,0.0019155833101752015,0.00049385820218
1691524822.8581817,-0.025161196124869993,0.04028313485003158,9.84909290161503,-1.5790282426996123e-05,0.001164560961284468,-0.0005786254589388
1691524822.8709352,0.004171337446162667,0.02628321864327511,9.82603909241871,5.0145385214977106e-05,0.0001304224120391416,0.0013671026206516
1691524822.8786228,-0.0745438236068023,0.12120827489074781,9.90112687219082,-0.002061347216548779,-0.001324310595053497,0.0009185665874333
1691524822.8887243,0.18338710998163546,-0.05288066829215932,9.70174349471685,0.0004040529648525179,0.0015579506354194087,0.0031451732100044
1691524822.8979146,-0.20559697979911948,-0.04807404891106259,9.927272389731582,-0.0010547792371880774,-0.0013563398326663935,-0.001519630412286
1691524822.9077642,0.030951398027582667,0.027692868958482907,9.804631405608797,-0.0010301910748639965,-0.0015079620220543309,-0.0006870283798257
1691524822.917735,0.13997410653138895,0.013363711761347223,9.737956063979626,-0.0006140859567716203,0.0006363239195390132,0.0003866130898763
1691524822.9277644,-0.04270694909812079,-0.10154478566649028,9.817052670951831,0.0012295746520843637,-0.0005170356164649735,-0.0009742535005266
1691524822.9328089,0.08180701616668555,-0.08871195450583617,9.747182612105972,0.002184369610193961,-1.065940992201491e-06,-0.0008621031704301
1691524822.9468312,-0.027916345389411734,0.080402131428929,9.857371439299863,-0.0006788860476956351,-0.0012647070257173398,-0.0012108064076806
1691524822.9567974,0.10780294166451149,-0.11430434819110781,9.720499300072609,0.0013848982202538007,0.0010934132632508318,-0.0025355289510394
1691524822.9667397,-0.10627676826360273,0.12863938987630866,9.913155506387692,-0.0006569248887919347,-0.0018588743409359246,-0.0017539509392286
1691524822.976773,0.11144089748160081,-0.010917432545048721,9.760880120404938,0.000842151016758664,-0.000881741633426562,0.0003184305567351
1691524822.9867811,-0.08234579524061181,0.16019303996788078,9.924969400717508,-0.0013606147621338675,-0.0035814627968310552,0.0016170735068676
1691524822.996759,0.2511613962204565,-0.13144520862386008,9.636526302395254,0.0010708608959081908,0.0014476954535514405,0.0008999309973382
1691524823.0070665,-0.00832069005811566,0.007827631124619606,9.824009944116902,0.00033325781855127716,0.001324388948513009,-0.0005305470951775
1691524823.016727,-0.07552490164860287,0.07297031178495673,9.888560871993063,-0.0012235350711162093,-0.0006675469972840268,-0.0007954397990311
1691524823.0267396,0.15245478568468795,0.02196188720316296,9.745295948463724,-0.0012317471386262848,0.0019371889961341854,0.0001783670338859
1691524823.0367515,0.019288783229626207,-0.05011102479759507,9.792432213541096,0.0009051080149492655,0.0012461467968460777,0.0020156763673817
1691524823.0467238,-0.04181994893420507,-0.01705911597300765,9.857954089328878,0.0014646493244087426,-0.0005196457226805314,0.0019418891931941
1691524823.0567763,0.048037607696663175,-0.1396827494517207,9.746084682580355,0.004141623844903645,0.00018073446706109905,0.0014427383464585
1691524823.0667307,0.028032386537777832,0.18523662138028946,9.871844756435257,-0.0005447870167938353,0.0008836810509422439,0.0001053494813909
1691524823.0767517,-0.07503912312364794,-0.06026045248496686,9.839764092393427,-3.813554373261847e-05,-0.0004659856231370303,-0.001562093133753
1691524823.0881715,0.032345603967897596,0.07726281941772792,9.829992902333396,-0.0012410437455346352,-0.0006843036323380256,-0.0002053488098959
1691524823.098309,0.00293645616025329,-0.04705948435481617,9.802516620555279,0.00012428245459659244,-0.0011890745746669336,0.000213372306252
1691524823.1067922,-0.08112147103927754,0.08108136637680516,9.891214408976692,-0.000183049676748093,-0.0036280207949285275,0.001903164043842
1691524823.116741,0.17302593729814209,0.017265515505432236,9.745175325634966,-0.0014653109179569022,4.361225818137547e-05,-0.0001550660056004
1691524823.126842,0.09352793423825101,-0.05942284424639928,9.744319622900173,-0.0006002904231715523,0.0021726257589959096,-0.0015613531979675
1691524823.136782,-0.046375593379307356,0.02943844677403198,9.85814843974081,-0.0013617358955872244,0.0007491649368445638,-0.0016612110014016
1691524823.146844,-0.023328498347433915,0.059688415792070515,9.848227358230114,-0.001735011679913097,-0.0007502485185907266,-0.0002355319268012
1691524823.1568046,-0.031183740990038584,0.02302252700777122,9.841760178719449,-0.0020978497579437,-0.0018313253609011535,-0.0004068909731636
1691524823.1667452,0.1416675957423744,-0.010450575962292758,9.746257657099596,-0.0012995327517528713,0.00044483472872221995,0.0005754684859943
1691524823.176752,-0.00792339219009319,-0.12079058432718325,9.793313013319633,0.0008264879469837971,2.8354311923415963e-05,-0.0003186046198884
1691524823.1867385,0.10251996986579232,0.13716185881417492,9.822620767930717,-0.0013617574551396479,0.0012074026518543671,0.0004327682725211
1691524823.1967876,-0.024777103326424577,-0.05949195998418993,9.798327585310457,-0.00013463211529602306,0.00048768308210531006,0.0006373193644044
1691524823.206822,-0.07954256604511263,0.04086051594880896,9.87875095743072,-0.0024506666023879414,-0.0005758845963502106,-0.0025369925244654
1691524823.2168314,0.1079126370129925,-0.015265326476992391,9.755924057448187,-0.0014854281763934409,0.0010278177199257712,-0.0021671086835617
1691524823.2267766,-0.0786998483464283,-0.032734557911684906,9.849038800076011,0.0005716891159811073,-0.0019330064531138027,7.106738100400457e-05
1691524823.2367966,0.21397004406643805,0.0007444104973207134,9.710744325695963,0.0015778908686365444,0.0015221923604221634,0.001412539804523
1691524823.2522044,-0.014109941863113453,0.009272627255661798,9.83575506206183,0.0007728440881893568,0.0006091304195665289,0.0001440837693457
1691524823.259686,-0.057552119799422374,-0.04753744268063544,9.839363982785732,0.0017969346881523377,-0.0006749673274667287,0.0003515926835184
1691524823.2667663,0.05383407765632763,0.2751370789180803,9.882969275551476,-0.002752021625365726,7.93858333135985e-05,-0.0007455057750398
1691524823.2767394,0.08816671632343602,-0.15346500680715308,9.704738303073771,0.002065900467766711,0.0007089674398551916,0.0020827116275263
1691524823.2870092,0.05210577883460654,0.04436380087953836,9.813739390307848,0.0006845604022033398,0.001622028235550007,0.0011122607281954
1691524823.2967916,-0.07041680656305689,0.09434169230447433,9.888800866250435,-0.000621148103801133,-0.0004876014209402851,0.0018010878882428
1691524823.3067873,0.04567759127512168,0.022286389780390655,9.79958816018959,-0.0018370907179963434,0.00068697670600344,9.714220120212324e-05
1691524823.3168569,-0.03265176148021408,-0.18654136933162507,9.779934028432962,0.002195167959674361,-0.0004887231762145281,-0.0002992293850461
1691524823.3269546,0.1155734781076371,0.019026852724113166,9.77122092128015,0.0027591796291771254,0.0009436551177571244,0.0007431201118101
1691524823.3372605,-0.10153608342837883,0.05972213369958622,9.893301130929709,0.0016963552062475686,-0.0017642437454731502,0.0009990386495423
1691524823.3467906,0.1012724032341949,0.006208006427411549,9.78729043921084,0.0016926239621674166,-0.0003102488783585223,0.000556839298742
1691524823.36137,0.007367536547689702,0.034821419073040566,9.831291698635278,-0.00027545219695414416,-0.0002014986743435478,-0.0008300840674842
1691524823.3684788,0.0474833265526445,-0.16833329341366202,9.738319321371138,0.0030899807338344008,-0.0002782347985499427,0.0007661983725206
1691524823.3767445,0.0015762208425220516,0.23731379803743102,9.90461055796125,-0.000546272162441916,-0.0009126570781369479,0.001794384170143
1691524823.3867788,-0.0613115429513151,-0.05910805352630992,9.843280921651855,0.00044875915105746896,-0.0024437474116290013,0.0008921186852326
1691524823.396812,0.1421474383456221,-0.017114195891382748,9.750303723326471,0.001571559041602438,-0.0004090007082463076,0.0017228666872774
1691524823.4069197,0.01793589982820551,-0.10714955184437348,9.765236481317878,0.001109241342751938,0.0012051772943215487,-0.0032354963297898
1691524823.416867,0.11149310989817421,0.10782652765553244,9.785670431012056,0.0007475029205888205,0.002055648700856458,0.0002777966035587
1691524823.4268394,-0.055090415405499,-0.011482201363752024,9.85359848613107,0.0015585086582633775,0.00011478613254437255,0.00055201667762
1691524823.4421835,-0.07038948304241244,0.1136572377469263,9.884595742462917,-0.002737128872480818,-0.0021919489715836564,-0.0012271869747842
1691524823.446807,0.31361814467814536,-0.2738476277714138,9.550270042130858,0.00045210735580289614,0.0004578830151752769,-0.0003066680912802
1691524823.4568238,0.050212223071958696,-0.049915069610009535,9.782178980674225,0.001064168764366696,0.0014026059190044098,-0.0013412011141831
1691524823.466811,-0.12195855994639232,0.0016597902606806843,9.896383736202134,0.0016371253469963814,-0.002175890385108349,-0.0004191810551042
1691524823.4767802,0.11447594227915742,0.11817986167684048,9.800576727756802,0.00022262788715685753,-0.0008746568439164904,0.0013417698098869
1691524823.486791,0.04310208266953157,0.012910313740638685,9.793738733039122,-0.0010868048485492374,0.0003669899973233386,-0.0012178763101751
1691524823.4968753,-0.061999726523833086,-0.04203130996671906,9.838258059734173,0.00020884329150097172,-0.0015425883633919046,-0.001264073169505
1691524823.5069218,0.10306312834513627,0.06509780667773389,9.790281705155664,-0.00029741930338307934,-0.00022310949090271332,0.0002565722859521
1691524823.516862,-0.025321337434673734,-0.007160926743846489,9.826327358495119,0.0005113435422463004,-0.00142711831706962,0.0010426191327219
1691524823.5269406,0.14728302103396113,0.03828905258049109,9.759439305965776,-0.0003194067105811914,0.001263660560961662,0.0007058778026198
1691524823.5370305,-0.0480605026876734,0.05746011042644865,9.869977840793705,-0.0007679314506355126,-0.0005106995416162574,0.0014985994964895
1691524823.5469685,-0.12534416320950745,-0.1511810128096309,9.833510318786072,0.0011803878866482299,-0.0028378978893638432,-0.0009597248683626
1691524823.557096,0.1687386765024348,0.01942915775435588,9.7289880553612,0.0021169366835206084,-0.00024545005295498765,0.0008597175363042
1691524823.5670335,0.00954620909606479,0.027985883072559014,9.813794497059106,0.0010857840999286394,-1.5242188789334228e-05,0.0001947435264532
1691524823.576783,-0.0074201764924872946,0.09379111784345592,9.852260685469705,-0.0015789329541195025,-7.22576101235181e-05,-0.0011646260793263
1691524823.5881443,0.06728155955884312,0.04683875409655262,9.80420747853498,-0.00242606288499726,0.0009015504673211646,-0.0007570665149892
1691524823.596856,-0.002100634637045004,-0.18631340676591698,9.760524494263297,0.0004330795606073172,0.001006977948993147,-0.0022930162778998
1691524823.6069014,0.034307253926477425,-0.022451497766610477,9.797135821464424,0.0024551781204363884,0.00037666536046452735,0.0002338268275429
1691524823.6168082,0.11252752119562934,0.06752161221569099,9.79091423861509,0.001665415622078118,0.0018772288234360057,0.0011178801394357
1691524823.626866,-0.1334731788435026,0.03579534735744733,9.893202524901156,0.0001693590709085718,-0.0008023855385724231,-0.0006229505927244
1691524823.6369252,0.0019310282579840684,-0.12882188469747133,9.780697333753253,0.0015261220613978247,-0.0003788168970047082,-0.0036877409840876
1691524823.6468797,0.1723855175718645,0.17355449022585293,9.77809514125635,0.0005534317010933647,0.0010502004833851109,0.0010999868570884
1691524823.656791,0.057507798736108985,0.00893493094554512,9.782514270475543,-0.0007072049291651902,0.0027150198265047773,-0.0011176811351383
1691524823.6668012,0.020962281419883166,-0.0037119302461218803,9.805576510954042,0.00042526084634476164,0.0018951048305309137,0.0007367967807745
1691524823.6767862,-0.02664665967763362,0.030537073236142145,9.846051431862026,-0.0005507661455968915,0.001237953115662736,-0.0004981603526453
1691524823.6869235,-0.0855390569666991,-0.11323817525118608,9.827902305237997,0.00217244369053272,-0.0011912899947816905,-0.0003461611743027
1691524823.6968544,0.10305308846701716,0.13039474643226887,9.812051744924698,-0.0007977206717264724,0.0007708003584259814,-0.0011768992810452
1691524823.7069716,-0.02902832146177435,9.321710621855535e-05,9.835299681396734,0.0001782979410128672,-0.0009037063096361853,0.0004320526093301
1691524823.7411957,0.024097723365712486,-0.012890769206229755,9.801333146894867,0.001066420514162063,0.00042062382608377274,-0.0016187152179832
1691524823.744402,0.046054151097650785,-0.22203202734148939,9.7210953044039,0.0038857145413760154,-0.00016238943006302486,0.0006037965247464
1691524823.7476728,-0.22079516096360993,0.776373358805776,10.2098284242717,-0.0010983566392172596,-0.002023917834211493,0.0011413444188015
1691524823.7496955,0.7252544933164792,-0.12825495851949306,9.398637297925996,-0.0003875805686701169,0.0008680270997776149,0.0014639784237892
1691524823.7567897,0.0626626942037223,0.01089802600156259,9.784547127404174,-0.0009858609972423992,0.001896210989670696,0.0004353990259637
1691524823.7668395,-0.011015498857175112,0.0014380592681730148,9.815617170725242,-0.0011304186058551607,0.0013627522949614232,0.000263305515336
1691524823.7768695,-0.05726196105890439,-0.09383476873895603,9.818812720944551,0.0005977618418500114,-9.086152175445623e-05,-0.0002359074826295
1691524823.7867944,0.07739467418935941,0.09075963926622853,9.80614233382603,0.0004964323070854886,8.795016462485491e-05,0.0026318462512513
1691524823.796831,-0.03845912126853878,-0.037555902339809724,9.833189105885923,0.0003056863062127319,-0.0006284096960948504,0.0003731919166689
1691524823.8068686,0.07921968571831747,0.05816613819733749,9.802590584054283,-0.00014468814039632417,3.1332316305208436e-05,0.0014128867658378
1691524823.8168046,0.037465637271342216,-0.006547381667425536,9.799958599619632,-0.0005503832624657151,0.000670217711037952,-0.0001744337898621
1691524823.828199,0.008622635097406992,0.03871280161735477,9.839854046221246,-0.0015808086284347463,0.0003848630949533134,-0.0009295360471064
1691524823.837417,-0.07019670581475321,-0.048963535130471435,9.843191402428126,-0.0002259006663055127,-0.0015135540514649313,-0.0006874040520692
1691524823.84686,0.07360000822402309,-0.008299640977104861,9.78277008535744,-0.00030112840337287417,-0.0001605361488476229,-0.0019372359204048
1691524823.8567948,0.06608895901137118,0.1510629861147972,9.83266206514037,-0.0020971247004544676,2.6350658759476295e-06,0.0004398740891424
1691524823.8680434,0.04648782840958361,-0.03575148230863418,9.784057744087285,-9.45416876174651e-06,-7.707059497252606e-05,0.0025163392017652
1691524823.8781824,0.07311521786401916,0.016517770451906912,9.789216954218265,-0.0013815087989280247,0.0017997142108435882,-3.51164310182046e-05
1691524823.8868463,-0.06688953772491993,-0.05293254325475372,9.844942112895437,0.0006506760841850698,-0.00026110866138120357,0.0012292757362679
1691524823.8968372,0.010193617556451448,0.07110347211015576,9.832624583632247,-0.0007824551066410065,-0.0005378940829195786,0.0012102575199328
1691524823.90686,-0.007070698014701514,-0.15003051405763984,9.775640598583925,0.0008164445917365651,-0.00011358300038966443,-0.0020974227047468
1691524823.9168503,0.10627455447657914,0.20695391747266378,9.82923372172468,-0.001422468425479599,0.0004951253558694481,0.0015712465572228
1691524823.926856,-0.04606553719829139,-0.25263928207120245,9.756515766771093,0.001820046433063407,0.0005368739753230284,-0.0025310264720524
1691524823.936854,0.04200711036665563,0.06810275255301977,9.816233647084156,0.002196286920167109,4.6613731915667047e-05,0.0004831003787053
1691524823.946836,0.061552975584256805,0.16363994620270406,9.84394788332099,-0.0004662007164967177,0.0004809736529226305,0.0013942877447056
1691524823.956836,-0.0471556686173081,-0.05487874911960345,9.827044818676233,-0.0007180269123853482,-0.00016387441674076304,-0.0013799271366501
1691524823.9667823,-0.04400600432194319,0.0010217748697016874,9.850580163426914,-8.283374884390064e-05,-0.0020164578212965903,-0.0003472760838399
1691524823.976852,0.04940821637781642,-0.08136362956662206,9.75136249379806,0.0014176994129875826,-0.0009290397096232786,-0.0010930865357572
1691524823.9868217,0.029301308450229643,0.10315943733451807,9.856131265756405,-0.00044830188626508125,-0.0009461883307635411,-0.0008017711627239
1691524823.9968543,0.057295102501192734,0.07812292578963116,9.806576502967188,-0.0011132679726204584,-0.00040602061551775893,0.0005050678917264
1691524824.016967,0.0268464693831885,0.027918247686783755,9.808028758767371,-0.0018639139809097033,-0.00029687299866296065,0.0013585184022026
1691524824.0268874,0.06368118075948576,-0.1304457404926465,9.739242700245669,0.0005925485888830657,0.0010718044769487613,0.0001064574060087
1691524824.0369942,-0.014150116031187139,-0.06055210697549468,9.811052987785748,0.002749861739056886,-1.85794748229496e-05,0.0011197279270795
1691524824.0468245,-0.02000825301557773,0.013077528625401943,9.838485788429297,0.00040627643856210255,0.0005711307873099216,-0.0029918656038994
1691524824.0569377,0.17021817020383612,0.14711127679527874,9.776481780744929,-0.0014426329459255008,0.0030357630413727276,-0.0008211468632275
1691524824.0668964,-0.09159058868624899,-0.030476064085717344,9.863699532757398,-0.0001052024626012132,0.0004090790692404593,-1.945391361960879e-05
1691524824.0769904,0.1879824017893429,0.08596110889676836,9.75094752287727,-0.0011066001918157995,0.003556573486631248,0.0011450673007579
1691524824.0868795,-0.07894030403170546,-0.055491565176160156,9.859249563768865,-0.0005216876999261582,0.001580306207101608,-0.0003755892214308
1691524824.0969274,-0.1370348186175034,0.03515838799323604,9.914397208656153,-0.001227628014333136,-0.0017921979870578787,-0.0003428123711551
1691524824.1069405,0.12856663955299957,-0.09201911802856028,9.717759506766264,0.001164738621836565,0.0003278750687572732,0.0003936446335223
1691524824.129558,0.06903389964533871,0.012169862162384075,9.79431273286062,0.0009024719910616103,0.002574240255273428,-0.0013933162956441
1691524824.1340227,-0.37906911618610745,0.10716043841888308,10.06815223017308,0.00018871696927580105,-0.001463994075622931,-0.0008978885418678
1691524824.1404862,0.19181092464949662,0.13940130074841092,9.765264622109543,-5.526932265902705e-05,-0.00013518640935648646,0.0018584485694823
1691524824.148898,0.005810710535764569,-0.13969263521974096,9.774667250676341,0.0005415097524718672,0.0007763965042547857,-0.0018038675009215
1691524824.1568496,0.09629857655925042,0.1609585419107967,9.828784880794206,-0.0009053905501636305,0.0012018154617560086,0.0002889785280508
1691524824.1668634,-0.12309367246192539,-0.14023996393248658,9.834641687948563,0.0017012005592909496,-0.0016442883791035485,-0.0006143800967315
1691524824.1779618,0.16885517395877328,0.14095120984380327,9.782561111072777,0.00024610192808997725,0.000771544228241781,0.0019240264262129
1691524824.1868858,0.04133266426049536,0.030089066051870957,9.79848390089601,-0.0008301529180639115,0.0015851408153688706,0.0005694953322467
1691524824.1969097,-0.0827319671845735,-0.05899396248188295,9.847966811348707,0.0001239084972825465,-0.0002998614602136321,-0.0006132784585411
1691524824.2069888,0.12808903410147743,0.040936048458571433,9.769556312549012,0.0013673860262996094,0.000505571022415083,0.0028657961118092
1691524824.21683,-0.12917040339896907,-0.027000203627820456,9.875476976627718,-1.5044813611301685e-05,-0.0011399047795271771,-0.0010640295042599
1691524824.2269032,0.10298483401751027,0.0700286306963658,9.788643781776253,9.186650716998107e-05,-0.00036131300268094633,0.0014833311759225
1691524824.2369523,0.03585880426547879,-0.10781879334266138,9.762253794655084,0.0008931726977997071,0.0010528363293126617,-0.0019405728491897
1691524824.256404,0.013783607475904406,0.054948675613883335,9.829386730904282,8.404216552587009e-05,-2.8642387898685077e-05,-1.6477173840494068e-05
1691524824.2584572,0.17812846679700836,0.220623456046275,9.807571952228153,9.11243811377056e-05,2.5368286625762897e-05,0.0017508083435764
1691524824.2668664,-0.057269469887468706,-0.10044575433314,9.82298922050801,0.0005713194496490683,-0.0005550390495389939,-0.0009727615217621
1691524824.2768226,0.08300953540672441,0.021810459090175194,9.781102902739251,0.0012683214757544601,-2.045990479560573e-05,0.0013637506888421
1691524824.286922,0.002990645424566502,0.0328237101939051,9.82472836421067,-0.00023184769553965693,0.0001356461505581991,-0.0003942093864957
1691524824.2968197,0.03159429345863467,0.003384202857174239,9.794327647541067,-0.0002471265162182573,0.00038001886716703683,-0.0003230649565289
1691524824.3068888,0.17010165946134004,0.030660415831808483,9.734415108243363,0.0002755206953719803,0.0030402509875219093,0.0015462585904692
1691524824.31709,-0.2426326678424975,0.005700622953037614,9.953736934685987,-0.0006405239509963456,-0.002132317633897726,-0.0002861915674934
1691524824.3271458,0.07102721086246926,-0.10267919863941262,9.746592964892322,9.335131504470898e-05,-7.187598692432925e-05,-0.0033740873734409
1691524824.3368568,0.08806376820608666,0.005631564467292316,9.774611908762035,0.0025121860260515247,-0.00024544388185116645,0.0009524701925051
1691524824.3478866,-0.0026675818549141664,0.17239671357458103,9.881238286304251,-0.002548253558461134,-0.00015605348623228305,-0.0006020775583515
1691524824.3590925,0.15076639431157046,-0.17339658997966859,9.68933121494401,0.0015268140049538462,0.002878600923374195,-0.0010178093618656
1691524824.366873,-0.23734657450616928,0.08600145032599107,9.989432980516508,0.00029154327900988096,-0.001739281619968354,-0.0008855846065039
1691524824.3769488,0.1508579100360586,-0.073070685260405,9.711405154069704,0.0014221820922772398,0.0013556726350463576,-0.001727492530545
1691524824.386923,0.027146097107856305,0.32069169793641283,9.918450427701666,-0.002915935945722322,0.00013600340804631518,0.0022514750196655
1691524824.3968885,-0.060627055359837256,-0.2490066653762044,9.762586569464375,0.0020562139836408596,-0.0012974643363432284,0.0013942906259849
1691524824.406987,0.26908830470852385,0.03665061952736022,9.685720971288527,0.0010537547839784076,0.004096733274089963,0.0005799407552053
1691524824.416927,-0.23344910220534495,-0.016967308374047158,9.944679336564736,0.00048714942570961663,-0.0007305118546514281,-0.0015829631413275
1691524824.4269145,0.07072130988652173,-0.03004201986533281,9.770915906936853,0.0024779154108183574,-0.00014264214228315927,0.0002196951716264
1691524824.4392262,0.046309899880515995,0.12832313371669057,9.838936484614639,-0.00028066483597562317,0.0001594817089157174,0.0008746173587219
1691524824.4468513,0.014067720762225077,-0.13725286140979956,9.766592853156068,0.0004890009145446338,0.0009730826122822618,-0.0022654377209896
1691524824.456854,0.04679996703194201,0.16089426161376094,9.850586000805931,-0.0006502138706262778,0.0003036491135891785,0.0013238989229371
1691524824.4669168,0.008588819289903411,0.15479567085704524,9.86805739163211,-0.0034378462722833023,-0.0002339144140846028,0.0020547821948361
1691524824.4768982,-0.006294550405625497,-0.2823246883686808,9.729403209572933,0.0010827788692764023,-7.075041919512349e-05,-0.0005920616497228
1691524824.488437,-0.024199894898142227,0.03479223432888519,9.83700846041261,0.0004632814558848471,-0.001419300573669354,-0.0002850711864362
1691524824.4968822,0.16834819890885358,0.014849733851810668,9.743318077319962,0.00034853733887956536,0.0010576444666797488,-0.0003405865102017
1691524824.508493,0.018495139019179537,0.04613464100114124,9.8183557102567,-0.0008104097743881265,0.0013191597970608386,-0.0009250799014175
1691524824.5169058,-0.13966611937988882,0.06929307182312232,9.921149576359541,-0.002423071909600874,-0.0012166682149062716,-0.0018914190406853
1691524824.5269983,0.23907484417660987,-0.09322999501224732,9.657767524423251,0.0008049006135633482,0.002694918447271741,-0.0002534364868829
1691524824.5368817,-0.03589512508759071,-0.003090754895894778,9.831226818577228,0.0010604392979052558,0.0013970328748214161,-0.0001710650796944
1691524824.554109,-0.038206740418341135,-0.00810528148506416,9.835016854068385,0.001291036173143483,-0.0004488523963609685,-0.0002824642981345
1691524824.5569112,0.24419104782617046,0.5605688874476182,9.884288928912534,-0.0025594575198298257,0.0011291583656641243,-0.0012961074064428
1691524824.567279,0.024958325709317556,-0.032475573149994975,9.800175630201963,-0.0009757839757005247,0.0007931467382663941,5.654014582386503e-05
1691524824.57686,-0.03069389546817472,-0.0637268210398826,9.81491377089647,0.0005050077749489754,-0.0002063376180658493,0.0002703819370885
1691524824.586857,-0.009761471806604244,-0.0401295368390661,9.812570684043248,0.0008447359849119772,-0.0006056779412607449,-0.000652018567262
1691524824.5978994,0.0740439597938808,0.029854599761147488,9.788158663278878,-0.00015400476497420067,0.0009831436135970888,-0.0014607708255703
1691524824.6069458,-0.026364821783181416,0.032184452018355444,9.838308088892193,0.0008034029577114314,-0.0007811552893141618,0.0009465037035347
1691524824.6169038,0.06597225553778391,-0.007971678299406725,9.782646392000776,0.001228826530346114,0.00011105496154592972,0.0010314687422301
1691524824.6271713,0.01373636055599738,0.03406565210179499,9.829729552447061,-0.0005540994182181054,0.000594972425083034,-0.0011538001528883
1691524824.636901,-0.053597722863384614,0.013501241921549098,9.853784591516199,-0.0010894250850554338,-0.0009421081616123033,-0.0014581708057726
1691524824.647668,0.007875767231981317,-0.010792218316660288,9.812662198378453,-0.0010510395618091647,-0.0010028238887752846,-0.0022747542063648
1691524824.657329,0.19556799762612515,-0.02680806772669685,9.709103852128841,0.0005851060179932117,0.0018701290458882419,-0.0005611227645481
1691524824.6669571,-0.04755829705727429,-0.013093499512753922,9.836813726190625,0.0007333655590357964,0.0006083941043114043,-0.0006855232461298
1691524824.6768832,0.02980866956962883,0.1318282022612451,9.856644267896067,-0.0011389710908128277,0.00011402844495983996,0.0008865299930853
1691524824.6869469,-0.08595536570441817,-0.17821074066230463,9.81166698397727,0.002621721021778572,-0.002283194846754294,0.0008138935552501
1691524824.6969118,0.17986304753744176,0.09412726285278888,9.760202235071915,-0.0013241339262332187,0.0021439395685751766,-0.002712466037547
1691524824.7069404,-0.017921737825895828,-0.0745322709813083,9.793833080425117,0.002176910027947452,0.0004079677707719676,-4.926096362860115e-06
1691524824.7169745,-0.002779793375564486,0.153907606097688,9.881822750108123,-0.0012220352384884627,2.4991225271055253e-05,-0.0008427540126199
1691524824.7270412,-0.05965599242397645,-0.049390100588088306,9.839266781926472,-6.942294098760618e-05,-0.0017515790880737745,-0.001478283648094
1691524824.7392004,0.07743672611338973,0.06128032386326481,9.79041287971668,-0.00030710958983111214,-0.000906321005268364,0.0005743554391024
1691524824.7470956,0.15230005448384248,-0.06106956316061922,9.7116208012942,9.559775438722916e-05,0.0016931804158774866,-0.0008546714491153
1691524824.7571056,-0.1775805964168489,0.07276625615005095,9.94727152553114,-0.0009806316952550543,-0.002665791719574143,-0.0004899562156701
1691524824.766931,0.1809555861053687,0.0789138819254986,9.743340963374077,-0.001903774536458406,0.00038597563407228013,0.00070512005529
1691524824.7768831,-0.05735717176248988,-0.22185379565687785,9.778976575478001,0.0028131915229220356,-0.0012777231202892865,0.0005002081923243
1691524824.787092,0.0195745784157573,0.1426790100174042,9.8659447951313,-0.0009493505049691794,-0.0009618364034635967,-0.0009306613176072
1691524824.7968805,0.12152475234623182,0.03898278038135233,9.755763861978956,-0.0013375278802460415,0.001077390084732962,-0.000674736085994
1691524824.8069203,-0.02902959741269481,-0.023545664342773574,9.828195133980271,-0.00039985565429890766,-0.00015492507590182854,-0.0005763751507679
1691524824.8168874,0.013606073360927297,0.12287305313069727,9.860965599671054,-0.001855712338445292,-0.0009581088034570939,0.0012948266192047
1691524824.837315,0.04264849492640694,-0.03952606487865314,9.779941156184398,-0.0008480289582037919,0.0005219547911112497,-6.37806772197198e-05
1691524824.8411613,-0.07506498161796288,-0.04576879645554996,9.848579337717018,0.00022859049684048835,-0.0007617849558326728,0.0010720530151679
1691524824.8489048,0.07438567162385418,0.06268547905388296,9.799319211973666,-0.000586126683928091,0.00010658457007458919,0.0013514593045051
1691524824.8578253,-0.02845069412225091,-0.010885645824391454,9.832128167108253,-0.0021228223379809452,0.00017923820505024192,-0.0017811313557381
1691524824.8669384,-0.06708013951614594,-0.11882828987331355,9.79652263679486,0.0011658755485701045,-0.0016957253193450143,-0.0005145486031601
1691524824.8768878,0.2193710902643113,0.15755646426280498,9.761058798463932,-0.0010149176237576744,0.0017792393583312166,0.0011484299282251
1691524824.8869667,-0.0824694214097681,-0.06332503627376253,9.84064867725104,1.0273287607730308e-05,-0.0002771165361761845,0.0004972393687871
1691524824.8969748,0.16092830064146135,-0.012777965643044356,9.728383412751716,0.0006074434216074351,0.0024915161416820355,0.0007472238101122
1691524824.9078574,-0.09321768013288655,0.01849248103757334,9.869068570601122,0.0011930615144220608,-0.00018957163666440994,0.0020939008861837
1691524824.9170897,-0.06747137930542618,0.12575301146562506,9.902547134987739,-0.002480071618965505,-0.0011387884949180444,-0.0008539215016121
1691524824.9269955,0.02831377072064637,-0.13189306672679005,9.75841957437531,0.0011409152593071718,-0.001377566443769163,0.0005143752384988
1691524824.9369147,0.1254842540036643,0.10827795623179849,9.778553290674893,-0.0001908809636196137,0.00039678142577892017,0.0017269714042135
1691524824.9468858,-0.03981893048623142,-0.04203659669677329,9.822942103429074,0.0008495933938952083,-0.0008612457067395738,0.0013115831859699
1691524824.956942,0.16713850687424456,-0.03817376022301148,9.723444202688123,-0.00021845800395608268,0.0033349341091531122,-0.0018850611342991
1691524824.9669063,-0.021169949058832682,0.07393388712475851,9.878494154030763,0.0003336368450134459,0.0009816468752365827,0.0015790886134432
1691524824.9769225,-0.1184914661664915,-0.12554547312207615,9.841547324874618,0.0016296692273159528,-0.0011413990295685906,-0.0007436587295437
1691524824.986895,0.048691166397983196,0.11773385726243504,9.828309738629574,-0.000623007169973752,-0.0007066564116657554,-0.0003972058004642
1691524824.9968886,-0.03477063173263064,-0.04387930345859398,9.819022618492355,-0.00044605886240713696,-0.0014256193036980638,-0.0021592639206851
1691524825.0070226,0.23585722426658576,0.03387171970016205,9.707672429583305,-2.0633479109463403e-05,0.002403593898689273,-0.0002590020705888
1691524825.0169115,-0.006391428722273199,-0.033623589073651136,9.819437608344677,0.0002896793848261964,0.0021972141052580946,-0.0013072935218865
1691524825.0269368,-0.04887743075073803,-0.07279655166969606,9.817477148258249,0.002230924574660576,0.0006087524464584244,-0.0009615931014473
1691524825.037773,0.045627149009779384,0.14860714055504967,9.844356877520795,-0.0009847288582469037,0.0010133130009847202,-0.0008803785133118
1691524825.047411,0.07460400284253577,0.07400047070190001,9.818013146050811,-0.0013151676746182847,0.0014413514718900568,0.0009211743197461
1691524825.057209,-0.1780173431347116,-0.05221882555993649,9.887855245570783,-0.0010573697028716325,-0.001852923764811275,-0.0009660513426119
1691524825.0674026,0.1142823614535909,0.030893964459595635,9.773097353251686,-0.0012872219411227835,0.0001900288630952643,-0.0005510526063794
1691524825.0769486,-0.037907198471189715,0.06953478584066154,9.85985240750428,-0.0026372825166201177,-0.0008173027621756458,-0.0008758969890827
1691524825.08699,0.16709745668811674,-0.05606134752780764,9.70825141278858,-0.0010540395661170798,0.002390184302330481,-0.0008203896979744
1691524825.0969365,-0.07064620194985384,-0.04103545389032376,9.86119200567715,-0.0001841897416330849,0.00043366787108630844,-0.0013452870591486
1691524825.1069417,0.15079891403031206,-0.042209108268966296,9.7123816589016,0.0020543597415186815,0.0025552126664213385,0.0010858585772161
1691524825.1169465,-0.03901860117573876,0.07304813124162766,9.869525167696766,0.00010825421728802646,0.0016410405879531637,-0.000168452836288
1691524825.127008,-0.122234918914367,-0.038284282275539074,9.878668786192303,0.001757822414547912,-0.001996709000231712,0.0011554997506841
1691524825.1372938,0.14620381334981675,0.10174561786041118,9.7726913342811,0.0008060008592535875,-2.6765836189078444e-05,0.0025792900885512
1691524825.1469283,-0.014820346330039452,-0.1221040288604005,9.791146082530867,0.0016434589884552137,0.00029992502031405354,-0.0006460418046394
1691524825.1568928,-0.08324960528387061,0.1760075013582083,9.93257934635647,-0.0021883889200582994,-0.0018979838248142846,-0.0013512458938116
1691524825.1669466,0.1758117950932739,-0.051725011091654054,9.703992941594722,0.00014960617291411314,0.0006936893630644558,0.0010292243712406
1691524825.1769154,0.024273782302677356,0.013747088390073044,9.80502793147347,-0.0007668115342939951,0.0014137790267049167,-0.0003785843548307
1691524825.1870327,-0.05711606775317407,-0.07616108726678185,9.8282880179731,0.0016047083370324428,-0.0005967467530063365,0.0003731870272254
1691524825.1969647,0.08438413670439474,0.1487455548877701,9.825767509156877,-0.0006524383807068164,0.00025521963531407077,0.0015157303603423
1691524825.210813,0.06009103990307593,-0.06759487641843011,9.77102779144655,0.0009788740941019094,0.0014744935508795964,0.0004990942723174
1691524825.2169564,-0.18186532166847033,0.07988639407540005,9.942621932103972,-0.0010283366811178886,-0.0005069814615844061,-0.0015155335242802
1691524825.227912,0.061450196966979634,0.007924677952365377,9.80356890171453,-0.00013015085074635153,-0.0004015520821522829,0.000394791557273
1691524825.2369382,0.006221841024563311,-0.029668146701400208,9.803977082053162,0.0004897275903037627,-0.0006105351484574144,0.0001511603075136
1691524825.2471452,0.03459455646089104,-0.07514600174380717,9.781126038685136,0.0013770808405676848,0.00016248124129263522,-0.0017863625946397
1691524825.2569318,0.008406908393574865,0.03743809264305087,9.828172677117507,0.0019362569633209854,-0.0009044516504449692,0.0004454594052453
1691524825.2669594,0.05274277312401574,0.09315998341357573,9.83982525420323,-0.0011047016695648246,0.00024182322260207634,-0.0017986465065682
1691524825.2769473,0.05880469998862131,-0.017203414119725008,9.780649423070777,0.0008354397903797563,-4.838676088597122e-05,0.0008831595075839
1691524825.2871473,-0.13718925131254114,0.08376137274581813,9.917206184681662,-0.0014470364125347955,-0.0029749797119702293,-0.000124138063466
1691524825.2983315,0.16813462160865858,-0.07083578306747024,9.71652255437401,0.0005716926587317785,0.0003293272895955637,-0.0002627238684276
1691524825.3070943,0.02521393476679505,-0.02897713758852691,9.784945398866105,0.000623489638691034,0.0008702591361562055,-0.0012573743990565
1691524825.3169878,-0.02851649111087497,-0.003255588224977868,9.830590215464774,0.002231679551390695,-0.001023276334749723,0.0013208800480874
1691524825.3269436,0.14508959740995658,0.014767331592683905,9.755246264850996,0.0007195511436920334,0.0024915178361538427,-0.0015066012094671
1691524825.337046,-0.03708578597383558,0.044666066275835865,9.853219391101694,0.0010891328834677543,0.0005185978570498291,0.0005274195171018
1691524825.3484783,-0.029861447539738007,0.11248869881379844,9.874711432031406,-0.002650325608429279,-5.809445472356981e-05,-0.0017088805145526
1691524825.356925,0.04334147988041697,-0.14726116036373307,9.74796398058615,0.0005616108714359037,1.755632077946923e-05,-0.0009761156800145
1691524825.366917,0.10882648732953622,0.0995220540571743,9.80160442275711,-0.0005816736708862827,0.001188406905507768,0.0006213030608428
1691524825.37706,-0.018812070574986194,-0.046587295975150704,9.814654760345519,-0.00027060244587146474,0.0004984793110727666,-0.0005141816620657
1691524825.3871307,-0.06238043627049795,-0.03993364556036317,9.835083217098138,0.00026286765505675186,-0.000873527450307249,-0.0013978073659295
1691524825.396922,0.18969853164841396,-0.03152831455304099,9.701691925702029,0.0006111619567552185,0.002887507991019397,-0.0020601760881895
1691524825.4070125,-0.1141542652017603,0.0689744223030868,9.90126022935274,1.9974371966364975e-05,-0.0005043726064024862,-0.0006795767514909
1691524825.416967,0.0819221498325953,0.027811000205807665,9.794454943457566,-0.00020467029776462446,0.00048357436671478946,-0.0007865025947744
1691524825.4270203,0.05578264382003363,-0.06459660281039906,9.759184015213872,0.002389244136803689,0.000666511164345002,0.0012642762738046
1691524825.436947,-0.015306211021934194,0.07062674475437444,9.843216516003476,0.0012999714050539826,-0.00023202825367046482,0.0022075073973332
1691524825.4469516,0.08520815311186584,-0.06449010341129366,9.75611922971835,0.0016479298044646833,0.0017907850454742145,0.0001861921225731
1691524825.4569666,-0.12565134277513568,0.10664160375416513,9.920538603256887,-0.0012034178391520161,-0.0008411328407476566,-0.0011672174843902
1691524825.4670105,-0.003953247919600661,-0.09780953385295957,9.795033601032339,0.0012794999239477375,-0.001781385293377633,-0.0006497701217363
1691524825.4769666,0.19674856602505622,0.02798103194330429,9.731177756170878,0.0007948062708554967,0.0018939945104906764,-0.0007395420509333
1691524825.4869993,0.02694408675771827,0.034377722946795336,9.818259111652218,0.00039771621076094244,0.0018783472375229907,-0.0008192448696995
1691524825.4969604,-0.02725032793111054,0.06434935694087286,9.84963772481937,0.00033811726643055424,0.000388209073901294,0.0010843470552294
1691524825.507184,0.07090847229429008,-0.008841308816201326,9.784659443618494,0.0006219730722503955,0.0014935120734295545,0.0012061675258969
1691524825.5169475,-0.03643422828012335,-0.07377261216531208,9.820473749307816,0.0017429042585413801,0.0004593728312498686,0.0004595946700369
1691524825.5270126,-0.019428992726724884,0.06349636043054703,9.855087436313777,0.0013398347743507463,-0.0009223310758701653,0.0014986015046538
1691524825.5371144,0.084366256060447,-0.05611169888180342,9.753332285158859,0.0012276826277535422,0.001166081618256196,-0.0009329032438749
1691524825.547023,0.025555644963116877,0.06009762655075821,9.831279538249413,0.0010131239537533516,0.0006385694652624314,0.0005441966529992
1691524825.5570178,-0.11759355398040117,-0.0008536083502363552,9.879421750607783,0.00048525910076445595,-0.0017497360967688635,-0.0007753223000968
1691524825.566995,0.0531009628117467,0.013903383154450782,9.796466506991191,2.556122948925068e-05,-0.0009536409717588399,-0.0013143699436391
1691524825.5772586,0.1353374745189002,0.0414307623585262,9.765972778850626,0.0007348395181635855,0.0005990715692507543,0.0011837942472716
1691524825.58712,-0.01483366079080593,0.07643760294082297,9.864663268981266,-0.001248856509471001,5.6289296956364124e-05,0.000515486015292
1691524825.597064,-0.06986519764392565,-0.154649507534579,9.810514591552167,0.0007288973889819141,-0.0010460422536945112,-0.0019748636807257
1691524825.6070683,0.11791776360084544,-0.015119856576299847,9.767638681482014,0.0021042651834179936,0.0003405360983096122,-0.0008248723863566
1691524825.617105,0.16878053927330489,0.03915135403296611,9.75452184424878,0.0015227018792906423,0.0032686341500997736,-0.0006121557491774
1691524825.6275394,-0.24238661101156345,0.03386164084439305,9.95809965644895,0.0003582266138640293,-0.0023308704244989205,-0.0010305053840334
1691524825.637004,0.23328715980226955,0.2884012349776257,9.79330254566651,-0.0036967473592132948,0.0007927746723271302,0.0019292617396508
1691524825.647006,-0.06906470254681242,-0.13205304125428183,9.829267038767721,-0.0012354456223067076,-0.0011454903654825267,0.0009677483356149
1691524825.6570225,0.0178819740015488,-0.04732608483018419,9.799820623230463,-0.00019533480888236023,-0.0012378699736214133,0.0005631817218904
1691524825.6670084,0.1326572598937494,-0.08150864020782017,9.709200087689256,0.00033476156344038353,0.0020232415381343915,-0.001248061406141
1691524825.6770954,0.015273362565258334,0.01949438867420668,9.829893021428301,-0.00021695001004237458,0.0018183579552665699,-0.0014931722364331
1691524825.6870625,0.05163442558829198,0.087530970975229,9.831636061892056,0.00046997280716466484,0.0008501477491091375,0.002934336796688
1691524825.696998,-0.07440363744550767,-0.06219032678274446,9.84430265022208,-1.4680897067290368e-05,-6.591534345865729e-05,-0.0006855549110973
1691524825.7071557,0.0030247609489586344,-0.02098626721957456,9.815618531412776,0.0014430297730241637,-0.0009350019695296148,0.0004909035231043
1691524825.7170446,0.010677270101779787,0.10353626547661873,9.842980388720385,-0.00043786554559788687,-0.0012416021357167142,0.0008064349128921
1691524825.7270913,0.20514465713090885,-0.06383200756825864,9.681457313627392,0.00018794101575946324,0.00320342685209774,-0.0005640771525854
1691524825.7370195,-0.10646710817558035,-0.09016691129434519,9.851810889038658,0.0021072406701241717,0.0005495288500707692,-0.001058818055963
1691524825.7470715,0.13353999994345297,0.15712014513986444,9.807025605832788,0.0007262596413004926,0.0016335935099343229,0.0023274761804436
1691524825.757038,-0.027577403653123406,-0.04770063018282738,9.816138403434794,0.0014173283878596218,0.0008732454330383183,0.0016055194316954
1691524825.767293,-0.06582353793121369,-0.04197028760750004,9.846100160575348,0.00015520298120257208,0.00020158435025365655,-0.0024129480409378
1691524825.777481,0.040266503025252934,-0.024408782583824524,9.782748554406966,0.0020215564481813,-7.071533177441022e-05,-0.0002101962274814
1691524825.7876074,0.10264080575295269,0.12229024772070629,9.79965527114733,-0.00019684473772952837,0.0016440097660362014,9.11844142769862e-05
1691524825.7970014,-0.031979234668026185,-0.022162663192229322,9.831293532201544,0.00048786569495135935,0.000510773617567827,4.721492929956207e-05
1691524825.8070474,0.04183900612891141,-0.06358000650611374,9.772103819165057,0.0035098241162158255,-6.737061203203722e-05,0.0024306575249006
1691524825.817055,0.04028314151569241,0.15126259858955335,9.858533910624361,-0.00015548627340120332,0.000634830130911547,0.0010903200780098
1691524825.827032,0.05479988118917295,-0.11842956335879168,9.753300146417013,0.0023594719072398936,0.0013467120737709122,0.0009911941486002
1691524825.8370235,-0.0019090516415492709,0.10898379008189925,9.856552357064391,0.0006026021543793918,0.0006124750456715826,0.0019709716032316
1691524825.8470998,0.006991278914972639,0.13122548260724826,9.852305321144465,-0.0027140139336230286,0.0007994797758374416,0.0005657666076963
1691524825.8576667,-0.06871441999316835,-0.20885817268655374,9.778961926597034,0.002158661658359269,-0.000982687744477616,0.000712191936845
1691524825.867342,-0.006196652939634304,0.13486373804941748,9.86561596565163,-0.0006699469452307986,-0.0014152053831145586,0.0001772353605424
1691524825.8770049,0.06543435231192213,-0.06179727253441011,9.76550779476431,8.478581097196968e-05,-0.0002421067587173898,-0.0010282674158866
1691524825.8874173,0.03626933414402275,0.037883480277799926,9.816008734428316,1.1404846634367944e-05,-0.00029984278305467105,0.0004268381924425
1691524825.8970628,-0.0422900554060379,0.046531418244452886,9.860942083975683,-0.0015733489377590343,-0.0011179330779104188,-0.0006952263467887
1691524825.9072764,0.18709589817144126,0.15112092623956885,9.767514754680802,-0.002728552238454868,0.0012420309533708023,0.0024362815490981
1691524825.9170752,-0.13774562810823643,-0.0978374669653425,9.85674436204915,-0.0015044166704295534,-0.001454319071052642,0.0009323552256041
1691524825.9271865,0.05283027235365264,-0.17317036720813628,9.730732251231744,0.0019537709995750938,-0.0005721676419164315,8.372696517607459e-05
1691524825.9370596,0.05871494010963238,0.03470784793527579,9.79263466731537,0.001270912068154768,0.0002857907459961985,-0.0001025044877956
1691524825.9469898,-0.029659285282890753,0.14694846799820657,9.892832644585965,-0.0008685036113151547,-0.0014703416907152953,0.0011864172045256
1691524825.9570627,0.09670203950438634,-0.047375331973462935,9.758149570089348,-0.0012961615827513534,0.0010427412694360245,-0.0019256896159554
1691524825.9769993,0.003467862723021252,0.009146007604502187,9.81602221380627,-0.0015055356076481368,0.0005022134315586462,-0.0013631614676619
1691524825.9870367,0.05690958389932187,0.11478789468948579,9.827064129645906,-0.002352663387392507,0.0002924687250910778,0.0012124943057365
1691524825.99718,-0.06070074444832,-0.12343474591838514,9.805569382581393,-0.00039799764881854325,-0.0009290508141658698,-0.000401672772778
1691524826.0071335,0.08384413089368278,-0.06888869991300811,9.758116979084738,0.0021068820725748667,-0.00040117536318454893,0.0012065479493407
1691524826.0170257,0.12305269954816067,0.06582488649526684,9.779333857881387,-0.0001920127217859411,0.002249388311642721,-0.0008080748195702
1691524826.0270152,0.01238180011416044,0.04004369616900593,9.836976537965885,-4.0374507242063494e-05,0.0015762082679972693,0.0006324748572019
1691524826.03704,-0.10091144433307321,-0.017299924545838636,9.875257112116454,0.0006596072732424695,-0.0013723507138346039,0.0010079821838821
1691524826.0469978,0.020600233569564485,-0.019007196769996425,9.806105219559882,0.0005281138977085148,-0.000911920810629562,-0.0005499360670278
1691524826.0614104,0.07772551469909963,-0.007724175864892289,9.773107138298645,0.0016613340870213602,0.0002153635391089349,0.0011428024770516
1691524826.06699,-0.022643941719399607,0.11847830746216184,9.869390359478853,0.0004513583000970861,-0.00027302697603028296,0.0012925866719974
1691524826.0771885,0.10583015259535684,0.010239089169979529,9.7700322761972,-0.0009396513216978497,0.0022665166094928235,-0.0009496437671537
1691524826.0871136,-0.07883947565526016,-0.13401468510216302,9.817083976800658,0.003160024139285183,-0.0004656257950919366,0.0008228293043152
1691524826.0970044,-0.016715269058176878,0.12482826919818159,9.875043682054201,5.051702000824103e-05,-0.0009145190709750712,-0.0002269585204253
1691524826.107063,0.09057585805063069,-0.04304049544669611,9.760509132127812,0.0010343485342037475,0.0005614527527762899,-0.0004199276265631
1691524826.1170187,0.08629484685585977,0.04548566269187389,9.786064857821456,0.0005817716947660419,0.001677905687453539,7.406088458946237e-05
1691524826.1271248,0.03498047328706235,-0.02030013896167697,9.798971370903464,0.0008741541802418044,0.002185663996660106,-0.0008260062715912
1691524826.137409,-0.05302625879448118,-0.016789896656718987,9.850210434858832,0.0013562299771991697,0.0005815587658278724,-0.000785754742747
1691524826.147032,0.05675234012017872,0.05093996337214701,9.79495791909181,0.00014697913000471103,0.0016205390212168248,-0.001333364500379
1691524826.1569867,0.01865661550884578,-0.03454105154172904,9.802310827780886,0.0017145975825835227,0.001095280974238501,-0.0002459570352862
1691524826.1670272,-0.01036292250427545,0.0012884405265175805,9.833057271517962,0.0002852126521602902,0.001097873010083348,-0.0028029999050254
1691524826.1812963,0.07786918820018919,0.06972368997670067,9.800012230226166,0.00021182565614581654,0.0015583270781390857,0.0008239523047172
1691524826.1870406,-0.15350304934245404,0.27949462140105674,9.997438862906312,-0.0025448882533016847,-0.0010225561171427944,0.00182269591075
1691524826.197085,-0.01156439788649998,-0.28408303046369143,9.72590748391347,0.002278619891977401,-0.000780028316083958,-0.0004661128443608
1691524826.2070785,0.08713573008561286,0.0853871524951096,9.807743760694237,0.0008417624168701725,0.0003487323449227856,-6.974696246335021e-05
1691524826.2169943,-0.016799050587724247,-0.1358476561979302,9.785814172853842,0.003725138377552125,-0.000392962624654106,-0.0005395312148089
1691524826.227023,0.036557050989804794,0.050213347940799326,9.810302422688835,0.00184425144550786,0.0005599633888231837,-0.0026588188304508
1691524826.2372231,0.1852318968999455,0.13159301577564606,9.770832916085396,0.001431478175482927,0.0026390407554744678,0.0014222303759829
1691524826.247038,-0.1859315812688361,-0.009363147928206375,9.918982055654382,0.0020547272229286795,-0.0016845252255492439,0.0018685206485038
1691524826.2570205,0.09766118107580729,0.19586400821598277,9.831098197923195,-0.0027289164964090966,0.00036250760806321456,0.0005281746450868
1691524826.2670033,-0.019872147548421138,-0.14603140265747783,9.787190430619384,-0.00014245004696014863,-0.00014749534909050998,-0.0005771363905573
1691524826.2770262,0.08908663714848442,-0.007981516614032038,9.772822708809542,0.0011345646697013257,0.0006031746402372511,0.0009755438548104
1691524826.2870722,-0.12775809354849643,0.03781608718109457,9.898876282770312,-0.0008334802100564235,-0.0018901750841549333,-0.0013881295273954
1691524826.297052,0.1684280726944703,-0.0014886155608286652,9.72927524452114,0.00015333865555573834,0.0008348764782972307,0.0001820802169909
1691524826.3071508,-0.017302184510918972,-0.1286132251351517,9.784297883673277,0.0025188808879571525,0.0002623233317292386,-0.0013270368619764
1691524826.317003,0.0013025691073879568,0.08577797775441845,9.856958539847817,0.0008209211041381348,-0.0001113337280778289,-0.0015557561821247
1691524826.327119,0.15909333103609297,0.1031139450207291,9.767280162703635,-0.00010744338100450455,0.001981521537143217,0.0007714151759223
1691524826.3371215,-0.1274148018998663,-0.0315754997410546,9.884546245563044,-0.0008458054215041214,-0.00018699041494519203,-0.0022408526676649
1691524826.3471224,0.0469124388394103,0.01723576228410022,9.799570723714453,-0.000444573106563833,-1.8123872520093063e-06,-0.0009097924741859
1691524826.3570046,0.1448853134447563,0.11168550385630921,9.787112785538266,-0.0008860231815225306,0.0013720652379102596,0.0023568940994386
1691524826.3669877,-0.06730099635012672,-0.13679921479994497,9.80456536764649,0.00019507730234588868,0.000648605787703422,-0.0012297991017753
1691524826.3770046,-0.04180357202674661,0.010842349728001677,9.854219879729328,-0.0001946201711311903,-0.0004127262614777528,-0.0022326535365487
1691524826.387059,-0.02758520478468195,0.0510807057092471,9.850476045798123,9.708840798502828e-05,-0.002194521243369118,-0.000158412946103
1691524826.3970134,0.11429332187462457,0.10711601451443978,9.8037305557863,-0.001567376288130001,-0.0007524734690471698,0.0004823394881618
1691524826.4071467,0.08694316285080303,0.06099255045021769,9.803819269441888,-0.0020505405270762242,0.0001341450383619588,0.0013991443445497
1691524826.4170082,-0.03432067074482388,-0.20711238536910082,9.774594791743866,0.001712365732223447,-0.0007714858653905867,0.0002394290820752
1691524826.4287448,0.027665753689442914,0.10368452850908923,9.832834599454523,-0.0006557886269363926,-0.0005390197157914048,-0.0001554336451868
1691524826.437077,0.053639374138338636,-0.031972518611676874,9.786598248100328,3.0765572312289846e-05,1.3078277348252907e-05,-0.0002239825955534
1691524826.4470222,0.01792383048839513,-0.11361914719372244,9.77645552153151,0.002245085786564788,0.00017513265141484504,-0.0007652588940168
1691524826.457081,0.00845340141771395,0.06796200827044835,9.843553596535598,0.0015980017244670629,-0.0006246806272754336,0.0003683403081317
1691524826.4670312,-0.07377782041093803,0.004663633981843246,9.872015658662512,0.0009948861630980751,-0.0024135790272562297,-0.0010632837477082
1691524826.4770942,0.16513571085689036,0.062103447678347294,9.758273899006676,0.0016039620589176971,-0.0006634220007487874,0.0020335524639171
1691524826.487152,0.08314261520961735,0.13666047438525522,9.829128577278636,-0.0009456199256492113,0.00036548372487510373,0.0027484392228593
1691524826.4970868,-0.14485039905145494,-0.07686321075722247,9.866119775432518,-0.0006550502735167043,-0.0021472200851031797,-0.0001107229438553
1691524826.507088,0.1693951029993694,-0.11491592928124102,9.689959631179164,0.0017492310933449901,0.0011131745667677948,-0.0004534600122774
1691524826.5171158,-0.06636114015191735,0.031608706767250465,9.875157684889475,0.001162898600936425,-0.0008277198820145561,-0.0006259251206124
1691524826.5270622,0.010132856063530685,0.14683325751294246,9.869089810317222,-0.0005533468741436051,-0.0019080534059221354,0.0014475624373239
1691524826.5370336,0.050234694649017905,-0.005140352165360236,9.79079212215606,-0.001841217402051829,-0.0004999009104564655,-0.0013832787337655
1691524826.5479364,-0.028336516473860658,-0.06540525317974646,9.810970801260567,0.0010570971679672114,-0.002346137487178705,0.0010653562965394
1691524826.5571785,0.0857436367853241,0.13750286943433568,9.82203123854721,-0.0021053043704822565,-0.0007506050335885321,1.4078284670997546e-06
1691524826.5670283,0.05704818325852336,-0.19517265213578325,9.71738941293887,0.00045805863082837544,0.0011131732360015268,-0.0027869662555808
1691524826.577016,0.03455974248619939,0.17139118393705952,9.87192673814709,-0.001388913597441238,0.0001538935101827958,0.0001176431722064
1691524826.5870445,0.07387401756928318,-0.09580913386023635,9.747271625198069,0.0004901099174072651,0.00135642406733325,-0.0002843116928766
1691524826.597067,0.07247608647629039,0.04797692114374416,9.79381243320839,0.0006059528262795441,0.0018824290784501627,0.001213951952895
1691524826.607092,-0.051147403992440194,0.03248339467792263,9.857361223312868,0.0006946271227123886,-0.00015345824892149727,0.0025770813406502
1691524826.6171305,-0.02184067159008149,-0.0378266738989231,9.811275058343869,0.0007527341828242623,-0.0004976557097802075,0.0006764281604496
1691524826.6270406,-0.039529937986475576,0.054056233836523235,9.852800591438124,-0.0013297070625600282,-0.000855665242283502,-0.0017129727459455
1691524826.637011,0.07875881591564719,0.024398955056393785,9.796057441496956,0.00014440578108724646,-0.0009722790404570164,0.0018689068563339
1691524826.6470084,0.07681565998248162,0.034878969337555486,9.784196988939264,-0.0012496142976191195,0.0007845734201643164,0.000390296296036
1691524826.657062,-0.1764588733613571,-0.015623307195714411,9.914059254734847,-0.0004680267463605221,-0.0038522807674799603,0.0012091333408256
1691524826.6670234,0.22459514124820085,-0.11094528161542079,9.665423449744798,0.0018673420424797885,0.0004407364654160364,0.0009874829445557
1691524826.6781006,-0.07663007568283452,0.07618217235765005,9.890477006260987,0.00014737976405856265,-0.0020391838095315416,0.0012203173771645
1691524826.6883233,0.12513019228883096,-0.129225339682187,9.69697309956289,0.0031182858049960994,0.00012933007958804024,0.0014419802644347
1691524826.6985946,-0.014962821626157917,0.021957612039630474,9.83227004035181,0.0010895027301865948,0.0004765202384487024,-0.0022944805498177
1691524826.7077427,0.04670512737990952,0.14420646351932223,9.843732749673942,-0.0007936296385282068,0.0005670162797457878,-0.0012473203062022
1691524826.7171423,-0.0431098433563609,0.0018014178591998443,9.842844444067207,-0.00031567903825081264,-0.0008623880392340102,-0.0007060303871462
1691524826.7270548,0.10047505836502116,-0.011219961485887444,9.757837376159848,0.0009766299048455341,0.00030923577807743613,0.0009986618713532
1691524826.7370267,-0.0276383188611848,0.05102158488473782,9.848653093333935,0.0006368805751524977,-0.0009402188166448165,0.0017083302552869
1691524826.7470646,0.053880177387929176,-0.08058267643095886,9.75707129811814,0.0006882961910620621,0.0007804993697069954,-0.0017092353484536
1691524826.757133,-0.02936851049376836,0.07045269361846675,9.858883627201083,0.0006286957319389364,-0.0011916932793941183,0.0008876382378452
1691524826.767119,0.09943247201527536,-0.01151049261457487,9.764393723484824,0.0006346412088462357,0.0007711885627195495,-0.0002679244900996
1691524826.7770927,-0.07447124392917069,0.05209706633135448,9.871014534203834,0.0004088942946744535,-0.0015001352974120547,0.0004964959987496
1691524826.7870522,-0.0483320077436105,0.001858335093909272,9.837985995096382,-0.0004955988219522232,-0.0020831481322065096,-0.0018381376105303
1691524826.7970555,0.1755996858389167,-0.040914674064826344,9.716791833131406,0.0007665117556650033,0.0007987490759392836,-0.0012271911657358
1691524826.8071427,-0.0660655130685173,0.13955654870053594,9.908176633653781,-0.0014205969687556682,-0.0014655016171327764,3.418549365004787e-05
1691524826.817134,0.010741625036331196,-0.06165931022101174,9.792301042032326,-0.00014170655692761976,-0.001574648006866717,-0.0002716601413617
1691524826.82717,0.06389014961731251,-0.015138085705992139,9.78974099251784,0.0012925348592338196,-0.0013094012034204003,0.0014110520749177
1691524826.8372784,0.12707190287814543,0.0055495239114727105,9.74588586825544,0.0013662822060540097,0.0010207779692732108,0.0013846003310113
1691524826.847651,-0.03489669061796451,0.035852492087458956,9.84446987811416,-0.0010324459331829043,0.0008922346532353509,-0.0014812687697763
1691524826.8571763,0.04886838251633693,-0.04353474977336641,9.773259649702577,0.0017671247504579392,0.0004400104663641506,0.0014363995176331
1691524826.867119,-0.006614162365975151,0.2587622534018188,9.91797245443877,-0.0038308675554893034,-9.721313553161897e-05,0.001137227048975
1691524826.87709,0.04784689781034202,-0.1786064209017132,9.739423127883493,-0.0011426838252137084,0.0014584805815531993,-0.0012085789169127
1691524826.8871934,0.02138354769176597,-0.038715215459059524,9.789866563553282,0.0018580273776855685,0.00036884648701068383,0.0022656398539488
1691524826.897056,0.039263503231638845,0.02469820238446045,9.833501759346687,0.00095762942859619,0.000697414003557433,0.0014106721826187
1691524826.9071069,-0.07545728450732292,-0.15530877618363134,9.802898345914109,0.0036428212882176946,-0.0008135446835356749,-0.000372605380317
1691524826.917098,0.14751180833964697,0.08640197833055947,9.768761504016869,0.0015447449431994316,0.002107056795730333,-0.0011839908367896
1691524826.9307532,0.06119580178408545,0.031212210968422353,9.807267934118101,0.0013189900968195798,0.0030443241017740767,-0.0010148691764975
1691524826.9370794,-0.13935907652163904,0.12407870698486809,9.919319322906349,0.00036121320870459976,0.0006236432911004794,0.000147426635312
1691524826.947197,-0.013435243383971368,-0.13153680042687252,9.773746588555596,0.0038719103138440897,-0.0004514286873556998,0.0010604868910099
1691524826.9572284,0.0057792021393219765,0.13920967927384567,9.863036249412811,0.0005225180261245793,-0.0005095857479530931,2.5997538404672237e-05
1691524826.9671142,0.17267669017613815,0.14745124750828595,9.784946966079675,-0.001184056178644888,0.0017956234347315315,0.0022540959942211
1691524826.9771357,-0.05765159771584778,-0.07749350657501622,9.828399617025328,3.2265060735602e-05,0.00040758815375027094,0.0012594457246172
1691524826.987128,-0.019302021808778016,0.0961036241868516,9.865804403445265,-0.0014012314762373887,-0.0007334753282133259,0.0019545749126059
1691524826.9971154,-0.07061021162231253,-0.1241926867722506,9.82255478578419,0.00038542827658584033,-0.00222134996075538,-0.0003349883302057
1691524827.0072567,0.14513799870943378,-0.10605049120517739,9.70072258875555,0.0020636628695560426,0.0010960083321227864,-0.0026163698459918
1691524827.017042,0.00026086302359519276,0.18800564382826349,9.869212585594296,-0.0006375328431596697,0.00017438366935806844,-0.0004247630533705
1691524827.027176,-0.038905891158707157,0.05262627764135234,9.851918312642866,-0.000948609367199255,-0.0014189147072701303,0.0008030851784219
1691524827.0597436,0.07553362549866278,-0.0205446596314926,9.766717909549497,0.001299216641922652,0.0016704733088062018,0.0016081200626735
1691524827.0642266,0.07887082685256193,0.06546494081589564,9.817827131242243,-0.000809650890228136,0.0030980012834189692,-0.0014275961841399
1691524827.0714116,-0.2096772350347522,-0.06631183933424291,9.892086084695153,0.0004778115453661058,-0.0005207485825497936,-0.0007950546971465
1691524827.0747223,0.28240828778954546,-0.08969324949228029,9.640903889734913,0.0010645243950271356,0.0012778322108441683,-0.0007853708050156
1691524827.0771077,-0.4883651995402858,0.5174684829826691,10.258501936488296,-0.001210878936927499,-0.001528068533550868,-0.0001755349623913
1691524827.087247,0.04117729621466988,-0.05175938352502271,9.785136261907049,-0.0003484549549967548,-0.0011045097020746008,-0.0006449321337918
1691524827.0971022,0.06148616829978034,0.0012953226332269362,9.797459355545625,-0.000326114637308756,-0.00024322357352302937,-0.0011213999061788
1691524827.1070898,0.06663003688483413,0.015150416096112278,9.792378328543952,-0.00011375713412183701,0.00043403360209615815,-0.0006747433037439
1691524827.1172905,0.013873101611175392,0.0830408929461407,9.843437421315514,-0.0014992037644217225,0.00012408321171882944,-0.0001550670533383
1691524827.1270788,-0.003704882579543698,-0.26190415353852536,9.727545321114874,0.003754211766201839,-0.00015197410017351017,-0.0005488168501237
1691524827.137177,0.003276761293877258,0.17496222611862763,9.871376411905512,-0.00021807760619222793,1.8650418476409273e-05,-0.0015486981539929
1691524827.1470983,0.11605920515594792,0.051600043973367045,9.772326515578158,0.0006011184985522917,0.0009417923339343282,0.0016248796198574
1691524827.1570623,-0.028716554782470097,0.03890052856578709,9.859203026379332,-0.0003614980979832295,3.0162750830964946e-06,0.0008820564724096
1691524827.1670916,0.08738396754857321,-0.044013384481002775,9.759758852490705,0.0014724618245719866,0.0007585147872193394,0.002564770071121
1691524827.177078,-0.07449494907069973,0.05066106577275808,9.877239294607568,-0.0004520292752617919,-0.0004294911001249833,0.0003139479265605
1691524827.1871014,0.1744566783259864,0.1649122489859536,9.788070057443615,-0.0031387335592535544,0.0022824950633787994,0.0013384110022975
1691524827.1972396,-0.10819790577641358,-0.020441787812963047,9.872433529234685,-0.002745691232400164,-0.0003006024914816883,0.0006235488870238
1691524827.2071176,0.07576932862360236,-0.03736706096412345,9.770250445352174,-0.0018710122271790293,0.0007547633952446081,0.0001470529421289
1691524827.217146,-0.14644205742350125,-0.15403153913803674,9.850301446065247,0.001702688821270334,-0.003051361691090766,0.0002342516270523
1691524827.227096,0.0368827830637224,-0.02311483146283339,9.786756217316404,0.001346924634217095,-0.002038078027814614,-0.0014745555638278
1691524827.2371714,0.13597029732967936,-0.008789848176289831,9.743692155491699,0.0022257249313147286,-6.702395863179311e-05,-0.0004009216611216
1691524827.2475882,0.13167183457608467,0.030408814529246483,9.7586493181156,0.001728747821811061,0.002164439560280396,-9.247554065087548e-05
1691524827.2635872,-0.0021850442535317495,0.012351355069125457,9.823010632879598,0.001961223381531992,0.0009425375086947661,0.0007099625252244
1691524827.2671173,-0.12062611104055675,0.08177494310626918,9.911894060163757,0.0012958780570205002,-7.444976547561058e-05,0.0004961458214615
1691524827.277095,-0.036494796960923725,0.08274765757173898,9.871440881212163,-0.0004184879029945825,-0.001436060200608684,0.0004339114709814
1691524827.2870853,0.1502261017410973,-0.05431451979317044,9.73234490523957,0.001133096452150735,0.0008616937177410142,0.0011100699810135
1691524827.297124,-0.054870181665734125,-0.00030592654245361006,9.857107633059572,0.00011643988195425934,-0.0002596247359337318,-0.001014489895379
1691524827.30712,0.07549775485868472,0.10073982788436561,9.820412950916987,-0.0009486119737335144,2.5367739483098544e-05,0.0006276201054511
1691524827.3171332,-0.07558798385752614,0.020700737086289802,9.868243812973468,-0.0019510737397355818,-0.0014099927942051262,-0.0009414702474082
1691524827.32819,0.16539391956895633,-0.010396072794077223,9.714377224404261,-8.656145509573947e-05,0.0011314042928464896,0.0018391003429946
1691524827.3372116,-0.09347547680981672,-0.363245017844186,9.752542564243418,0.004679177531379497,0.0003998036849856462,-0.0028584997455532
1691524827.3471425,0.13931614621917995,0.3354003696474281,9.870475988471997,-0.0007690599177673147,0.001708458563743167,8.522627810588369e-05
1691524827.3571055,-0.07824687821133866,0.039415398484829674,9.879635910747538,-0.001262641035128269,-0.0005941501510260554,0.0004000119695497
1691524827.3671055,0.06909826688485275,0.007446797467323396,9.784044434124354,-0.0012823866710730157,0.00035877986983418167,0.0005050695215409
1691524827.377108,0.04343371525493564,-0.06008790407254333,9.78323842218302,-0.0006651156126245506,0.0011805872997505556,-0.0012405980198586
1691524827.387097,-0.06237513484276239,-0.08766888982171085,9.820217389696547,0.002052862272945567,-0.001079178457268725,3.417804306945094e-05
1691524827.3971238,0.07826212641228122,0.13229680165482002,9.815295988310675,-0.00031307404078795303,-1.8216586967408976e-05,0.0009405453345329
1691524827.4072776,0.047107747738847995,0.06614380880421382,9.819349456628938,-0.0005950786309859017,-0.0002711569795624361,0.0027923881023248
1691524827.4171066,-0.027123643400751792,-0.05580128986845811,9.818846812159794,-0.0011639140871475325,-0.00022237162160822492,-0.0001975326851884
1691524827.427118,-0.05559111186300061,-0.12177123150615969,9.818299413038696,0.0012604891149736403,-0.0020619120242244093,-0.0006121640146652
1691524827.4371386,0.16108949298319572,0.05434573302301356,9.753689695557018,2.1092766503055286e-05,0.0009023069085717267,-0.0011493321328366
1691524827.4471436,0.03369740570905374,0.08619049463095484,9.82715865197031,-0.0002184502924381122,0.0004507994589330208,0.0010325700893822
1691524827.4572964,-0.03850596612225519,-0.08889181664743304,9.801660956105591,0.0007188354651717112,-0.0002007644820296534,-0.0010968197422976
1691524827.4673016,0.1055406332266518,-0.011359788873562657,9.767053362811001,0.0029413406258574884,0.0002835434734735618,0.0020670787378271
1691524827.4772391,0.1333762505622047,0.011864052174837974,9.755144552797395,0.0019611884112043575,0.0032410569895835618,0.0004841700026822
1691524827.487271,-0.14678986222033047,0.0679619993739941,9.930116564770685,-7.465853195327271e-05,0.000173648254008493,-0.0011027722905332
1691524827.4970942,-0.027858984574192024,-0.06433584762921543,9.817115105082427,0.0010917321129203107,-0.0007629138730910943,-0.0015744087106491
1691524827.507156,0.0854343968459639,0.05088231531034505,9.792776316494564,0.0007784489637477901,0.00010398165204289095,-0.0003863849963004
1691524827.5171163,-0.0006931948001776709,0.10620880057533202,9.856283680517578,-0.0007083220714531413,-0.0008087251684524665,0.0008131432002933
1691524827.5271993,0.1720018816163871,-0.06258754073697347,9.701767164626737,0.0009092020596777142,0.00236150105137992,0.0011890287021465
1691524827.537089,-0.08293180960610151,0.08496615390514489,9.901936359176357,-0.000886030608833846,0.000165072810999201,0.0008686597173159
1691524827.5534396,0.039464205936612616,0.004726713221381972,9.821462197863177,-0.00041961303634313656,0.0005193470605892581,0.0005698890488651
1691524827.5582695,0.09207786211056616,-0.17147334206925163,9.702722231271427,2.3299494461303037e-05,0.0021022271105178023,-0.0016984441137815
1691524827.5677729,0.028650077517993262,0.1253616061572284,9.831500546167465,-0.0011892789680068281,0.00178110247211954,0.0005840574338158
1691524827.577361,-0.08241597162132909,-0.04787249605753621,9.85316352059373,-0.0004315193081804098,-0.00015642610266848256,-3.4353677829594524e-05
1691524827.587556,0.05828182807706722,-0.07607584437716286,9.759595432305588,0.0013334860186228169,0.0007182838443481175,-0.0001819040446484
1691524827.597093,-0.1285889535690954,0.06276403600020301,9.920177453680735,0.0005854767638494075,-0.0027223912543742203,0.000766940723924
1691524827.6072147,0.1004720950557119,0.01625500068476894,9.759586762619241,-0.0006640079153886443,-0.00036243073290600304,-0.001273017358681
1691524827.6170971,-0.0015418309941229323,-0.00902770732827996,9.815859171845043,0.0006622112437571783,-0.0014573023142026333,0.0006834956182224
1691524827.6299722,0.01248202758726982,0.03758022084535716,9.826134084491388,-0.001362109964502415,-0.0010724630791771753,-0.0014354383858794
1691524827.6375155,0.07903908126442369,0.034530675864613426,9.790681899646453,0.0001149666009281233,-0.0012516484751539081,0.0017623498749976
1691524827.6471336,0.02856400676930161,0.06256498983551195,9.837760245024027,-0.0019793835546790166,-0.0006440653550308655,0.0002088979997729
1691524827.6570976,0.0769600776608009,-0.07182128105828377,9.749733435364186,-0.00030749352103317043,0.00047315119727029694,4.08888042961646e-05
1691524827.667239,-0.036323450130306606,-0.029421440342627517,9.836729290996523,-0.00016742904752357457,-0.0003896182136021834,-0.0013415496616567
1691524827.6771755,0.17539082423929142,0.10123896355046874,9.775538709249014,-0.0005369638509989542,0.001926383074156288,0.0008734722976164
1691524827.6871655,0.02303629699837403,-0.0024562264035791204,9.812471198120726,-0.0005358662177893665,0.0021085579217368974,0.000352342223568
1691524827.697151,0.021205094686895503,0.05879235783877111,9.833995262342455,-0.0019789999776116452,0.0022557156318964004,-0.0004128266411776
1691524827.707224,-0.14527694163936472,-0.1584245933970653,9.829818431810263,0.0010708741817448872,-0.0009267926500906644,-0.0010800396378094
1691524827.7171462,0.03414860834618779,0.1619442874132258,9.85102754622117,-0.0013103280490476719,-0.0012486837830099331,0.0008667877007333
1691524827.7271566,0.02102626888768216,-0.026345477943035125,9.804687580861682,8.926368902622537e-05,-0.0015880476997274771,0.0010325617947905
1691524827.7371292,0.11522823104222951,0.0831246198517409,9.784289537462119,-0.0016198893256508817,0.000324886981596963,0.0009841421740652
1691524827.7471163,0.07620307908645957,-0.14635515293915793,9.722949457571854,0.0013871246023686216,0.0015989486668391165,0.0008339872763549
1691524827.7571938,-0.05989584889334466,0.034044239249418295,9.870875543789513,0.00020585740620770643,0.00014904508577573677,-0.0001740625414008
1691524827.767129,-0.05877082079127064,-0.10327463503636712,9.80569162328265,0.0021202955292012327,-0.001222222091624728,-0.0008185277513171
1691524827.777138,0.287451554473349,0.09206107253076141,9.705381332560604,0.002033481051203838,0.0032827748448260204,0.0018640138621499
1691524827.7871437,-0.12212385490133494,0.12348912949497598,9.922695727728323,-0.0004170176183416716,0.0001367547479641858,0.0020354211044554
1691524827.7971325,-0.0262904516621728,0.0793999167827877,9.86043941006263,-0.0023519232838459807,-0.0006481692852010028,0.0010225078765592
1691524827.807255,0.024148428151179444,-0.01834703540661013,9.790049437060404,-0.0010558974219461426,-0.0008843359214489354,0.0026023995776717
1691524827.8171787,-0.051766732212358946,-0.15063380395865048,9.800746082919835,0.0004197017479419648,-0.0013824153968097926,-0.0008017632464821
1691524827.8336432,0.050684813245011597,0.045085053699157975,9.809233458675145,0.0004066550359572264,-0.0011015281645756255,0.0008839244726636
1691524827.8371265,-0.05902143220318656,0.01388963127404237,9.850545358121789,0.0008484809872655274,-0.001979944885699583,0.0017753864119817
1691524827.8472495,0.10485274417956963,0.01767124258912258,9.77233367440565,-0.0009385563869781864,0.0007044884204091314,-0.000639344896836
1691524827.8571465,-0.02215596947576498,0.0931610826962292,9.861307736928227,-0.002328822143720568,-0.0005289579552883334,6.883092625638732e-05
1691524827.8671894,-0.1139858717182436,-0.2489890693960823,9.78645958707865,0.0016695312597143099,-0.002380795497305572,-0.0022684165562445
1691524827.8771226,0.23045508329976083,0.17019506582756122,9.744762511050526,-0.00031270128846720864,0.0010382795843748081,0.000584423036134
1691524827.8871846,0.024991366441656695,-0.11305339619260245,9.772930377931727,0.002267797855555289,0.0010882139366943742,0.0004361478675214
1691524827.897128,0.06614337841441446,0.09151989293545702,9.826574486671763,0.0010056973271485227,0.001570245457091091,0.001216956357684
1691524827.9089763,-0.0215739183097948,0.18817603969800678,9.896917287486405,-0.0032929369309310954,0.00030289052356853634,0.0016226458426622
1691524827.9171762,-0.19405302814747538,-0.24451618928376548,9.823959571444792,-0.0003625946353940499,-0.002467588337533411,-0.0008088389697427
1691524827.9271812,0.09423967919715104,-0.02684367348739714,9.746105399028952,0.0009226141228757772,-0.001180880193609838,2.523203665523617e-06
1691524827.937131,0.1032537987991847,0.05127596702389951,9.791618841778174,-0.0010570220596788134,0.0009555896688040155,-0.0018850674207265
1691524827.9471395,0.07799139940197983,0.04134209694942207,9.79519851805782,-2.7712716591164362e-05,0.0009201846800349578,0.0010117073286614
1691524827.9572597,-0.20258894287705856,0.01275760415180658,9.947176792975387,-0.001624362857978858,-0.003147489179433882,-0.001531919213658
1691524827.967244,0.13935510523716527,0.030382050820879584,9.75963470440673,-0.001446674961840277,-0.0010814170388103205,-0.0002351505502069
1691524827.9772513,0.08227834862638338,0.010163098887422783,9.764070417099836,-0.0012306156934326442,0.000213492987080608,0.00029532665555
1691524827.9872963,-0.04561510508191449,-0.16215989921440738,9.78732298922655,0.0013778266587009581,-0.0006504015470729313,-0.0013620622741932
1691524827.9972107,0.07885922433635671,0.0424240951250578,9.790222959278267,0.0011788944397604104,0.00034761425545947665,-0.0006043432333449
1691524828.007191,-0.0232498973002276,0.08036749619759785,9.861155760421813,-0.00069378097605505,-0.0005535442578200658,-0.0011698319396878
1691524828.01728,0.09419669756480284,0.06276445506604511,9.791674087059784,-0.00034585290635710575,-7.036864265192963e-05,0.001551124343468
1691524828.027235,-0.07736986462639442,-0.0372457717604089,9.847339633062214,-0.0008357191464119654,-0.0013004692683270757,-0.0010580674099678
1691524828.037213,0.12736047533525088,0.10515528337932058,9.786114223158881,-0.001822939961352482,0.00017921525208935564,0.0006738128902447
1691524828.0471706,-0.06831980322699344,-0.012542965779242176,9.851827523981942,-0.0016210156548214507,-0.0013380868306864075,-0.0001911914261932
1691524828.057139,-0.03023081320601296,-0.15993614134118972,9.788935043125187,0.0010157591078825965,-0.0018972380859144785,-0.0017911975557858
1691524828.0671527,0.18691296944339789,0.13902528337247835,9.776537832486984,-0.00046692050797260626,0.0006657445573573496,0.0003485987142716
