time,ax,ay,az,wx,wy,wz
1691524933.593944,0.0014847531781342375,0.06080183892917987,9.84404802950752,-0.0012149578752207423,-0.0010646541309842657,0.0016111065522359
1691524933.6038706,0.18362029207528757,-0.04242623447067377,9.711645330498355,-0.00032944424505061036,0.0022404262954815023,0.0016550578182154
1691524933.613821,-0.04916962221023225,-0.08333148638965304,9.831089424214072,-0.00011562639481596003,0.0014793493563959872,-0.0010819078708941
1691524933.637621,0.01696930094473952,-0.014821809315762038,9.817998734691118,0.0005403858625896493,0.0006948219569615557,-0.0021257283917571
1691524933.638529,0.03690950039406517,1.0269323500164254,10.166336131598463,3.450619907302166e-05,-0.00021677037791166553,0.0005415767261815
1691524933.6437829,0.1256651385627708,0.22909255929479072,9.834775978694424,-0.0023567666558523583,0.0007227404421685014,0.0007263393670377
1691524933.6538105,0.042922596760100636,-0.19277900584674545,9.7277532002867,0.0023613223884961176,0.0004906615556803164,0.0017258162440789
1691524933.6638246,-0.08164500033793046,0.032008718565265985,9.886452536282569,0.0004744570691143099,-0.001015103519830938,-0.0009213525156433
1691524933.6738043,0.10822010734572496,-0.04890867878730908,9.751012530060988,0.002152683438361252,0.0003561971143759545,-0.0002500858210901
1691524933.6838531,-0.048890630298941064,0.10354362373040896,9.896579609075987,-0.0005101291186570624,-0.0010281281757954423,-0.0013169697306061
1691524933.700826,0.1111246716578642,-0.014837942289915031,9.760503786408304,0.0007132543095402716,0.001455879898718582,0.0004525314032157
1691524933.7039354,-0.2505415385722115,0.2740077732916034,10.04902037178205,-0.0011434336250028905,-0.00031363337974760094,0.0003143256942798
1691524933.7138233,0.19352375286677984,-0.13395778665767621,9.68189857989893,0.0006026011422844936,0.003933230017035788,-0.0021301461203897
1691524933.7244573,-0.1621140785322248,0.07057610865078442,9.929150817981707,0.000904357121138504,-0.0013365880924107796,0.0010117002709825
1691524933.733807,-0.027459285772320218,0.025959408707691593,9.832645772568101,-2.3617947188526944e-05,-0.001988513417622245,-0.0002992389311025
1691524933.7453196,-0.07300792272266622,-0.04058343136615634,9.852478420389156,0.0004230628605597363,-0.004003154056965706,-0.0019510187960172
1691524933.755021,0.22322928835179848,0.06662560031850202,9.726495853535123,-0.0003566582206876479,-0.0005773692722456469,-0.0006799440418312
1691524933.763811,0.07141360576619117,0.11016968644300781,9.828597793418755,-0.0020803449081897335,-9.905856265706924e-05,3.381319745084533e-05
1691524933.7737896,-0.020764435675278525,0.10506632923633917,9.869646969777389,-0.004146397329163795,-0.001232693166002972,0.000250267232122
1691524933.7839525,-0.061728511841132656,-0.19920701650089434,9.790296025768654,0.0006707826001602336,-0.00353638139372429,0.0013589166080869
1691524933.7939343,0.14704626563456968,0.03985807825235685,9.76029647586139,-6.869128489974473e-05,-0.001110096371275301,0.0015921040210464
1691524933.8039677,0.03187670733206237,-0.12587916055476486,9.775050397228105,0.000750486453346602,0.00010992062190017966,-0.0021093550424034
1691524933.8138282,0.0089683459715884,-0.010074674126937353,9.821360777099073,0.0018558084973449756,-0.0008579152464753336,-0.0006564830948541
1691524933.8238535,0.18321392975343428,0.11086886838952972,9.754555317898356,4.7141669244528876e-05,0.002443458410020655,4.088449692925701e-05
1691524933.8339388,-0.06992356772598618,-0.11794170548159674,9.829534125162203,0.003244955394714901,-2.3800203138687392e-05,0.0009394155238346
1691524933.843866,0.05441967660717147,0.01378791571994053,9.796789963592342,0.003275874597497363,0.0005934833917484858,0.0007971263437589
1691524933.855467,-0.018397725823396913,0.1563800140132103,9.87980119219048,-0.001155739065983918,-0.00019592110747337907,-0.0004486109648773
1691524933.863825,-0.04736973050704342,-0.1438251367002171,9.806493912457787,0.0025103304872026934,-0.0024847301460652893,0.0014907847687659
1691524933.873814,0.08564582182248966,0.08195447981898879,9.811994509057868,-3.404460724274775e-05,-0.0005483254709179529,-0.0008423744986707
1691524933.8838854,0.12035904272479897,0.07266616128418774,9.773300819440971,-0.0006584080092542987,0.0009667509978044306,0.0008582149637454
1691524933.893894,0.03455687297358443,-0.0002659599173172983,9.798580221536355,-0.0016489605536699461,0.001770309319149138,-0.0009150006628538
1691524933.9062514,0.02929481198649815,-0.04603488337156613,9.79082606636448,0.0004740760289172666,0.001227153424630432,0.000684261805663
1691524933.9140558,-0.13585279018784865,-0.10238709129209313,9.868385830059268,0.0014292534438336798,-0.0010329804005652862,-0.0008714250109101
1691524933.9240124,0.07827291475650851,0.17636414257459196,9.843141620196493,-0.001116610512962774,-0.0005561506383233184,0.0008541187451278
1691524933.933911,0.11751403275567039,-0.08764470599893737,9.730118222767693,0.0002721444901301269,0.0015654083165659526,0.0001831730076169
1691524933.9438276,-0.21698064835869532,-0.11616181283379214,9.897851247447168,0.0011573162059865217,-0.002476936587400149,-0.0028271989251429
1691524933.953837,0.2202251742647841,0.023641281978767765,9.708579730636076,0.001839789477275996,0.0009116000475139884,-0.0009235909494514
1691524933.96389,-0.07581745210808283,0.022780724134162447,9.870967387311262,0.0006107822168627227,-0.0008441123333799153,-0.002531802962249
1691524933.9738493,0.05592406789242005,0.06640807212407362,9.82187991368516,-0.00039800079625714146,-0.0006861688134252665,-0.0015978647681827
1691524933.9837987,0.13998865074341818,-0.009216782621540616,9.751169299029868,0.0007057953555219129,0.0009701038866495672,-0.0001051395486051
1691524933.9938953,-0.029942565319180447,0.06265942651100186,9.888002647392533,4.9022245898210776e-05,-0.000848193540806255,0.0007844758399819
1691524934.0038762,0.0074008405534620285,0.044926368599769576,9.82274805090088,-0.0002597961914939685,-0.0015861897934417067,0.0017753904283103
1691524934.0138187,0.11648748458054228,-0.0882271360308692,9.725140959799763,0.00019765006562105477,0.0013124488004284175,-0.0008163174900169
1691524934.0238595,-0.07622253703430083,0.12000249656456255,9.915523586320903,-0.0016359160025967857,-0.0014252675689823255,0.0001306692318116
1691524934.033859,0.05427004414118511,-0.040526902292716084,9.796628683415845,-0.0017789701901838651,-0.00021379600563329208,-0.0022129097307975
1691524934.0479476,0.04459831703645524,-0.03252639854446993,9.76975766652504,0.001489977100484079,-0.000692490277755812,0.0016834015439321
1691524934.0538132,0.09794922795847343,0.0615507306336987,9.811155516479259,3.6366057082534904e-05,0.0005483969201650287,-0.0001140793139989
1691524934.063928,-0.04054507254338825,0.10416746819782008,9.886849023457955,-0.001575194777205151,-0.0013969471107198015,0.0007557800452282
1691524934.073859,0.053247468107175025,-0.10535622157906913,9.750890501901996,-0.0016627630461560766,0.0004545190539727522,-0.0028957526485378
1691524934.0839355,-0.00952083243073975,0.11818896560792654,9.864762390991404,-0.0025881046570016197,-0.0012822242160322164,0.0003131953597125
1691524934.0938883,0.1647264452278507,-0.11686378259858636,9.704037753335351,-0.00023334347894336,0.001525545903353297,-0.0004262535187358
1691524934.1039894,-0.0654333317242277,0.02963925490174292,9.877811959327143,-0.0004255803509483569,-0.0007159627106793964,0.0004327909153012
1691524934.1140037,0.024838069520610878,0.013251875149627643,9.814496316036198,-0.00025383688185867946,-0.0011071189004358568,0.0009666275762078
1691524934.123922,0.00926175575633153,-0.049050826053968724,9.796777420682693,0.0005944116146227047,-0.0011335516587361973,-5.820054159858933e-05
1691524934.133945,0.007756845394559225,0.02002092068553441,9.82999288395115,-0.00022477964233370417,-0.0012732554201479475,-0.0010696200008446
1691524934.1440847,0.07581720250261671,-0.014277884071236757,9.787187698688594,0.0006767370273902256,-0.0006470643832166095,-0.0003521377040947
1691524934.154407,0.18290576685478982,0.16543819561801562,9.77580779076439,-0.0014913775303597979,0.0019956723380693342,0.0018268122401145
1691524934.164035,-0.055482810998824614,-0.13357531804905695,9.80859134448643,0.0002267208903291132,0.0009403019228091512,-0.0002813475259522
1691524934.1739817,0.015233003447692465,0.0026907534413466543,9.822604498008584,-0.0009236832958678201,0.001340404827051653,-0.0023183259001875
1691524934.1840332,-0.01654030145456358,0.13148134967988664,9.876815817850327,-0.0014876534121329296,-0.000984563557910977,0.0016129706816804
1691524934.1938453,-0.017526913455504244,-0.20445448270740718,9.758728816174587,0.0010190929858480704,-0.0007036720547974318,-0.0017152121110762
1691524934.2039232,-0.01693243735062155,0.09502000935981342,9.866198879038452,-0.00011637237383865569,-0.002165837714792469,-0.0004486088694016
1691524934.2138906,0.20341530121093518,-0.08964311310896615,9.680115781354885,0.001111447438578269,0.0019852519245230687,-0.001872819364717
1691524934.2238784,-0.046016799675059665,-0.05228546364524023,9.837901011287892,0.0028783806367829188,-5.917315650770943e-05,-0.0011072456656897
1691524934.233878,-0.01346465652374913,0.17444358089108314,9.89709490432656,0.0002881963748346037,-0.0018845841213059765,0.0009960565546584
1691524934.2438345,0.10088257172136933,-0.06102839097330917,9.744906468716168,0.0015942667107309233,-0.0002946095557780658,0.0004551525523943
1691524934.2539077,0.07509201676351746,-0.007450906919256087,9.784179863375094,0.0007750656474178205,0.0012211965528235906,-0.0011869689735526
1691524934.2638347,-0.046681491520514894,0.007922847518574095,9.850928836997017,0.0003820527520314943,-0.0001359417156443953,-0.0016668061545992
1691524934.2738297,0.045918570513803554,0.04918352168081913,9.815366323700461,0.0012672011507317896,-0.0009189940487868959,0.0017410973848832
1691524934.2838285,0.07101916767972687,-0.12603246100071488,9.753321106830825,0.0020837700427864974,0.000951108097045666,-0.0017722213926667
1691524934.2938528,-0.06808385865943319,0.24283364865717058,9.94558336543547,-0.0028965781473720325,-0.0011898480215327967,-0.0016246840643639
1691524934.3039746,0.12419423784478616,-0.06447514297758657,9.733486330094383,0.0005496931836927678,-0.00041421207418833664,0.0017821093386096
1691524934.3139286,0.15774400607500874,0.0013001172141768533,9.743001665925004,-0.0006979005103886149,0.0030123017423034346,-0.000582356453588
1691524934.323975,-0.1693943856456091,0.10566006055507471,9.955725999485603,-0.0028369410779660043,-0.001388383688174277,-0.0008107137220854
1691524934.3338633,0.09124645870163649,-0.11205505036773074,9.74213177457404,-0.00038720834734508406,-9.085156260653973e-05,-0.0008650955098623
1691524934.3493054,-0.037403771414476754,-0.06745596850148632,9.818154681206089,0.0018852253095622484,-0.002020179955545673,-0.0009641912585998
1691524934.3538735,0.22180946789431916,0.19772485423825947,9.779124954879741,0.0008875909642339944,-0.0006701381553902361,0.0004964958823343
1691524934.36494,0.05051608274298323,0.0632892107468579,9.813344523074695,-0.0004073176492227551,-2.119252909251516e-05,0.0005914904939067
1691524934.3739948,0.08117915180602095,-0.07558585403429792,9.756386051581938,-0.00013837636048194915,0.0015985483410298302,-0.0016925118218118
1691524934.3838875,-0.0170681238756783,0.005003966123681658,9.836089652689077,0.0003209698423982395,0.0003114727048633944,-0.00084572749277
1691524934.3938265,-0.04547355150660271,0.08481284261047116,9.883789081162902,-0.0009381746607097737,-0.0015563942624990839,-6.751702697375527e-05
1691524934.4039943,0.014582281026514729,-0.0900633593361135,9.788501835692594,0.0005474771039516761,-0.0015996021160441768,-0.0009988343628997
1691524934.4139628,0.1462850578522596,0.005886507041107959,9.761017008860346,-0.00043037712003532143,0.001441726115960443,-0.0028190065461153
1691524934.4239037,0.11023600884547377,0.014790792097948298,9.763132329746618,0.000993411524143281,0.002282893924249119,1.893473724475393e-05
1691524934.4338758,-0.05880689663258344,0.030912190664168046,9.883550955464445,0.00031685963828661883,0.00019672746633609471,-0.0003174886626134
1691524934.4439776,-0.02316797904151547,0.028197991817642758,9.854780871363753,-0.0004766106100558054,-0.0010192006614814387,-0.000346165248839
1691524934.4538674,0.1281555878426805,-0.08870249751546033,9.729043056479208,0.0016497951548059078,0.0008590806335498086,8.111961121311673e-05
1691524934.463924,-0.023554267091702965,0.2003686630722268,9.908690902389015,-0.0015733363555598548,-0.0008362937971470391,0.0016297262516395
1691524934.473874,0.05175478296622432,-0.016455457810202027,9.778728007313447,-0.0015215566873589131,-2.306104135813733e-05,0.000991216325719
1691524934.4838846,0.08505075315794954,-0.19334178503114235,9.715465995143155,0.001622197843117133,0.0017848580403273234,-0.0008736166457588
1691524934.4938712,-0.08653084258177614,0.025140425903508196,9.881039881947661,0.0012753942678201788,-0.0007584219661956586,-0.0006631847756857
1691524934.50485,0.07813507525445522,0.054566445880548285,9.81032045390644,0.00124559155002585,-0.0006094138093851217,0.0013600170166405
1691524934.513875,0.22217063927511618,0.009299287791774101,9.705288454208592,0.0007802971880765342,0.0033010240448687763,0.000474523072416
1691524934.5239856,-0.06253698584839701,-0.13729430083454838,9.811207751550088,0.0028344139362982087,0.0019185870715733465,-0.0013352215575928
1691524934.533985,-0.050565876761915485,0.22679490214432144,9.927033903358534,-0.0016813828072253483,0.0001706614298761449,-0.001452938868379
1691524934.544002,0.09446892829626684,-0.1261749045044946,9.733386280709471,0.0005687692761389102,0.0018939936778506145,-0.0023551902088279
1691524934.5539763,-0.05861487732620277,-0.03131685685757267,9.843639023732559,0.003345910482523104,-0.0013224220761435502,0.0015153330639527
1691524934.5639608,0.1337516448999678,0.13310141403803646,9.808745556891342,0.0001484946195028565,0.0009205499932355478,0.0006108476261665
1691524934.5739172,-0.026180224604786747,-0.03643365304643039,9.822709053373144,-0.00010705012939365059,0.0005554715643660249,-0.0011400277546549
1691524934.5838914,0.0522429074666812,0.18316793700600778,9.862122012464907,-0.003803308954044503,0.0006668484015970264,-0.000798768811574
1691524934.5939715,0.10571675921184526,-0.14214527324026233,9.725194056105655,0.0004759332419112151,0.0014316732639289337,0.0014550112862429
1691524934.604221,-0.1359523375833434,-0.0416216847380794,9.8885016364182,0.0008760424640953034,-0.0016852740880188921,5.61579543223072e-05
1691524934.613988,0.048757177487773376,-0.0033482992543082627,9.795627092142785,-0.00014764961595468143,-0.0005222593340840527,-0.0021097182582075
1691524934.6245964,0.041839575381640376,0.028617766950579125,9.807339474237038,-0.0002802684263245092,-0.0005263506368242887,-0.0012473068020249
1691524934.63526,0.14578157030414088,0.10865464757406992,9.792330460536187,-0.0010678148053374452,0.000927261135750996,0.0015898717572504
1691524934.6438966,0.022822250213743792,-0.04551377953367969,9.796528342814321,-1.690301818613623e-05,0.0007182795624775523,0.0016975178039224
1691524934.653942,0.0848540786735756,0.09011525818578951,9.800470162280126,-0.0018035608671919507,0.0018835423671545227,0.0017735014732984
1691524934.6638885,-0.034286058089588956,-0.0919115748501789,9.815299622375342,-0.0002676285677026612,0.0007871956035234358,0.0009442595944797
1691524934.6739569,-0.024054780579171927,-0.0971761271452111,9.804912326238851,0.001604697764303338,-0.00029758894542983896,0.0005348692245838
1691524934.6838913,0.022112374489474174,0.0388959973833711,9.83478686665483,-0.0006405285095787239,0.00032041224714131274,-0.0021723010397458
1691524934.693859,0.09487855301423896,0.07079955942786398,9.78983231645376,-0.0008960598025828438,0.0010017536604798806,-4.108306550780049e-05
1691524934.7039423,0.03390579355282493,-0.10341450736221557,9.785909483887153,0.0007687587132384328,0.0014033518229815158,-0.0013776984817291
1691524934.714089,0.10143017997787054,0.18110791532086823,9.835288892940383,-0.001150523321556214,0.0017386319372520785,0.0016912029129975
1691524934.7239234,-0.12572183338362397,-0.09797287555674544,9.862872921075784,-0.00013650301619264253,-0.0006127596443714679,-0.0009753641026968
1691524934.7339249,0.18234684962703643,0.03769240543482474,9.737670590874487,-4.297707090210548e-05,0.002227761534294427,0.0005952193348725
1691524934.7438896,-0.011776601247817601,0.04737412335772059,9.830389030713448,-0.0008897456265668534,0.0013232622953079456,0.0011342559044073
1691524934.7538943,-0.1351648330034128,-0.035320482404738174,9.894692888885526,-0.000428546957119128,-0.0018477012509774367,-0.0001718121168146
1691524934.7639258,0.19105730551846567,-0.12640297208721152,9.669855371587884,0.0015324228109532447,0.0022083997931428056,-0.0014529514412338
1691524934.7795289,0.006380152735427113,0.07705390580673889,9.848385686300253,-0.00016853112802846468,0.0006106138467106687,0.0005430679482465
1691524934.7841113,-0.24121603890585552,-0.11423876487958437,9.912675378498768,0.00048042094504293205,-0.0015548970496202584,-0.0004411575903127
1691524934.7938704,0.293883229532727,0.03229408110539169,9.673572523952272,0.00017903639142644357,0.0036921742054188402,5.881785700230686e-06
1691524934.8039126,-0.16269579685995433,0.12586133166747035,9.954115403135686,-0.002467406179151737,-0.00027451366148241956,-0.0003755970212573
1691524934.8140802,0.05497579443687597,-0.05503666862052878,9.772998528614806,0.00012838959583267182,-0.00040267049658069664,0.0018800588038807
1691524934.8239455,0.015713840941180852,0.02346642762518101,9.831819745990417,-0.0008960788158824966,-0.0004071377426917333,0.0006127270351221
1691524934.8339226,0.09521885867808978,0.002658724907575537,9.793459937814498,-4.9697920678794794e-05,0.00015091333921343625,0.001760861854354
1691524934.8439147,0.12089135010246596,0.09857849496942188,9.793638321951786,-0.0018818010830989327,0.0020299439727913997,0.0016170589549524
1691524934.853914,-0.03228343600372203,-0.11507518258502863,9.813471867162264,-0.0006066416334204312,0.0011846806176320243,-0.0005804939248541
1691524934.8639166,0.008730204929652279,-0.11129525508745683,9.783579089143283,0.0024134649401145215,0.0003543170004436792,0.0003079831547161
1691524934.8739395,-0.04341419821342483,0.1213222432404532,9.878474331462458,-0.000386836987217084,-0.0010542214116936927,0.0001511573971306
1691524934.8838942,-0.004938690213066322,0.07246915409180023,9.84691902579633,-0.0020822073856803245,-0.0013906250377760624,-0.0005152999476472
1691524934.8939004,0.12079062202123694,-0.08276344950697444,9.747726524689073,-0.001210860150175137,0.000824420857848967,-0.0024628916109854
1691524934.905136,-0.02680240398455035,-0.06036385415746658,9.814295363945366,0.0010433075951957198,-0.0007874858999832867,-0.0014115955966467
1691524934.9140344,0.13052069665360005,-0.008509551683857013,9.746981646408493,0.0016572774814496514,0.0008285260552073266,-0.0008457156184072
1691524934.9239993,0.10547581284187804,0.18691105402719319,9.8239188311094,0.00011086792303187503,0.0010460907794644719,0.0034670548227672
1691524934.933913,-0.053873617067476794,-0.07379068697962073,9.832253427734209,-0.0008398328895622292,0.0008315278336474438,-0.0010856294359023
1691524934.9439244,0.085273417634252,0.0222644702291063,9.80087163540151,0.0005884259405917302,0.0008646974175265145,0.0017321763041486
1691524934.9539182,0.018338507584778983,-0.10697269510153803,9.780734563097969,0.0008357911712176706,0.0018232145692380405,-0.0018798589992279
1691524934.963952,-0.03401432488947741,0.03159214681758713,9.850430131914376,0.00013284743339067324,0.0003636202162455735,-0.0016567264503742
1691524934.9738894,0.06684054500532237,0.13234937682905204,9.836384813299366,-0.0018661261565501948,0.0007097029952517766,-0.0001584137610102
1691524934.9838932,-0.009907639830417935,-0.05017866162961187,9.829681731174293,-5.416414264930113e-05,-0.0007021734943759882,0.0008641806669124
1691524934.9938974,0.03075546331000931,0.02898855465941454,9.813606042747942,-0.0006930445797453448,-0.000524858589245071,0.000916331791604
1691524935.0041344,-0.010658068439819606,0.02936540713585402,9.84254993895579,-0.0012812657480264545,-0.0015783674880752688,0.0010530509932955
1691524935.0140572,0.026506725033958484,-0.08048417331326634,9.790818301774696,-1.4302735437921938e-05,-0.0012453252543153772,-0.0003968350176642
1691524935.023978,0.08465987619260419,0.07797579099302389,9.805888706500486,-0.0008647858778565732,-0.00036094534052054974,0.0004085766447765
1691524935.033942,0.10621156542886365,0.04961757613631588,9.782288248097391,-0.0015390790566194505,0.0008546129990984331,0.0008362364494764
1691524935.0439324,-0.17439752897117175,-0.16553875101266283,9.867290259175824,0.0008361849028419017,-0.0028766245923739046,-0.0011262425507361
1691524935.0548077,0.09253215922963035,0.008800084700013446,9.778192374308695,0.0009445972233425311,-0.0016807949430106672,-0.0007946914813424
1691524935.0640268,0.2568160768220917,-0.004419094665408952,9.695784997100205,0.0015666902719402925,0.0023291099999548153,0.0002767085859609
1691524935.0740385,-0.1883063221915256,0.03346135654721144,9.93670685413287,8.925881902841673e-05,-0.0017269884186389894,-0.0013035600825155
1691524935.0839198,0.05364635619196593,0.03621089559545718,9.81167289566981,0.0006484266249284045,-0.0020287593941899695,0.0006056507297848
1691524935.0939186,0.13822023246170945,-0.1546795774203546,9.697269178546993,0.0027293827010089386,0.0011921400506690748,-0.0019949558011198
1691524935.104028,0.04550586145806736,0.17194252468476365,9.852369355469113,0.0007393211098629663,0.0005297746623334164,0.0006335812102129
1691524935.1140268,0.0296979422993081,-0.03821601967246877,9.806157399352063,0.0003891410932576119,0.0010315721989490653,-0.0017047817639018
1691524935.1239414,0.1366566186295564,-0.03885567784402272,9.741527166836063,0.0009937338085416094,0.0034936467997213924,-0.0021301817434782
1691524935.1339438,-0.10230837671499299,0.08244473169177151,9.920210581986534,8.515623787191473e-05,-0.00010798652810235654,-0.0010606725520397
1691524935.143958,0.002863767380583583,-0.04539656514733844,9.826206529195217,0.0014531017833482268,-0.0011942742313346439,-0.0007674784685427
1691524935.1539133,0.11537059341778262,0.08864816771304027,9.795490551685354,-0.0008532336845752321,0.0007540471149837582,-0.0014231323550398
1691524935.1639285,0.0426590613191206,0.02115404281441202,9.80483849927151,8.255898003058879e-05,0.0001673021735145558,0.0013328231177815
1691524935.173966,-0.08016458131891589,0.01932553134200358,9.877309731493858,-0.0007358872785033424,-0.0019460524989142229,0.0003865992946607
1691524935.183924,0.1297984408881267,0.12833089970755485,9.804723125733776,-0.00297180814630131,-0.00010315944605502803,0.0010407573461356
1691524935.1939137,-0.046045749666717525,-0.04510603460930696,9.826684780730044,-0.0023917807379283634,-0.0013973273363615737,0.000239447824942
1691524935.2039838,-0.0016242057142390306,-0.17862638953599816,9.769199494702184,0.0007396944093638748,-0.0015154110784187005,-0.0012223610940332
1691524935.2139685,0.3070718614315136,0.087065770384159,9.697087780721322,0.00014289481963879262,0.0033297001038433585,0.0009562334924062
1691524935.2239563,-0.1624923399161437,-0.0962190357449106,9.874034225048023,0.0013227244565054991,-0.00011023110755307091,-0.0007261431130523
1691524935.233942,0.025800905189566625,0.08632158248407452,9.841040484918388,-0.0007728008251403337,5.8898030591157995e-05,-0.001520375237515
1691524935.244182,-0.07891337029959078,0.01912195734479868,9.86990918069139,0.0005821235311316253,-0.0031150480366025067,0.00120617488189
1691524935.253934,0.21710804669648417,-0.005044743791005937,9.708106055324695,-0.000223676692031866,0.001347110577304756,-0.0006736106990779
1691524935.2639868,0.09155765021301719,0.2059825482543963,9.845610044854542,-0.0039891911664759055,0.0022482443502541524,0.000471566065034
1691524935.2742586,-0.08315583570035354,-0.15350612896553406,9.818608016337885,-0.0002586858684901053,-0.000471956218921142,0.0007576327368674
1691524935.2840326,0.020075308747566092,-0.019404663519901662,9.808055282974806,0.00042156335418640337,-0.0008154226868784571,0.0009893667772935
1691524935.2941878,-0.02124151382126322,0.005925209697227413,9.838440604976075,-0.001134110089062051,-0.0010732093366561356,-0.0018660821772123
1691524935.3040757,0.23672264085609154,0.030453433021514088,9.702825658617256,-0.0012742121656952716,0.0029705662514562616,-0.0011791677500064
1691524935.3139548,0.041774998815001206,0.06923279776388891,9.828180492712068,4.45412771073957e-05,0.0013992599981190047,0.0038090262276177
1691524935.3240342,-0.10144951823595291,-0.14769644788640512,9.84079261649015,0.0013595913365806033,-0.0003773370016765346,0.0003087335096729
1691524935.3340163,-0.11923415584386712,-0.05510073980354087,9.867131516124974,0.0022644443162409284,-0.003268894452865284,-0.0005775353458652
1691524935.3439713,0.1724889497980504,0.09273201540647225,9.760181896949133,0.00021033886041146467,-4.392039959568531e-05,-0.0011489654245729
1691524935.3540533,0.058376727674809614,0.1082955183741764,9.816594566240655,-0.000979890578388606,0.00012185581842669162,0.0008396039954909
1691524935.363996,-0.0065607151172255435,-0.08205270008845426,9.794419489382634,0.0007050561614923978,-0.0004939391607335052,0.0010515607753127
1691524935.3740778,0.008247985209927557,-0.013850695639925277,9.819228504717778,-2.845209989167507e-05,-0.0003847902178335566,-0.0008181619743759
1691524935.3839502,0.07843156792963235,0.11745602968736715,9.830502931328496,-0.001408315320711028,-0.00021752357199472671,0.0010266051429148
1691524935.3939998,0.12696788383466126,-0.008671225206794645,9.748212333198463,7.102017075662676e-05,0.0012472686898666915,0.0026742785883193
1691524935.404204,0.024612041266214,-0.041577997828499254,9.805697388767026,0.00017901337779645905,0.0016164487374748632,0.000649211713398
1691524935.4140086,-0.1971991531904758,-0.051351621133275786,9.918067698746055,0.000376865939213646,-0.0023565608500509872,-0.0013479012816155
1691524935.4241476,0.1827564802216295,-0.05041492040507426,9.71574180665679,0.002290911871839489,0.0005666752188881557,-0.0002563424461463
1691524935.4399114,0.018183080774134094,0.13330292917393502,9.876749918500655,-0.0005887424896265914,-0.0010516130218982639,0.0020611194957104
1691524935.4439406,0.18543436330594634,-0.2220939166849774,9.639218625725515,0.001160277797335951,0.0004239824243466132,0.001727698650729
1691524935.4546237,-0.10458830122889126,-0.0018822541734552886,9.892089755676574,-0.0007921297487769551,-0.0013284188998225934,-0.0026975681359822
1691524935.4640088,0.18539972100576388,0.1435492484985521,9.7611561198177,-0.0026127068848459667,0.001197708920958894,-0.0006352742022777
1691524935.473979,0.12637453932740933,-0.08543432823382567,9.724948871571204,-0.0007195026272277388,0.003276435011690508,-0.0007015371049697
1691524935.4839933,-0.044264671087719025,-0.015066887513882674,9.835760434751553,0.0002621113974603194,0.0013728058920675623,0.0002446534524728
1691524935.4939768,0.011535964661535242,-0.06046724414419196,9.79506705613287,0.0010015559137785835,0.001459250654488988,-0.0007317273232097
1691524935.5039835,-0.03595316188970723,0.06175878851292249,9.872229282112459,4.9021437414907135e-05,-0.00019255117942589196,-0.0004154505261162
1691524935.5140443,-0.006681000824367973,-0.11094708457069018,9.798103667419811,0.0036487815063079997,-0.0015981117593365632,0.0014866867748146
1691524935.5240116,0.10279849026146388,0.14285031988121819,9.820881481635086,0.0005154366805493109,0.00020530407720653748,0.0008273076562268
1691524935.537372,-0.03210135533095587,0.025567393368198153,9.863461135947718,-0.000932199349057319,-0.0012378647112077361,-0.0010312429915125
1691524935.543938,0.2111863293414942,0.059318274466453734,9.733383111306104,-0.001464175828830759,0.00110347353283925,-0.0007991581044102
1691524935.5550528,0.0345653273349679,-0.0406016285792574,9.802840113243146,0.00012689630546344188,0.0006180556651944171,-0.0001870943053568
1691524935.564049,0.06460976789053492,0.13201194055042828,9.834549621121054,-0.0019320965892712135,0.0012450188870116944,0.0002591862755884
1691524935.57394,0.06114131731602242,0.035226902394565905,9.795492405266094,-0.0026529280649211524,0.0019569409050171544,0.000422401895566
1691524935.584061,-0.04209557969506392,-0.08250278624193677,9.82102006995627,-0.0013338029633527633,0.0007026242607762439,-0.0006963432353864
1691524935.5940282,0.09208802944011538,0.1606346198982952,9.831754170354376,-0.0022580630700861633,0.0005759605410371124,0.0037177514930312
1691524935.6040492,-0.10750247931510602,-0.22499675471219743,9.810405944275466,0.0013282955698010219,-0.0015798535462166958,0.0013771567644375
1691524935.6139622,0.11001003676499425,-0.07849447056511209,9.73557231654751,0.002258127701800958,0.0006489893791581066,-0.0002224838647002
1691524935.6332731,0.06682763319649615,0.0827823717367652,9.805692299017121,-0.0012697557136803071,0.0027783538567352807,-0.0018161632872129
1691524935.6344469,-0.8158885431129165,0.056893386236862506,10.297809289608304,-0.00027581553876429473,-6.627180162638156e-05,0.0002446688192953
1691524935.6440177,0.07191543822623445,0.0655563562724535,9.811019367497893,-0.0007165145218238943,0.00018331973270722352,0.0018502751079445
1691524935.6542337,-0.009754334744841804,-0.01054016202991049,9.82949174218421,-0.0014988452861340062,-6.478283545045325e-05,-7.384035800942889e-05
1691524935.66405,0.07882503159635634,-0.10330955675229953,9.751306970013731,0.0007620578115574276,0.0008903760714710655,-0.0002955166676024
1691524935.6740437,-0.08779962699879745,-0.05572865581835437,9.85812447867282,0.0010798207921324798,-0.0011372873024900712,-0.0020568191359693
1691524935.6840234,0.16698526283202145,0.03060519241910408,9.743875388364547,0.0013204647589131525,0.0012346095108249535,-0.0008002670767659
1691524935.693968,-0.015343737274269282,0.05425535080983711,9.858532283480972,0.001107010031729165,-0.000426128963116079,0.0007300721079168
1691524935.704185,-0.011084259811801484,-0.09309365340889848,9.789892519184143,0.0023456781763576263,-0.000528941010884495,-0.0012242046470696
1691524935.714006,0.0597528967919791,0.229239667018059,9.867917357145696,-0.0025668625699911602,0.00033494345101626257,-0.0021126977919543
1691524935.7261145,0.06467008343749495,-0.09468887604329639,9.744832846042335,0.00044687546163564774,0.0010557855749392811,-0.0008848495601619
1691524935.7341022,0.11078219895362537,0.03191833139026591,9.778102110997152,1.4005836822567172e-05,0.0023834937211411377,-0.0007879526640231
1691524935.7440536,-0.019471803036383236,0.020850754252689438,9.844556280140203,0.00010340083683692465,0.0009049145973617914,-2.394277201393357e-05
1691524935.7540212,-0.003000029617664824,-0.029042581722857494,9.826153215570066,0.002017847776709348,-0.0006302723380674543,0.0022924455295374
1691524935.7639947,0.09888711526560269,-0.05245310541155393,9.752991242569827,0.0026921291682773965,0.0012539753469858984,0.0011357696819409
1691524935.77399,-0.0033513973411875256,0.18056654017153762,9.898192982603714,-0.0004937365802788694,0.00015276782114688781,0.0016412830916756
1691524935.784109,0.018434425196837002,-0.17204601426158977,9.759002719469722,0.002856777213291382,0.0002038220366896727,0.0007099519896378
1691524935.7939613,-0.09845234891501371,0.11466847564780165,9.91323656068766,0.0002893233007946829,-0.002069731831953129,-0.0002682965534681
1691524935.8040707,0.1102111419563485,0.13696193352938132,9.805196471129596,-0.00300237732777147,4.027020291488322e-05,-0.0013694884075725
1691524935.8139887,0.00815036469162656,-0.027192609563246515,9.8034971241573,-0.001590822970715289,-0.0006660563423968431,-0.0002191474015767
1691524935.8239946,0.1596870000534402,0.04583845296374078,9.751386623695657,-0.003102575853569178,0.002531382269828894,-0.0010826347681636
1691524935.834049,-0.07239436230506933,-0.08705025925654847,9.845750671097765,-0.0009519757075524244,0.0002201978520302542,-0.0013166100072617
1691524935.843993,0.04817623861287805,0.05733861582647367,9.814442516227848,-0.0016534320605848787,0.0003423966883136655,-0.0006102734298388
1691524935.8539598,-0.04729708270296103,-0.08284217118624529,9.817009557552346,-0.0016936170379878658,-0.00010388108888445159,-0.004203321627056
1691524935.8640091,0.04814511024898725,0.06350974014491768,9.826852687750417,-0.0006058732667846816,-0.0012158963904585977,0.0002346120488887
1691524935.873951,0.1674403056698745,0.01602308277053749,9.741302663036526,-3.444023332850162e-05,0.0010267356481305633,0.0015969484700412
1691524935.8840077,0.003840960926431036,-0.10641414402771873,9.792514638572344,0.0013029549759498457,0.0010543165897858374,-0.0002746230277175
1691524935.8939817,0.016692307088637715,0.1666091554859059,9.874556093538038,-0.0020092208488742555,0.0006459815249817372,-0.0001237818325812
1691524935.904039,0.006070622940285338,-0.095908062672355,9.790273015292197,-0.0009761695828225917,0.0008080609369531035,-0.0023127391288931
1691524935.9140608,-0.08848195197033396,0.039657632959932985,9.89525521086845,-0.002033417327856806,-0.001540024823552189,-0.002718428830331
1691524935.923988,0.1781239007747988,-0.17290508359970033,9.655605934995847,0.0026272994573132585,0.0011213448286110721,-0.0010912297113741
1691524935.9342082,0.04952280482490545,0.2285999868184243,9.87478855009013,-0.001830754276031039,0.001361621906428033,-0.000650906218862
1691524935.9448469,0.011969765799721744,-0.0711050608317171,9.796201367842189,0.0010053117613338487,0.00012185398500465804,0.0013987660966172
1691524935.95564,-0.00015838474997033024,0.05050533066271559,9.84863384851511,8.031750466387953e-05,-0.0009677783613484967,0.0020480742275772
1691524935.9659276,-0.006718364888176783,-0.05450269878035565,9.804887643945209,0.0005340632333245847,-0.0014122159023299272,0.0004640858567377
1691524935.975283,0.2496647915609443,0.10150862887437531,9.713109558144831,-0.0013520703053637002,0.0027984697402565904,0.0007125516601895
1691524935.9840531,-0.013953701086982021,-0.024034483015684924,9.823713239913733,-0.000965745689748689,0.0018898752555733486,0.0005467934131679
1691524935.9950857,0.010039179354387529,0.026064798346394837,9.827327800526641,-0.0012402988436332782,0.0011403472831218629,0.0012002122164353
1691524936.0043983,-0.01205922614161637,0.021037527497970228,9.837416874640539,-0.00150702437131548,0.0003435116371108194,0.0011514168470689
1691524936.0140407,0.07174179406925932,-0.01575683783530294,9.785976849675086,-0.0013773861068432642,0.0014528994738825008,0.0005363557318282
1691524936.024125,-0.10075486547442505,-0.03018208688573459,9.862635525709237,-0.0010309189307277907,-0.0007792990251019961,-0.0004441409657652
1691524936.0529668,0.05178267441386681,-0.025606250724340644,9.801892601859262,0.0009199906598587789,0.0003710838286380315,-0.0001163213566819
1691524936.0565305,0.25685642663623476,0.12659314104938807,9.712483347256295,-0.00013161105711701187,0.002234088239006808,-0.0004545588565001
1691524936.0607631,-0.2087664078105924,-0.10726403925318696,9.906113808264227,0.0007504937242089388,0.00013377621683775755,-0.0007131101849431
1691524936.0641603,-0.0151084903096699,-0.12233659700204945,9.79237200505747,0.0026310284564088795,-0.0008027585202608684,0.0011029711784153
1691524936.0740988,0.12786579269356094,0.12374241061882559,9.802393727278785,0.0003016018638039567,0.0008672861988317811,0.0014017448736644
1691524936.084069,-0.059863911537820384,0.07506358715837073,9.88627680641659,-0.0014563613417176195,-0.0007800425345589382,0.0006950583372322
1691524936.0939991,0.019534397674878662,-0.1673571470972952,9.755003444765102,0.001406158591405933,-0.00045073638927230095,-0.0008870863641555
1691524936.106002,0.12195399034053744,0.17655992719913713,9.816206187226044,-0.0008070457527479916,0.0006594139209260495,0.0033981253107135
1691524936.1141164,-0.11083067852418871,-0.14439356767158498,9.837445132686463,-0.001181031844372326,-5.062053386493883e-05,-0.0019182381040359
1691524936.124156,0.026718997022266166,0.03983115451990566,9.817514138547988,-0.000642760303797549,-0.0009752544348000155,0.0004152735525799
1691524936.1341245,0.03900352770937725,-0.03209049991170366,9.797243174221807,0.0005936645973085086,-0.0011410155126621011,0.0012769505845148
1691524936.1439896,0.07302869047028844,-0.10008766992470851,9.746376504267342,0.002522985059323967,-0.00020111091958260584,0.0008302853564323
1691524936.1540716,-0.0005505740661622382,0.028769407232440897,9.837280504055485,0.001856539519261403,-0.0008329285001428133,0.0008947253698074
1691524936.1640627,0.09554563612112343,0.1624571154639681,9.822986310205684,-0.001365855944754399,0.0005387102384347025,0.0012206836506897
1691524936.1740096,-0.08443436431919181,-0.11735320086891086,9.836386820681613,-0.0003227410124848361,-0.0009107881354769634,-0.0020035439922417
1691524936.1841433,0.05216981138686451,0.0022052260949357327,9.802882269763725,0.0005914328646964459,-0.0010340949721974275,-0.0003890008485818
1691524936.1940591,0.04771915504647091,0.026665979350096618,9.796361343600715,0.0010220725968761897,-0.0009521497247062412,0.0011685330862469
1691524936.2041037,0.07215004731734198,0.06651275268367468,9.805698279740492,-0.0015725747134405703,0.0007011179114014595,-0.0010808084445948
1691524936.214133,0.047964833086069095,-0.16753969360686324,9.750294854794593,0.00344052698791411,0.0001870595465482575,0.0011573509653039
1691524936.224148,-0.0113418190921504,0.22307828054121123,9.910136662891757,-0.0011553513535334865,-0.0006861602293286753,0.0010489627636793
1691524936.234075,0.010085410880117773,-0.0419199319076225,9.79733332144931,-0.0010015023688545014,-0.0003885152962405319,-0.0005465895921866
1691524936.2443683,0.05694073565865654,0.09449110667682649,9.823220181664318,-0.0030086907693692476,0.00021796373943105046,-0.0008326866484189
1691524936.2541096,0.1382413704511123,-0.314020346384332,9.642866251602698,0.003547821880462773,0.0024635614495986044,-0.0007742170530314
1691524936.2641308,-0.007146894119169661,0.048570323179803414,9.84954209032331,0.0028314577221219255,0.0013783792250872647,-0.000462400825409
1691524936.2742426,0.01344743718056722,0.09612304844267848,9.854585108338457,0.0012008730821082472,0.0005625733428908346,0.0005956012353358
1691524936.2840838,-0.056694144883615766,0.21287851360670512,9.914191724863603,-0.0034076740216795044,-0.0007454128737301274,-4.2551179131359966e-05
1691524936.294093,0.06810050117057544,-0.10483682047161608,9.747438202961677,-0.0005667637596734039,-0.00023354008714555015,0.0007691794778743
1691524936.304113,0.002200992765701056,-0.03527255376275426,9.815931432983504,-0.0011669180849717092,0.00015688445963953242,-0.0020542025851959
1691524936.3140748,0.13646011272454264,0.03003356980499224,9.765748824462785,0.00013060180535981813,0.0013199134057760647,0.0010761482588072
1691524936.3241537,-0.05026851383811023,-0.042548969468837856,9.838945174602287,0.0007743373160739262,-0.00034417765027811324,0.0005069137148616
1691524936.334118,0.056804463027398035,-0.007103920452678623,9.795527050691536,0.00020995326021567594,0.0007141886315601429,-0.0008449733543152
1691524936.3441324,0.03389734989751944,-0.015644374191852647,9.808127482176026,0.0017522590823399375,5.029663292247677e-05,0.0013976512161839
1691524936.3541012,0.010007678250528637,0.024739213789131714,9.83243385587376,0.0004245269111019839,-1.5220660430295817e-05,-4.553432175317517e-05
1691524936.3640735,0.0558869108881216,-0.05432570982924394,9.781542999260651,0.0011624883434336976,0.0006676240991440537,-0.0009604722547287
1691524936.3740728,0.14162174039194056,-0.0017927015809788792,9.748102195974207,0.001632620653180936,0.0030458513717207254,-0.0007276381186152
1691524936.3840616,-0.07488188265827493,0.2152182190199788,9.961806427293583,-0.0021224464279085455,0.0001773546061405464,8.931408571651468e-05
1691524936.3942242,0.02408779631382243,-0.16451890229677668,9.767943910347693,0.001068258720454272,0.00032973140429169815,-0.0010141145723814
1691524936.4043236,0.022649267495512066,0.14250579436445646,9.855072395817055,-0.00048182166138499913,-0.0008068623879253838,0.0019556908116733
1691524936.4141002,0.1037334081506574,-0.03710227204844271,9.767149173893523,-0.00021807026925170075,0.0009827639296443192,0.0005084105830696
1691524936.42501,0.02068994766206458,0.016880153965947275,9.815025327016775,-0.0010410041628669583,0.001068078344331039,-9.620152944126836e-05
1691524936.4341197,0.1002163703695495,-0.10441395907220194,9.726620926478908,0.0019191210079816047,0.0016723280528710067,0.0016096197539532
1691524936.445231,0.022511883438819488,-0.05529116516450583,9.79395391967898,0.0018118714844215147,0.002303735370035789,-0.0012081747229153
1691524936.4541163,-0.106008033830089,0.16501822415734652,9.943276924065445,-0.0016318211869757661,-8.165760696435674e-06,-0.0019309085148329
1691524936.4641683,0.08646381762313478,-0.06829109693047633,9.758283341524772,0.0005549105255109818,0.0005674005363205045,-0.0003689098923409
1691524936.474213,0.15344451789540944,0.01998865708741104,9.758590922353132,0.0004993824903291224,0.0030763864317932105,-0.0002292070823664
1691524936.4840643,-0.10560679265915443,-0.045306043641258446,9.867505578014455,0.0018531733894129167,-0.00018209404227644967,0.0006537152401228
1691524936.4940689,0.009785750332759368,-0.006920955217217062,9.814034427952492,0.0019999666695312696,-0.00047492149364283077,0.0001813511078303
1691524936.5041263,0.06628545078277448,0.07716623153677596,9.814716013323794,0.00024943351599199134,0.000502959421296203,-0.0005301969178895
1691524936.5141058,0.040652094089033475,-0.020288959467565038,9.802934055079037,0.0012184169754039704,0.00026004419412046554,0.0001206109480058
1691524936.5333188,0.029899970896732662,0.053157868076944996,9.82303879096868,-0.0011754735723649452,0.0005551052805736805,-0.0011042619409913
1691524936.5347428,-0.5341512946016156,-1.683620790370725,9.537305280546425,0.0022529251997680014,-9.013942917079776e-05,-0.0042428218114132
1691524936.5440972,0.06962659353525301,0.12973468278222383,9.830079340195006,0.0013718694173383305,-0.00028567422224112213,-0.0011880819040293
1691524936.5540638,0.05488198253241316,0.03038251841408101,9.811258724970635,0.000582485419372912,0.0003684612599899609,-0.0020523564710224
1691524936.564074,0.04844306900614476,0.14118285834682148,9.850208431519109,0.0002323134385236542,-0.0008418733904735948,0.0024165061947946
1691524936.574109,0.08273144133253467,-0.002959782617345165,9.784806931249697,-0.0011825413280012887,0.0012815468817391137,-0.0004463639163354
1691524936.5841303,-0.03909316609879924,-0.0958122853134367,9.817098216946667,0.00019805606894987579,0.00036738060417755656,-0.0019886209449673
1691524936.5941005,0.11010913848235485,0.07490843121579291,9.780414758705788,-7.651605205488625e-05,0.0013351814241197861,0.0007591358332951
1691524936.6056197,-0.01778296105278998,0.0560633494947083,9.85269088681079,-0.0013259815902651217,0.00027123124118534083,0.0002524773770069
1691524936.6140935,-0.029042402617057803,-0.15981407118543975,9.794257438699983,0.0007098798420599803,-0.00010351324141546104,-0.0017278764682764
1691524936.6242535,-0.02181882900175807,-0.014517589652740465,9.823869575568224,0.0003701355576701518,-0.0005781565230997976,-0.0034508325445408
1691524936.6342423,0.1073159142949299,0.0655891351345078,9.791928732398679,-4.2622610840734825e-05,0.0005260652250366271,-0.0014883305231983
1691524936.64423,-0.03256010963937926,0.07146963341232974,9.875047424730553,0.00024274724564762252,-0.0019702649146920237,0.0014311695010924
1691524936.654228,0.1782978840017125,-0.041369188067609426,9.718933651862198,0.0004968159827742128,0.0015028268297053121,0.0004067399020363
1691524936.6640916,-0.050411208294688085,-0.12387462955544615,9.804438126071695,0.002889939317381054,1.4955145245101945e-05,-0.0001103300421441
1691524936.674116,0.037162593552287855,0.13869284912061722,9.847147875244733,0.00045097658028967635,7.566659773671179e-05,0.0006436397268494
1691524936.6840627,-0.08537320708450447,-0.09848023907392935,9.840192144061563,0.0013275359313913726,-0.0016130088792713812,-0.0012503017025942
1691524936.6940577,0.0598913731659439,0.16218836924768418,9.841824668262241,-0.0011050629569576327,-0.0014610218458468275,0.0004331653651838
1691524936.7044568,0.09731794193438278,-0.17312999305969914,9.7137467847436,0.0022126645603715747,0.0003599339725412608,-0.0008528004220629
1691524936.7141771,0.09483883436523569,0.07003619671822013,9.808689249577851,0.00048117596830836163,0.0018406887321943191,-0.0018105930468941
1691524936.724192,-0.022404322055104193,0.051178507753368435,9.854942500823118,0.002327053136472374,-0.0012363858533892013,0.0034450509299581
1691524936.745307,0.03302373215130669,0.02881501037747895,9.806463804400032,-0.0009076327289498088,0.0006355715632685921,-0.0008781389153505
1691524936.7462964,-0.6122651734063482,0.231207773654491,10.240448819613697,-0.0005339839542600378,-0.0012375005551186278,0.0006317233380918
1691524936.754085,-0.04192383749719639,0.0035244303963527005,9.854950549711528,-0.0009865999837055527,-0.002089112693567502,-0.0002675609250495
1691524936.7640862,0.12239933333679508,-0.15142809154104472,9.692120108041516,0.0029141613886759957,-0.00033636748888756716,0.0012881004511377
1691524936.7741728,-0.0010029953021095316,-0.03104853990910837,9.80670245151773,0.002102402976668595,8.75842254888212e-05,-0.0013899965963269
1691524936.7840524,0.10341064929649228,0.14910595045581837,9.814729488334047,-0.0007776122957551547,0.0014942599368218097,-0.0013706104184443
1691524936.7941,-0.0918450061327751,-0.1100648682750584,9.841277802117975,0.0015838407994208782,-0.0010888385646960538,-0.0019610833662504
1691524936.8041344,0.10020655714352941,0.09280965565061025,9.794642431065535,0.0009658163155080609,-0.0002599839516113983,9.965053113310423e-06
1691524936.8141434,0.02643759401358182,-0.05717031281371694,9.7975608897207,0.0019094325426039166,-0.0002894070500473128,-0.0005823551730195
1691524936.8241062,0.032745948876508446,0.09979943967293164,9.832442008122081,0.00038616249667533823,-0.0006377228247055855,0.0007073499907796
1691524936.8409357,0.08155689514073172,0.00730766772358583,9.775684494941402,0.0004603065202712292,0.0010595067099266142,0.0013078712979854
1691524936.8466003,-0.14583678228874128,0.13009485927104258,9.954985373667258,-0.001706703027406386,-0.0007271469870077939,6.622380512407312e-05
1691524936.8543005,0.11027095784998443,0.005064102584914062,9.765536334617732,-0.000326483627424407,-0.0002607298777679394,0.0026243835634609
1691524936.8640542,0.01609295925313742,-0.18177920191893693,9.7617027159002,0.0014657536197002646,0.0005409624726004494,-0.0010114968574548
1691524936.874068,-0.024665996697168038,0.08484346557195167,9.859002055957975,0.0005042632013568483,-0.000959229674195993,0.0002204490772505
1691524936.884066,0.17075372541185402,0.04364467585063268,9.75779857589555,-0.0009314901547233479,0.0020224900931637537,-0.0003797086940089
1691524936.8940637,0.021181473323227118,0.016704325094675447,9.821378410088396,-0.0013919319339470186,0.0017360161428631392,-0.0004009310907627
1691524936.9058092,-0.030889747764538247,-0.061107221112445174,9.821419361131877,0.001446383363924704,-0.0005457130243531896,0.0018305400333424
1691524936.9142053,0.015958484362217713,0.15200526487136806,9.867211328313202,-0.0007534131106609964,-0.001019196622973529,0.0022876237233226
1691524936.9240935,0.15871052144530184,-0.029163826008077168,9.73942118376481,-0.0007161451968598396,0.0020817318607417447,0.0010757659799942
1691524936.934104,-0.15591861268986876,-0.1462006853390747,9.87843927875084,0.002416455914912838,-0.0020269015743687845,0.0004827124246453
1691524936.9441583,0.0667811459092053,0.12107889506067661,9.829070511360463,-0.0004456919859946236,-0.0009405998063136166,-0.0001934298600012
1691524936.954089,0.16426221327158666,-0.12751307965994296,9.685530315262056,0.0015734019519425572,0.002289967461276223,-0.0012745281967277
1691524936.9642856,-0.056718054930660955,0.23345425681156937,9.929848496850195,-0.0007273245056602307,-0.0012401107504345509,0.0034782190521304
1691524936.9740627,0.03149211771588466,0.0037227038328809833,9.808534290021461,-0.0017935028925020694,-0.0004786726827371552,0.0012240393550832
1691524936.9840832,-0.002331292513280475,-0.2322062420459743,9.755436817837866,0.0020256755182960972,-0.0004454983841527885,-0.0012081882270927
1691524936.9940665,-0.016323329312723105,0.1998594650395797,9.885404771459788,-0.0006051263776409959,-0.0022459360709989867,0.0015041884796751
1691524937.0041118,0.08200094816142758,-0.03552222512351814,9.764236625261457,-0.0005943307925700072,-0.000682800857067529,1.7799804272263138e-05
1691524937.014134,0.017974053416690252,-0.12389184344148077,9.778386569598318,0.002224969530494175,-0.0009074303598594583,-1.870268554785958e-05
1691524937.0243845,0.04809291204318341,0.17002445643333952,9.85417595155747,-0.0009463711396354777,-0.0008325639327570282,0.0010411291184659
1691524937.0341022,0.12430738730418087,-0.0800304323306552,9.729351461452216,0.00010562368503652669,0.0016015559962686712,-0.0002310382953787
1691524937.0440855,-0.11499450812260029,0.0456307387078983,9.904387510965776,-0.0013625087551592744,-0.0012222532778467295,-0.001592280092364
1691524937.054119,0.09547053970255129,-0.008385521785734904,9.775655906465332,-2.5476277205736533e-05,-0.0006533778196908896,0.0006928165855874
1691524937.0641265,0.06835487087682926,-0.045242909082521335,9.782339046340699,0.00028634507613058873,0.0003762919656849962,-0.0006609502999986
1691524937.0741465,-0.06051090254410834,0.12163655654104774,9.895563916189737,-0.003062329747728203,-0.0010404424925279257,-0.0020791727404052
1691524937.084212,0.24622073736671415,-0.0055933378160393545,9.69362051884014,-0.0005335969276733985,0.00213910670518997,0.002153489407437
1691524937.0940924,-0.13826413840099477,-0.12178297313354655,9.855705373052631,0.00101239538295733,-0.0007926968482319359,3.158477536043414e-05
1691524937.1041565,0.08563858473662965,-0.04750249241799313,9.764058345039182,0.0015976249476134352,0.0008006197472880735,-0.0015654410055781
1691524937.1141572,-0.08362816257828075,0.023888256305592104,9.868699224164693,0.0004107724745703069,-0.0011685792462782683,-0.0024591502553726
1691524937.1241064,0.24825352510737686,0.06112266515416807,9.710622105966266,0.0002758843905731123,0.002684107648017353,-2.840695036003104e-05
1691524937.134106,-0.09965299443874123,0.015317019572490272,9.890655097410365,0.0002021486870462373,-0.00017318578279491704,-0.0002101858665178
1691524937.1441789,0.03411844347869331,-0.07869720060074517,9.768808179669914,0.0007560783363758612,0.0005964720714734565,-0.0024818708009029
1691524937.1540494,0.16688006315131212,0.18390176130412417,9.795661238213336,0.000348172626549415,0.001402252910433665,0.0035582930029427
1691524937.1641085,-0.2452528419226231,-0.23780643081948752,9.87433371254437,0.00326916779433332,-0.0031355195255519477,-0.0009090772184486
1691524937.174089,0.03939682584748321,0.16030025608848666,9.860231529921428,0.0006692831664065176,-0.0034469782722453563,-0.0001245200221369
1691524937.1840742,0.1578983704559822,0.04167961779520007,9.754022519555038,0.0004826545906663523,-0.0011104765176545143,0.0010020231018365
1691524937.1941366,-0.003109217455797909,0.048606174266091255,9.845035872867507,-0.0019644957133347204,-0.0009767541700674129,-0.0017949375144148
1691524937.2041364,0.1215455663323569,-0.027228827158263677,9.750812115112476,0.0007609354366644454,-0.0004201823390792713,0.0020752778689434
1691524937.2141445,0.030920504730171224,-0.0009489376474655305,9.80999792426451,-0.00032127113274214804,0.0003759075797426247,-0.0006296762551123
1691524937.2241192,0.018125751876593654,0.039532767221398694,9.827129874240766,-0.0009091242766400817,0.00010099077166495419,-0.0007596718898917
1691524937.2344394,0.10561079590660466,0.0414700743272223,9.783422272422724,-0.000463599481088585,0.0010099681418377048,0.0013715801649318
1691524937.2441237,-0.1341088153132343,-0.06858619179547305,9.882409792194082,0.0005579072183968065,-0.001994478217944322,3.530587470731029e-05
1691524937.25437,0.17432796762734976,-0.08945470532805093,9.706213307684886,0.0016114414797229442,0.0016294675387011003,-0.0017532035528624
1691524937.2640846,-0.021188740521125023,0.1269683046641294,9.876778659927208,-0.000381619862413193,0.00029433334095226444,-0.0008364233474189
1691524937.274102,-0.11799227702266926,-0.11994646901568169,9.855753557963478,0.0015428906230113095,-0.0024340563087551607,-0.0020221629931534
1691524937.2841089,0.20671662636271004,0.14079519948417982,9.76828210377178,0.0011248725704024421,-0.00016460806524320792,0.0024489341483508
1691524937.2941072,0.05367266883658033,0.116756522349061,9.837318444084433,-0.002459951790735361,0.0010982536213953026,0.0001459539814909
1691524937.304224,-0.08811224160068686,-0.20752332292396503,9.812302566634441,0.001741066341921652,-0.001225990705211342,-0.0011027676339204
1691524937.314184,0.10937847214457451,0.08558201186872498,9.789473255206772,-0.00012160425730328063,0.0006873819597385041,-0.0016459077416861
1691524937.3242116,-0.028426489427721042,0.0718309581425085,9.860927095020587,-0.0008644159779605272,-0.0009234649313083676,-0.0001435119013244
1691524937.3345785,0.13275703186053764,-0.09591316244969451,9.722055499834061,0.0011427583758384673,0.001506924267623968,-0.0003789426811913
1691524937.345322,-0.028368599228106615,-0.055629606309855036,9.824059697962797,0.0011759471910899755,0.0009913451097070542,-0.0029061755451316
1691524937.3540957,0.07424343976233717,0.23852719866246133,9.870454866937216,-0.001675035693741313,0.0008818226243266843,-0.0002928793949017
1691524937.3641565,-0.05413534972456445,0.04247629939347043,9.891303383645269,-0.001078242717818549,-0.002030244109567619,0.002197837824287
1691524937.374088,0.08878307095689994,-0.031001627190252862,9.762129607360677,-0.0016154400369630595,-0.0001620275407198643,0.0003217670198587
1691524937.3841245,0.1252673586967871,-0.07644958597308497,9.732930757632484,-0.0002896129739119163,0.0019327248731039733,-0.0003331132286171
1691524937.3940785,0.02577830173978086,0.04413584945312415,9.819271653579891,-0.0006673461776264575,0.0015713658223594268,0.00082582257507
1691524937.4041846,-0.17134778074558668,-0.2036740134587472,9.855719698127793,0.0020215873291077203,-0.001793311541373011,-0.0024725461664552
1691524937.4141133,0.17140163225972394,0.2666648720395217,9.812400897475365,-0.002499451492249049,0.0006530696843793306,-0.0004419110302756
1691524937.424128,0.09581807940616723,-0.06216084011992346,9.755841668664551,-0.00012495465460637123,0.0014197488778186025,0.0013350522965715
1691524937.4341328,-0.04240381227586755,-0.06789647058862111,9.818911766638989,0.0003354831409595236,0.000737662717327536,-0.0009239378671104
1691524937.4441123,-0.032229637692423055,-0.019930289412802206,9.83790351684875,0.0008298448576321874,-0.0007017844168795266,-0.000828197207948
1691524937.454626,0.0659350901059482,0.03211724383454644,9.800748400079886,0.001026174182701708,-0.0003534861332163071,0.0008571142277737
1691524937.4641163,0.03589394558645002,0.15783312869121688,9.865366217835478,-0.0020460805366555803,-0.00043731680989546817,0.0009368335775156
1691524937.4740772,-0.03066702638946245,-0.1702958894688294,9.778961639464544,0.0003448243331711358,-0.000764042289731959,-0.0015814781474823
1691524937.484136,-0.008270663329716791,-0.04710026630167905,9.805228406237651,0.0017760776827340063,-0.0016264246130738153,-0.00118882370246
1691524937.4941518,0.04186237587495914,0.16952346837613808,9.85683393587856,-0.0014913739874441775,-0.0015768832409459432,-0.0007209330617392
1691524937.5042543,0.08161045444540739,-0.006829065783643182,9.783189020641771,-0.0006878428361163022,-0.0007118598829374357,0.0003255094814171
1691524937.514191,0.03290898444641601,-0.09824874740607406,9.77863231600655,0.0013815741197922178,-0.0007576947871683846,0.0001440885423739
1691524937.5241482,0.08903639058548612,-0.07275452147830287,9.743083201530178,0.0025803530358753076,0.000800625847504998,-0.0006847933220619
1691524937.534286,-0.04560639320979455,0.2472813398582126,9.937717663206806,-0.0019138231526760272,-0.0013269168881599562,0.0004383715165836
1691524937.5441537,0.1707980422355524,-0.11929641877761785,9.690431851354726,0.0005526931605678409,0.001752784178121001,9.19294723366786e-05
1691524937.554145,-0.017849005211481073,0.04265616161500797,9.853725211070044,-0.0003823833053316289,0.0006858692655379787,-0.0003476535023132
1691524937.564407,-0.009166100041383905,0.06538541650153269,9.861024233494364,-8.433968103746266e-05,-0.0013865139715806985,0.0026772846647595
1691524937.574107,-0.0729507538395771,-0.17797539326658773,9.807193806511295,0.0014564342653942829,-0.0020630407037842626,-0.0011988852458948
1691524937.584182,0.08364595227364935,0.12740966382497926,9.820700905311986,-0.001204538199863987,-0.0009584771016084475,-0.0011243768787885
1691524937.5941205,0.05694001146166145,-0.15072430127555872,9.739638137631038,0.0017444013815834296,-0.0001631114157049726,-0.0017468738189841
1691524937.6041677,-0.06167308440705199,-0.023207289259203415,9.853911429737307,0.002352377903728606,-0.0022056817291141706,-0.001524102157628
1691524937.6141536,0.23021859751107918,0.21905933756945187,9.788195476123988,-0.0009948073698304838,0.001153383423801878,0.000784823427029
1691524937.6241632,-0.00013700282449242025,-0.12805301499630536,9.782844138656962,0.0010835406686411327,0.000815146782452729,-0.0005082010577375
1691524937.6342049,0.03594363625441896,-0.0458177063387547,9.791086994354707,0.0008086168170269393,0.0016883149833319766,-0.0027735840815062
1691524937.6441555,0.046827944855580575,0.08409804114689692,9.825653826702567,0.0006957603363287779,0.0011086699907934304,-0.000210204027308
1691524937.65414,0.04707875338072688,-0.10360238112666788,9.75666639704153,0.0029875338837985375,0.0012897526547421623,-0.0004489660316089
1691524937.6641345,0.020910326519009648,0.2235176788294503,9.873651072324357,-0.00047660289140846073,0.0006236464229850276,0.0015712492347752
1691524937.674117,-0.04506832362755132,-0.04560649810468238,9.82860856724783,-0.0004583670366736004,-0.00037658337997061595,-0.0004851188098023
1691524937.6841316,-0.015780666484552872,-0.09035039831235855,9.812508238304785,0.0010004656607999517,-0.0009886666491547146,-0.0017792882683629
1691524937.6944656,0.1408992358744594,-0.03548514408581869,9.734602155458315,0.002815441670267142,0.0009764278099623178,-0.0002328917437175
1691524937.7041745,0.09671526563034542,0.1385509633714645,9.821704636007274,-0.0010909055256846027,0.0028368493052582195,-0.0023440357583517
1691524937.7242377,-0.00433896237089944,0.007003753974479819,9.840371555596798,0.0016415987336797706,-0.0004253990174529533,0.001835356891906
1691524937.7342403,-0.11543509952210507,0.035498257543910776,9.901015965867758,0.000567596322344306,-0.003256606778187358,0.0008883921725732
1691524937.7443657,0.17006479129016297,-0.06636160529712899,9.710279938113905,0.0011990297272992559,0.0005756134838584729,-0.0010740728869045
1691524937.7542117,-0.012973557687668209,0.04133145158519157,9.84317046869344,0.000985192971441511,-0.0005322940062783606,2.30155599360753e-05
1691524937.7641551,-0.01001640844612218,0.06400751834943337,9.859439206185892,0.0006741319611997421,-0.0019479156807138667,0.0017686889803094
1691524937.7741735,0.14590281575063632,0.007493051805535936,9.749665261324669,-0.0007787392028771169,0.0013377930846826095,-0.0009552414814884
1691524937.7841444,0.026177978258323662,0.0218838759080433,9.825093609873182,-0.00013759652895920307,0.0005148597654582678,0.0007520544638914
1691524937.794211,-0.023118576192652014,0.014759716301724011,9.84641399871753,1.960266515464284e-05,-0.0007703529795951801,0.0016029121941478
1691524937.8041914,-0.026430419350283674,-0.06229275745627436,9.809496773825979,0.0014996549603985623,-0.001753448552591877,0.0017243760119249
1691524937.8142233,0.13174430192381162,0.1869058983770566,9.819406743254165,-0.0019455044569673006,3.7593417307993998e-06,0.002502922801586
1691524937.8241725,-0.1284244393232699,-0.28197504435426923,9.804458942020844,0.002092371402793179,-0.002256724542296947,-0.0008691812219972
1691524937.8342438,0.12274768448127292,0.2526270298365223,9.851196911275629,-0.0025624082217538574,-0.0006109130990512546,-8.874920261451712e-05
1691524937.8442166,0.11505752323108616,-0.18352868400704378,9.696539096679262,0.0006566351988220912,0.0016514442177978758,-0.001605692767253
1691524937.8541763,-0.035081515484487485,0.05236431925079961,9.86110727282354,-0.0003559149316303317,0.00037443646380558846,-0.0020214246871823
1691524937.86416,0.16188730752238,0.11942603120579968,9.786028125446276,-0.00197828579640281,0.0024851660421616522,-0.0004974322912226
1691524937.874166,-0.10022557238443162,-0.07990267009221376,9.855264814759026,0.0005146894124512168,-0.0008921661556687696,0.0009111181023122
1691524937.8841667,0.12637894766650798,0.014928886966702887,9.76466565230838,0.0006368705796080462,0.0008523924465615708,0.0014952270028238
1691524937.8941472,-0.05796808294686594,-0.04941149359276183,9.847540186817104,0.00016413490218505737,-0.00013258103432186563,-0.0013151170971746
1691524937.9042425,0.1005352095088689,0.17621824480455925,9.83134060083848,-0.0020654402345362454,0.0005953386153278708,0.0010113237692798
1691524937.9142709,0.022608122193101005,-0.17551545506738161,9.751721499180407,0.0012992491642645535,0.0007331811894011026,-2.837586746910325e-05
1691524937.9373102,0.0058948987251888785,0.061570349908592635,9.844060351304002,-0.0006293463869252955,-0.0005878111696476185,0.0010012743184865
1691524937.9405968,0.11428469480194217,-0.13229531092183142,9.727751430116957,-0.000996677237240837,0.0008233098927097547,-0.0016429477657134
1691524937.9514637,-0.07248460531067405,-0.037061615514513355,9.846448969434359,0.0005258654261165297,-0.001954998956955356,-0.0002653304074833
1691524937.9542377,0.6217472077647094,-0.04500942049280179,9.463501530992442,0.0008857316825412606,0.0015281495912093327,-0.0001215414197126
1691524937.9641557,-0.019797283906952828,0.09685522743164075,9.864844441893075,-0.000485553408404977,0.0001456979403670443,0.000807561202027
1691524937.974212,-0.11218413551912786,0.03499088443137461,9.893015505915928,-0.0022665942391743173,-0.0020920707401190044,-0.0011962852260971
1691524937.9841466,0.19958399986887182,0.009968073264802743,9.718139395902575,-0.0014071821207095815,0.0010058645589991286,0.0002845236629304
1691524937.9941442,-0.05123515626974594,-0.08967467525165729,9.814943040895454,-0.00010669796825715293,2.7216669827657534e-05,-0.0012100753194595
1691524938.0042903,0.05380588775564655,0.0753484693272416,9.839580297430508,-0.0006397935749391044,-0.0003832978822580498,0.0002692467130777
1691524938.0141578,0.06283152590650867,-0.05478143193739178,9.776183121702967,0.0007404379365187199,0.00011440852230735376,0.0006626344582123
1691524938.024222,-8.190486393296929e-05,0.0845263310487706,9.844437990900014,-0.0021138700315832338,0.0002351119953475875,-0.0011735467526073
1691524938.034641,-0.021993489418470916,-0.05964989036805116,9.815172725565228,-0.0008677697457003728,-0.0008307099265963649,-0.0013266650314385
1691524938.0465026,0.07697289745974752,-0.16189265760276464,9.720762295816238,0.003820140466919598,5.74260394353153e-05,-0.0007343273430074
1691524938.054666,-0.1144770666167754,0.35091836027216416,10.017846051385462,-0.001480205330967301,-0.00296007142104308,0.0001921332621072
1691524938.064546,0.2495216412820078,-0.011478023419221672,9.685074393637676,-0.0006479823648625697,0.0014886651276087516,0.0006786739284229
1691524938.0741773,-0.04901092723160747,0.011117015915229962,9.850520425825934,-0.0017186248378514046,0.0004824583501463703,-0.0008948999277258
1691524938.0841565,-0.03061620301228039,-0.12349383136099824,9.793708094330485,0.0010686375236934767,-0.0007185654011092043,-0.0008155547368282
1691524938.0942502,-0.024324212555019483,0.12986757378895147,9.88398859792256,-0.0019797484831870194,-0.0015779880377271242,-0.0013594464219118
1691524938.1042886,0.16861409997470433,-0.21040959029111983,9.663719561016663,0.0035101784055459368,0.0006643003850848285,0.0004011319431533
1691524938.1143844,0.021241173121879668,0.27398509649327374,9.907751027242382,-0.0018087853120948819,0.000112913387824955,0.001031819967256
1691524938.1242745,0.121052302718624,0.00939219805073805,9.768954571519432,-0.0015435645167724845,0.0018772137888610622,0.0013920410163059
1691524938.1342964,-0.09735291225811774,0.03525362248189287,9.889510675695595,-0.002664483081702816,-0.00028756515692772265,0.0002420636772235
1691524938.1441617,0.08095104313556097,-0.06453593829840458,9.75873839825769,-0.0014358797013729646,0.0006698507485056384,-0.0001431210950891
1691524938.154203,-0.08254509049144441,-0.06860834543055432,9.848791982368356,0.0001920709778532071,-0.0018901689867183685,-4.145303340056649e-05
1691524938.164164,0.11023208308169632,0.06110399188413019,9.783668502214617,-0.0008003385665502703,-0.00014301673478095493,0.0003687128371616
1691524938.174169,-0.03553756596067944,-0.13944647157666853,9.797457628156751,0.0025866971940245133,-0.0019151371167668704,0.0011092928941884
1691524938.184174,0.05389297131170466,-0.00461073950325423,9.803965812086636,0.0028843488711454346,-0.0016711123136932586,0.0013551687477679
1691524938.1941698,0.22033114353935884,0.17369385469047405,9.773876266633923,-0.0013766587529081848,0.00249822291848398,0.0001277185690646
1691524938.204258,-0.023504066495493026,0.04953197521180988,9.86671546403774,-0.0014187379216746942,0.0005923573052040172,0.0019251457013247
1691524938.2141953,-0.018584458802502406,-0.18076194897787565,9.78369908425967,0.00044094072442779235,0.000792754918408997,-0.0019797296083475
1691524938.2247803,0.007827586728736699,0.0543153341684025,9.846454500880272,-0.0008327424721816751,0.0001829394446755194,-0.002262833743071
1691524938.234351,0.11333823806570803,0.08690858125813007,9.778802146388736,-0.0016254826097234583,0.0015288942719638204,-0.0007436636189872
1691524938.244377,-0.021680311278454774,-0.12661817078497056,9.79729355187198,0.00144712858289912,0.00018332244733018267,-7.608286635378114e-05
1691524938.2542102,0.043734571107639,0.1183269475222482,9.845039696672572,-0.0003443561631683771,6.44864044633216e-05,0.0009334599196968
1691524938.2641864,-0.05204237761938085,0.028398217464644552,9.855367944092457,-0.0025340968274356708,-0.00043654394300031364,-0.0022605799424404
1691524938.2741685,0.039479750570372917,-0.08997301413795664,9.776639368236241,0.00043200247578509276,-0.0009633434595508312,-0.0005000270723308
1691524938.2841678,0.10047261075162021,-0.06960508973387414,9.737293464798341,0.0021918227348753077,0.0006195526577653194,-0.0001282255218307
1691524938.294166,0.048115072369965206,0.13033187579348937,9.848968946784995,-0.0005436978186596905,0.0011407323708547338,-0.0003513700614626
1691524938.3060205,0.021827552822719896,-0.043103995355215086,9.796139907413444,0.0012340406427555385,0.0005986994335733621,0.0004488174052034
1691524938.3141737,-0.13184038536413614,0.041742522453946884,9.698574382345953,0.0005441376957100235,-0.0006213528978560521,0.0022160798723866
1691524938.3242197,-0.6659402389915036,0.06199560855965469,10.088615230167118,-0.0004531087160856321,-0.01915901986452412,0.0097782763366644
1691524938.334177,0.4431618784582834,0.026347413132315232,9.811408079095184,0.0012300437785861488,-0.02726800566507559,0.0259718729828541
1691524938.344211,1.4326799148287195,0.35344787652635623,9.803406235206532,-2.910734131972919e-05,-0.03162169058559367,0.0482230896775668
1691524938.3541927,1.877376212321452,0.2288172152072717,9.90380169670556,0.0010491741035976796,-0.029256329550421515,0.0548985155944769
1691524938.3642669,1.661674060808093,-0.13942397337304616,9.873905559705298,0.0034271917944569898,-0.0233084483811417,0.0491940307145064
1691524938.3741806,3.143619466485046,-0.897196680947728,9.665909346430318,0.022243423900078163,-0.012737961734463316,0.0489551352982466
1691524938.384191,3.866459047496975,1.9361985254964122,9.28512423365652,0.0004158009935598217,0.0193783822846765,0.0628028887038176
1691524938.3942642,-1.1365487445605356,0.499331657603636,10.36361103991403,-0.0027799926822694556,-0.007749404818997491,0.0647534991328661
1691524938.4043567,2.118033783939226,0.6990162434779491,10.497264779105574,-0.009780452883646486,-0.005764531913642642,0.0436727071826403
1691524938.4142158,3.809490489436206,-0.2629841531109764,9.671206504345525,-0.0008556320841462407,0.03489937625631691,0.036189705384249
1691524938.4242277,3.472997566780606,1.754224020355255,9.266026299090047,-0.015034329418000083,0.0749484296134948,0.0282744525645916
1691524938.434257,-0.663227220025924,-0.6987931514455941,9.472706858067045,-0.0075078986365247034,0.06704623714455937,0.0221681914006417
1691524938.4443138,-1.9538403556008286,1.0990582245437353,9.603307482993047,-0.021206716558057833,0.03677240194025036,0.0139615314726774
1691524938.4541953,-3.8332013500509743,-1.2075164770602642,9.82000577218008,-0.011492868406742294,-0.007460682551005968,0.0012180530282143
1691524938.4642222,-1.968441821412003,-1.061190508635796,10.052587537877685,-0.011892197413222807,-0.04562631578048942,-0.0050750362972671
1691524938.474249,-0.47917273594574206,-0.9388587589175318,10.386865137253668,-0.0015796779353262102,-0.06834237477320487,0.0102280799944942
1691524938.484259,2.364406823663729,-1.3383999409065914,10.232985236955969,0.005851708099650835,-0.06193582804074557,0.0327917675201838
1691524938.4942129,2.618315771831242,-0.09690883199222432,10.005091370877798,0.006310893261520444,-0.0522186939260374,0.0402111339096968
1691524938.5042462,4.530397369374677,-0.8448908172844175,9.387067826125913,0.01913555970758129,-0.022646890135470405,0.0490415583078806
1691524938.5142736,3.767544765668341,0.7065808581040212,9.443354818062613,0.011063844126755555,0.005644751134905424,0.0320757276092713
1691524938.5242195,3.9252496590846833,0.7080905214787591,9.047590953537071,0.00825925237564151,0.04055277806586708,0.0156993644957487
1691524938.5342236,2.4974388771364393,0.9385248095385511,9.45375577000508,-0.008876986537028599,0.05860179389175236,-0.0043611961702758
1691524938.5442803,0.5362767401447274,0.1773056909412452,9.71695421604283,-0.012163443671048792,0.058067470508623265,-0.0190386415745074
1691524938.5545003,-1.3890864532645142,-1.4809263962892798,10.232837302138295,0.006475309390218908,0.027635461469857604,-0.0233703681553656
1691524938.5642004,-1.2810553558830575,-0.8366708211652548,10.226244880997472,0.017933192909307,-0.0003537821329862792,-0.0151165013487393
1691524938.5741944,1.0938189860692729,0.7949029275741777,10.117799658070986,0.010656223943977916,-0.0028351204533433884,0.012297574681515
1691524938.5844586,2.767945322960943,1.3876788344736866,9.693482103692604,-0.004511261079334409,0.02034076629391836,0.0525418112699931
1691524938.5942302,1.6195989751811473,-0.3683864996107039,9.445449442654887,-0.001139392861028398,0.03301624870803368,0.0761424342815821
1691524938.6044383,0.5100571215012906,-0.991494299090705,9.343756286638722,0.015027003356575235,0.034487147975564555,0.0845269526069109
1691524938.6142092,-1.202899534731453,-0.7237210686306955,9.85554220058634,0.02537790621567549,0.017178878806806793,0.0705798606102412
1691524938.6242216,-0.15048288634182738,0.7904141865972635,10.00998937044378,0.017835255552642815,0.010679211628828397,0.0658241699163859
1691524938.6343343,-0.6711960484635934,1.6925474237202647,10.13373978689755,-0.002873442350430959,-0.0005310151786550624,0.0597916844015066
1691524938.6442063,-0.23925856783631783,0.05955984951841194,9.77957973972193,-0.003491863224028592,-0.0011077192901180113,0.0452361370150988
1691524938.6544642,-0.09533641720705728,0.11711004722772991,9.789896784582542,-0.007930763467016965,-0.00010976427344077603,0.0265698863838856
1691524938.6642678,-0.12814966043172954,0.11439776774673797,9.41937891370641,-0.012729917704521124,0.0060758954703446005,0.0157388637487833
1691524938.6742504,-1.2074472986758809,-1.6095203193843097,9.849475138137688,0.004454245425485573,-0.0048613124088884175,0.0043756591801588
1691524938.684209,-0.9833134252403138,-1.5295178325568612,9.930610369670328,0.021401056259558234,-0.015065993803503687,-0.0079713293637091
1691524938.694229,0.24582737503473984,-0.4299650343429107,9.969651346475642,0.026509667410887127,-0.010663363254736977,-0.0170832050318772
1691524938.7042997,0.6636517886479075,1.380847117674873,10.48923870210316,0.009835544258190984,-0.003150031431738335,-0.0154353787477071
1691524938.7142994,1.3928833287245441,1.1928593678881765,9.86506766945731,-0.004857681501713856,0.017566791283836296,-0.0091522100667412
1691524938.7242477,0.23992093265220002,0.7713151797890316,9.921191073893343,-0.011538633449216091,0.021964458263583585,0.0056999351543431
1691524938.7342408,-0.5222612344645023,-0.3205192493952039,9.392651219195736,-0.0032911757714079275,0.013365659842562123,0.0191281552140658
1691524938.7442064,-1.1791265503381094,0.20810979435720955,9.388108708555404,0.003428968613770325,0.0006116369047910687,0.028591765341634
1691524938.7543075,-0.9449818362500345,1.0814467030326218,9.572635649749891,-0.00848253157467671,-0.011167212215580626,0.0304708576475327
1691524938.7642102,-1.276847564079861,0.3576279082943815,10.123089779394169,-0.01909201035089856,-0.02727911625307685,0.0314985274051373
1691524938.774245,0.5389023918749938,-1.233457022304469,9.51647484443153,-0.004171904962206148,-0.02137383961235228,0.0280109516059105
1691524938.7842112,0.13775438002610582,-1.2858770686370504,9.854947585238293,0.011042178848611663,-0.019303646108326477,0.0192040617291872
1691524938.794242,1.6135962267547876,0.29936214150576834,9.605663638898772,0.006200187236953366,0.0024229255707318995,0.0165914215792959
1691524938.8042836,-0.029722779110174742,-0.029335676147328585,10.293035057383696,-0.001160522958603744,0.005027990833940425,0.0093146984179561
1691524938.8142755,0.6606174726314968,-0.4851977242180953,9.973388007369975,0.005126186476224583,0.01278901748513304,0.0118220627953355
1691524938.8243284,-0.2880298951638495,-0.5339653577791544,10.19840608254919,0.010979433233197881,0.004769724923285357,0.0148048664157336
1691524938.83955,1.1374507806621774,0.18165170623205248,9.55047302308565,0.016847243900371126,0.02100944924927043,0.022951005277509
1691524938.8443713,1.2394175544652473,2.7141274630454615,9.843345111414695,-0.001145517924092829,0.027703094381773465,0.0273276253317539
1691524938.8544888,1.2745728621812749,1.2238303187971407,9.244655316429652,-0.018965663870650733,0.05221486493722437,0.0309591277216618
1691524938.864361,-1.556613257676623,-1.1065747382815359,9.643066050308386,-0.009369558383514484,0.04140191493506247,0.0370191412692015
1691524938.8744771,-1.2032398502143058,-1.191124127846003,9.696815475220793,0.011073690761197756,0.031004497695501038,0.0443383867566531
1691524938.8842282,-2.3161229507205294,0.6742640067204496,10.02592706675307,0.011236410465573148,0.007506490099536854,0.0533341022853796
1691524938.894272,-1.858427078463507,1.019955267758504,10.130473747566404,-0.002507526587911648,-0.005070169026893612,0.0604893530433123
1691524938.904258,-2.5398709274173137,-0.2115515054477641,10.392166885575614,-0.0012630113538718293,-0.03680895757217393,0.0542420635645335
1691524938.9143429,0.28164541092625356,-0.3494297715053845,9.754793447019841,0.005758870494825245,-0.02802569347975011,0.0539274367217963
1691524938.9257617,0.17197279494133688,-0.5023779596906277,9.50654041461126,0.016993459630902496,-0.017577692144914156,0.0443582574551051
1691524938.9343293,1.4109555746924298,0.81899274762794,9.418725652734919,0.0075293255357108116,0.006149756544104145,0.0371282214944308
1691524938.9442923,0.09129210344350308,0.9338603328691605,9.916567923916434,0.000938504940463586,0.014126385589896569,0.0342019687120859
1691524938.954358,0.2570099425065167,1.6739503822218351,10.122278417100418,-0.020631183266894795,0.025483257669948783,0.0354202802007143
1691524938.9642208,-1.6417301948132748,0.15311434850341668,10.622505995054652,-0.02157471574341624,0.009437865469188537,0.0366871657495444
1691524938.974228,-1.6079567252173472,-0.03111249675393705,9.93943489612866,-0.02052593492108223,-0.005244189992772669,0.0481913986329977
1691524938.984233,-1.1576897228226517,-0.4308411945499971,9.920854748240991,-0.016684690483383526,-0.021672588944025777,0.0597596022014563
1691524938.9942577,-0.07449232296490657,-0.07140209314666152,9.190541764776757,-0.009110433002568584,-0.0237934362166201,0.0756594578449671
1691524939.004324,0.4165133475670258,-0.2368505942980235,9.450655641849922,-0.007194885301507804,-0.016838142782935585,0.0898783172194903
1691524939.0144603,0.5074229370409817,-0.30583788543546264,9.43763582750403,-0.001009718213126367,-0.010327905901972106,0.0998738224332278
1691524939.0243878,0.31003747455066993,-0.32683965290775396,9.71521390890612,0.004563512296363649,-9.140315615095423e-05,0.1085578168456499
1691524939.0342407,-0.3774208084978522,-0.21866264828810716,10.015293214882009,0.006687224074678069,-0.003832181767178642,0.1163284594838564
1691524939.044238,-0.7553038894633562,0.10387577022498987,10.064771655454122,0.008697545077550353,-0.011111393443000977,0.1230491439526026
1691524939.0545633,-0.326097227734032,0.31907738481798253,9.999671306063295,0.005677354924335609,-0.016381539840276994,0.1263642946903651
1691524939.0643368,-0.32014569495699324,0.32200113136329966,9.838653821276067,0.003291127577281513,-0.019152742127929785,0.125883039337868
1691524939.074974,0.5023341502040165,0.6057901082688566,9.655014801165821,-0.0017721301055790965,-0.012185253848888461,0.1309913138573115
1691524939.0846813,0.6323138385862065,1.262845702153695,9.946212706017999,-0.02058776628783723,-0.002111977657214425,0.1382454524462168
1691524939.0945444,0.45275056788336493,-0.4903817215887022,9.988477083035471,-0.015347854549327081,0.0030164626664852382,0.1505391935532038
1691524939.1044502,0.4215402406525137,-1.1499211404834462,10.005664089617722,-0.002319159940340633,0.00825859675913373,0.1556717197124903
1691524939.1142542,0.5585121115656042,-0.46871588309348194,9.570968689260967,0.006025721148660649,0.020861284364669185,0.1584449897234385
1691524939.1333232,-0.2458559796110137,0.03260010010680145,9.783825144741304,0.007027994982161766,0.02144595084754186,0.1580248067800944
1691524939.134429,-1.8892032958727376,-0.13061872204617545,9.905151982882924,0.005541325000927289,0.019774411008248984,0.1536368171398585
1691524939.1442974,-1.6329740031931415,0.6221133650871241,9.789168129882283,-0.004221290814898567,0.004476831134532941,0.1492503623192256
1691524939.1542692,-1.4343071397171796,-0.09038431027800048,9.898119625862682,-0.005027004996929503,-0.010609335235898505,0.1441458950464671
1691524939.1642382,-1.036543781325319,-0.4726950620438381,9.882475169271972,0.00024601324022675294,-0.02297036996429165,0.1437425951187556
1691524939.174295,0.17096946129783813,-0.50110744698041,9.728615095157352,0.004324804153170243,-0.01679144177754596,0.1420827100698893
1691524939.1842558,-0.04067571909461901,-0.611621321762746,9.765661331360363,0.012527153191274018,-0.014761879063299326,0.1404047946159785
1691524939.194328,0.4854691808612765,0.21767781567599345,9.663538445441352,0.012023308117216913,-0.004398232918834384,0.147637654346699
1691524939.2042923,-0.2638982485883668,0.22668753406472356,9.85659354290727,0.009245892791449408,-0.006153810583297025,0.1498586575214808
1691524939.214288,-0.31057135784640705,0.08962025862661033,9.888918196199615,0.007083924249053336,-0.007892454006056603,0.1485397557442133
1691524939.2242858,0.3046489781457215,0.6398614086795449,9.929712619001245,0.004399585158982958,-0.007137595311463057,0.1562593917076533
1691524939.234314,0.538353357973625,1.1779662465512017,10.283457933884595,-0.013713938098343807,0.0025144617827678887,0.1561975965921824
1691524939.2442849,0.6294711239203795,0.19263679463448954,9.974157057597191,-0.017833032158104837,0.013594119385477943,0.1578950027649348
1691524939.2542655,-0.03546871216249623,-0.340275200621352,9.787315248191572,-0.01231398882602907,0.01722519031716238,0.1628207455103343
1691524939.2643454,-0.5829059953496233,-0.2892474966076147,9.722963642594241,-0.007048949903414715,0.011084608055086008,0.164848033589596
1691524939.2742958,-0.8069811300579501,-0.204935625120909,9.461168549866033,-0.004611991200385221,0.00468549804289182,0.1630647818272059
1691524939.2842636,-0.8023423842832912,-0.16616720065078838,9.626722117297076,-0.0007447975835813803,-0.003687164295863648,0.1617624352400248
1691524939.2942495,-0.6394945249174537,-0.036026490876765065,9.729032366759304,-0.0022359921052562503,-0.010134863681410512,0.1611018816654627
1691524939.305605,-0.03357299826228205,-0.26497583120953716,9.803123485107598,-0.0010007426371306677,-0.006746319118604601,0.1584387461368983
1691524939.314254,-0.40087873807202534,-0.6568372764376734,9.932945005888353,0.0067377423066400524,-0.012268914325797681,0.1545994619553034
1691524939.324303,0.41776261293989747,0.10261824325528539,9.770607955704264,0.006517556696850587,-0.0038463113121858135,0.159116719168896
1691524939.3342664,-0.0990316313594915,0.03596958876156374,9.873785773938794,0.009044984692037263,-0.006705138248115248,0.1608501712505763
1691524939.3442922,0.11108091417283969,0.308333932592937,9.717999025492103,0.005248320402325482,-0.0020584972544189957,0.1616022328560298
1691524939.3542984,-0.07940485432880152,0.24845894050220882,9.790964208776481,0.0035980097834010117,-0.004854257118516153,0.1646920184318965
1691524939.364319,-0.010497310510748032,0.1659185855492157,9.757771858289031,0.0009731207513408639,-0.0025687344573534507,0.1656668971006815
1691524939.374297,0.1695778802457938,0.27687790927083555,9.934191145768805,-3.679173201220328e-05,-0.0045571550718802095,0.171742085618252
1691524939.384412,0.007123899930734656,0.3156021842328647,9.943157451707364,-0.0030790425406465646,-0.0030673641407125583,0.171441901726002
1691524939.3943136,0.04895184400215435,0.14045895509062906,9.981709558421288,-0.003429669144187977,-0.004927900774737786,0.173894990486378
1691524939.4044223,0.23314618581463842,0.4183673290627789,9.977597428522802,-0.009971530296945435,-0.002321446890364493,0.1762973705952113
1691524939.4142685,0.5458089217405191,0.04002708341763572,9.929911363006203,-0.009120837891617098,0.0004810400940329576,0.1796541700785105
1691524939.4242942,0.6495396727723864,-0.1787649595222187,9.558134761481886,-0.0034210994549020647,0.009853495851266398,0.1801210830633585
1691524939.434303,0.40850811978492,-0.01925543329392504,9.443715759943798,-0.004324790962265671,0.018405666605835844,0.1745993832771723
1691524939.444347,-0.4005556942810938,-0.48494437930241796,9.482721851547478,0.0020195591357909004,0.016108110649554024,0.1679723749582713
1691524939.454276,-0.8074123471917993,0.25759498932975455,9.733957214156703,-0.0005837913622783033,0.007717733916235072,0.1685003081982081
1691524939.4642978,-1.154881879705769,0.010405783271517793,10.0045672100858,-0.003907514589195985,-0.004440157933036764,0.1621446798269694
1691524939.4742603,-0.810452938524366,-0.4278750753171573,10.062783536631818,0.0007511942971130638,-0.015259437732386204,0.1612607727472727
1691524939.4845047,-0.05178904576131726,-0.4367342353277428,9.864265515446505,0.004700919997211701,-0.01532173738828932,0.1612197945539897
1691524939.4943662,0.5628802054423568,-0.5653147038597456,9.542498368334904,0.013825811487058444,-0.005541014253004462,0.162251193327183
1691524939.5043626,0.22614052932088313,0.275889896687643,9.73358197550238,0.011398238750770968,-0.002951668964356381,0.1667607615415995
1691524939.5143034,0.08807454537993463,0.19276606818188907,9.670222810435822,0.009269607227073366,0.0008018782989449493,0.1679396669094508
1691524939.5243154,-0.30348294432989764,0.04881857731651342,9.840131703355741,0.009409411127449871,-0.0045661598763856465,0.1694003532354777
1691524939.5343628,-0.19353051521277226,0.6256591763408559,10.060379256161623,0.003457397016460752,-0.006851662689123189,0.1747971365873759
1691524939.5442915,0.027364391693684955,0.7286028207862038,10.401470358800381,-0.006913960055350044,-0.009182223439273263,0.1695619712297862
1691524939.554298,0.585372598070876,0.7020999066721197,10.168571400224728,-0.015591678050514902,-0.0013738197220450731,0.1689737776939814
1691524939.5642686,0.665586456095438,-0.17083817322097333,9.828359749466129,-0.01451269638820015,0.006439355206809962,0.1662490556662028
1691524939.5743055,0.41034997124506173,-0.2295169908443861,9.54179406289186,-0.011150108877330202,0.011055530594738513,0.1701561550323908
1691524939.584342,0.10132602517057591,-0.664436631833744,9.281892946159356,-0.0013072257301552754,0.011661798349693204,0.1705465505545084
1691524939.5942693,-0.16846641205781454,-0.3241662245707964,9.387975878497512,0.0016369555869750914,0.010819870065790632,0.1706188360874598
1691524939.6044974,-0.38773671817737765,-0.1261131548498679,9.594194526746627,0.0045847806328105055,0.005804011522807727,0.1717775801842158
1691524939.614316,-0.7435278369785873,0.15105983573104353,10.114186564962203,0.00048760355484259063,-0.003930434123599223,0.1722755471889918
1691524939.624262,-0.22661120212580257,-0.17438155219135232,10.056787658031201,0.0021094781251457403,-0.008119018873052664,0.1729401687805598
1691524939.634292,-0.03798110282970591,-0.515452598887876,9.981958786703782,0.008334983635359105,-0.009221699457334266,0.1691303143923228
1691524939.6442883,0.43479545235788447,0.044253049269806846,9.751353066020066,0.007808699389070998,-0.003463541059943096,0.1701253543322032
1691524939.6543312,-0.29179643761312324,-0.03051635653059172,9.521960627461777,0.00984977204870282,-0.003842747611585854,0.1707131008331721
1691524939.664318,-0.5781023270257486,-0.3425596390748041,9.877148732449013,0.01669608805409046,-0.018876519121870012,0.1673255304520075
1691524939.6742873,0.3107647897489769,1.1036541623641287,9.67248528448371,0.006265347573148782,-0.019469780654357075,0.1628870854799693
1691524939.6843348,0.7135253107822311,1.3623516364790267,10.210960954238663,-0.011392303659501706,-0.017840579249062728,0.1652793626015131
1691524939.6943626,1.080769781659801,-0.15847410844861676,10.070964375411169,-0.013002708162782421,-0.010586538065742241,0.1635427663748209
1691524939.7043436,1.6951970767239768,0.2954346148847574,10.121172962569934,-0.011703472838569668,0.0029934928839731685,0.1646064857666438
1691524939.7143407,1.7537284464574094,-0.386992054919913,9.841517588092437,-0.008835155447784973,0.02252586854813049,0.1617294142668192
1691524939.7244816,1.0434896995906746,-0.6549697113140898,9.635166444313453,0.0006196523696675733,0.03166278835515679,0.1596655438368266
1691524939.7343204,0.4406084765892187,-0.8033395086614491,9.29014170120349,0.01048153295547197,0.03612946366944607,0.1522913018886988
1691524939.7443216,-0.5342270935925918,-0.40227028143322907,9.10979539694741,0.01843526547629045,0.02971923247248184,0.1468247960035746
1691524939.7550738,-1.2747641201090119,0.42039898997514163,9.626654360445512,0.010980081147212524,0.011195097715572479,0.1412162969534342
1691524939.76432,-1.7268058084741067,0.37716968720688715,9.992499621383356,0.006177755668797905,-0.012593934351798453,0.1347744057600443
1691524939.774299,-0.6235812597402877,-0.32847945374068327,10.151850323547864,0.00812450087109513,-0.02706934930336442,0.1283658186619227
1691524939.784317,0.6196106652737778,-0.2725896113786364,9.900427801887975,0.013744195178067216,-0.025600716921923495,0.1247151384775584
1691524939.7943065,1.3649006229444187,-0.22901751002791815,9.75902229868007,0.016337846847366982,-0.010956337762422535,0.1154800618712847
1691524939.8043673,1.2231914804800443,0.3976803729249031,9.747345435032507,0.016523132099263003,0.0007925191284980832,0.1139053071563189
1691524939.814306,0.8348187735568446,1.2363564391451802,10.07292024011366,0.0041457089097329215,0.008847879402333902,0.1164441520993655
1691524939.8243074,0.4033162009083228,2.0165547108466524,10.403934225508747,-0.018618304675313,0.011469000305212225,0.1287612209742014
1691524939.834396,-0.3259097429183787,0.1504678647938538,10.378718052956298,-0.023133199034792565,0.001257508008723981,0.1342174152557795
1691524939.8443377,-0.013105757507659188,-0.42087237535627137,9.937776291042736,-0.013162153055443037,-0.008252652033090864,0.1338129977409785
1691524939.8543649,1.3659261142024266,-0.3554028183371425,9.368766889584135,-0.012431650755321868,0.003023159163624785,0.141355876130337
1691524939.8644364,0.9781564888498708,-0.386965922632959,8.96642794473552,-0.0033500018100851184,0.013533445830182638,0.1443019698088114
1691524939.8743236,-0.04660206768395456,-0.48388236587247396,9.475345179435225,0.0023058917619528086,0.0068719619194512385,0.1411380211536829
1691524939.8852916,-0.13290521924078186,0.15047308142768862,9.410674019466136,0.002841535290169198,0.004552421115371071,0.1422183553402369
1691524939.8943198,-0.8041489352864396,-0.2762110759395366,10.112052177756459,0.005127450289263652,-0.008798585771420925,0.1352438966457789
1691524939.9044125,-0.5641116077154189,-0.20847074662296058,10.154115957875774,0.009666076779271763,-0.02093706848388353,0.1326488147203867
1691524939.9143565,-0.06476350217389508,-0.006872965702933699,10.15232409423366,0.009728846599538868,-0.026054626260203394,0.1256882737104838
1691524939.9243562,0.396464489774644,0.323502046563368,10.210819449111344,0.008890070168816952,-0.0273410438691963,0.1217922012035792
1691524939.9344473,1.045483420904688,0.7741695040043944,10.054018636280576,0.001990188867980677,-0.022994907548451394,0.1149743686144297
1691524939.9394011,2.7080254846229117,1.7310767554305444,9.917694992774297,-0.012210902188301809,-0.006091102898557861,0.1073219964926188
1691524939.9533825,2.2632354899649423,-0.12379136612558624,9.758659227822148,-0.013107494905014156,0.020617146984670792,0.0973840544645731
1691524939.9633503,1.6448162142709397,-0.4493500605922597,9.406165933293043,-0.00262888193483995,0.03531264780597136,0.0896977449481432
1691524939.9734256,0.6765062854933208,-1.3271682802778264,9.141083622005217,0.00882633354038644,0.040635540619938765,0.0739271978561823
1691524939.983358,-0.6231469604865576,0.15632219715661136,9.273022853674034,0.013265246433245175,0.028202133394866335,0.0710633585874979
1691524939.9933171,-1.3566135924471714,0.338724183877856,9.955371500007816,0.003683115603906906,0.005436467798359515,0.0645691792194788
1691524940.0033252,-1.279007409351394,0.26738897784715,9.97304472286801,-0.005185139212803027,-0.016989428939495607,0.0624283182148878
1691524940.0133684,0.004934815197771048,-0.6176893051256039,9.90568088929338,0.0021008373331984297,-0.02488481780376781,0.069312561554188
1691524940.023465,-0.08872634263738259,-1.0756223807886236,9.908865090754835,0.013694877545763467,-0.03282907104492221,0.0685846323792879
1691524940.043461,0.5209603561780708,-0.2662120906576869,9.95506068626534,0.020789317931370354,-0.030147638553764372,0.0714751596276705
1691524940.044346,-0.36197504829067095,5.048219573477267,12.158812196057168,0.011606873346851376,-0.0316227791582088,0.0698237384383623
1691524940.0533788,2.3324289503755726,1.9647618419903208,10.120734235896924,-0.01370273320756451,-0.009474524471081738,0.0642041305725519
1691524940.0633504,2.4374467469508345,1.3010905331586102,10.00228378833681,-0.03398929320550594,0.016825120440771404,0.0538811723415797
1691524940.073334,1.5142000123641863,-2.0662807019550486,9.37860510348275,-0.019551281104123575,0.04018246256651509,0.0321936032448952
1691524940.0833418,-0.2897710268754258,-2.3910430897396497,9.410088523071181,0.01487797815097736,0.03399441833349466,0.0211804083262627
1691524940.0935493,-0.8996126229802667,-0.6744813704464993,9.466975559431415,0.02161180719572764,0.023507175905336953,0.010747868818516
1691524940.1034234,-1.0604025825871057,1.0260781223369153,10.012405395374993,0.00461071769524473,0.003624952857298879,0.0098295335372035
1691524940.11338,0.3029752620924712,0.0733179946030007,9.538061325363556,-0.0005203538229701743,0.005751733549971257,0.0219378399376814
1691524940.1234016,-0.2015001138243397,-0.5903666625307586,9.663847028596026,0.002102733374137726,-0.0008816397427881843,0.0315997454051916
1691524940.133415,0.9236413628580585,-0.9713261819386296,9.279229831815954,0.016630725484180035,0.012192851622769828,0.0476469064776842
1691524940.1434293,-0.09440846365758324,0.09545423531097656,9.81612202876137,0.01720375598133623,0.011206205351193634,0.0503913241152708
1691524940.1533542,-0.693443419050086,0.9734153813863218,10.305053765542281,0.005604902989019485,0.006141131115725486,0.0486286508564894
1691524940.1633325,-1.1732622316141523,0.6911012758181361,10.727024204524724,-0.0033216661387286874,-0.009260265723471167,0.0383345822517817
1691524940.1733775,-0.3871914250779617,0.6061959462101982,10.521742156434941,-0.012873428497115192,-0.011633830446942524,0.0225197097932045
1691524940.1834838,0.16621948555912217,-0.015855153180646956,10.217802490236437,-0.010577058379877513,-0.011155902204313938,0.0143998416786139
1691524940.1933155,1.4809885701856411,-1.4766109830360186,9.400997378066222,0.0014797767299208806,0.00994689815867385,0.0135637729142849
1691524940.2034235,0.8084760071469557,-1.2199389291753597,8.96919135736488,0.02733512050754115,0.023902109117204133,0.0110575857286398
1691524940.2133842,-0.24824176574945853,0.875586126064893,9.142575693459694,0.021500997624323195,0.027322649599959437,0.0157743834604566
1691524940.2233586,-2.0415009353072637,1.9718098251347078,9.792671927435183,-0.002128010599716635,0.005567852680067296,0.02001796129095
1691524940.2333124,-1.985476663840322,0.006072293993310131,10.012438649482013,-0.006648417822734648,-0.018413076724385906,0.0242890662227814
1691524940.2433012,-1.4415739940724657,-0.7856871170541702,10.029943002113527,0.00647242563455101,-0.039782124760322966,0.0277185572956745
1691524940.253358,0.03825141483507493,-0.1816061578742405,9.900943309531403,0.01509070085402162,-0.03874812521687226,0.0336058142309134
1691524940.2633753,0.555606721478064,1.4269143854473745,10.099744923296981,0.005280129493267155,-0.03232987094660339,0.0381892475013678
1691524940.2734344,1.5649169635702247,2.397209523614334,10.557796457663267,-0.0237393752873767,-0.01180018138534141,0.0393880012159293
1691524940.2834582,1.3590879527472248,0.22336957011801814,9.970000041437341,-0.028991750773340954,0.010393083794432448,0.0417407865350191
1691524940.293373,0.39689199492838484,-0.13123928875359675,9.615138370584972,-0.024821904145487003,0.016456398769712045,0.0418808611755316
1691524940.3034616,-0.10083172847264375,-0.4376049686522327,9.28406662123546,-0.020736047314361218,0.020188427784654073,0.0427333566074316
1691524940.3134162,-0.5800211754101773,-1.2163209426257986,9.034655707715494,-0.009548010945881058,0.011562630674703417,0.0426782223110144
1691524940.3234837,-0.8294940208056463,-1.27663254846736,9.088993960656648,0.009006599736541263,0.00436159970049669,0.0524804818158095
1691524940.333381,-0.8815736013491638,0.2403607991444077,10.025064599011493,0.007804853728657533,-0.012502196623192826,0.0643911922995989
1691524940.343368,-0.658560847242814,0.17719131866490945,10.175986280587761,0.0035387785133771557,-0.01833422999961061,0.0665176848595087
1691524940.353619,0.1617224438234678,-0.4349821602744411,10.300276713022564,0.004233083025789766,-0.020718548058685934,0.0688926393811648
1691524940.36351,0.6472218865707763,-0.9039658409178137,9.963315212913225,0.013299701596875975,-0.010386778740099257,0.0589355568115656
1691524940.373402,1.4035803470467694,-0.841978439446114,9.61832328986182,0.027213615009939636,0.00829622605321254,0.0522234777634089
1691524940.383365,0.7469539648823501,1.7038830744561613,9.9840433757979,0.009285425224054962,0.01714117341904595,0.0469386319343989
1691524940.3933797,0.002187990737373803,1.1000399196349953,9.773249829212913,-0.004303704999716974,0.017921371472407036,0.0417553896729891
1691524940.4035275,-0.31239843634071257,1.244491170812346,9.883292242714496,-0.02366377487493438,0.010898699919939392,0.0360151494567339
1691524940.4135284,-0.4147358331307783,-1.156384469156729,9.776799868059179,-0.005777144498569669,-0.0007272463803496367,0.0312111324344818
1691524940.423389,0.5654607502045831,-0.20802536676312727,9.539321061595704,-0.0012321877542911994,0.0014703914941146287,0.0271636157010739
1691524940.4333954,0.6247967012982123,0.020636096209938653,9.489239331875346,-0.0014422431625330156,0.007764436534050702,0.0212921092932169
1691524940.4437113,0.3970808379507307,0.47598730263890693,9.534715642829468,-0.007098177140219656,0.012433387461245565,0.0176444372807686
1691524940.453379,-0.8378880420491229,-0.423406998600543,10.013938528541921,-0.0068495541856321744,0.005812483224557288,0.0169891009752695
1691524940.4633992,-0.8685726296014945,-1.4247547628237969,10.261038843883783,0.008454452255021378,-0.00902992631802218,0.0207293278251831
1691524940.4735985,-0.5152174068183353,-1.2214250353376652,9.902803184050786,0.02396540242366973,-0.014268460087876971,0.0231304636870568
1691524940.483436,0.43102612825831826,-0.445491580137739,9.948271349076748,0.02870099961453337,-0.01172936415991006,0.0301188829069083
1691524940.4933293,0.31382486433207357,1.1021622584428459,9.532014748257147,0.01719031379078351,-0.0016243768699369995,0.0400568323855345
1691524940.5034797,0.11462901583193198,0.3968286188711094,9.85359508355437,0.008699507943082056,0.004116780257765879,0.0432811605458205
1691524940.5133789,-0.4658855965195113,0.46511620020712174,9.950321085107808,0.007554909168525363,-0.0023494589778734125,0.0401048402016108
1691524940.5234077,-0.3171707230634923,1.0615553560092335,9.979337857436182,-0.0038742867075799697,-0.0032701088890314768,0.0357742684607451
1691524940.5334277,-0.012473836776890467,0.3651678670787147,10.133329660558665,-0.009454177493320616,-0.0070044049823831615,0.0172606168960278
1691524940.549301,-0.017763223277024055,0.05157095189165198,9.517580511442194,-0.009748468539798232,-0.0032823887144396748,0.000991248427244
1691524940.553353,-0.4837491343071907,-1.1648589562131049,9.610647299231667,-0.0066615943371784265,-0.005190515075798615,-0.0085999348486716
1691524940.5633423,-0.17809348033166175,-0.1788783050294697,9.43167128712656,-0.000995155977461185,-0.006158609390050628,-0.0077524173359329
1691524940.5734017,-0.24283735098189277,0.21713594587097623,9.801089203835637,-0.002628802721839079,-0.015596635764942786,-0.0038129051501805
1691524940.5835114,0.2574880102552441,0.062161491947888815,9.646896701995123,-0.0067362056849763095,-0.011569455114751685,0.0095867461239044
1691524940.593417,-0.030097041357540297,-0.9827057287544433,9.830146909919815,0.006502972661647053,-0.01560772221127207,0.0185061639820282
1691524940.6036887,0.0978884417714339,-0.6090938778307124,9.955653687621497,0.011544198479216656,-0.015258346453122865,0.0269911347602551
1691524940.6133993,0.4066288553611709,-0.05935834046645321,9.766777009099703,0.015060456501984416,-0.01115308770259361,0.0322996771608536
1691524940.6234472,0.41237884866433594,0.5484471463026594,10.234464010321473,0.0045319154347824315,-0.00803316033600164,0.0325850511615221
1691524940.6333702,0.928762889485725,0.0015170027651077393,10.075041904734645,0.00459134909117514,0.0018280934893683224,0.0329393486206477
1691524940.6434076,1.0080866886278332,-0.10503547590174918,9.914956778859803,0.009424697802694403,0.015108154350225087,0.0248476623271649
1691524940.6533782,0.9554874293155596,0.6490881353036001,9.651494667339847,0.005123533499362135,0.029323852578325246,0.0169377105956023
1691524940.663398,0.029410064479630574,1.1320832674546895,9.474184334113401,-0.00866938437172693,0.03240995263160942,0.0089194167119508
1691524940.6734157,-1.4201138671071665,-0.17678050717342467,9.50375335521504,-0.005674231412067221,0.015387330379666815,0.0029093333466967
1691524940.6834762,-1.719848208297705,-0.21514934774541095,9.72291572082772,-0.0008658687835042635,-0.009176472771366774,-0.0014145544084663
1691524940.6933775,-1.2247007096233777,0.25696316692366733,9.911668856256265,-0.0013307127374116996,-0.02834379061679563,-0.0035017097654695
1691524940.7034802,0.11696028094003824,0.34725025506268276,9.895911156345214,-0.00808108416211173,-0.030953683582688834,-0.0057846486854309
1691524940.713415,0.634050460029017,-0.6218667602122715,9.952336644320559,-0.004099642224687854,-0.023838888225484498,-0.0032897547173256
1691524940.723359,0.9353794825390233,-1.3027127747380716,9.652055500586371,0.010601734168156223,-0.010573494655189945,-0.0032519979688281
1691524940.733386,0.6788909810274557,-1.0011860935027923,9.882319259545499,0.020675240668904065,-0.0001301721063769442,-2.417234302857629e-05
1691524940.743402,-0.09290790946504235,-0.024261769233483353,9.969916589957315,0.01683444551623357,0.0014115644820098686,7.550781062444934e-05
1691524940.7536986,0.0558932471825327,0.47951645199718723,10.359318304576993,0.008948730060298036,0.0005331540974493286,0.0059447738056128
1691524940.7633655,0.4633902260586381,0.6529436401666296,10.129076279403456,-0.0005634485136884356,0.0048995211257753255,0.0090598364074771
1691524940.7733643,0.5970531178031724,0.06879334026972964,9.59951609887049,0.0025822302052474124,0.01366522974636293,0.0117594192449991
1691524940.7833622,0.21506799716261524,0.3473890804705382,9.325224865404643,0.004140308623071233,0.016222978152926122,0.0123906184633319
1691524940.7933664,-0.8234575024537963,1.1892428322598532,9.326998776305715,-0.0031408636072337887,0.007852904877229838,0.0102970667828862
1691524940.8034856,-1.5273510896179283,1.030466299895803,9.800610910112496,-0.016750904302213866,-0.012355605486953889,0.0042822675493603
1691524940.8193994,-0.6939986369453023,0.1784817065351902,9.751740969465244,-0.01662389439359632,-0.027043907912779903,0.0042465401527529
1691524940.8235402,-0.6887765469483154,-1.5261592789772265,10.07831254027024,-0.005713883463781759,-0.03565509424062278,0.0041622985334192
1691524940.8333986,1.214151108365342,-0.2957738423573232,9.658671848128689,-0.0017856317275813404,-0.021659175615863988,0.0015585605467726
1691524940.8434267,1.370006328300621,-0.14218104732838244,9.82459007414964,-0.003868884605715138,-0.004397664142585885,0.0035698290628438
1691524940.853371,0.3646916720269884,-0.7312440340403632,9.77199494996962,0.0017932246531725076,0.0027012396278858477,0.001419253432477
1691524940.8635108,0.059902072808518475,-0.3656375871460762,10.068564459515168,0.0065243805461335565,0.0005223946137736644,0.0081157393467669
1691524940.8735104,-0.05444690946752112,0.2908870032052688,10.180123359874559,-0.0004162355940634092,-0.0006764973097062059,0.0073040935856347
1691524940.8834567,0.6555995274581571,-0.0898669674939847,10.068597825252999,0.0008326927936930122,0.0015538595414607693,0.0137402957950775
1691524940.893577,1.3570557293103458,0.17551891107202694,9.770253892621902,0.0020203607367471964,0.017086440801931287,0.0170021730189268
1691524940.9034772,1.1927609522224623,0.35830086996550814,9.572854270732206,0.0007164054815352184,0.031052872908362606,0.0192467610065882
1691524940.91504,0.28522196245359077,0.23515629688000736,9.296075107272689,0.0002763015374772028,0.03939242581196303,0.0188624395703022
1691524940.923566,-1.9667978512053108,0.31405481560623394,9.746180517133643,-0.0027219380746619456,0.020929774828494396,0.0094503734906261
1691524940.9337676,-2.5802817874897612,0.6938443138840964,9.890598648740353,-0.008524953641219947,-0.012098289964933067,0.0037744655453657
1691524940.9433951,-1.810117341026178,0.008179321185410105,10.112505870981206,-0.013002697476865716,-0.03672442836000011,-0.0042491194146628
1691524940.953395,-0.4833955370212077,-0.952738876807792,9.696234660974662,-0.002702046590827267,-0.044023041933134555,-0.0182167363638932
1691524940.9634197,1.0805050414165438,-0.856297350673111,9.513013145800677,0.007589506436643543,-0.03131609411895974,-0.0238463112438971
1691524940.9734085,1.113439213300308,-0.227881912390244,9.72803485033165,0.007123478526290441,-0.013536631453428248,-0.0205278338218981
1691524940.983457,0.6869191287498406,-0.2691327293542529,10.12163251648707,0.008923106407424069,-0.006420284248857317,-0.008933199318772
1691524940.9933915,0.28407834202894816,0.37384094655739625,10.173228974448014,0.006354094593908699,-0.0010046830654658768,0.0056776188028102
1691524941.003492,0.36036703042403395,0.6679096283529823,10.655523283195356,-0.0044147877750751975,-0.00042654431724008154,0.0126520705123489
1691524941.013439,0.692990580778579,0.32172396289316746,9.998288402203233,-0.008534432757796629,0.010407093948543382,0.0156333849479501
1691524941.0234876,0.48599106821346977,0.05124379622337887,9.407178883491126,-0.0036999367298814275,0.01687081327071316,0.0165464452181999
1691524941.0334728,-0.12107565747777041,0.2053063473771473,9.081067383862408,-0.0035883502833877396,0.01843802456893473,0.0101981919904296
1691524941.043599,-1.042025783817542,0.5627297637836147,9.146622962915528,-0.004449597039276389,0.007000913543288361,0.0078253706631307
1691524941.0534403,-1.6592334521675873,0.4279095657854077,9.778278177940264,-0.009293950403392877,-0.014208983746651258,0.0024754727671911
1691524941.0635102,-1.3935972171962048,0.34193136047788764,9.992760776337112,-0.015913620524130843,-0.0336280977228833,-0.0014245256136114
1691524941.0735257,0.14947570106474656,-0.5047919286954949,10.017838294771115,-0.006992936104189624,-0.03782579076401255,0.0065155893278365
1691524941.0835602,0.9156973541213368,-0.6330518003796254,9.994236278844033,-0.0022687458736867813,-0.030239639904973463,0.002597375558043
1691524941.0934355,1.7737810240768122,-0.5948417049876886,9.674270728060574,0.0008820263484718155,-0.00796650502009623,-0.0001047153311724
1691524941.1036832,1.269568269015429,-0.4804585677921857,9.649137140078068,0.005442449173075145,0.009284619114137565,0.0043160054081176
1691524941.113482,0.5106154367030491,-0.5356267512435854,10.09447192144302,0.010034632998088136,0.011623324777131227,0.007664011576498
1691524941.1234262,0.27138529482971613,0.1994451072985524,9.961960531782859,0.0061493382445691105,0.013895979036479026,0.0130508116160576
1691524941.1333883,0.2551923116910418,0.0016893412605139657,10.16363402083176,0.007553931903258259,0.01040138106695252,0.0165272329648082
1691524941.1434002,0.991863381705238,0.6058183706262096,9.858068594560708,0.0007961144722509254,0.019294746801381473,0.0181399530445282
1691524941.1533952,1.2049809044310695,0.21757344973374818,9.357935869538512,0.0028072063045737634,0.0332326091400631,0.0152766911958401
1691524941.1634257,0.35383230370891583,0.27783447548010654,9.272548032634434,0.0013584722685974816,0.03747098355229158,0.0128909947996084
1691524941.1734235,-1.1090132419581553,0.31217663105951843,9.35494747175942,0.0021159696754891534,0.028908318267012113,0.0046791539241617
1691524941.183494,-2.538238690249431,1.0478167068545297,10.043830623368665,-0.009853302579050947,-0.0012845003223162772,-0.0038681833359355
1691524941.193458,-2.1278346084732433,0.0390519596322813,10.293842797382778,-0.014450268703878959,-0.030487864107938585,-0.0117351298506314
1691524941.2035062,-0.8019589412214218,-0.9698328715724799,10.040016311089058,-0.004879941800723908,-0.04391770022802448,-0.0227530149097497
1691524941.2134373,1.0855830310566041,-0.7680108041718532,9.686440450273173,0.0034622416040789123,-0.03346772098871785,-0.0234427095676715
1691524941.223445,1.4249044349704052,-0.5202862722724215,9.525148479212978,0.007827020585746318,-0.012671209259922574,-0.0195822731877619
1691524941.233466,1.1094908856040149,-0.16501253149216957,9.808378221659074,0.008443346529139339,0.004546309274722978,-0.0124425140495354
1691524941.2434392,0.5316498120897393,0.7862483730324318,10.553269721808958,-0.002137525802304654,0.011927720406438544,-0.0025380379340554
1691524941.2534556,0.7224399958285422,0.5004467919724486,10.385473689094145,-0.009239689765527513,0.024426776943200647,0.0113723979045694
1691524941.2635634,-0.523375217308783,-0.010788400966168727,10.131349244652558,-0.005336459343677402,0.016616835399309755,0.0192569589887802
1691524941.2735665,-0.39696815154665993,0.2999911754433615,9.251451598912556,-0.002274367805065838,0.013632242451867003,0.0228460899268334
1691524941.2834792,-0.8577360641068754,0.6671552418796353,9.102298924009379,-0.007822368284951323,0.0035962709856096208,0.018601894629473
1691524941.2935162,-1.164730371875818,0.7977291915350074,9.153391868644771,-0.015163003973311742,-0.009897249609064025,0.0126767524232213
1691524941.3036609,-1.1200343005301874,0.1989773371422677,9.63539640157298,-0.02116011175742953,-0.02412867540051684,0.0093236791615431
1691524941.3136387,-0.22586468083734795,-0.938349603807022,10.01664742619991,-0.007479580037717686,-0.029597430448739054,0.008758466010267
1691524941.3374906,0.31853934947030305,-0.3400058204227084,10.307204517992448,-0.001954287077725714,-0.02701465525913896,0.0034391244587545
1691524941.3405693,2.743241146820278,0.20001959601156966,9.289754957815221,-0.0039373700553101115,-0.011700739025101688,0.001467988102167
1691524941.343566,1.887339601946704,0.2648858258475675,9.643320810447522,-0.008203602284409407,-0.002233310096034654,0.0005846879974064
1691524941.3546088,0.5650147081378113,-0.8328485543989749,9.7601661974811,0.003922912968899149,0.0033446774195575904,0.006903230929101
1691524941.3638823,0.43345593983755976,-0.27722232074094877,9.941909443425336,0.00615629074876955,0.004000624079878382,0.011456650001282
1691524941.3735206,0.4712032361799567,0.8221269866329775,10.020150475792109,-0.00015971549192178312,0.004592442792523571,0.015508367930824
1691524941.3834572,1.3864959708769342,0.5279329235464679,9.911886530623507,-0.008824912656301025,0.018625357385001724,0.0180871805821602
1691524941.393477,0.985232161132774,-0.38965387828913434,9.457627652296663,-0.002112327500595769,0.029442577005582265,0.0175875968013947
1691524941.403519,0.5512439508738954,-0.26510129598852766,9.138995101378685,0.004914050997346324,0.03498277846473004,0.0139641810854022
1691524941.413453,-0.1484702173271152,0.5776756513213526,9.14058854954883,0.0023350223592931464,0.0362687083044669,0.0128157793258374
1691524941.4234352,-2.2436095258334583,1.2190714935618583,9.945149939170062,-0.013938976021122481,0.010456731207523216,0.0089467291434352
1691524941.433448,-2.2974926043834194,-0.18034675687454527,10.305021584222253,-0.013794683493581757,-0.020049924914858415,0.0054447890904789
1691524941.443448,-1.7508300204369587,-1.158717016571487,10.331338862130222,-0.0027528879215046338,-0.04517662291245295,-0.0066486696998531
1691524941.4535077,0.42872512589677547,-0.977485554121488,9.860270739383614,0.008172497596369352,-0.04254395734406128,-0.0180927102739865
1691524941.463446,1.351000990268599,-0.061014187759382145,9.56512255375144,0.006622187624416761,-0.02511597124485004,-0.0234531273419911
1691524941.473411,1.365603229189801,-0.1833576130565283,9.609766311457616,0.005536785203547703,-0.0054705367595958565,-0.0236112528766448
1691524941.48346,0.848359710904155,0.7559662892129001,10.462341479631785,-0.005154723270435604,0.0035879669417892748,-0.0174139437551552
1691524941.4935503,1.0659362761247444,0.15147098812189724,10.289082426400233,-0.006328429587359055,0.017823741142056693,-0.005818993068015
1691524941.5035205,0.2937292446814865,0.1268453569103391,10.376506046680733,-0.005308940477504015,0.01691250431274288,0.0041606943302845
1691524941.5135648,0.6521340987622933,0.3326696063076901,9.34832775304372,-0.0034005156684709763,0.027078120658946266,0.0159216814388578
1691524941.5235913,-0.2471851720298811,0.7029272060299061,9.147992679312509,-0.008082213066730773,0.022095724313881897,0.0225212818657105
1691524941.5335538,-0.9621106471653409,0.5246514556181301,9.050616861354642,-0.014016322330924565,0.011849286425363642,0.0200716837023442
1691524941.5435112,-1.6209550264989678,0.501147075037092,9.310947040377807,-0.021184514697839194,-0.005015800944262338,0.0178368690137808
1691524941.553475,-1.1798719746797548,-0.939784169094481,9.782497346513749,-0.013043961676887681,-0.019492859775323102,0.0144402126495783
1691524941.563475,-0.6404062370999678,-0.9629506482800553,10.112015460317046,0.00029448729440296215,-0.027925795694176442,0.0106778482620661
1691524941.5734448,0.35567963298012234,-0.703222360620698,10.408534047559113,0.007416378325638066,-0.02573793056711109,0.0048017562546824
1691524941.583442,1.2414750965206585,0.07311468427822328,10.099295957442866,0.0005460450381522153,-0.007857715327743925,-0.0021931475314254
1691524941.593473,1.016819793285017,-0.8833850144583894,9.85034798062595,0.009284796601696002,0.004498679945830034,-0.0014186177688593
1691524941.6034963,0.8055281144687518,-0.5896486731370854,9.826931395831814,0.01672790292000279,0.010972471924567885,0.0038434830674027
1691524941.6136436,0.46731533681038945,0.10831443597835175,9.832620353081834,0.01673747749274397,0.015668692109522108,0.0076938437012081
1691524941.6235323,0.8978173752546166,1.353178589277404,10.14470750042841,0.0007779265770121077,0.02213891648903677,0.0171647875283901
1691524941.6336572,0.6164185743225619,0.25435093750618054,9.695209918164668,-0.001706570849959605,0.02935092103979025,0.0184828436647599
1691524941.6434922,0.30618183559701795,0.023399300194921632,9.435435991597085,0.002504054127511749,0.03109927241742597,0.0200544709985201
1691524941.6535494,-0.17119562963736693,0.44425633724626157,8.990751654246449,0.0047929450578563845,0.03165293113536303,0.018352587026829
1691524941.663455,-1.4298463215967967,0.860589795892236,9.60214677791537,-0.005811103654720242,0.016598686388109397,0.0124687201057617
1691524941.673451,-2.2810512205339517,-0.2492527261130653,10.227136357375423,-0.004674892390760872,-0.012199917774985686,0.0054709704306965
1691524941.6835403,-1.4669149202120453,-0.6808198904284987,10.32052247449621,-0.0016129067261555568,-0.032998247295633706,-0.0045115838113183
1691524941.6935627,-0.030293849541194448,-0.8860186207845758,9.960264238078743,0.0071420587120763065,-0.03330399961653586,-0.0139169047872478
1691524941.703597,0.8743575088962726,-0.6372118597876729,9.787592982836898,0.010366619182291223,-0.02363165477949515,-0.0227588841046149
1691524941.7134936,1.2101942935097312,-0.383985013749202,9.433969284390548,0.010477247124383299,-0.004977169019909592,-0.0262728833879286
1691524941.7234488,0.871204457242563,-0.06529643659802767,9.976747007624603,0.012770156280850993,0.0032846222085460308,-0.0164852363343293
1691524941.7334526,0.4566196156253012,0.43143085337418696,10.137749178566132,0.008799018544871662,0.0066805690773977236,-0.0053753077338392
1691524941.7436194,0.718085497398269,0.7508393827409844,10.461385150479531,-0.0010457729500736683,0.011068234570386942,0.0040750650403147
1691524941.7534802,0.8231978464135222,0.5355859764624172,9.81761177817405,0.0006961799785866914,0.018406978193102094,0.0164251972635333
1691524941.7634966,0.47668044030827217,0.6434892206792647,9.42901407297962,-0.0035959968192090124,0.023844784227980496,0.0216998236899321
1691524941.7734473,-0.26283801837756515,0.5674681443899854,9.208028562168872,-0.007899181297386468,0.021265383669075103,0.0206895789776985
1691524941.783446,-1.1825163448130278,0.5784024001937091,9.156855530894381,-0.013751157557933113,0.010267473920237805,0.0129232949291413
1691524941.793507,-1.3985077133682486,0.1402710266434647,9.588909176706807,-0.017351339671093743,-0.006540722756615881,0.0112672404100244
1691524941.804169,-0.9013413212354685,-0.8334142389364091,10.07711426230879,-0.00821906939864647,-0.020944257325227006,0.0135008872200792
1691524941.8135843,-0.20851017618198425,-1.2645316337722279,10.129355444456962,0.006145921291236376,-0.02508743864762442,0.0104015425493066
1691524941.8235464,0.7579478929232324,-0.4157101701041418,10.096856645902454,0.009177135521112642,-0.01613641390223586,0.0052138420467322
1691524941.8336234,1.2532117630441189,-0.1705606828212142,9.93987328545669,0.006607020087877777,-0.0017702227476216628,0.0038574913230781
1691524941.843539,1.4964265530675682,-0.28745277096406485,9.743374308365388,0.005640988681962738,0.015891781475839244,0.0021715303480682
1691524941.8535476,1.0975777872059729,-0.5820736661631157,9.555642632786316,0.013344537028490195,0.030087400579845987,0.0062943606351559
1691524941.8653948,-0.19530433367092423,0.24765529025796895,9.81557678040248,0.013506128200970982,0.026156470960401534,0.0094789948959892
1691524941.8735125,-0.31255793017839456,1.2664267656422805,10.134517239304566,0.0024741681071985496,0.020261397031476273,0.0127704611693566
1691524941.8835528,-0.3304236657260414,0.699407524016253,10.079098463164666,-0.004459677600095497,0.013904351414125993,0.0103088545327132
1691524941.8935025,0.25526954871145013,0.2793941038244357,9.61896897116602,-0.0055285839264997945,0.014756708036494176,0.0107174285401647
1691524941.9038568,0.21884546882366424,0.5015808447574489,9.248882948279386,-0.0029743976967385945,0.019729500525562594,0.0098497134347503
1691524941.913589,-0.8364976981501844,0.7016362054331832,9.732526304842892,-0.012086973878405202,0.012506811802001819,0.004614998604456
1691524941.9236245,-1.7786377615492512,0.22609864245940042,10.025506818858519,-0.017042938425043327,-0.00770468982332658,0.001153195745946
1691524941.9336376,-1.1698934019283915,-1.0532035755902773,10.067282303252995,-0.008624009624142615,-0.023486545511063606,-0.0033133609506244
1691524941.948351,-0.21231675628036345,-0.9655257024508318,9.782100375664,0.001252886467419986,-0.027057556504919023,-0.0130496311287338
1691524941.953658,1.0425575900604072,-0.8596703601399475,9.471760852525193,0.006053049041106735,-0.01918443515671799,-0.0178653539444262
1691524941.9635382,1.2363748435164141,0.431163852141907,9.72299724006367,-0.0018652089897817346,-0.004506656628834505,-0.0166264546389634
1691524941.973518,0.9468047668216452,0.15069318832584658,9.904626482456646,-0.00500199158892339,0.009240540772419209,-0.012182628485089
1691524941.9835112,0.4676182198294691,-0.2826301227439202,10.47986487623818,-0.00150848557483819,0.013401358442085457,-0.0039892482857162
1691524941.9935312,0.43397595033194836,0.10928811718903945,10.210783799305958,0.004212100839455642,0.01734418827779096,0.0084653820556645
1691524942.0035608,0.24751660443970258,0.8706840861866222,9.888568464999096,-0.0027297377626113633,0.020131733806832117,0.0120362530176585
1691524942.0135489,-0.15982050729286823,1.0903787011371946,9.349701407156305,-0.016535228217281685,0.019781454692086718,0.0141679675032441
1691524942.0235977,-0.6022907466382109,-0.08057451744558385,8.91333416686554,-0.010514882857172022,0.012899674844015389,0.0171479007874672
1691524942.0375216,-1.1844428520086259,0.21455817463274945,9.086513659121069,-0.013667385155836096,-0.001290512584489595,0.0115901699935143
1691524942.0435047,-1.257813960131632,-0.09247209493929932,9.977474012769866,-0.01419075241781049,-0.012058710751701533,0.0115168478985374
1691524942.0535252,-0.6373266869143066,-0.4679013020161229,10.152359723101805,-0.009435501464772112,-0.019370012477647983,0.0085349257749562
1691524942.063525,0.02062978269052292,-0.9276369582237023,10.347646224478803,0.0011592572635450017,-0.01851426469284794,0.0037513782915716
1691524942.0734882,0.5388023785633953,-0.28995280196761913,10.322445552351208,0.0003400927202535891,-0.012159702065693742,-0.0005386452942098
1691524942.0842085,1.453598944570373,-0.2668249122372353,9.858319215661698,0.004075664544157885,0.006413871392989117,0.002671812562557
1691524942.0935495,1.473070625935675,-0.3983278502639367,9.705616439855014,0.005635217512184142,0.021067269530196643,0.0034621616539602
1691524942.103798,0.8761954387836732,-0.4002449640292503,9.384350018229428,0.010183412817098704,0.031237385581367995,0.0056216481787209
1691524942.1134992,-0.2601120625237144,-0.09089434799180697,9.697299074257694,0.011142355624016198,0.024218533284394224,0.0118967734922712
1691524942.1235485,-0.35319558359108577,0.3499088018789819,9.865906766896197,0.007946035454304496,0.01637410465272163,0.0111456040938442
1691524942.1335435,0.07588818663033224,0.5782640462811756,9.986953308640851,0.002765373601345593,0.009901396217802123,0.0149782973055784
1691524942.1450236,0.5979425528753437,-0.08615246387184573,9.538558274608386,0.00574158217744244,0.015034257168967096,0.0087561195430403
