time,ax,ay,az,wx,wy,wz
1691524600.5934863,0.14433307032164372,0.10764411825191957,9.773717043699577,0.00027738906986540226,0.0001792250164526356,0.0020417479279508
1691524600.60349,-0.13419536826940442,0.041189966864607755,9.891075969982618,0.00015036129481594502,-0.003011107645813504,0.0023677181632315
1691524600.613601,0.1215654794775148,-0.04705587007285417,9.74786599284054,-0.00019721292996243344,0.00018518003057963392,-0.0009843117843324
1691524600.6235063,0.015079644281370062,0.0023340850010192473,9.818753272836501,0.0008026566787949711,-0.00032107786489656004,-0.0005015062454099
1691524600.6335144,0.02785666646286116,0.1012484160368539,9.823782537186506,-0.0008908602641035683,-1.4558272310800322e-06,-0.0001047713269422
1691524600.643505,0.039102471950896917,-0.025973240697950883,9.781533317652105,0.0003172517107615962,0.00028986903806412217,0.0003638844534811
1691524600.6534564,0.029018523087827503,0.11620916570774167,9.853031423265115,-0.002441705404453056,0.0008672863698002139,-0.0011429970438534
1691524600.6634817,0.04457070554365163,-0.05137235248089025,9.768680106457028,-0.001089038096914942,0.0014838280647590458,-0.0015918956889713
1691524600.6735134,0.06530545934542191,-0.08748867056554648,9.73012596161716,0.0027100194524890178,0.0016763988670888612,0.0012889068455201
1691524600.6834917,-0.08104817528580731,0.08649134853601742,9.882280978006728,0.0007981902229901162,0.00014233997089363004,0.0002316215721016
1691524600.6934967,0.014763308261968313,0.10161244989687593,9.841718482177576,-0.001659770216995422,0.0007525455454214425,-0.001400419958582
1691524600.703553,0.06678329553652139,-0.03862444675875725,9.77579290979015,0.00041820010046669743,0.0012960595053482812,-0.0003994533146674
1691524600.713529,-0.11174520844165094,0.0010554270589711657,9.860534016207138,0.000914408831514264,-0.0013600443269982463,-0.0003323844687024
1691524600.7235296,-0.0014406458484770364,-0.10607273366158528,9.761373744942064,0.002233926855731452,-0.000680964816571894,-0.0026848914387578
1691524600.733516,0.10420322063771964,0.2406281877236756,9.853254420931068,0.00033997568838706,-0.0006086711544584264,0.0019731972895619
1691524600.743463,-0.03286393215663827,-0.061528135173963557,9.803713472452655,0.0014486207698257588,-0.0011235076973929664,0.000805687875772
1691524600.7536714,0.05986284309041317,0.12548342253879124,9.816539127233192,-0.00029631734870318567,-0.0005617323225131698,0.0017366454301459
1691524600.763464,0.0611972532644196,-0.17789413417720487,9.722430813579134,0.0022857229688045383,0.0011079398620520411,-0.0009797892819101
1691524600.7734957,-0.14263163821178,0.09293547879321619,9.922431153729011,0.00013209517343425227,-0.0017042854545673966,-0.0022274402256066
1691524600.7835307,0.1278354370501659,0.12375101481238346,9.804400319581584,-0.001326707311577268,-7.4101141026416005e-06,-0.0011474720488245
1691524600.7935233,0.08556880546378319,0.07578140175401935,9.788173825881401,-0.0009046432325948026,0.0005048145802169288,0.0018726176529248
1691524600.8034666,-0.0990472113739213,-0.12911405719370167,9.82653414802879,0.0007732162585373524,-0.0009666653966403317,-0.0008837331372255
1691524600.8136363,0.09545883045434111,-0.0006294830303355374,9.740491288926092,0.0020114976687296525,0.0003792930739161185,0.0010846950642821
1691524600.823504,0.010926649979095286,0.018363274141924124,9.819776767248806,0.0011170684236329882,0.0005860356972993307,-0.0004158230551461
1691524600.8335447,-0.020633569774813336,0.1264273388522876,9.870006913470665,-5.379183400917734e-05,-0.0008165390324362366,0.0014084431056921
1691524600.8436117,0.03379283695963183,0.053228144606778625,9.801176863258435,-0.000520195976885891,-0.0005278363837540932,0.0018320190317986
1691524600.8535104,-0.018164774050160273,-0.022970939071715137,9.814272803763119,-0.0014843059072772427,-5.6596005776719724e-05,-0.0014518338541443
1691524600.8635056,0.06647224638801047,0.07499084130153776,9.818650903930223,-0.0013587604549154604,4.324944153381719e-05,0.0011607179583456
1691524600.8735304,0.05638637883977988,-0.03376258804861388,9.772142286365433,-0.00022851258239310368,0.0009514784483467937,0.000618683832517
1691524600.8834884,-0.03166176819059236,0.05300937330602979,9.851409716120523,-0.0006207783444580507,-0.00013481689435485347,0.000835124159284
1691524600.8935,0.08153453922283717,0.11312996065423268,9.807450621208414,-0.002018900310518167,0.00086280922715148,0.0017552849783619
1691524600.903595,-0.11019361965001082,-0.09184186731979152,9.851106410570054,0.00010528280626397586,-0.001770958275825055,0.0013868400453879
1691524600.913574,0.1568875510085226,-0.10567035171644681,9.683003005609583,0.0020968222935925803,0.0015661470407011507,0.0005352451878657
1691524600.9237435,-0.07221331506225422,0.012170991997531131,9.860566195959679,0.0012973653278435407,0.00012037686748441603,-0.0010830261564756
1691524600.9334683,0.06328390757250878,-0.04416876243221174,9.769196345760257,0.003407021519601511,0.0007916563779521175,0.0001794778688867
1691524600.9435792,0.03678933117130452,0.13833788640655093,9.844431180168284,0.002368036570630747,0.00021052952193871535,0.0028847488754486
1691524600.9535005,0.05657270358700804,0.08165574877632689,9.820616673671756,0.00016560836055128577,0.0014506756119277628,0.0014158991287053
1691524600.9634688,-0.10383447576327995,-0.10726093560627649,9.836105734487232,0.00175558224224105,-0.00028865809287629684,-0.000388631229935
1691524600.9734905,-0.0020376082401413753,0.08465568415949871,9.868009817725572,0.0003131676517268477,-0.0009472907422939511,-0.0008319315786416
1691524600.9834943,0.06941315991460298,-0.03274593997290934,9.74947380963287,0.00044091691239109737,0.0008166135400623936,-0.0016571059643233
1691524600.993453,-0.08559653889440733,0.05736356773573385,9.883932632748214,0.0010183531412282772,-0.0022735085154231027,0.0010243774484201
1691524601.0035207,0.1852169768831192,-0.007724668166083357,9.717173508547056,0.00035931614509031713,0.002100002141214849,-0.0014849649562443
1691524601.0136902,-0.12925182368494867,0.04767745532614511,9.88980030008782,2.480508014966853e-05,-0.0010951961261336486,-0.0011377918819839
1691524601.0234928,-0.013923079213190111,0.15345710508991955,9.87665267789978,-0.0012294757276425801,-0.0026482736201989664,0.0013201610525079
1691524601.0335293,0.19685673034964618,-0.10704688509694646,9.659436683200123,0.0013741230391776434,0.0014487963830760724,0.0011897753572788
1691524601.043502,-0.04224594939665784,0.0444177400244518,9.862453965710253,0.00017454774248449513,0.0004545390634337082,-5.037230969765893e-05
1691524601.0535097,-0.04569780367908369,-0.006991565017371622,9.822917272223087,0.001185615321209369,-0.001141014523944302,0.0013994991930026
1691524601.063533,0.10161662573319072,0.15369024423039154,9.811631543118656,-0.0020882029949167926,0.0008858867509883653,0.0005564664204662
1691524601.07351,0.07512766897837025,-0.1745124673644934,9.715333033024457,0.0018576591360924025,0.002087321503736172,0.0003866175136586
1691524601.083494,-0.19257454186016307,0.14607975553157634,9.962409257779072,-0.0022572892039863274,-0.0013306319722132772,-0.0022017417761439
1691524601.093535,0.13839320893204937,-0.027184368286453393,9.734117680302322,0.0005821133956224975,-4.1306703990802143e-05,0.0014117922435339
1691524601.1062176,0.06574109654176277,-0.01772638850485923,9.789565955443761,0.0010649526324998974,0.0013422399201040618,0.0001146341853832
1691524601.1135242,-0.07465837900042346,-0.006928994153329419,9.858340800369024,0.0003500302376368132,0.0005793344257848056,-0.0019178583572561
1691524601.1235952,0.06138311188870725,0.10269874601744557,9.807401336694392,0.0007829108069464838,0.00028204320598461944,0.0017061026481037
1691524601.1336231,-0.0735580495643978,0.0744927732433087,9.868938542481,-0.0015059103656324647,-0.0007416763669189872,-0.0006046976015845
1691524601.143604,-0.06807133154888252,-0.06589234462206005,9.820159804469503,-0.0003644723088622335,-0.0021125730374109367,-0.0014820059115941
1691524601.1534874,0.12299353900751335,0.06027154369474394,9.755407161889693,9.074303296237222e-05,-0.0006872754411175337,0.0009338388806731
1691524601.1635394,0.17743891792049818,0.04453133035839937,9.740263093181964,-0.0009102274498320737,0.002897931507082733,7.029030873080978e-05
1691524601.173506,-0.16492774890765105,0.10801325727584642,9.936472812802137,-0.0022014145263519976,-0.0012352666041948674,0.0008764693518692
1691524601.1835282,0.03447753635686287,-0.04050191749552113,9.779421459817163,-0.0020576286267830965,-7.148378717274273e-05,-0.00145145247755
1691524601.1935558,0.09084308258160137,0.04204289283876062,9.786229691221427,-0.0017949935546451342,0.0009116090287423339,-0.0002429937996844
1691524601.2035806,-0.12277650855044703,-0.06212417552394267,9.845504238150426,0.0008186820511626751,-0.002422512857380694,0.0018353693483454
1691524601.213689,0.11120992554325969,-0.011015040916314722,9.742735796867155,0.0008864670341331063,0.00014086126489556988,0.0008422267162763
1691524601.2235267,-0.00604362161672576,-0.06071751885461104,9.794576140623082,0.002105764256293396,3.616218977327843e-05,-0.0005272266973684
1691524601.2336326,-0.13673593947651125,0.09499862482157401,9.919928778125263,-0.0004051147831425557,-0.002652372453432792,-0.0026673960785324
1691524601.2434926,0.18921634192133865,0.2558711555196568,9.815498598265396,-0.0024308989320918433,-0.0010143687325313662,0.0020942720182297
1691524601.2535317,0.06088738867819946,-0.08960395341261529,9.744270877023986,-0.0012756923850294752,0.0007216247924840484,0.0005486463958454
1691524601.26353,0.0924240759048403,-0.03192791203203621,9.749343842703466,-1.2818142559408324e-05,0.0021960943184803398,0.001384966195264
1691524601.2735124,-0.18713630129168976,-0.21897178937620507,9.840795698325193,0.0036081619849865007,-0.0012896420561342244,-0.001006678660115
1691524601.283533,0.04723853510922322,0.20723162561477648,9.855972414304475,0.0004930890655263226,-0.0010866348648861145,0.000441732892586
1691524601.2935045,0.07370981646628033,-0.018324901855150226,9.777997389310292,-7.762081733593761e-05,0.0008903966607114262,-0.0020687235339487
1691524601.303594,-0.04491476678769575,0.06677261114884475,9.856913232833458,0.0008402827983081836,-0.0014137070976172202,0.0009308660408073
1691524601.3135676,0.05072862029097873,0.05103223156113765,9.802101861318832,-0.0005984252372805656,-0.00022161900937638202,-0.0006881436386088
1691524601.3248997,-0.05425276406569559,0.016784073996937248,9.85056568969637,-0.0007481641728370721,-0.001607399181591172,-0.0015691798000539
1691524601.3335495,0.11925163686949974,0.1716064357230051,9.805738037476502,-0.00191568736465923,-0.000736458671836831,0.0015276597876158
1691524601.343619,-0.0032569325770629527,-0.1624754474190924,9.747240522572353,0.0016982203595114801,-0.0008668447198338391,0.0011532497408274
1691524601.353545,0.0534164074791293,0.15934009173387173,9.834003311564597,-0.0017625994757895884,0.0003185389410648428,-0.0001021683967615
1691524601.3636448,-0.10212044419772921,-0.0944444080245637,9.829898169399922,4.978202807718145e-05,-0.0018782476713642313,-0.0010655156622583
1691524601.3735187,0.14401542976770984,-0.001315031338033967,9.726454763952338,0.0013018388933172598,0.0001363979559453801,0.0008835541264211
1691524601.3835063,-0.017781208891763198,0.18217101435593197,9.894414692709919,-0.0020851901922187845,-0.0007714724266512275,0.0009640233072509
1691524601.3935494,0.06433702514129232,-0.12717318885678663,9.731383926551466,0.00025578171332154485,0.0007398692746732487,-0.0001431495004276
1691524601.4035995,-0.156144521996564,0.06089790754074647,9.922043823460278,-0.0005645185667369463,-0.0029671553082409536,1.2952619517355051e-05
1691524601.4136128,0.1254343077913371,-0.09446336463262785,9.722828946924055,0.0012079617329420428,-0.000273035678524736,-0.0014157059888298
1691524601.4235644,-0.09836266815386742,0.17584924698030382,9.920127832742951,-0.0009169382686277332,-0.0032797062368151776,0.0006473664723393
1691524601.433514,0.10379752725581522,-0.1624480931804584,9.689893848176967,0.002693599093007559,-0.0011395009066881513,3.6035216698556034e-05
1691524601.4435508,0.15410459655023545,0.042326505683754116,9.738895947552493,0.001911291131084715,0.0021167579586694905,-0.000271657347394
1691524601.4535964,-0.07855126776371098,0.15635474518435905,9.916437223670101,-0.0005716050291247658,-0.0002033600098851871,0.0004577564721052
1691524601.4635322,-0.08761221400652168,-0.059366696137520616,9.84459648482199,-0.00021584675987010844,-0.0015310442336334492,-0.0021138160775358
1691524601.4735975,0.14932579598067794,0.0734656579358303,9.76101814531123,-0.0008185877330188214,0.0008587232076941702,-0.0007268823503459
1691524601.483528,-0.06287436835525656,-0.07600678539511767,9.837487850915233,0.0014121172701337605,-0.0010061648169389674,-0.0005991109467054
1691524601.4936774,0.0491006995780282,0.08920906438957636,9.833630654132854,-0.00027172168288234886,-0.00017394211002989674,-0.0014764210029447
1691524601.5036318,0.07198143340521711,-0.020330762430881173,9.77553923507997,0.0004938342329615695,0.0009779494840522235,-0.0019282791583741
1691524601.5135489,-0.029668094725074666,0.04699448160453001,9.821292366874113,0.0006424515935601736,-0.00013666803833748979,-0.0003059308330471
1691524601.5235355,-0.0691607258502718,-0.0027151511670822563,9.840970196368934,0.0011077626762936482,-0.001881219908398592,-0.0004441406165192
1691524601.536474,0.06457078673668278,0.06736859758809137,9.80565492084235,-0.00043488185646374885,-0.0005811043161740016,-0.0007633876341337
1691524601.5435576,0.16902013742594563,0.029016327704390752,9.732510664376473,-0.0002020615732890639,0.0015683865919643937,-0.0006203473132977
1691524601.5535362,0.08763542065919273,0.016597598267296048,9.77084467844374,0.0006763768819125639,0.0024952355613048756,0.0011648254910773
1691524601.5636106,-0.15489246664399187,-0.05556294968840698,9.879369253236074,0.0018822417581253873,-0.0012080556189396354,0.0005333690967468
1691524601.5735517,0.003146371331447401,0.12358561424531851,9.844680652373823,0.00017270729074078076,-0.001503852774343091,0.0011167424270474
1691524601.583642,0.07583154936306606,-0.09918947725061372,9.746182988164394,0.002707393067705511,-0.0002331468790684098,0.0006801518791412
1691524601.5935302,-0.1395297381327034,0.21072201741614574,9.94765083381377,-0.002322848834968145,-0.0026054317250092333,-0.0010003312311078
1691524601.6035707,0.15194236221040913,0.07900367506444347,9.752218788246108,-0.0032243849466389468,0.0002563338899721183,-0.0005152911000827
1691524601.613572,-0.0022425379884497784,-0.19562590681266998,9.740982981372861,0.001046668593423828,0.0003200369774905233,-0.0009198540176207
1691524601.6235397,-0.045804397104615056,0.031911655694406335,9.857442066992446,0.0006808360748897916,-0.0011976400431275573,-0.0008107116266096
1691524601.6337376,0.03758460760421311,0.057331379824761344,9.812749188501401,-0.000649098201970103,-0.0005308093910506324,-0.0016444292670989
1691524601.6435754,0.040570270801366576,0.13885509070275603,9.840264969684641,-0.0024755988572852947,-0.00042502146487755657,-0.0002757577278594
1691524601.6535828,0.00036128312742634964,-0.17872749828680726,9.758303741901909,0.0015380227157339695,-0.0006351259183554558,-0.0006389895972738
1691524601.6635916,0.08454137652425334,0.1915014197866554,9.8386143027719,-0.0008808153467208834,3.505902926837515e-05,0.0013659832145726
1691524601.6736145,-0.08032119178336566,-0.09791323961837467,9.819031505583574,1.1033576719307379e-05,-0.0012788527997694159,-0.0008438625193143
1691524601.68358,0.19486488081911674,0.08340863231058332,9.737772419720402,-0.0012514964735689197,0.002397631099328773,-0.0007589233393723
1691524601.6935835,-0.05866909406930915,-0.050244057486235304,9.834853758409494,0.001239262180763375,0.00021834078869684292,0.000949490542343
1691524601.70365,0.11549527448703312,0.07918589501686978,9.774006305923125,0.0001171988555282682,0.00217374571566894,0.0013480782615892
1691524601.713583,-0.03986698901406004,0.06969131012765739,9.848435773482109,-0.0012142250953651415,0.001237205831393836,0.0009919605397676
1691524601.723569,-0.062440615203896724,0.06771457687836901,9.86901493354447,-0.001980507403937205,-0.0005654654580055236,0.0015895052236096
1691524601.733641,-0.07753761495242431,-0.09620178769723667,9.815963763907062,-0.00010706176292658279,-0.002079795795111424,0.0003359361033012
1691524601.7435422,0.12825273053032618,-0.057246506950489766,9.72684174760872,0.0006652082195694989,0.0008754790770602244,-0.0013374571974332
1691524601.7535908,-0.07542360104857568,0.13322652561629666,9.889540218527594,-0.0011739795067787389,-0.0013500167597316898,9.937190386107454e-05
1691524601.7635367,0.09353968074915792,-0.03403391768462789,9.759412358557135,-1.0572865531668916e-05,0.000253368472299644,2.376993122151384e-05
1691524601.773562,0.177542677835995,-0.07697848192020229,9.708505255891396,0.0021500326298456458,0.0033513395877108414,-0.0003722366929928
1691524601.7836356,-0.1283291752037543,0.1505959644915467,9.925470747014284,0.0011595384359908971,-0.0009331372244747267,0.0032263891951238
1691524601.7936623,0.042019634743926865,-0.025271880646528893,9.785787751616299,0.0005396537794736698,0.0004116828956978106,0.0008720042713043
1691524601.8035977,-0.025333363793368494,-0.11391490105611113,9.778523015957626,0.0029305510752935713,-8.7884063229757e-05,9.083377132764348e-05
1691524601.8135717,-0.00799650009972693,0.1580930861672519,9.87419793336588,-0.00043340074154446767,-0.0002599817273780995,-0.0009973419184739
1691524601.823568,0.028057104445412682,0.04352190946295716,9.802099669454773,-0.0004877828883367628,-0.0002782356777331735,-0.0003916068055609
1691524601.8335674,0.0997294325612819,0.0684652292378656,9.779515094805197,0.00020848581121360563,0.0005953399927819167,0.0025580610561241
1691524601.8435688,-0.10323105916871757,-0.10431241704327948,9.84088714189675,0.0011230267936487596,-0.0009059563809830525,-0.000580117670534
1691524601.8535311,0.10398644851179666,0.0822586969955903,9.784814006776944,-0.00032686584898194244,0.0007596269011393939,-0.0006527562911565
1691524601.8635974,0.015066985083381296,0.07023646546562962,9.829151642157386,0.00048042748374443065,-0.00037771046666276254,0.0024742520361264
1691524601.873553,-0.14482029420051795,0.06557562792442352,9.911194409119258,-0.0014764723383333049,-0.002989138454352351,0.0008775964559113
1691524601.883619,0.05007931918176548,-0.1813783419159,9.72669190516378,0.0013558558760864052,-0.0013705160234496112,-0.0019346349692846
1691524601.8935542,0.14193030427535594,0.150503269958806,9.79729793806088,-0.001227643305476901,0.0009760513043321911,-0.0017047857220227
1691524601.9036422,0.058165582604723286,-0.005650975899269644,9.770165378642822,0.0005232603986003335,0.0013798888275686112,0.000659305329254
1691524601.9136655,-0.07267106544613366,0.0005380939390274505,9.856814051895942,0.0006894056089827154,-0.0002648284938026449,2.524153730472812e-05
1691524601.9236257,0.06698327445382152,-0.04308238806401136,9.763967965802763,0.0026209663695388307,0.00027945155609209084,0.0011580749449144
1691524601.9336703,-0.08794135147126307,0.10367066075821914,9.895486545864308,0.000401451359866357,-0.0016614409109555184,0.0006492398276982
1691524601.943624,0.14574791470190854,0.023006901091393844,9.746476675021274,0.00020512252950767153,0.001094146110274703,0.0003437476296035
1691524601.9536126,-0.12141493020428402,0.0012496712590263236,9.883646378207214,0.0003455613941006358,-0.0015232355540549746,-0.0008192756033445
1691524601.9636843,0.10250957582359214,0.07685462719630402,9.792542467561399,-0.000301137088665808,-6.813975265810768e-05,0.0001127834145968
1691524601.9735837,-0.10582875011478907,-0.007082658531443149,9.856864328202947,4.381561083049965e-05,-0.002289146843320602,-0.0004027895449603
1691524601.9836104,0.08027902713562077,-0.04038643023637495,9.754135402511261,0.0011699666852886005,-0.0008444906545212186,-0.0002094524499903
1691524601.9936664,-0.04865932327638615,0.0813553178476334,9.864403865650967,-0.0008249278512336493,-0.0017098830672760464,-0.0015729008994008
1691524602.00355,0.13311962390200055,0.07235662619948745,9.767166202750033,-0.0003111922861971791,-0.00030990762725176556,0.001772041916201
1691524602.013604,0.007885741066736411,0.009000645441764465,9.820973687540455,0.00010714696600844702,-0.0004991534762046621,0.0015764666202535
1691524602.024896,0.08704359131474211,0.039575902461843476,9.78069373938141,0.0001410319169746017,0.0005312659848064259,0.0026575389963631
1691524602.0335827,0.0011549461666146073,-0.10750340354181782,9.788170899905854,0.0011628891093185137,0.0008188585463014543,0.0004685684869123
1691524602.0435812,-0.026668959000972395,-0.054151582472236365,9.803153939711903,0.0021225361386089424,0.00023919334951357556,-0.0004456359713281
1691524602.053678,0.05422679027070907,0.061252848799376765,9.8112864099341,0.0011364473365361337,0.0011302845960158325,-0.0004705907597149
1691524602.0636065,-0.0011773356311886377,0.09177797563224825,9.844857406512002,-0.0004852159645407008,0.0008423358418111346,-0.0008122057008499
1691524602.073636,-0.011109353527595045,-0.03777117077869311,9.803035373248829,0.0010552330891278933,0.00012446449823679312,-0.0001885816275084
1691524602.08363,0.06787843983597601,0.17697086406685975,9.839417172811274,-0.0012797832539576056,0.0004385048144201635,0.0016442629746684
1691524602.0935726,0.08333408861643685,-0.13772921014742545,9.723062059256199,0.0019150052064111959,0.0020437513590701654,0.0013101012116471
1691524602.1036077,-0.05319708758964249,0.09057403895289472,9.876956541314573,0.0005981321048344073,0.0006314805335901717,0.0013272290487016
1691524602.113685,0.02636812124814301,0.04742703809954884,9.815071836390816,-0.0016124396299448396,0.0019964182390330844,-0.0015345397225523
1691524602.1293242,-0.06330470881459219,-0.02974383741581841,9.834330861420792,-0.000140958798709461,-0.00026704060930336977,-0.0021469611494744
1691524602.133812,-0.0034957751863090064,0.10250669857753199,9.862341921401406,0.00010639487731528644,-0.0011838602634533075,-0.000379323475709
1691524602.1435792,0.15844757658861186,0.12633419815285826,9.763643178180956,-0.0008074187920080267,0.0009723380721773581,0.0019780469190386
1691524602.153573,-0.13669085422536856,-0.15541996661089844,9.836591843193329,0.001744047915006949,-0.001819027801710258,8.561615301868209e-05
1691524602.1636174,0.15793341629968854,0.18389051340269025,9.793350389677382,-0.0004751235556225224,0.0003539440240348284,0.0023792507306729
1691524602.1735964,-0.08431574532700194,-0.05423224336791274,9.838873924429134,8.516054223167084e-05,-0.0010281417883403743,0.0001045882416014
1691524602.1835902,-0.026108977811003256,0.14449823910407497,9.876270807653365,-0.0020505360059854465,-0.0022276821714589594,0.0007520455581193
1691524602.1935875,0.16021421761053922,-0.0328520648980973,9.729830594793855,-0.00023149009275398935,0.00021090493177819517,0.0022004119998832
1691524602.203699,-0.10675814576160089,-0.05787069338622201,9.863549399668887,0.0005642402287125176,-0.0020008123879035325,0.0005441802966465
1691524602.2136345,0.16256070173509987,0.0663716136938776,9.74546652669966,-0.001688041393573005,0.002027329798821825,-0.0019007439079637
1691524602.223695,-0.040239906414875966,0.028122998320472974,9.854304203635408,-0.0014194837379477472,0.0005051859759019198,-0.0013288985758031
1691524602.23506,0.12698868427309767,-0.04536849358173508,9.722167690042756,0.00092259835379076,0.0028752200160716977,8.335862709781417e-05
1691524602.252043,-0.07703061178845279,0.07328989830037455,9.886608473867135,-0.0013390025048889789,-0.00011022839179756834,-0.001248425320437
1691524602.2541268,-0.016431138168993283,0.17697160032590495,9.87068702637604,-0.0004821947999377617,-0.0012132926664246712,0.001666982443357
1691524602.263616,0.04577706840670472,-0.05959773115320931,9.762217117506983,-4.149791462872713e-05,0.00017216334815796345,-0.0001699479582662
1691524602.2736409,-0.04536885227348765,-0.11476398529211433,9.804723193103035,0.0015186497182420348,-0.00042536581609650567,-0.0025384966104234
1691524602.283672,0.027447908592667398,0.11962392506434323,9.83505052115214,6.318356894511015e-05,-0.0006436985817365927,-0.0012175151898468
1691524602.2936094,0.008062132076423412,0.039431402847249705,9.827379719883911,-0.0013267100408300028,-0.0002950231306640618,-0.003044395922398
1691524602.3036444,0.06808483695466465,0.0024332938037031878,9.775645005712256,0.0009438501432882086,-8.526358753525687e-05,-5.073703890094272e-05
1691524602.313717,-0.013210605710457025,-0.008499057318506375,9.80802472286427,0.0016289273539515491,-0.0004112263005523473,-0.0001233818295354
1691524602.323655,0.014147122882195648,0.17134089255464016,9.860529517352383,-0.001725337918219889,-0.00031067122261978366,-0.0005797470041493
1691524602.333689,0.1776799512273109,0.0135113206160494,9.722216042445211,-0.001290588940367005,0.003043973518991678,-0.0001647305727879
1691524602.343638,-0.11113809839276853,-0.04404017725597603,9.864559190261488,0.0008998881689304615,-0.000239501898419983,0.0014173957640828
1691524602.3536446,0.041074605169986844,0.11734858385819233,9.841567681429504,-0.0015655168575958178,0.000437012310266584,0.0005940999433455
1691524602.3636348,0.04989270112549192,-0.0926508850756097,9.75298932099748,0.0010526083075073052,0.0010326987643583972,0.0010739251045101
1691524602.3736598,-0.07093554021930752,0.25921098791179803,9.942465889462373,-0.003915792762540293,-0.001063522930667652,0.0018133805895281
1691524602.383629,-0.005912148840429985,-0.2931978192998859,9.717806502487553,0.0008656035844752631,-0.0002685451674714087,-0.0012949937774742
1691524602.393632,-0.05639628147455848,0.09462097771333079,9.88827946072495,-0.00015697244843736798,-0.0022980982591866784,-6.155097456076852e-05
1691524602.403714,0.15265715221337928,-0.0588001647982272,9.710432605709222,0.0017328588541079203,0.000519345787447397,-7.645853859731665e-05
1691524602.4136996,0.11696337147752767,0.18357974615568937,9.806453176313044,-0.0008011051679058307,0.0021763491194305654,0.00158132658159
1691524602.4293325,-0.019550996776353722,0.037389088050007256,9.831488984451738,-0.0018884929378308142,0.0013102178693685284,0.0004085684374963
1691524602.4336493,-0.20316176155174978,-0.2447663422099628,9.840219463397505,0.0010276633398847341,-0.0009134013938694662,0.0011420880507735
1691524602.4436777,0.024080573409096976,0.0008835352843260674,9.795311293330286,0.0007277758412782079,-0.0002115559258083006,2.0028459193317975e-05
1691524602.4537034,0.14756929326858595,0.017642161347315763,9.741841863059967,0.0006797432375144882,0.0024173895758544286,-0.0002060552180687
1691524602.463642,-0.14370175763668122,0.20124430211369498,9.961393768850904,-0.0026302011358720952,-0.001282222057640303,0.0006876199220364
1691524602.47364,-0.002448932407619771,-0.12430877416150979,9.778150808815443,0.0008365585861912778,-0.0019516302954503454,0.0014348976290143
1691524602.483708,0.03252748433676866,-0.09950742624401038,9.760027503465679,0.0005161950585399498,0.0003624787335245149,-0.0035815902340168
1691524602.493632,0.037809503109500486,0.0886075897078759,9.827569802383758,0.00043273735894677295,-0.0001560442953367105,-0.0009109119239206
1691524602.5037096,0.00822772662133534,-0.006243915897182769,9.808778057721426,0.0023415724217586403,-0.0012237041699853296,0.0017243568907083
1691524602.5137572,-0.016159900132386145,0.14753835998891524,9.878747192954638,-0.000823058268864686,-0.0018838426814483543,0.0009275116497242
1691524602.523676,0.13756435962929975,0.10332425873682335,9.761050920745292,-0.0017424492299557537,0.0003714593043622158,0.0026448609021549
1691524602.5336227,-0.12576233253950395,-0.1679205734638461,9.834216991162291,0.0006666886162244958,-0.0017791670967094568,7.739676563641319e-05
1691524602.5436225,0.1751567450775923,0.08364604161526555,9.75776325847633,0.000522891689296544,0.0006862376775383659,0.0021050748362263
1691524602.5536346,-0.048913614455982884,-0.019063904569466075,9.825206991330576,-9.626928903120604e-05,0.0003267480818733476,-0.0003670322296152
1691524602.5636685,-0.05431633303306704,-0.062140934335079535,9.835621856325716,0.0014028083444947346,-0.0013105251626665093,-0.0002124231361726
1691524602.573657,0.19520627431353765,0.11666321874253713,9.738488834315937,0.0002367611597615838,0.0019818970750264744,0.0013521812686753
1691524602.5836604,-0.2337789106124731,-0.010630343849276996,9.944188760958475,-2.6211118422732744e-05,-0.0028803519382869978,-7.272649621018878e-05
1691524602.5936637,0.1584467027848526,0.06017442391915273,9.743607081020592,-0.0007049645701234864,1.530975297151388e-05,0.000136631791765
1691524602.603695,0.0172366972297886,-0.06750183687979866,9.779233026880036,0.0002770101969511111,0.0005957154976151286,-0.0016585832747573
1691524602.6136804,0.02863951308820067,0.02173984993096087,9.816895768964262,0.0008749310299596523,0.0004269565442873542,-0.0007324779692048
1691524602.6237173,0.041285369368446664,0.14292715022329752,9.83239925955212,0.00015519758894346058,-4.7639433373775e-05,0.0023598839941491
1691524602.6336553,0.10034579289669313,-0.09636851824229568,9.725443919534463,0.0008264930148611097,0.002856590049926186,-0.0010442819732184
1691524602.643661,0.05893184799447649,0.08416949872185892,9.813496473305666,0.0008559143530945955,0.002708699828439228,0.0015760903950372
1691524602.6538637,-0.14354671813530945,-0.11219527594939363,9.85728889961699,0.0014605289054214071,0.00045119902785728495,-0.0022225857066864
1691524602.6636405,0.007664130946048722,0.07471306867281406,9.838395553753184,0.0015249940265576931,-0.000565465818314507,4.088868788084277e-05
1691524602.6736653,0.03667454503473513,0.07043585888319498,9.814088034861658,0.0012452202384874204,-0.000804997721052419,0.0017034954687637
1691524602.6837838,-0.0727960163580076,0.013597155266671717,9.850774163790554,-7.427525168559748e-05,-0.0017940673492047663,-0.0007194394531602
1691524602.693653,0.13599486211049885,-0.15339961857377493,9.68917622536269,0.002921599802755309,0.0011775986572236628,-0.0020326061460132
1691524602.7036643,-0.0399493268278995,0.26366061934759766,9.931398089414566,-0.0005302511790990782,-0.0009104202898379221,0.0005490300425385
1691524602.713807,0.013721550183316614,-0.10021849116361865,9.780929859359196,0.001529086959285755,-0.0007420208188755642,-0.0003454111103842
1691524602.7293632,0.021823173543576706,-0.048232421104413656,9.781259019469262,0.0036301594804451468,-0.0006336485277687854,-0.0001856022101769
1691524602.7336316,-0.11375325517202671,0.022015694441858292,9.882821791536944,0.0028422392436386456,-0.0013663862619846636,-0.0015639799932892
1691524602.7436535,0.10274798564628754,0.1611102316650938,9.798424302079745,-0.0001219681221909142,0.0006906979327998676,-0.0016526307265217
1691524602.7535994,-0.02201720431182977,0.05642321810974009,9.853861999224616,0.00032991374317854495,-0.0009398432604734673,0.0003400306630005
1691524602.7636292,0.13063290875543043,0.056521641638802404,9.772451014950983,0.0005687047636569941,0.0007164114863718786,0.0020428612076734
1691524602.7736983,-0.13682372492368297,-0.12693040241858955,9.826093846004452,0.0020089000063040438,-0.001386495523984329,-0.0005525582057366
1691524602.7836325,0.08655488070540453,0.05219691289413278,9.787234242121967,0.0009606093875822958,0.00031780902552618523,-0.0015058482351655
1691524602.7936616,-0.01752498433354775,0.13199586924397605,9.864299206891907,-0.0013140590435155362,-0.0003493990641045959,-0.0012461961998547
1691524602.8037462,0.09141969960140357,0.012073002480196769,9.786070295563993,-0.000527275076397581,0.000634819831110874,-0.0002511826862523
1691524602.813704,-0.005259660278957426,0.07255460054434448,9.819707881325503,-0.002004338589318043,0.000589377148835852,-0.001046524597978
1691524602.823663,0.08169068279811531,0.0065055838271155745,9.776485030688065,-0.0006010481749843461,0.0013407684333357182,0.0008422072167099
1691524602.8357992,-0.11376951530518674,0.022778880412787854,9.880731862637063,-0.00010780466236850205,-0.002081655269914481,0.0016725737257452
1691524602.8436277,0.12716547888250238,-0.048510900576114284,9.727877649035415,0.0006577365996318394,7.380717879615329e-05,0.0010675810369952
1691524602.8536434,0.053364868833143474,0.004227054255907103,9.788147443995602,0.0009285624791108625,0.0008814465267994205,0.0010865769034075
1691524602.8637192,0.051632002098407195,0.1662689196724926,9.835502624495033,-0.0022912155373576294,0.0016957834152776061,0.0011733764584
1691524602.8736348,-0.06742420682135364,-0.044531553279935035,9.833990533802478,-0.0017405999248653412,0.0003096115740728952,-7.682256930866948e-05
1691524602.883728,0.024893737998473955,-0.08143934541177672,9.76927748699543,0.00042900170745505334,0.0006337180529342834,-0.0003595708223933
1691524602.893684,0.00797739712369956,0.17881137462151397,9.860886776196034,-0.0027747477396355075,0.0005547315345246721,-0.0001490810939053
1691524602.903757,0.027822441772162705,-0.10459388397925044,9.770619581072566,-0.0004151619364099794,0.0010718004059144966,-0.0003979457362497
1691524602.9138503,0.02571623807334701,0.03829725633185122,9.815587623536045,-0.00035553450290365184,0.0010826055358213835,0.0001634521356841
1691524602.9237258,-0.07071631945577654,0.004932358995514262,9.850645647831142,0.0005482192659061236,-0.0009469194521786855,0.0009986637631022
1691524602.9337063,0.12225679184074228,0.12114572384908288,9.798881127099225,-0.001223526403307704,0.0009466422438260571,0.001762723509973
1691524602.943853,-0.010725048941382846,-0.13269010374572837,9.77324958008951,0.0014541957108821846,0.0007901827330839779,0.0006175745691229
1691524602.9536889,-0.16483214912455316,0.03463376123359199,9.919562814664513,-0.00031979301552137164,-0.002384897722369579,-0.0019040885201598
1691524602.9636948,0.1414504302463921,0.018349918572336657,9.743530440785499,0.0005247378999854894,-0.0004030351053607834,-0.0002217427647615
1691524602.973771,-0.000605135006919481,0.14270225046372967,9.866188147016015,-0.002087045404301799,-0.0008087430296879305,-0.0001185652620101
1691524602.9836512,0.027425339855002163,0.08451194627537735,9.83422218333063,-0.0031222996306023406,-0.000892537218112374,0.0005553551780117
1691524602.993691,0.16106297651018628,-0.06883703728437215,9.700543118302994,-0.0016922042935177452,0.002687070550562619,-0.0004244183476025
1691524603.003753,-0.07597012134190781,-0.06734886458300689,9.834618991234104,0.0005675885941981563,0.00035766369936045966,0.0002740888337661
1691524603.013716,0.03333894087700001,0.0888405466475786,9.831281488417892,-0.0003953952009255648,0.0003494703947833609,0.0012653984774892
1691524603.023655,0.09543555527119046,-0.003780719586694918,9.747537068971772,0.0003437174408458322,0.0019617728749909,0.001911713061208
1691524603.0336812,-0.2378265928747756,-0.19042781603086767,9.873829536565262,0.00300505639258714,-0.00227275507135803,-0.0014726889605576
1691524603.0436895,0.051279577126815856,0.09979907908986718,9.817556573574263,0.0007009671061541911,-0.0012959910878398045,-0.0023444075888896
1691524603.0537107,0.13897057701560683,0.016510038762882893,9.750667075315453,0.0015793736262597186,0.0005223312003347735,-0.0008446057147289
1691524603.0636878,0.022042343989070103,0.13322431525273348,9.869751937834828,-0.00017897539642511368,3.594510808524557e-08,0.0002495009864737
1691524603.073721,-0.07155452950802639,-0.11583393433285298,9.823050937418513,0.0013968264858498281,-0.001232676361085034,-0.0019420971914137
1691524603.0836828,0.09320065263454934,0.11662213150874022,9.79002233675865,9.187661163889237e-05,-0.00017691171495628396,-2.541868546405545e-05
1691524603.093684,0.014351910862813875,-0.03948956043960783,9.798418759325788,0.0011424032541052572,-0.0004026672237278027,-1.2052298466276245e-06
1691524603.1037557,0.061830752412174055,0.010413322780719287,9.775778993267966,0.00018388335937245012,0.0014048506316299517,-0.0019741090766097
1691524603.1137533,0.04207375668255353,0.06588745504299234,9.814561669655568,-0.0009150842854986948,0.0018593533881005263,-0.0020255043457205
1691524603.1297069,0.02853493514839786,0.06291699426949858,9.823076788712799,-0.0009456303700578985,0.0014059600991792518,0.0001872952741627
1691524603.133654,-0.07167515016128673,-0.25462910927883636,9.774470924557887,0.0005441213145857469,0.0010770111401266587,-0.0012946300960088
1691524603.143779,0.003401395300393622,0.02154944456037921,9.810696517558949,0.0004368127159956738,0.0011578671171488413,-0.0015647059592361
1691524603.159125,0.0009452269380307156,-0.0465798000688693,9.785012959302016,0.0012761724084709841,0.00169056932617143,-0.0037298335048312
1691524603.163683,-0.01867686948449611,0.11385252225500174,9.86613492169174,0.00222868573185685,0.00014868933320403413,-0.0003741201764846
1691524603.1736498,0.026824109186380275,-0.006280470049858951,9.80239856891974,0.002093059040626809,0.000692977401808647,-0.0016563376231993
1691524603.1837063,-0.03933802271660532,0.11851398452971999,9.868386656053168,0.0005437497113077239,-0.000675724791360395,-0.0007902083272988
1691524603.1937094,0.05417094210284165,0.13028100209513793,9.837343324279496,-0.0008018233955614299,-0.0006027139526779006,0.0006369407817778
1691524603.203778,0.08488553441170496,0.055980251361744816,9.778609450549087,-0.001146050201296962,0.000732433600640962,0.0017221069026795
1691524603.2137537,-0.032308408962937976,-0.09411694005635121,9.800644200410245,-1.3931813304873295e-05,0.0003911962881881597,-0.0004448812507967
1691524603.2237022,0.13094572438243982,0.09905050007629063,9.771760953106002,-0.0007466970944493766,0.0023417526187208566,0.0009453832933736
1691524603.2337203,0.01020645784655398,-0.007236191656269711,9.825892487755175,-0.0006069997561196561,0.0021279292425297348,-0.0003085281752924
1691524603.2438018,-0.33834663029526996,-0.16723586945444185,9.72577515680545,0.0022603431185548102,-0.0035751187978029586,-0.0016113058484102
1691524603.2537093,-0.1610724362223764,0.11752987197076895,10.106783311812263,0.000832642567251571,-0.01373769368223185,-0.002653265586769
1691524603.2637763,1.2218328977001114,0.14063777384169823,9.606249244392556,-0.00043187682133216833,-0.00039707589877772313,-0.0042692606623227
1691524603.2737117,0.8507747341960398,0.07947519881398359,9.868786803407437,-0.0023615304150748162,0.005170376158408898,-0.0040692311997468
1691524603.2837095,0.34833183659875994,-0.1515102391975692,9.706925395272469,0.00015857039500154714,0.011219129718437281,-0.0043735538895184
1691524603.2937858,-0.3451830211280802,0.1401356009760812,10.01366658215679,-0.0005600536129041769,0.0015005946717939324,-0.0035268117028231
1691524603.3037236,-0.7891043839987653,0.12264347829563939,9.600582368743405,0.0006200132525891614,-0.015408942362067914,-0.01147764802975
1691524603.3137867,-2.2131813553750836,-1.2204126563917677,10.34273285711504,0.006654253449251235,-0.0694842587083396,-0.0712403615291173
1691524603.3236992,0.575880171745274,-2.006859988884176,9.859463095269454,0.02408812371872607,-0.09533735458838623,-0.1322455813462788
1691524603.3337746,2.0703211258490257,0.0008884710723901163,9.869629040249562,0.025461588164617254,-0.11577041921929851,-0.1555758972938115
1691524603.3437278,3.842088945320524,4.042228846285587,11.087015966762086,-0.007855572428723484,-0.11760040747688975,-0.0958378051693494
1691524603.353714,14.716843689163154,6.735680694041891,10.013502692811539,-0.09521629636170091,0.01754346402251338,-0.0548399088258797
1691524603.3637133,11.44717315959622,-2.9287661393347943,7.215397774356927,-0.08702685650045985,0.18035914226747637,-0.0449627076561505
1691524603.3737028,-2.6240068418982108,-9.215774383782257,9.40639437430816,0.02411266045428567,0.1460861405914238,-0.0420990881795937
1691524603.3837106,-6.721287804196479,-4.318175190580037,10.44962311626802,0.08602922553957791,0.039557020623596194,-0.023355744528299
1691524603.3937073,-3.8457085403238276,5.2087696878809995,10.19102706247507,0.04724780749307692,-0.04939543364820509,0.0395205023412649
1691524603.4037986,-1.0396232258029214,4.5925918568747,11.549653878671958,-0.022762739512192903,-0.0934627116674899,0.0913562963430826
1691524603.4137473,3.194433040534201,-1.0178114070260909,9.289609731795025,0.001668704163391872,-0.09509298288268496,0.1065364743297045
1691524603.423689,5.519139985052157,-0.6977523689385495,9.001442311159495,0.016264390433954005,-0.04983530128638051,0.0930301065270846
1691524603.433754,5.76394349750536,0.22489937985196018,8.92067843169528,0.03153208102459412,0.008445232360782503,0.0695645699922983
1691524603.44378,3.140089110052004,3.0508636996432754,9.921162048540065,-0.006352663573068133,0.04065204808061281,0.0399627837066595
1691524603.4536588,1.0199882895592902,0.6505004580927392,9.734187636091654,-0.017117155727119245,0.04080643279893814,0.022781119001383
1691524603.4637918,-0.39046011914600975,-0.07880916151574359,10.408414559561054,-0.011828253246638712,0.01666118824285167,0.0074611373891179
1691524603.4737172,0.728393727891875,0.5648120884686828,9.905887166426481,-0.01406185132198846,0.010228488864132971,-0.0116023279081041
1691524603.4837315,1.9738247933311488,1.3643067901954813,9.892173537669956,-0.03189166558181096,0.022261343419386393,-0.0129112542892749
1691524603.4938335,2.6953405954939083,-1.261576139123247,9.616454945083621,-0.0251207026318141,0.053108489867525976,-0.0157000308210904
1691524603.5037923,0.887675482018114,-2.303266860328253,9.531091395462706,0.001409735919047854,0.07154092041096123,-0.0196197831357772
1691524603.5138123,-0.7785562784301768,-0.9808839669531574,9.562834957213942,0.013081389331606809,0.06296881253679092,-0.0056371714274341
1691524603.5237324,-2.541001355241028,0.9372611668970153,9.996544252554727,-0.0019275782508287407,0.03330446860161569,0.0034297732816134
1691524603.5337296,-2.029544906213338,-0.8380462977673886,9.266302612403253,0.0010591626105312549,0.007480214697852729,0.01259304701286
1691524603.5437472,-1.8548502170773096,-1.0816997068937508,9.330746510287705,0.01319049342115755,-0.01691975263978076,0.0202441720937435
1691524603.553728,-1.1276750681610086,-0.8319702827780981,9.334380028870946,0.03220833847861334,-0.025918712722248407,0.0171009584044163
1691524603.5637462,0.19500366119772508,1.0001394506868204,10.066872214771248,0.020013129399277962,-0.016779228692438468,0.0107085232337062
1691524603.5737326,0.7190220324349543,2.589455551865582,10.713456904393174,-0.007044365666850152,-0.0011243178421548926,0.0126285769690816
1691524603.5837765,0.7164107598552363,0.7635411158716904,11.142078444755919,-0.022733844898349568,0.019774920848123538,0.0044517333333437
1691524603.5937405,-0.568687249183429,-0.9958570236800317,10.60258093348184,-0.006091837657882007,0.01829758193203429,0.004581679375196
1691524603.6038284,-0.4631632243611564,-0.6181066455939077,9.617755249679956,0.00641989478348099,0.021311356358054607,0.0032970318750535
1691524603.6137931,-0.7226383090235169,0.41364156528989127,9.044582734774005,0.0010318221896064676,0.01938797654186269,-0.0020062713704014
1691524603.6237764,-0.9451171266202526,1.0923893586096478,8.532523257944577,-0.015342397686501141,0.018367114142650562,0.0042765084833895
1691524603.63372,-2.0980153507684545,-0.7616549985570648,9.30384785433592,-0.01236772947293466,-0.0036291905057646745,0.0019055553309676
1691524603.6437483,-1.9899244399458618,-0.9735065627738386,9.13856879278313,0.0016376920580844269,-0.019198282601432765,0.0005914964310882
1691524603.6537104,-0.9586136264861023,-0.6845944276233622,10.14031758327436,0.007969829640277034,-0.030940691881070348,0.0037697530531381
1691524603.6637535,-0.3522478543024682,0.025799805684734688,10.262147030614447,0.009650193103910725,-0.029372016106161088,-0.0001077059243748
1691524603.673766,0.7010242244982612,-0.13106982533699452,10.57515556755244,0.009768392520353527,-0.020477460521805105,0.0027060514728595
1691524603.6837103,0.5223365213673269,0.4796938607001049,10.002804345063522,0.007120756836427989,-0.004975759988038157,0.002553691290604
1691524603.6938095,-0.029479159971271422,0.5851625705425629,10.531923295709321,-0.0019108444323105058,-0.007601027925336544,-0.0005898431229347
1691524603.703737,0.6215510261862327,1.0895416422090487,9.89212275791397,-0.011897951414234567,0.003969378727721041,0.0033534139108901
1691524603.7138338,0.4918476589169704,-0.16573930718432703,9.827918604202331,-0.010193727488497544,0.0094070800683138,0.0018742634745371
1691524603.723747,0.10133836051992551,-0.3439450794467093,9.314631932268924,-0.001908348317417645,0.014489554724068997,-0.0010222473467642
1691524603.7337146,-0.08601737399497764,-0.15963281928635698,9.302045140134284,0.0020460815494235903,0.013221480125193166,-0.0019972147240246
1691524603.7437265,-0.3221681106726704,-0.2890215403484556,9.517992296969785,0.0016526745463849087,0.011748476945493472,-0.0043564943882579
1691524603.7536988,-0.17290205397052585,-0.6388721270809085,9.3438699279134,0.006429448217302126,0.008704108814694212,0.0017373778571431
1691524603.763757,-0.5257062053150813,-0.3611654464232358,9.780962078112136,0.009646231495435103,0.0010725188445677165,0.0136220960591976
1691524603.773738,-0.5786273230627387,-0.13577492407013747,9.933348438215846,0.011033395369054984,-0.01221784596071088,0.0220051987742131
1691524603.7837348,-0.15527171040131976,0.04499853002840319,9.925991428645178,0.011345430214795017,-0.0177857329306697,0.0306721723352616
1691524603.793777,0.28944260601762717,-0.2258102986966875,9.985462257734234,0.013490042270292492,-0.02117615678122958,0.0259213114802782
1691524603.8037488,0.3127050775055963,-0.3141755391388339,9.484355917591609,0.021356180593694995,-0.017565118889155896,0.0143894080718105
1691524603.81379,-0.11609137278960824,0.9983707536525007,10.036403297117742,0.01051246960845187,-0.02352728293417558,0.0001324304792155
1691524603.8237529,0.3481162162000579,1.114889512227409,10.584448045801391,-0.004173262616150227,-0.025227520181921804,-0.0157590468699986
1691524603.8337598,1.6162150365435481,0.8932947992547083,10.542522074974244,-0.015274838964172203,-0.013439534387068089,-0.0221160163457448
1691524603.84375,2.078417303149768,-0.2998165330918789,10.105008553508014,-0.010954701554623381,0.00789152564745275,-0.021701641129976
1691524603.8537712,1.7751233514794071,-0.08084170124131473,9.61949257297412,-0.0069021509574607055,0.025415298239995946,-0.0140089073504264
1691524603.8638337,1.2099667759184989,-0.04821445543711289,9.234946963245298,-0.0028204007381019466,0.036760086491489714,0.0016452540183031
1691524603.8737347,0.11713495377441512,-0.25990427013848555,9.151726548709883,-0.0011867939367636252,0.035254328487768445,0.0116570920397584
1691524603.8837628,-0.9148922956865224,-0.08031469381141033,9.132658418590575,-0.0023167880248252185,0.026175502459200705,0.0158061797444765
1691524603.8938637,-1.9587841149722869,-0.37173085834427577,9.798181872893364,-0.0012922281022133193,-0.0008038078213064327,0.0135454510052745
1691524603.903788,-1.6623400131671677,-0.42394571705300205,9.708555442191765,0.00335462716597107,-0.02043874942336445,0.0058716598612313
1691524603.9137836,-0.3147462831315005,-0.2673621672925681,10.054083715823765,0.004459195832371047,-0.025378466526909005,6.027905671498069e-05
1691524603.9238205,0.5157512906436665,-0.19713999353078865,9.754255337744294,0.010757824893713292,-0.015185330987340527,-0.0031750404561812
1691524603.933742,0.4864313723281472,0.5921514973261454,10.158890743446934,0.0043197109137567,-0.005271236958243368,-0.0021883325937146
1691524603.943741,0.12293323263375396,1.2342965683191356,10.297884923095044,-0.005378342542644672,-0.0004954565955685206,0.0032882522971426
1691524603.9537785,0.07162365820284725,0.7841936178532832,10.673253495335729,-0.014494500188037466,-0.0005874095419762269,0.0015179494401031
1691524603.9637156,0.7941603679245428,0.20205074836399553,10.142059379447154,-0.01615753205045989,0.010245301126108436,0.0032853635673468
1691524603.9737692,0.4546773908313785,-0.4610967211901006,9.598944624932887,-0.008797259810885649,0.01721563682892247,0.0019301311874819
1691524603.9838085,-0.01792920667181363,-0.47345680671309864,9.160429924544632,-0.0023889731626172517,0.018612695437814228,-0.0045717514405901
1691524603.993773,-0.11802916454968497,-0.12869789615535876,9.04611728662654,-0.00524790302035009,0.01780024860341848,-0.0035323307204003
1691524604.003726,-0.4265814215251691,-1.191114341062572,9.129889891862451,0.006340620518091059,0.012570281905964648,-0.0040115632402653
1691524604.0138335,-0.6317721884222657,-0.6322176134251584,9.540185592515092,0.010195973736133705,0.0052012055244486525,-0.0021731576236839
1691524604.0238886,-0.5966263250693561,-0.08171275661305441,10.029867261103911,0.009278813125758421,-0.0022720474984461946,0.0049433808487897
1691524604.033829,-0.42615495281850835,-0.1101215618436168,10.253303282329322,0.010052532587715815,-0.009974490852970147,0.0100514574621861
1691524604.0438333,0.176014104528338,-0.15115874602956594,9.839666664502376,0.013854974272734034,-0.007402081664414544,0.0122631911833827
1691524604.053765,-0.12828100293218075,0.2754876297521462,9.710845082810595,0.01454969688780938,-0.007657544397091303,0.0119470267270748
1691524604.063766,-0.866303911952158,0.4477224593352825,10.178273375282854,0.012388500409594922,-0.018871456707054,0.0044953178328519
1691524604.073756,0.39057434977267796,1.5150559639549779,10.400569436552525,-0.0022192665252232964,-0.01555899341370338,-0.0002032719605545
1691524604.0837612,0.6852936858287024,0.6798436606434239,10.645852681804017,-0.01336977644506198,-0.008281756414495073,-0.0107509109477455
1691524604.0938828,1.570352256938921,-0.036465499206320494,9.822079886444257,-0.011821471435227738,0.013181506351751266,-0.0075970149884874
1691524604.1037576,0.7899462309644751,-0.8980348843731475,9.537661320143098,0.001256910358885984,0.02150906616549373,-0.0039468041907007
1691524604.1138024,0.275479098935255,-0.35527720911451566,9.162930906936932,0.005646369434945681,0.025003053661289333,-0.0005993435445184
1691524604.123944,-0.2829838315531236,0.08516680668601762,9.168161940227208,-0.00036966059331626906,0.020087150207281246,0.0057354907219355
1691524604.1337993,-1.113768437915362,-0.4377613933417791,9.356243947981264,0.0017680361165787013,0.005854757869010907,0.0100015022506063
1691524604.1438303,-1.1086700156019218,-0.6039986681497589,9.713296715016075,0.006345258060483444,-0.011128145796219955,0.0120291796227042
1691524604.1540346,-0.5685387306748048,-0.4564850602316575,9.813826682994128,0.013080916797837976,-0.01832243089870151,0.0101284731824939
1691524604.1638982,-0.3335854514827143,0.1948999808336214,9.963606033611757,0.01391662394363183,-0.024539830155813746,0.0031133163900171
1691524604.1737523,0.4684552807931435,0.4939038826400097,10.08331533533839,0.006012151989911111,-0.018175634102995535,0.0002472999219839
1691524604.1837826,0.29796869068707327,-0.21596454836082832,9.901855623434018,0.014402219660869395,-0.01310923752236826,-0.003549907571351
1691524604.193779,0.2891106165240602,1.205736511349913,10.347556861667986,0.004285103027078218,-0.010909393834796754,-0.0026045611414069
1691524604.203797,0.9923119500373535,2.375748038192714,10.583257826072808,-0.02019041875136435,-0.0009427564658687414,-0.0019352526689822
1691524604.2138298,1.20035619107987,0.5457542549965709,10.375273772159236,-0.03004383300057357,0.012740934968703354,-0.0007904851629341
1691524604.223811,0.4957558419230564,-1.1588926967796773,9.513289920463903,-0.013040464904167803,0.019242980703690977,-0.0027508244204277
1691524604.233751,0.3344072304822555,-0.6758838896506506,9.072231238054211,-3.398585862700515e-05,0.022916157039782857,-8.834431012520304e-05
1691524604.2439055,-0.2978450162445854,-0.40331098764013695,9.04015233960199,0.00170520341303048,0.019490429399883692,-0.0041420825111622
1691524604.2538304,-0.4770202357664672,-0.19461291630855515,9.25831313934965,-0.0019644891148173755,0.01500624861420257,-0.0017088791175688
1691524604.2637577,-1.1160148409854307,-0.7929922149719851,9.87158638822772,0.001305543994913581,0.0011638378031248173,0.0001157603872065
1691524604.2737834,-0.9326968398454889,-0.8326457812070387,9.859241368801436,0.008306133302324055,-0.006129954920977929,0.0025267488270123
1691524604.2837975,-0.6861586466788042,-0.5688174320136997,10.08036324771912,0.015844620715796242,-0.013228443915701264,0.0065520468813424
1691524604.293789,-0.6554656290580118,0.2729268968696313,9.740726968408843,0.016734199615007696,-0.014656819369719807,0.0022289265359809
1691524604.3038542,-0.8927396706137435,1.7456177002184243,10.142826199118492,-0.0013997629350987403,-0.018881644711512314,0.0064169664581363
1691524604.3138378,-0.0920475670258954,1.7630332614443487,10.77287272538804,-0.01664630981631796,-0.01848842676188012,0.0124106493492667
1691524604.3237746,1.055678910808222,0.7692444826704857,10.348555242969645,-0.02303645667925128,0.0025514193984045638,0.0213705490057413
1691524604.333768,0.795340219919741,-0.16411008489091078,10.031294571017307,-0.01614670070216617,0.018292388272908324,0.0241349900786822
1691524604.3437476,0.07456919373600358,-0.12410826721294067,9.330868257510604,-0.010148055201664737,0.031081200988292625,0.0189936610584204
1691524604.353847,-1.1381333665876967,0.05379468411680626,9.451500948238746,-0.01655158545415776,0.024501736458266338,0.0093848698486631
1691524604.3638885,-1.7811128491294914,-0.7905453806747472,9.171387041113839,-0.015802330490556127,0.01137863782294706,-0.0012368822756166
1691524604.3737776,-1.807418065914922,-2.064364761812279,9.406157238073794,0.0022904544277289585,-0.006829297745774153,-0.0089902800793702
1691524604.3839183,-0.6568984040650954,-1.751234157773869,9.379864606889592,0.01885198383404186,-0.008862415263354517,-0.0158352681721503
1691524604.3937838,0.28555570460172086,-0.23718620862098835,9.959730040398256,0.019132634542536223,0.0008229961337209396,-0.018791874619847
1691524604.4038544,0.6120665070271583,-0.045939093416865355,9.488997982270499,0.019155606525801828,0.026099919281262353,-0.0224270277942473
1691524604.4139268,-3.502100043128645,0.5278195206793723,10.138332968942898,0.008559886885503283,0.004807845917684198,-0.0357229222829396
1691524604.4237993,-2.297264302813254,0.5584961751323279,10.572819440012402,0.0012294464183794627,-0.01834970912088534,-0.0357557756180817
1691524604.4337971,-0.48450877374347384,0.30535874444875244,9.702260994529977,0.006884525595376106,-0.014148756888195464,-0.0313566026563698
1691524604.4437954,-0.17152530587497622,0.9715346754452148,9.49950217406796,-0.0010590626923652126,0.0003864221164591095,-0.0295375378156954
1691524604.4537718,-0.5220789120015144,0.14793040845473113,9.846866729912103,0.0014564789403568525,0.009617361711015711,-0.0388656293327862
1691524604.4638116,-0.46240971436385625,1.1313804849112523,9.803558720308946,-0.011547820480145502,0.025649383154650842,-0.0486590897018964
1691524604.4739108,-1.8371719374803057,0.8636568785168017,10.196852560590168,-0.02078910085381544,0.02152358472536124,-0.0573105995829159
1691524604.4838138,-1.0865207246382247,-0.31894299399993314,10.08861378087642,-0.01596839598955864,0.016106796318198495,-0.0461886336381489
1691524604.4938133,-1.772618657186825,-1.4855300548816885,9.304386703288992,0.007866911829572495,0.005264292257552671,-0.0332462636108452
1691524604.503868,-3.6130190007119096,0.011834615956406605,9.77912713875186,0.010179242086118388,-0.029027766213735397,-0.0223151554639394
1691524604.513864,-2.1952302363018528,1.282528531088978,10.37123705881993,-0.0016982631657357678,-0.060977647531149995,-0.0093201368401701
1691524604.5237985,0.26379889872063883,-1.0709068851667425,9.6226883412086,0.005826911628628165,-0.05105303324948182,-0.0092095851252729
1691524604.5338638,1.935495469507754,1.5079191098705813,9.68397348049833,-0.006507757989490642,-0.02485188672946818,-0.0114857961709553
1691524604.5437882,3.1250732432602066,0.3770525429117132,9.853840190779138,-0.022936417651333103,0.02498231735430188,-0.0071483382309729
1691524604.553935,0.8745391060702018,-1.6940441614710904,9.592240173352604,-0.01380658373841742,0.051122891732695304,-0.0136864564667398
1691524604.5638163,-2.1222957100467497,-2.3357214811425497,9.953966300760527,0.015664444887386803,0.040933716099809996,-0.0195114963973815
1691524604.57381,-3.4001932203636196,-0.9198594029326541,10.166110490491352,0.030428123030789064,0.006293763456575165,-0.0288162098552043
1691524604.5838325,-3.353383424034797,1.5603350178984237,10.08856780260821,0.013339763772576415,-0.025981511581493182,-0.0358236578579003
1691524604.5938096,-1.1529147123918462,1.2247298649014728,9.689221220979116,-0.0066360024971838984,-0.041350283242954075,-0.0386280116910989
1691524604.6038158,0.720364123818276,0.16891318113831905,9.072079408112097,-0.0045674623455046765,-0.029707117619302156,-0.0368463655288274
1691524604.6139455,1.9725457909237891,-0.2483581366585199,9.272547671151619,-0.0016890454468676303,0.0007661353267458391,-0.0403073800082261
1691524604.623818,0.49452703374566925,-0.08009952170655293,9.891067260638394,0.002179967134733297,0.014782378978176785,-0.0386009102041775
1691524604.6338437,-0.3762642443078609,-0.10501760325729396,10.441684229399234,0.008005373262998139,0.016905139354292,-0.0480750163371617
1691524604.643831,-1.4874345463312288,0.4294707005764344,10.44427815745225,0.002689187295435109,0.005662792378997597,-0.0525099967892224
1691524604.653794,-0.8625911280634044,0.7310176820547735,10.034147668457338,-0.004125847230065197,-0.0048304175957638055,-0.0500612926955277
1691524604.663843,-0.24687216013384908,-0.08784262962557719,9.516553812120227,-0.001071758173498572,-0.005071003640101004,-0.0530422401900346
1691524604.6738827,0.1408447697383548,0.11710581865812887,9.224848369680643,-0.00017107060381824088,0.0005417774601753993,-0.0561178584868962
1691524604.683819,-0.16553629468830375,0.08769838546847357,9.367482339958347,0.005435533293954367,0.003096600382617373,-0.05579300944758
1691524604.6937797,-0.8278918393188089,0.26561207506055384,9.891586412570387,0.0020568170704009106,-0.0017570478982418015,-0.0696678643400723
1691524604.703868,-0.7776238271670571,0.24997565936426014,10.11834184241792,-0.0013645982342109515,-0.008428555012145922,-0.0768430938298756
1691524604.7138772,-0.4013869377209166,-0.1429845045270366,10.149074003664218,-0.00016057408442532868,-0.014392529709132525,-0.0844244917209203
1691524604.7237844,-0.20847489416143575,-0.7400961457392512,9.91722660501297,0.008440498070326303,-0.01773681267638782,-0.1012379338319356
1691524604.7346108,0.7572112069335285,0.13386119264318588,9.531835212761866,0.010994097084122223,-0.008633720054442587,-0.1075025384600217
1691524604.7437844,0.6438827602453918,0.40812308634448946,9.662443855044305,0.004357517179683313,-0.001118922818959227,-0.1184594963963086
1691524604.7540345,0.4474309786284904,0.16640128922515615,9.609598426046032,0.002095104850906531,0.0042300017785758415,-0.1264587899024541
1691524604.763808,0.14737899101094917,0.1381081713559614,9.708752327576821,0.004316635648235819,0.0024645013315476747,-0.1248796095426137
1691524604.7802732,-0.015887104699286232,-0.030768169804175075,9.83718084102772,0.004152572913066429,-0.00033603649352038483,-0.133745487528568
1691524604.7839036,-0.650067274015013,-0.498053592221896,10.097535835566962,0.008621149403361672,-0.00716984093219648,-0.1360755970056111
1691524604.7938917,0.404284393669001,-0.20053388387374213,9.752522451933967,0.011825318092242229,-0.006444178010132996,-0.1509047110850865
1691524604.803902,-0.28802011723055143,-0.7938642282695124,9.686327959945086,0.024327164937676084,-0.012703723581194048,-0.1815220524842793
1691524604.813871,-0.3146008209045327,2.479927745590944,10.324136934126614,-0.0004358857696101954,-0.010767998999247142,-0.2098601569707448
1691524604.823942,1.0878238019955058,1.3475148449666376,10.363285098932916,-0.04441287113278783,0.008253173727048325,-0.2452236225183064
1691524604.833997,0.7494921959838093,-1.0119240033335553,9.967055989299716,-0.03726347102933167,0.014603022655534927,-0.2682021220500524
1691524604.843902,1.2715752741320239,-3.104608477384545,9.111636133630036,-0.005294550673950508,0.03887113860832143,-0.2829194029147679
1691524604.8539045,-0.9337651837894392,-1.0513454709045307,9.603181996288148,0.004372575535643251,0.03650944942096525,-0.2765403648192937
1691524604.863876,-1.515273819936959,-0.26667148252121653,9.892744529207116,0.015016332354795613,0.021817558576714385,-0.2691047151858861
1691524604.8738923,-2.0599410230187214,1.1138837919487934,10.161351303105773,0.0011742153243408905,-0.003894901646899613,-0.2657914717967565
1691524604.8838463,-1.2356234202987213,1.4095221769307231,10.172343905841775,-0.02092590515426083,-0.019715362477973345,-0.2668769617850835
1691524604.893799,-0.47308807635814903,-0.45343817381037343,9.921122442812722,-0.01854033609854647,-0.02718013382592923,-0.2755477388675267
1691524604.9038734,0.4650809630406021,-0.8453809591736505,9.525008752036864,-0.011842478076345588,-0.019560507858898717,-0.2850268443400914
1691524604.913843,0.9176412209431146,-0.7100355371927166,9.612500448945829,-0.00435233454916282,-0.008021718864601879,-0.2943296988780553
1691524604.9238243,0.6764570469667419,-0.5034344303675585,9.633178882489478,-0.000750280217828559,0.00545857960170569,-0.3033149500663335
1691524604.9338274,0.30571922643588817,-0.0954013841836621,9.787408395230749,-0.002638364819198532,0.010892201995795296,-0.3065444787318761
1691524604.9438217,-0.372089692219104,-0.37293324998681926,9.805298937847482,-0.001280720180855937,0.009251760045655174,-0.3104481955344731
1691524604.953941,-0.5580860913952319,-0.24799936479830675,9.788812378399449,0.0015403795967203913,0.001670134714505956,-0.3115106483275945
1691524604.9639428,-0.6170549491399183,-0.2871058629927061,9.649344871685885,0.0031473637908160956,-0.005047269795661339,-0.3257435222442205
1691524604.9738407,-0.34748812555519726,-0.7833836935199749,9.540156503454723,0.009144532606622994,-0.00591875527897995,-0.3506254812057073
1691524604.9838486,-0.3871078093929543,-0.40447162248280955,9.579509109245715,0.009487842689368055,-0.008513961090602054,-0.3729619642074163
1691524604.9938314,-0.33412880123136945,0.22519992395324745,9.407837110333189,0.004848568233642808,-0.0030683179659905255,-0.3926155527408178
1691524605.0038414,-1.1994087075649273,0.11126582967002215,10.390493296466316,-0.0010911187273616744,-0.019202193946810026,-0.4045484622294957
1691524605.0139544,-0.06988556652811286,1.2071143613002064,10.450145585485709,-0.014161962097611318,-0.021314036097027318,-0.4062186737830693
1691524605.023919,0.86935481250572,0.5599726827160113,10.390479121385306,-0.02461701109476154,-0.011002564602388121,-0.4087617953593785
1691524605.0339415,1.2503103498471795,-0.08247771566775004,9.927903432740417,-0.028966045820152792,0.00811765140262474,-0.411534007387882
1691524605.0440743,0.6329760866539695,-1.7896613605532061,9.726743921041058,-0.008758594151109992,0.017940014042128218,-0.4225510915095861
1691524605.0539825,-0.12960561489772301,-1.1029706444604286,9.482650458786518,0.0036940313899093873,0.022024583892051638,-0.4349510033900792
1691524605.0638657,-0.7473459144658992,-0.18736427013376697,9.667761455681246,0.007856882302560314,0.014783440848954735,-0.4377507229621465
1691524605.0738702,-1.4850993595710775,0.6420198546951796,9.770984119592038,-0.0015541596797282223,-0.0023889318783905746,-0.4434560497577245
1691524605.0839024,-0.9407954520936271,0.40959696186709893,9.572083817315495,-0.00732428390531577,-0.012909812399371069,-0.4443941076571996
1691524605.0939136,-0.40307543066326357,0.061739039056830064,9.619078520632383,-0.009917498246056186,-0.017228026783078474,-0.4466541667754705
1691524605.1075325,0.22272826145779367,-0.7386220937755194,9.709045686673942,-0.0008016258023602345,-0.014369952425721741,-0.448771144943958
1691524605.1139183,0.9466002093981434,-1.222107384490875,9.378250934894,0.00978275704834613,-0.003558914196285076,-0.4502628405864293
1691524605.1239474,0.4299294141217556,-0.5815356932447324,9.710195764935905,0.016750641152512832,0.003605234979497188,-0.4531484206492955
1691524605.1340008,0.21275448929540897,0.026110535745817214,9.615622535090973,0.01819207460052406,0.010140368891779482,-0.4548423250491674
1691524605.1439664,-0.9158054438548456,0.923984027458998,10.080091796635246,0.006742010238065876,0.0013638833216672564,-0.4587480982120092
1691524605.154384,-0.6540959605188569,2.152250727727564,10.641164444585701,-0.021843374760686946,-0.009365812765434493,-0.4634367187793309
1691524605.163993,0.2762196564318393,1.2036299439107576,10.393736210411635,-0.043594722729874344,-0.008648853150632331,-0.4629788358981664
1691524605.1739194,0.6445369963009971,-1.1445297039454148,9.99422652322657,-0.03648891867844566,-0.0012796474491091811,-0.4702084024722631
1691524605.1839044,0.8633434616168207,-1.574716842163659,9.40623319949255,-0.01711311788813203,0.010764847133175041,-0.4750389715011174
1691524605.193902,0.5012453490278532,-0.910974001203418,9.40117285884422,-0.004659771659878656,0.021313519290505425,-0.4771288593585546
1691524605.2039278,-0.791451519326611,-0.3643389819356449,9.868583914238837,-0.0005346162414627928,0.012529432617590113,-0.4808565338428075
1691524605.2141354,-0.7583224097327486,0.5996102293283248,9.833588201347677,-0.00652771363142332,0.004526640993087971,-0.4764628966624791
1691524605.223905,-0.9130482463613154,0.5278039642370677,9.904751879098535,-0.013882952433953384,-0.007396497019191622,-0.4740737636859471
1691524605.2339444,-0.29432888294105813,-0.08825770647194658,9.72648851948504,-0.012879217654528909,-0.012314551827222272,-0.4710036774451787
1691524605.2439668,0.24748105641622162,-0.3467132684404221,9.65888679272341,-0.010980970510300331,-0.00998098583154021,-0.4702009518916661
1691524605.2538905,0.5060305212409721,-1.193113930665373,9.346827055877862,0.00478804134864233,-0.0005245434603304939,-0.474510069685703
1691524605.2639065,0.15766926077520457,-0.3913907137240321,9.445432206121529,0.011612234934350478,0.002434803119041972,-0.4754130502517278
1691524605.2739968,-0.09228617379471676,-0.13751512976938343,9.553367481777034,0.012135864057668831,0.005772510482086421,-0.4810004194552953
1691524605.2839265,-0.6659315442449981,-0.14211151419415938,9.763102645288146,0.015041055030155058,-0.004073468072589533,-0.4828484018619115
1691524605.2939155,-0.5888788412357355,0.5950130823860349,9.842298071359165,0.007831341272777499,-0.008214760879713453,-0.4867220481212194
1691524605.303996,-0.7396734212361663,0.7264060492462235,10.264733196063188,-0.0011485274510363863,-0.019940041859471527,-0.4862347801501805
1691524605.313979,-0.010391620423276219,0.5862689345125908,10.207655155030434,-0.007335582080994925,-0.019815523685343707,-0.4920585413749272
1691524605.3239489,1.0539775532011348,0.8097989364336478,10.239345931214821,-0.020079192580627812,-0.008029287546279861,-0.4938067456061895
1691524605.3339827,1.1994062897565907,-0.3548842392781612,10.025335835192344,-0.02017068425962223,0.008972357850537214,-0.49704411228252
1691524605.344057,0.9827892031471078,-1.0922932177294762,9.712108579471446,-0.0068137990038282,0.02148873260378927,-0.4963778217608983
1691524605.354283,-0.03225410544518652,-0.8882328028525858,9.695626552956464,0.0068450995565266055,0.022136626634130255,-0.4930427630717809
1691524605.3639464,-0.6531754959577859,0.09883843150957282,9.644081389213852,0.0053734963419744056,0.017370421128649807,-0.4922090133006627
1691524605.3739097,-1.2226748516681536,0.7196133371080213,9.722696656945082,-0.001446172615532838,0.0010190363835377958,-0.4855738540465886
1691524605.3838732,-0.8126189519002176,0.5197324081871071,9.625201026346533,-0.008833915461892184,-0.009210226418946832,-0.4826196690375859
1691524605.393921,-0.19161452990889608,-0.4997637713693595,9.594584897539313,-0.0032043337627976434,-0.012218688404507986,-0.4819906314189489
1691524605.4039369,0.6268851297620045,-0.6862327653018571,9.56857499870622,0.00489545324469491,-0.0032077519649892296,-0.4779640694434697
1691524605.413943,0.6261262246987062,-0.8036345925896503,9.525891072613394,0.015481923879322077,0.008097280252661895,-0.4815284570033605
1691524605.4239116,0.13403008659752452,-0.2117162082923302,9.656709533982452,0.020104515086146985,0.013181387110579442,-0.4860131402785833
1691524605.4339085,-0.8799378071198047,1.0607061824291246,9.946362887851267,0.010754427130528084,0.007739990947781817,-0.4853972454841191
1691524605.4438984,-1.8790909187431362,1.3122027692670046,10.45702597818694,-0.006239156026102246,-0.014028799181226643,-0.4905083139712865
1691524605.453909,-0.9390099314359681,1.3629884540184523,10.431939900124835,-0.02147395131659353,-0.028810330507798472,-0.4878183861548955
1691524605.4639182,0.26721293047243844,0.4144417157708933,10.352969799330712,-0.030825897589749535,-0.027459369484059894,-0.4921753366763646
1691524605.473893,1.3716659369558737,-0.3248820735520461,9.97001587299154,-0.029836920818853228,-0.012621139788800986,-0.495688345032459
1691524605.4839249,1.4872458394669146,-0.7499231537371154,9.456210523627774,-0.019164094557277012,0.008458888858613366,-0.4985659678752477
1691524605.4939291,0.9656168129681769,-0.8061150994985891,9.538957083165844,-0.011064122916247497,0.02378767061152291,-0.5054130216414983
1691524605.5039632,-0.43944514404074886,-0.18504183683486755,9.755914607757548,-0.007702261692671253,0.019750768700581026,-0.5029101033980901
1691524605.514032,-0.8656679035466396,0.07345256130033292,9.852812452202205,-0.008218950756872873,0.008750841894872071,-0.5007658263022954
1691524605.523878,-0.9121930463826486,0.19519167952884392,9.782624778392728,-0.011995406780511931,-0.0027331285038515226,-0.4972158630664403
1691524605.5339868,-0.41495944376797744,-0.42501432566254194,9.659413532015005,-0.006701786981507425,-0.00974493263245044,-0.4967324395949895
1691524605.5440173,0.05549394626999591,-0.8320488878072103,9.526642821149691,0.002532099416840289,-0.009314624527175125,-0.4966792126472051
1691524605.5539002,0.435478563899238,-0.3845418762522353,9.361515179806878,0.009535902377446505,-0.003494127862094083,-0.4949941595370824
1691524605.5640423,0.3999635850959207,-0.1281134047814265,9.569309893712674,0.012024934921007526,0.001649887643765481,-0.4939670522983129
1691524605.573907,0.15925980117493563,0.002517497805187391,9.468257407783165,0.012809877303018543,0.006751196323469435,-0.4950015803153569
1691524605.5839145,-0.6508764253233409,0.35756629832134096,9.955610124007716,0.008850144731192656,0.0002492543516411059,-0.4980479737098272
1691524605.5939903,-0.9187313469786712,0.7268274407240081,10.164424632117901,0.0013335409351433291,-0.010062077869385611,-0.4986503084476049
1691524605.6039116,-0.5366933840077356,0.7945426262009475,10.329130268447146,-0.008855909955794997,-0.01819217473011012,-0.4997759719665105
1691524605.6139455,0.3891646655087517,0.45762994951517744,10.31195818504377,-0.015360814620902575,-0.015665199990810348,-0.5058003326232487
1691524605.62394,1.4940524975378748,-0.15242712846303072,9.783843060733162,-0.015304846374684442,0.005236017748797306,-0.5079798360641057
1691524605.6339424,0.9405712985254802,-0.8073729767995527,9.921905722842052,-0.006636128439874798,0.01506062731859103,-0.5104242225463445
1691524605.6447382,0.35684151268800135,-0.7422234787150946,9.656858815946794,0.0023114593803440636,0.021284519640513058,-0.5126512308890874
1691524605.6538944,-0.3107290009116275,-0.1584930985832469,9.611833718916223,0.007666980211487513,0.018931046315548986,-0.5086460371787602
1691524605.663887,-0.8894017687151763,0.5679218958550064,9.742083189571698,0.0005388745098437987,0.008741672980736378,-0.5054675598914677
1691524605.673911,-0.7941455424478499,0.048040906335994484,9.766396900252076,0.0006057449363215102,-0.0029538467464641197,-0.5017050166900212
1691524605.6839066,-0.19336002819162618,-0.10757770653180462,9.698492295830324,0.00042148868616869074,-0.006896216835245104,-0.496784593659168
1691524605.6938667,0.34204439376570467,-0.466355671260273,9.541351635786228,0.006287809188934113,-0.002439562094980603,-0.4957642515475804
1691524605.7039273,0.6110998990540749,-0.441788957532032,9.502455132318392,0.012934132993528887,0.007266496502407081,-0.4940755327518041
1691524605.713931,0.4095967391440968,-0.1641845894660222,9.483325190641096,0.01764223905476624,0.014850978388711675,-0.4919053872401769
1691524605.723907,-0.3225516835058076,0.28539375542681783,9.788376957494858,0.01354215875122207,0.014396005255208226,-0.4970037599380071
1691524605.7338934,-1.507728645856027,0.9548444210045537,10.198567224746842,0.003713889506002137,-0.0014866264827224473,-0.4972492118651921
1691524605.7438982,-1.472481184382426,0.7412491621839925,10.477942972869581,-0.005569942548762767,-0.022276455084459027,-0.4978188832576329
1691524605.7539382,-1.0093403640027252,-0.33392429403080487,10.270891350255143,-0.0027468806495170705,-0.036668894319822065,-0.5033059378440434
1691524605.7639055,0.9126940349664354,0.6108280939054367,10.148797028388422,-0.008582699622390028,-0.028321689086801636,-0.5087513585860783
1691524605.7739077,2.034034950450617,0.541747285295399,9.703078671715383,-0.015374205783813426,-0.002450697775522777,-0.5067278405005986
1691524605.7839017,1.6565991348383873,-0.10033443320016425,9.524223212156803,-0.017480888120993077,0.01998848705367618,-0.5106889863784367
1691524605.7938995,0.3352182225659465,-0.851461838124282,9.567095982789526,-0.004501366222424917,0.025773137370313778,-0.508663620548969
1691524605.803929,-0.40431689066155074,-0.19820124862071983,9.586798316571151,0.00013223168178585308,0.023100406613728273,-0.5075615902717168
1691524605.8140135,-1.0405031773287996,0.13774771132748367,9.948815225788708,-0.002224109134626125,0.009828998724617207,-0.5075953861053044
1691524605.824026,-0.5108056855778355,0.23711630928203592,9.72304833865036,-0.004078429181927746,0.002718358053991721,-0.5003817339713628
1691524605.833923,-0.4210950301854991,-0.2805347471514314,9.7856882587132,-0.0010746824907725743,-0.0044099085092194155,-0.4971732457454259
1691524605.843953,0.279752286825715,-0.3971396636111495,9.523083523387838,0.0057296896074820304,-0.002847597649191364,-0.493981357413059
1691524605.8538618,0.5332578833229067,-0.27831243328169725,9.401334711110275,0.010217462799891603,0.005304208926902075,-0.4916362424666936
1691524605.863925,0.21248292257749257,-0.2501370344479555,9.619486197246811,0.013234113108178491,0.007548861264539646,-0.4929828604037816
1691524605.8740294,-0.10786260138822212,0.2671106983600065,9.62122789557879,0.010096254007080425,0.010902230742120668,-0.4952714403445775
1691524605.8839805,-0.8565870568278892,0.36875229064549886,10.0689508837865,0.00917835820830461,0.0014644516700362173,-0.4942254682357366
1691524605.893882,-0.7623190842225367,0.637720250817359,10.237855407371244,-0.0001469249123317371,-0.0068026707162514985,-0.4996960421378667
1691524605.9039285,-0.36251765681945386,-0.10119653420527498,10.068110147507541,0.0005606589243473012,-0.011030744804868138,-0.5054705401237065
1691524605.9140186,0.06222136233882917,-0.675234937485273,9.876029700251298,0.008033551365703714,-0.009770951936544892,-0.5086768527801091
1691524605.9239576,0.5929698136421616,-0.10089426814119476,9.818461849551845,0.013554803293621813,-0.003143228961152596,-0.5091665049369389
1691524605.9339497,0.967001844959498,0.7022410874181853,9.718661633843507,0.006685387623820636,0.009811344001655406,-0.5093282123382146
1691524605.9439282,0.817856640401855,1.1118029291532152,9.770277870633876,-0.007703922192872741,0.019908182700381992,-0.5045111437614018
1691524605.9539776,0.156473523344496,0.13307806336551553,9.708503914725645,-0.011725890460659038,0.022204878689318135,-0.4990579744155461
1691524605.9640183,-0.7767513959580025,-0.9559184461479922,9.601836802162858,0.004139576422531132,0.012430548808103908,-0.4964469333465154
1691524605.9739437,-0.6943354608018334,-0.4106581184327068,9.808534660511501,0.012123983793338091,0.0020300407430438963,-0.4908123274619634
1691524605.9839137,-0.3726292357604594,0.14977193002153547,9.833553762186588,0.012426598984374948,-0.003791517333648218,-0.4845218022639806
1691524605.9939885,0.028701953687007415,0.0893384382966346,9.678216499551393,0.011683748755530203,-0.002261414813468616,-0.4834150632197911
1691524606.0039835,0.18825512854477663,0.1355171163103979,9.59612425086609,0.012395996960840271,0.0003051694252181882,-0.4820482393081243
1691524606.013984,0.09434925355135687,0.48447629978490014,9.655401135652859,0.012512063861092255,0.002451268961631586,-0.4787888487155492
1691524606.0239277,-1.058191306498035,1.1206496668175658,10.33220204465497,-0.001965497601421477,-0.01022679195232448,-0.4799751301581914
1691524606.0339274,-0.8378638975337268,0.43701390161060166,10.232923170474942,-0.006934113650072208,-0.019796324336458008,-0.4814383347804601
1691524606.0439315,-0.8615516147075469,-0.1979579202235209,10.344734406394522,-0.005990432594883884,-0.033244493149940234,-0.4833461602504308
1691524606.0540946,0.6302592527889542,0.32268657210312773,10.079905415065847,-0.0051955840338374455,-0.027679467991006415,-0.4901774187858159
1691524606.0639172,1.532666687221653,1.3364721683803633,9.994500046710167,-0.023771547922966707,-0.01000869774808098,-0.4916655977542455
1691524606.0738993,1.538387697137338,0.5808147332594976,9.633124716330858,-0.032952758918837644,0.009028176278276857,-0.4940361936862523
1691524606.0839477,0.9385391756661017,-0.30761815789814584,9.31607667599397,-0.030183979218339343,0.02286826107044214,-0.4953639169509465
1691524606.0939107,0.0918751834772917,-0.8695923022390285,9.417770727460692,-0.018086887328365955,0.025145689790489624,-0.4970434864337499
1691524606.1039538,-0.48068668185508745,-0.8496627746683337,9.814839856569135,-0.008630823465722798,0.0196145547220856,-0.4960096140677983
1691524606.1147757,-0.6563704267644311,-0.4518953860022767,10.089245358537173,-0.001270275783703313,0.007675111048282169,-0.4913233776862676
1691524606.124102,-0.03398354249428112,-0.09823252037115851,9.869191388373729,0.0006458633738000625,0.006006610762306704,-0.4836694856460149
1691524606.1341145,-0.13636881223035205,0.06561568531952348,9.687457251766945,-0.0016165628683818005,0.004753636428814809,-0.4835692306335027
1691524606.1440036,0.1224777427410571,-0.24754511557349435,9.415756442286133,0.002976683511594919,0.006290485930736132,-0.4825954099471624
1691524606.153924,-0.16299183032172276,-0.14041153880355886,9.42154149956109,0.005578861693028547,0.006361768815130346,-0.4857828875358159
1691524606.1639764,-0.4627218201011585,0.3081990088558012,9.639880091723825,0.0037747528494847782,0.0039472399382120315,-0.4897620638186986
1691524606.1739776,-0.7316426717302666,0.7688667393885266,10.178875682664145,-0.0022523129766137888,-0.007449200434388054,-0.4891337712581212
1691524606.1839857,-0.20354097249390948,0.5491601679862843,10.048091205957773,-0.009874870635957588,-0.008470633794081254,-0.490984257059818
1691524606.1939042,0.0015379490900089786,-0.1743245765136895,10.064613242958165,-0.008816210616082515,-0.010415248353119577,-0.4910100360686834
1691524606.2039046,0.05910370486680796,-0.6615589545934252,9.820037361002603,-0.0022269967096186873,-0.008768731252880411,-0.4948288758571202
1691524606.213946,0.22268410169244862,-0.900146410279582,9.773582915239942,0.010773021423539081,-0.005410777124627257,-0.5004856248672063
1691524606.237313,0.5636553048811518,0.47201140649515616,10.025165588521212,0.006122979251818925,0.0015254274958224185,-0.5003198643500859
1691524606.2383134,6.712309310403927,6.050010124597249,8.556690478610637,-0.005746100013025684,0.014623163252675939,-0.4997422953422124
1691524606.2439334,1.2710210754602698,0.8782645503365536,9.5913154837232,-0.012742771568959154,0.023881102025699107,-0.4948215146834905
1691524606.254105,0.33139598750720944,-0.6038620146824765,9.537647496649797,-0.005949600907583382,0.02968726810422348,-0.4931435247237737
1691524606.2639625,-0.5265581990592543,-0.7591020943697023,9.807388457447829,0.005331798085870685,0.021638730119477166,-0.4899792035396154
1691524606.2739692,-0.605505093260954,-0.4404273963430035,9.75788218261568,0.011384821143018472,0.014964013168779171,-0.4904786308581884
1691524606.2841225,-0.3424080350452312,0.3955796523713363,9.63893441092658,0.010295121666719042,0.010718466424700413,-0.4842628498847539
1691524606.2939117,-0.22458630418745076,0.49868430216631326,9.71577919784557,0.0024467842604849245,0.009357383779529785,-0.4830045362289006
1691524606.3040416,-0.20119317574692497,0.23323526986597962,9.603443311137566,0.000890428350601642,0.007754680600776886,-0.4807213505084569
1691524606.314041,-1.0003221578799029,0.36290692780739636,9.934249124292464,-0.0015039061378430995,-0.0014298182428584116,-0.4833334346587712
1691524606.3239474,-1.3218307078002567,0.47799512811325595,10.309169966920171,-0.005265515510561128,-0.019308422363581997,-0.4854944606597478
1691524606.3339665,-0.7435461934368075,0.1783267404294555,10.151902633395931,-0.01038298201245937,-0.025163960855735988,-0.4887531061942632
1691524606.3440306,-0.5433248722898173,-0.6085269420658027,10.074953601582695,-0.0018493008133240961,-0.03461064669636412,-0.495164092379337
1691524606.353963,0.4674479395197905,-0.2637922389418023,9.610157843420545,-0.0008055907088373728,-0.026438292059796267,-0.5031053086097295
1691524606.364019,0.802827696426616,0.7961374672019155,9.876207638476046,-0.005481830679753909,-0.019608735352360178,-0.5092892905051762
1691524606.3739796,1.6663926383032845,1.518118923003091,9.596168404527903,-0.028418354177555533,0.0041084460766584755,-0.5127541085059697
1691524606.3839357,1.1201019091731608,0.6420303734569013,9.730870651182402,-0.03825036922460343,0.0166625989322881,-0.5107573529059941
1691524606.39397,0.4926170229313791,-1.3329466127769165,9.77999122256958,-0.025168513749229654,0.02390677541858117,-0.5096801181609685
1691524606.4040008,-0.1931057497143385,-1.9311717931773371,9.934218695988745,-0.00126151390292956,0.0205410036830219,-0.5050407310302312
1691524606.413999,-0.5390966043220353,-1.1878944257746484,9.903628407255672,0.017746654056391878,0.012480442338415812,-0.5016759892280156
1691524606.423972,-0.20954119676129745,0.6080057893886127,9.751081098140931,0.014159161775624618,0.008797086495001043,-0.4940584560210759
1691524606.4339633,-0.259846403681667,1.1374613473583117,9.656142014919633,0.0005274977316531578,0.004871406926510148,-0.4905984659965093
1691524606.4439385,-0.38590600401749303,0.7881727220373378,9.508441986889629,-0.011839341460721025,0.002580114288479424,-0.4937064309890325
1691524606.4539564,-0.586837991366516,0.09798653853590603,9.717216094496333,-0.013451309670694038,-0.006304265438324145,-0.4924017449195439
1691524606.464027,-0.438433550416051,-0.315141310639187,9.777100461486155,-0.00748251821595096,-0.011928045157386963,-0.4973615964229161
1691524606.4739835,-0.09165920243632661,-0.1408624826054982,9.96828681510484,-0.004578887262994444,-0.013856833512731693,-0.4997342487151677
1691524606.4840045,0.149788171483997,-0.11044194819532098,9.992824266930732,-0.00455193601748729,-0.010410165054742609,-0.5004986782844121
1691524606.4939685,-0.3469909375724438,-0.707718731050996,10.030317787573425,0.0021897293761803096,-0.013515019235391959,-0.508896615105396
1691524606.5040867,-0.7779959609759792,-0.4180667452575858,9.728274783405704,0.005647668807741586,-0.020338700667607006,-0.5066614409263188
1691524606.5140712,-0.9300336996438587,-1.3453701109229055,9.972545323898666,0.02649272447096376,-0.04493767596736586,-0.5108883043105656
1691524606.5240765,2.228980686343773,1.9261652028933685,9.72049974191269,0.006625863267324589,-0.027639957857796476,-0.5088503022964055
1691524606.5339522,3.2592736611693325,1.4229265312447243,9.799481747015712,-0.016656009894366653,0.005861490404477583,-0.5007288118178899
1691524606.5439768,2.8460532801776726,-1.3676447371759237,9.659355242157522,-0.006488181705032778,0.03643560024841613,-0.4895743389899785
1691524606.5539625,0.6815582770097113,-2.1385095392296156,9.508325879068757,0.026163567458844225,0.039873712605743454,-0.4809290428931768
1691524606.563961,-0.2288912398750963,0.8237079482919979,9.672361079416065,0.02315433562538605,0.0342855046771528,-0.4621842165763433
1691524606.574022,-1.6225461558872465,1.3800437130684375,10.087469840446897,0.007114665283720361,0.006871102962033772,-0.4540202577884252
1691524606.584052,-1.7622524850882662,1.256888575609795,10.100028112113405,-0.011040891026901332,-0.01939926026653634,-0.4505249818141515
1691524606.593992,-1.3866989079861232,-0.20331820647109997,9.89845949723816,-0.008546277390586561,-0.04466749168476862,-0.4530996938521917
1691524606.6040566,0.3575823791679884,-0.09352919132726673,9.939862016776033,-0.00718432722763115,-0.052512364568723185,-0.4553983469779546
1691524606.6140156,2.6215591341313296,0.7599574596581905,9.38145672302856,-0.015710453127763157,-0.02672483996275246,-0.4554498155887181
1691524606.6239712,3.0889384840316563,-0.5248794670029848,9.582048446107958,-0.016646113409717344,0.010680450989378861,-0.4560764392192418
1691524606.6339767,1.840424296732585,-2.6530182915789196,9.951905158754085,0.012947878750778054,0.028537043601116172,-0.4532541294868047
1691524606.6439705,0.3189947598791231,-1.522010941712005,9.75976262088622,0.03837026889796186,0.032198689582856585,-0.4471680780227239
1691524606.6540344,-0.519555153292593,0.9166826250551362,9.884289847307047,0.034363911708985215,0.02281933116528761,-0.4421046038444097
1691524606.6639988,-1.2297721568447622,2.124998940366476,9.882464016642857,0.009719210570430539,0.005394643217692163,-0.4457532723720128
1691524606.6739678,-1.448883352257623,1.5114050681682867,9.935054998925303,-0.015059464289336981,-0.015473809608098311,-0.4523569305713231
1691524606.6839974,-0.7475270311623773,-0.5875832376391161,9.773860812828419,-0.011895610184363425,-0.03073299074378818,-0.4641368349368627
1691524606.6939883,0.9856532931992691,-0.8080688163527829,9.410678184168493,0.0003252984675209565,-0.023317676705782907,-0.4678448994929845
1691524606.704086,1.6756231692027923,-0.06033320809878671,9.601840320542887,-0.0006342456354412538,-0.004976026668623865,-0.4740537365253026
1691524606.7140718,1.8720194387616873,0.29594816808986213,9.69007058008198,-0.002974072589769177,0.020139798411963936,-0.4752777477080876
1691524606.7239606,0.30021857286598214,-0.0843133070813314,10.11264546868385,-0.004673764051610074,0.026215202211399516,-0.4752903540904576
1691524606.7340052,-1.5575345699115357,-0.928981272772887,10.59205852975453,0.009234253370360396,-0.0006319651924100322,-0.471180345612293
1691524606.7441328,-0.25755817028875544,0.07857982356810728,10.280403182566516,0.010835080952357981,-0.01871652414303337,-0.4690670927341039
1691524606.753978,1.0935131692722555,1.2241743405634864,9.25396606596349,-0.0026466995630073805,-0.009555833121280591,-0.4613689442451055
1691524606.7639608,0.6922974931482092,0.1534849325441779,9.619161971397956,-0.008365164897723504,-0.009064845255515807,-0.4586176534469182
1691524606.7741082,0.4397167593535819,-0.49897027745371947,9.256523538748729,-0.00019425833702117295,-0.00868814922665443,-0.4599929412181432
1691524606.7840235,0.6828724293816448,0.9068079535925867,9.524860104912587,-0.007685128511371974,-0.006436054633295038,-0.4540574808890874
1691524606.7939842,1.0834316186607842,0.45896538811252824,10.022792502995106,-0.018845765274024495,0.0016272341916721501,-0.4537718554313237
1691524606.8040953,0.8189850274271313,-1.4578188972427446,10.326323940138987,-0.003767761943913978,0.009594925325716944,-0.4479329546268041
1691524606.8139956,0.4937657436584051,-1.9882028951642987,10.217792834290842,0.02499694627634863,0.01107911446952701,-0.446111347275501
1691524606.82398,0.10285156213577022,0.3119646434832513,9.905427780864011,0.028794928676686607,0.012991869263630978,-0.4400363226707036
1691524606.8339708,-0.5351330788904836,1.5673896796207,9.821354171941948,0.012356829126337386,0.004566632736175527,-0.4386027415568883
1691524606.8439927,-1.0583882560073392,0.9380405543748788,9.600465105192438,-0.002110153194541198,-0.007371531945382733,-0.4440174063022191
1691524606.8540204,-0.5552625618083626,0.36899767305479125,9.467105143266261,-0.007571519777290736,-0.018175675736423792,-0.4477851351077611
1691524606.864103,0.35884318818990635,-0.12411273987256567,9.319558890228894,-0.005279113907489304,-0.014160605786331939,-0.4516181309993322
1691524606.873956,1.1405839964619706,-0.07341532730606681,9.564223251684588,-0.00282563792299273,-0.0030713541855129658,-0.456399615603214
1691524606.884018,0.8881522649392,-0.4014923331049336,10.059693038125907,-0.00027375486203689913,0.010371562629707908,-0.4565084536845739
1691524606.8940144,0.07990129087102389,-0.925982545655834,10.37022546745392,0.014972465066273932,0.009232719444065089,-0.450675841170078
1691524606.9040136,-0.29901789835148834,0.2978235980373281,10.451200203710622,0.013322878544847096,0.001525608185868396,-0.44780534108234
1691524606.909126,0.08077015352392727,1.667499398494719,9.955693731026471,0.0031587583318469182,0.0006400564274508226,-0.4425705631549413
1691524606.9230285,-0.7224746647700032,0.07414826591407697,9.586619147936638,0.00018247862716484797,-0.011907426756246802,-0.4528630932147557
1691524606.9330182,-0.45876662416518094,0.37936533042835746,9.313025651402128,-0.005541975918636676,-0.019974266583982755,-0.4595941861445958
1691524606.942974,0.00954447062778001,0.5137668657975871,9.233678219784387,-0.011589093288608125,-0.021611614771956857,-0.4648633559520299
1691524606.953013,0.9768127764078834,0.2834736402390639,9.46958378955741,-0.01733318171999928,-0.011788216448621802,-0.4687131007487828
1691524606.963025,1.1327370155557162,-1.1163398036569159,10.123102991482078,-0.006825574640709161,0.0021833771912529868,-0.469395335512882
1691524606.9730296,0.5159631867932405,-0.8455012141692584,10.562852772579879,0.006871876114981584,0.006128768376606699,-0.4612402578170354
1691524606.9830177,-0.13950338089207967,0.05238281844605027,10.357020202491368,0.012143146084386205,0.002607963471516091,-0.4532506128127629
1691524606.9930189,-0.34917782548506976,1.1454643947211154,9.856840144322643,0.0005697001670908658,-0.002023342143336875,-0.4546169598872716
1691524607.0031106,-0.7776602164458343,0.44464432788045566,9.419947930340054,-0.006385287858621893,-0.011971994152051739,-0.4610521157558019
1691524607.0130024,-0.7988981733433407,0.44577525072770036,9.418878047503995,-0.014368294566168598,-0.025595434553490122,-0.4682106633956487
1691524607.0230289,0.3645517946951019,-0.1729330852583555,9.397532244011753,-0.01464527454606683,-0.02524838910692055,-0.4797164161975438
1691524607.033061,1.728943545251409,0.6107355311026152,9.536541217211896,-0.021896956453651934,-0.008346345773586039,-0.4791060944373662
1691524607.047575,1.5555568185393776,0.2565269673199779,10.012499216190708,-0.028516815257019438,0.012454111225573543,-0.4859763344104345
1691524607.052991,2.1632933435383643,-2.134528834542557,9.748580550478518,-0.014059545523863808,0.029239712559040246,-0.482001479464298
1691524607.06297,-0.1507019755415574,-1.7318404197574422,10.240328313365104,0.00953982535782351,0.0262439749551526,-0.4779322703654821
1691524607.073012,-0.4414355929171622,0.21497833566982283,10.060111398536407,0.014858546644355599,0.016593950513558643,-0.4680342932517583
1691524607.083104,-0.9401100314644784,1.296092059451671,9.567461216228931,-0.0051245879819211354,0.0065642881713839476,-0.4697574933345372
1691524607.0930045,-1.5183815361367832,0.11160626239724768,9.648273998601045,-0.009179098405191249,-0.01540017947375386,-0.4749931355292852
1691524607.1030362,-0.5036512029837059,-0.12131944466685782,9.4813645000663,-0.007724528574304844,-0.028548579340486695,-0.4840856750781591
1691524607.1130724,1.2428509093923585,0.011476602692318337,9.512128391807947,-0.01197343423337589,-0.013557948879792408,-0.4886009355361516
1691524607.1230168,1.1696769155706146,-2.06310971050795,10.34456968018722,0.005753091274097209,-0.0033207699909666064,-0.494269545870548
1691524607.1329985,1.0734777639841842,-1.2624123113803412,10.163279455584474,0.02286097319432283,0.010248410974486618,-0.4896927436168248
1691524607.1430726,0.7664467283770907,0.2656732612196172,9.987959061694657,0.026956520041416795,0.01869202513452526,-0.4779278298194463
1691524607.1530476,-0.8625396449629594,1.4530342330279065,9.741218418069415,0.009359344925784871,0.010937702863533476,-0.4782264788920934
1691524607.1630626,-1.704587903566626,0.3617882617172699,9.797243420556002,0.0018243758485391036,-0.012510139910683015,-0.4812905450637395
1691524607.173087,-1.1839618860772385,0.16101128995378164,9.486164340299863,-0.0018314399122602945,-0.03000297105188069,-0.4889183898742253
1691524607.182999,0.45977068252008607,0.19611742096645696,9.479756716476437,-0.006126494681707954,-0.02743483623529605,-0.4946111996944005
1691524607.1930416,1.8961187480957618,0.260315584033757,9.500183155211948,-0.008917292388746405,-0.00594850727551061,-0.4948410352046544
1691524607.2031078,1.2931828366235885,-1.0752584494282162,10.034528500263221,-0.0021306270933303347,0.011995331649694525,-0.4988076945121343
1691524607.213112,0.9413576786768462,-1.6698540214560293,10.180707579038925,0.02150157549788595,0.02434398757257369,-0.49079730709148
1691524607.2231147,-0.1028307484574723,0.15377589508899447,10.1126353469025,0.023392411153217326,0.02458073851383432,-0.4850917120750005
1691524607.233122,-0.6492925240300211,1.5434614111838272,9.743279218932795,0.009479934525372437,0.018274101770185437,-0.4782344957168157
1691524607.2431011,-1.4747902424309167,1.0565593873625527,9.636121070079303,-0.0073578424385878395,0.001901251861117898,-0.4786446054751928
1691524607.253018,-2.0595601020049124,0.06243383437788705,9.676380067200613,-0.007844528142102996,-0.027651926498460266,-0.4835061689193303
1691524607.2630267,-0.11764022646507932,-0.17958166829356903,9.656432966765307,-0.006742293759317153,-0.03384882663845118,-0.4883203168685491
1691524607.2730384,1.2478787861708383,-0.02604012941007058,9.732413702630499,-0.009866087197346135,-0.01975260838447983,-0.4936644395167882
1691524607.2830706,1.5479655243359345,-1.1951730294624507,10.200405344495778,-0.002488815614965424,-0.0006406911281828691,-0.4967675765330846
1691524607.2930431,1.0494177288077826,-1.3599622796237025,9.920565513624402,0.019811236591150774,0.01226401403856499,-0.4914684255893285
1691524607.3030655,0.23227835602185812,0.39920049900561766,9.961963370509604,0.017389210010217763,0.015506520776389292,-0.4887254794414098
1691524607.3131316,-0.763891220839393,1.4553203759500126,9.498161973910417,0.002504669069546087,0.010027568314440884,-0.48616063197208
1691524607.323004,-1.306727340316811,1.2696180246903817,9.699583456284856,-0.01735374026964349,-0.007374948439942822,-0.4897710641200597
1691524607.333052,-1.4681543542089386,-0.20717850034615298,9.687904902405426,-0.018123956571249916,-0.02721983313973961,-0.4938338359172399
1691524607.3432157,0.12415620016602072,-0.46252409488537727,9.638906966981455,-0.013621708537329084,-0.02933125985444131,-0.5000505705649907
1691524607.352988,1.4090554262000021,-0.25356821140616553,9.778342505683534,-0.011418198777152715,-0.013042558150244153,-0.4989774485404546
1691524607.3630202,1.223342062854587,-1.3250981284838248,10.076331400258526,-0.000926507165828604,0.00377724619196734,-0.5000384112174565
1691524607.373286,0.8459088925599324,-1.1616553104414518,10.327639601207503,0.017684879271935582,0.013241949253498855,-0.4873741825397069
1691524607.3830416,0.29517122911904525,-0.09265973924502555,9.887026808396689,0.024479658071039856,0.015284085744001615,-0.4781239291007573
1691524607.3930306,-0.4139391794249867,1.7443568590023413,9.596495684178125,0.005409111035778335,0.011584277979823423,-0.4762949307735021
1691524607.4031398,-0.8032176201020805,1.1425750738904805,9.43430317803604,-0.011711744708712796,0.002239943934415265,-0.4805286486918981
1691524607.4130452,-1.3499644416840175,-0.18991770623437204,9.557659823568416,-0.011552428535506507,-0.01581324316592563,-0.4824534614856298
1691524607.4230337,-0.10087443124445035,-0.870831365694785,9.842281999741878,-0.0008302252845115027,-0.02290312201707398,-0.4867563207919652
1691524607.4331264,0.8192567876835911,-0.3671597847313386,9.868824170909164,0.0038262399101777135,-0.01353459036196028,-0.4922863503272588
1691524607.442978,1.3807767314305877,-0.6831422585911301,10.415701417980188,0.005951701909799001,0.0017520222475096092,-0.4926457961375768
1691524607.4530334,0.6409505802641243,-0.9314155141291259,9.958994499376287,0.019346375926905867,0.011680542005984625,-0.4928736944968755
1691524607.463086,0.228553414567518,0.6450817468904108,9.72518588703026,0.015392369552979452,0.01589777340441701,-0.4857684036071355
1691524607.4730392,-0.8694926795257862,1.3299326465645525,9.416278471182833,0.0003936806903421646,0.00805784340710223,-0.485995288687473
1691524607.4830587,-1.276505136281416,1.3307044606632326,9.369940945098456,-0.015329428837577654,-0.006971126722170145,-0.4843040366942937
1691524607.493049,-1.0864490427615818,0.03578587769943186,9.72886731229489,-0.018977324171351517,-0.022136611599377763,-0.4838749428565557
1691524607.5030744,-0.3168226452803506,-0.6105474931295598,9.857056051246778,-0.011703044827499735,-0.03019864949354663,-0.4870580693061406
1691524607.513244,1.3477642042241909,-0.22695920455708668,9.90267618864177,-0.00912292193679599,-0.013302674179902272,-0.4865052064235265
1691524607.523062,0.7680839650503997,-0.7720480441429401,10.143522003029402,-0.002010048930845488,-0.002154298152509812,-0.4898281653697545
1691524607.533166,0.8618053887306307,-0.9853150689450322,10.365172713022867,0.007407850925849935,0.008034155203695893,-0.4871018787200505
1691524607.5430915,0.5839562023661367,-0.08958109647303403,9.78881630345717,0.012262558664394704,0.016898826970834106,-0.4801049192721898
1691524607.553016,-0.16451141658866605,0.7594276219031516,9.638052503326062,0.004460592287091985,0.01430473203324023,-0.4792313834006841
1691524607.5630682,-0.6092104299254604,1.3740972068890496,9.368687536735319,-0.01572741512445771,0.007250619627614578,-0.4790786166961248
1691524607.5731237,-1.2991862882803273,0.03693671155056597,9.361839024724446,-0.01747104994682328,-0.007969224289114975,-0.4799444635684545
1691524607.583063,-0.9536446143165233,-0.945263233629706,9.94080516330527,-0.009669386034947706,-0.024759116764248565,-0.4869556089217717
1691524607.5930662,0.5251637142047141,-0.7493121928387118,9.954434625810826,-0.001995674574508344,-0.01846464661003179,-0.4910234173114354
1691524607.603189,0.6708653970614531,-0.9067721560274115,10.365354876424858,0.00830958692734895,-0.012202258192069104,-0.49114691813541
1691524607.6131203,1.034788390759929,-0.8640875847395914,10.198370717270029,0.018696521559677718,0.00038417603556163455,-0.4892977734382207
1691524607.6230657,0.27347948668379013,0.46014404008410664,9.69242747649894,0.013375271037237695,0.008190351971899344,-0.4818079133803899
1691524607.6331418,-1.968231234280142,0.6059548029503351,9.529844121062961,0.009543646597880111,-0.01833770838745386,-0.480752255516773
1691524607.6430435,-0.19787122685544994,1.560654364035268,9.671838646516473,-0.009739689027962318,-0.033089687484704804,-0.4809419472987706
1691524607.653039,0.27362177548478456,0.9866179979526248,9.296580588759342,-0.02628335203306196,-0.03137322192339125,-0.4800333936984594
1691524607.6630793,1.6336656507948013,-0.4379336362078302,9.660942118131407,-0.026561276998076134,-0.023069738712749265,-0.4829522629554326
1691524607.6730669,2.562228396386407,-1.3727466959764196,9.739691826256426,-0.010584654678482745,0.0030454599272311017,-0.4780701657111699
1691524607.6830666,2.1805338104430074,-2.0879045766284223,10.110308503708675,0.013252827991087705,0.027921617139792496,-0.4713588019187505
1691524607.6931326,0.14700676398390555,-0.6043791768322492,10.285796760824962,0.02825784919042232,0.02798069349496871,-0.4606279393012578
1691524607.7030673,-0.43596906552614506,1.7906680918392943,10.074980603205201,0.014588042582923243,0.017830870972070582,-0.4541987736995275
1691524607.7131884,-1.480049379890275,2.4319943627550704,9.677601347593626,-0.0185212592512936,-0.0017731959636502522,-0.4571957548434789
1691524607.723133,-1.9446641552313515,-0.10789703993250464,9.889702161106324,-0.025508767596657766,-0.03407762788775251,-0.463911857205158
1691524607.733065,0.5955720968132409,-0.9608165902395843,9.598309216451945,-0.015899086555436592,-0.042658499391043395,-0.4666393657500798
1691524607.7430649,2.269538715787472,-1.384169832903074,9.446602530246285,-0.003757199783883365,-0.020161105645484182,-0.4668790360267217
1691524607.7530348,2.439639652435273,-1.196144295809536,9.72045382192034,0.010379292199241935,4.165647935572093e-05,-0.4613763352210576
1691524607.7630875,1.7793016350232065,0.17460149631440777,9.569847951410773,0.01340106657042314,0.019511547441641366,-0.4537650605018193
1691524607.7732382,0.3251008129303013,1.6761819560482607,9.723601868086744,-0.006533059116539911,0.0207311191981117,-0.4428275485808904
1691524607.7830803,-0.956759659746333,0.6487755372429186,10.295727562558076,-0.019199153614014,0.0008694118840055899,-0.4375618358428533
1691524607.7930875,-0.16039101929722352,-0.8417420901718163,9.805716560076727,-0.011990540705999485,-0.009720083147858756,-0.4390792210872228
1691524607.8032234,0.11784721392008929,-1.43978340262346,9.782946571294021,0.004336457001181193,-0.01491386563387027,-0.4375950952346379
1691524607.8131073,1.3797064274450386,-1.4394706946012499,9.901045735172492,0.019890264562388724,-0.005859216648680999,-0.4374147017772252
1691524607.8231585,1.5204927980184408,0.829995097153902,9.297540717868722,0.017277107235689253,0.013203333674850305,-0.4314064343745763
1691524607.8330984,0.20045999353768149,1.815545840634186,9.835776073832863,-0.006656867676812927,0.016143746104613416,-0.4254909117991979
1691524607.8431215,-1.751480832795013,-0.05851372423588998,10.13578620982329,-0.012348681418472793,-0.008785858591133507,-0.4359957834060247
1691524607.8530903,-0.6975990863891638,-0.5308673349011039,9.976363583723252,-0.006825286876331097,-0.02588859860922224,-0.4354754348571355
1691524607.863095,0.11801882468582649,-0.9506693608864178,9.90722364720222,0.0018275675919918845,-0.03474686335509823,-0.4370850880916173
1691524607.8730948,1.999411567084457,-0.3827704956475434,9.670981968629697,0.006764534868504442,-0.018163141208109267,-0.4268296023185308
1691524607.8830943,1.89363785852931,0.5916531988214039,9.62744356695092,-0.001968787499554662,-0.0015837994178510904,-0.421239908533817
1691524607.893108,1.5351558626695379,0.9650112948412899,9.522391858430764,-0.011440943619183356,0.0157676839804588,-0.4156130512530858
1691524607.90316,0.5365523300005293,0.4896626806380298,10.170824152537245,-0.021270810978794023,0.017420159419523625,-0.4152495225246007
1691524607.9131317,0.3448602977453938,-0.08151558329040047,10.119955368865766,-0.02374515403402466,0.018692525755076326,-0.4156097133929784
1691524607.923083,-0.7925897843819655,-0.9740751272282817,10.391158813198789,-0.016287957194803835,0.004255129906291015,-0.4146384855086858
1691524607.9331772,0.09033792935786886,-1.0847889277867429,10.048990551769156,-0.0013268647190656237,-0.004674393148067134,-0.4049972256000096
1691524607.943066,0.4895745661637626,0.4508150887572439,9.437080213293958,-0.0014869425592637915,-0.004787276155319254,-0.3982820173080022
1691524607.9530995,1.3366238767433067,1.0936302170669097,9.12686642714423,-0.01663853819969,0.009339815888606941,-0.3892756660754735
1691524607.9630551,-0.39917953513931587,0.21991810373039397,9.444756762014533,-0.021535174353924685,-0.00012376706937219941,-0.3889167269046361
1691524607.9730663,0.6547100357713169,-0.6568652130735612,9.657996560897539,-0.016091712181008785,-0.00012460979067113983,-0.3903028925235326
1691524607.9830935,-0.04690375145769735,-1.093127910318853,9.847445481009045,-0.005541497094418126,-0.0021218327710089005,-0.3959856887633855
1691524607.993062,0.6567972187441867,-1.2447859549597,10.161055340637432,0.010978151082282452,0.00010153419378761931,-0.3933680315787847
1691524608.003154,0.25902118025604276,0.7800557545494593,9.851138456793365,0.006724522203885633,0.0005333966256108635,-0.3912936409289891
1691524608.0131297,0.4153190887236849,1.6749155729047482,9.697091777927834,-0.011925483360317844,0.0064970453985162486,-0.3936341663177068
1691524608.0231044,-0.20629704027706486,0.7794927042109292,10.125989568636045,-0.03280463308603935,0.00028843352240328377,-0.4003760476882512
1691524608.033095,0.3857047072747684,-1.1475096100910325,9.59828330730589,-0.019412137418942037,0.0014376924795034397,-0.4052246173198278
1691524608.0431156,0.16731031651255793,-1.6575494022428343,9.899281978691516,-0.004501892262752913,0.000795339493649141,-0.4099500735576207
1691524608.0531075,0.7967246763934982,-1.0184452649232094,9.76052101119103,0.012433390752892763,0.005471936223867765,-0.3994830210979039
1691524608.06313,0.9028205704926185,1.058060107650394,9.731128231279008,0.004275664564649109,0.01540326004689338,-0.3893416186149175
1691524608.0731242,0.4303144935820467,2.1695972628708504,9.787231857216,-0.024506843640804576,0.020794012145298458,-0.3804927428538854
1691524608.083107,-0.9649663161309162,0.4329104151467347,10.099106812026946,-0.031681090886894206,0.007219946093624201,-0.381247427063709
1691524608.0931346,-0.6910003749591074,-1.1699888768096733,10.113361024475058,-0.02074566145977295,-0.005393549571096095,-0.386408742266422
1691524608.1031857,-0.9107559649558333,-1.612353428114466,10.157809251205444,-0.0034125627338538866,-0.020411947153206607,-0.3890902062232549
1691524608.1132152,1.0247328461139362,-0.9820720367144563,9.770304107040939,0.009059472653563503,-0.011734578601496648,-0.3906707723910863
1691524608.12311,0.8388860571972057,0.3314911835135482,9.28058191208984,0.006460012632221991,-0.00017206730597002002,-0.3922595938022191
1691524608.13311,1.1895226768968987,1.0404410578499124,9.159092758515893,-0.0068210961903813925,0.014748199768945395,-0.3942593296344335
1691524608.143093,0.7650732753779459,-0.6186409678501056,9.61805152959173,-0.005898943489498154,0.023724866610132293,-0.3975488503749425
1691524608.1530752,0.10708692437393108,-1.3011109041263118,9.449405776948499,0.008693786862116068,0.02691697247956505,-0.4023327787692601
1691524608.1631207,-0.7353998935607466,-1.6710036266866444,10.28532424492044,0.02569544746279534,0.016014413506772508,-0.4032684524829442
1691524608.1731195,-0.49135375915322616,-0.2003456493858157,10.052282221182205,0.03221218548408838,0.009637521707430853,-0.3964491446788366
1691524608.1832118,-0.3322913322519032,1.5461285273969103,10.074630698701657,0.01592562717057711,0.002909543208911457,-0.3876240511710698
1691524608.1931336,-0.4966882340063239,1.0183868144999768,9.765911926676475,0.00025078894750962555,-0.0012987334558033812,-0.385961051779514
1691524608.203086,-0.8875308624357006,-0.8520883514493375,10.06663424767901,0.005850420491761733,-0.01909733654458753,-0.3901327510650212
1691524608.2131748,0.745222253836316,-0.5385920154663146,9.522706884703874,0.01459318313522382,-0.0111681335274158,-0.3943300207431371
1691524608.2232006,1.1710592922170895,-0.2174279748179221,9.997366577796921,0.016925950399487577,-0.00020999092858001647,-0.3996886273200566
1691524608.2332308,1.4980471595502536,1.0981919970716065,9.725104945217948,0.0024687645694687972,0.023772632135062165,-0.4009920914943273
1691524608.2431614,0.24878351903595222,1.3303772992416598,9.957026853799254,-0.015081752440253662,0.027596802808185623,-0.4013262351329381
1691524608.2530942,-0.3492925353011359,0.9596458194657088,9.92459388037192,-0.02846148676696273,0.02631245484700835,-0.399742927151447
1691524608.2631643,-0.7539922659333005,-0.9021269663049639,10.276812425188123,-0.021092542086525577,0.010132136994412877,-0.4002253075416143
1691524608.2731187,-0.13348924069719548,-0.6297251751073508,9.635526023329241,-0.014628585896290645,0.006934850173951491,-0.4012722929294164
1691524608.28311,-0.09694380595963924,-0.5039894459979486,9.411920220696372,-0.008601908390695882,0.005988118561520574,-0.3997617920215184
1691524608.2932074,0.058154334421036465,-0.568059185987991,9.53814688763441,-0.0006633098609222135,0.003246291043030353,-0.3937092979724462
1691524608.303187,0.05658968820718368,0.7639462168079696,9.345900283107554,-0.010076112256858318,0.005057422580352465,-0.3884285946662481
1691524608.3132136,-0.3887385696412958,0.2629985256429499,9.75613183449882,-0.014787885266629936,0.001809492214619262,-0.3810796399886663
1691524608.3231132,-1.494271391192791,-0.05343051682372197,10.153997784223066,-0.013700873473417275,-0.019608464727039747,-0.3858446141059453
1691524608.3336763,-0.02179999833726854,-0.04520399816276473,10.294863247720341,-0.017719842297391916,-0.02384967741835493,-0.3880083521182592
1691524608.3430943,0.6203682741616426,-1.7685459718318077,10.390835705507616,-0.003301826212483157,-0.020476679366228833,-0.3942069967563207
1691524608.353207,1.5331636681956744,-1.0128386466335249,9.48298132210319,0.0157722037610587,-0.00020297996701029565,-0.3920731206710393
1691524608.3630996,1.027135560277574,0.7520180961165464,9.505332473755564,0.007686096183017284,0.012045726418054292,-0.3905220290000493
1691524608.373125,0.3345858097548864,1.4288988244545604,9.466029964109577,-0.011108961071453522,0.019787543177005457,-0.393215622502094
1691524608.3831336,0.37547401461036706,0.15167365872199642,10.038781845516318,-0.017072571367545808,0.021120140060245735,-0.3925116618449742
1691524608.393095,0.1910434571151193,0.13895149225652625,9.678060343288362,-0.020472811617212445,0.020477063975499546,-0.3902633150394017
1691524608.4032085,0.4550358453290346,-1.2282543214024992,9.81154567134499,-0.010662925443259095,0.025013798823815245,-0.3897390921886022
1691524608.4132328,0.012664671598317618,-0.952079079014158,9.830848222734877,0.004218877147609294,0.021202903591577792,-0.3805341978843267
1691524608.4231746,0.1750637192852677,0.6844940202974351,9.59614318595292,-0.002868981898016633,0.02522143365936862,-0.3752755780990178
1691524608.4332235,-1.1188604205984303,0.6430345152298491,9.718245940478127,-0.010946959900055623,0.018582579833396867,-0.369725312786823
1691524608.4431324,-2.4914927291999684,0.5743552627732476,10.054821351310691,-0.01457413810886761,-0.014076346689832793,-0.3737866242702062
1691524608.4531598,-0.8926869832774049,0.5294416264660528,10.180090945513538,-0.026381906363941714,-0.027194256720664903,-0.3795090575988347
1691524608.4631524,0.43529501800218895,-1.764443652140313,9.999323237163512,-0.009806239222464328,-0.023358342782593952,-0.3824146350200231
1691524608.4730844,0.919689418131639,-1.805948237221398,9.602094886082355,0.010712447225940525,-0.010306972192288866,-0.3892952163989598
1691524608.483134,0.9259140576252074,-0.21940311564994966,9.238081367768277,0.01737309656412391,0.004865550767986452,-0.3908196051890905
1691524608.4932172,-0.17917149316433753,0.7244336265435954,9.70646189732721,0.005574431697372926,0.007474901377043073,-0.3930602033908422
1691524608.5031717,-0.5741166240164333,-0.10287720935203978,10.06967602684821,0.005987416401182305,-0.001456911928972479,-0.391582127409702
1691524608.5132678,-0.021997529395973072,0.39490228406158767,9.881311148147475,-0.001015262067541757,-0.0014754502098508547,-0.3895790537173803
1691524608.5231776,-0.02304885746461076,-1.4533174446753097,10.262500863023174,0.008967746241558466,-0.0045450414463584065,-0.3878157397086675
1691524608.533132,0.34431390040695786,-1.0276412039449496,9.464894589080627,0.026761081021168486,0.0008102826357565097,-0.3782485385711248
1691524608.5431771,0.06652277698563236,0.42126204781132,9.72302207314942,0.022421034198821008,0.0035447568998824867,-0.3709398766334111
1691524608.553122,-1.2250962827614793,1.2329201502388838,9.880274389625425,0.008639500365116104,-0.008642199009699038,-0.3712784906203801
1691524608.5631142,-0.569573219345333,1.9063396285896006,9.94708140486278,-0.015463493062949809,-0.01842462616416313,-0.3739738424594457
1691524608.5731354,0.48687959178503226,0.7092935314474241,10.088856076196942,-0.032123333264245435,-0.01729969789498579,-0.3714489301021154
1691524608.5832129,0.9147799632031647,-1.8511447499005007,10.14094433745153,-0.012127586437397796,-0.00981357991611044,-0.3650538583571965
1691524608.593143,0.9515316130791808,-1.1766954934170732,9.983113450574464,0.004200945302226856,-0.0019004258600534144,-0.3531478305633123
1691524608.6031518,0.619121313248905,0.5506657614680743,9.747499222285295,0.0019935314132273185,0.0038433214983340427,-0.3370516558463628
1691524608.6131864,-0.36853442785738816,0.7934824622196461,10.028481771909071,-0.007842854838040364,-0.007013855493371344,-0.3303475936229283
1691524608.6232102,0.63715849465447,0.5882527646140693,9.374560544493493,-0.01603062500302428,-0.005690214289250524,-0.3230744262511785
1691524608.633165,1.6065799385285904,0.6948377744087949,9.272432548573702,-0.027094891252568015,0.006391463014361624,-0.319720681505924
1691524608.6431518,2.087073843479286,-1.3249283893091206,9.266973078357987,-0.02129384782283119,0.03132650412982745,-0.3177881201083715
1691524608.6531408,0.36316228834974335,-1.7521244641953722,9.732279132261041,0.00022757266684331583,0.03341771569499516,-0.3071940799529607
1691524608.6631377,-0.23260173196853706,-0.7036533509035533,10.023453330123163,0.012043578454033897,0.030309450506456774,-0.2956544121081884
1691524608.6730852,-2.1536201493222853,1.0747245926936855,10.462405064656885,0.003946192277050851,0.0005485944910774805,-0.2811106105620916
1691524608.6831822,-1.3011350509980442,1.9886756865571609,10.365199464987471,-0.019019821000535515,-0.026831539195960447,-0.2723146041209752
1691524608.69322,0.5809571229360362,-0.0005288764413164805,10.143112705195536,-0.03163589201342281,-0.0278489773940285,-0.2743722756679113
1691524608.7031667,1.9424776449875296,-1.887836242856339,9.736161254498063,-0.008946377410349945,-0.009526915508293227,-0.2749660273368413
1691524608.7132907,2.026668520117648,-1.8862709886846996,9.331839790521503,0.01188576209241788,0.018035423216906172,-0.2857118209178502
1691524608.7231753,0.8688364763516888,-0.2829183117209695,9.042156830930823,0.01870303580563316,0.033859997657917834,-0.2917729278380925
1691524608.7331655,-1.1900024964020575,0.24988234238458662,9.692860498186514,0.013840825581126615,0.021742900639820147,-0.3022671302135045
1691524608.7432137,-1.159697804359322,0.3554577652422314,9.819419876696193,0.006149348666523393,0.0022472114086900695,-0.3040363152797277
1691524608.7533877,-0.26786700056300483,0.444367087398858,9.595044461738585,-0.0029672422991894555,-0.005031089856083693,-0.3035590608890111
1691524608.7631145,0.033270664751189345,-1.3939229616145088,10.067805553392077,0.006330538253154393,-0.011383379443467484,-0.2984150608356054
1691524608.773243,0.6551156274378387,-0.9252407529751794,9.73764791995512,0.016979070619254882,-0.007721269751294989,-0.2898732980067784
1691524608.783201,0.4114836178186002,-0.685728998173165,9.84930060657668,0.024652849313781682,-0.0025032336955533975,-0.2775303979690129
1691524608.79323,-0.5154852750107187,0.9868516948591969,10.038375608039813,0.018765932293916827,-0.01478054390766304,-0.2712452371890599
1691524608.8031714,0.8970007794197392,2.785858819241865,10.179332259770286,-0.016159583164597122,-0.008227135229238217,-0.2745252211864049
1691524608.813243,1.3962614957026054,1.1114554205543477,10.133157069045591,-0.03904831976932294,0.0085459054415374,-0.2822470923240239
1691524608.8231626,0.39494209469132324,-2.0524262706952907,10.107773144982495,-0.021365849988205766,0.0143875642481137,-0.2880601247127111
1691524608.833182,-0.10957585874727473,-1.6460695937994818,9.373191037245416,0.005716466129217902,0.013157086114885598,-0.2898564596946294
1691524608.8431313,-0.8237011716759839,0.14480767082987295,9.354270152507675,0.00838798870943616,0.0034956194044797333,-0.2868077119166906
1691524608.853137,-1.3141679988736779,0.9749529319551207,9.68139142859505,-0.005098672677248474,-0.016194699492159095,-0.2890007456119115
1691524608.8631678,0.4937759865379302,0.43672876636457236,9.429991945000902,-0.010967441655258014,-0.0161220281324833,-0.2892411013419683
1691524608.8731525,0.909594937457222,0.8525257496614299,9.382984090716178,-0.02502010573516043,-0.006238388766863972,-0.2862737139041478
1691524608.8831882,1.3671145879320394,-1.4682908007116506,10.01496403693606,-0.01572211499181459,0.004451976212836802,-0.2769522031123693
1691524608.8931909,0.8586629063634025,-1.7204250048035952,10.054758552480322,0.009363874105858837,0.009825111400299845,-0.2604557236011083
1691524608.903207,0.8597712387323457,0.07216054722738179,10.157982805460664,0.01244705611303038,0.013871026989813396,-0.2369313945348317
1691524608.913273,-0.6037887565890419,1.364416708899577,10.377139644892486,-0.001499811288451771,0.0027822936720753692,-0.2261105885083729
1691524608.9252946,0.18095948470476503,0.7354646263528659,10.407130574398842,-0.014747354481166264,-0.0036654223580829355,-0.2221507241303975
1691524608.9331222,-0.07220663897422559,-0.8425419650973228,10.5069996508321,-0.011930944466484222,-0.011817083357661667,-0.2179355879600102
1691524608.9431305,0.9601750068081072,-2.2883586285960855,9.103820547433536,0.01706859952090155,-0.004536648989885497,-0.2204690535838658
1691524608.9531658,0.8285552703308482,-1.3627818407030985,8.488294390347194,0.033425482883929,0.006772523367756864,-0.225393157201534
1691524608.9631543,-0.3294405614688189,-1.15118287253109,8.621702281243378,0.046059880592803276,0.006336966150245636,-0.23709737856937
1691524608.973174,-0.6816006083284522,0.12768347669898836,9.416106724120088,0.04599653645086033,-0.0009440174561189682,-0.2472407778079564
1691524608.9832172,-0.38990425103012033,1.8285053995073224,10.002020950531941,0.020286100962337315,-0.0030859048419730043,-0.2493048270518834
1691524608.9932427,-0.6963892729937796,0.27338889008297046,10.94981025566941,0.008059337043830338,-0.00982748035443188,-0.2581583817775304
1691524609.0031917,0.8691646450762215,0.24061313258005645,10.918864570144938,0.006887211961870775,-0.0013258458541342013,-0.2570016642386968
1691524609.0134616,1.4047003189075047,1.299703329538524,10.267835935765035,-0.006887345003932748,0.020230971958379924,-0.2490470667655522
1691524609.0232494,-0.09104857859790454,0.9144807178014528,9.913018529776387,-0.020049816882951908,0.027097177904535964,-0.2470553030545766
1691524609.033189,-1.724702996384055,-0.529345540818074,10.04545434283277,-0.016931704652617945,0.001998252573161185,-0.2484559675033147
1691524609.0431805,-1.3345141559333344,-1.7001732513772623,9.174269537293833,0.004618330352349126,-0.015337208738057913,-0.251706149178272
1691524609.0531778,-0.7337779293289001,-1.3225822091946935,9.215691266256092,0.019959949728335424,-0.031085741494884172,-0.2555092533404882
1691524609.0631814,0.7091162127741442,0.9635933574512023,8.853292170990473,0.015394109225302991,-0.023396122997993856,-0.2474347313220555
1691524609.0731466,0.36844051891303886,1.5158236908402245,9.708795291508446,-0.007355443234774359,-0.023412414455804522,-0.2431520183856541
1691524609.083199,0.2858447549007808,0.623425787980396,9.788265556924337,-0.018202077030553467,-0.01837389684002152,-0.2393783887202794
1691524609.093262,0.7484286136990138,0.0028669956959923937,10.698595467479382,-0.020315194534511076,-0.020955955169950847,-0.2313970585639531
1691524609.1032453,1.6342522841386964,-0.1606358546000726,10.57436538190958,-0.01940164371948109,-0.0005010493796456124,-0.2244743814046437
1691524609.1132524,1.3511677578452952,-1.7456255171782475,11.18069969374065,-0.002955725981406672,0.008726094788020227,-0.2153466304118687
1691524609.1231663,1.7506490079384838,-0.28255994876639723,9.481013678015303,0.00770066588769065,0.029909502991575007,-0.2041255642945821
1691524609.1332698,2.0450187979407266,0.8035033762309242,8.54386716950702,0.0007949783221289376,0.060904313457248296,-0.1931829114730412
1691524609.143169,-0.2596320151523858,-0.9652215452873878,8.169496115665424,0.0038142979529233885,0.07230456659938629,-0.1823797633225972
1691524609.1532009,-2.311735140877557,-2.4550405488809113,8.742670412765998,0.0468430489319761,0.04964594899156413,-0.1810496409709508
1691524609.1632037,-3.870057832603302,-0.6298967653234012,9.643546253837508,0.056867133649199646,0.013493477725986035,-0.188131194310909
