time,wx,wy,wz,ax,ay,az
0.0,0.12167377024888992,0.07618659734725952,0.03721172735095024,-0.3015501797199249,-0.7823036909103394,10.562060356140137
0.02,0.12462003529071808,0.0032575090881437063,0.009192862547934055,-0.16282421350479126,-0.8976527452468872,10.445639610290527
0.04,0.03944101557135582,0.016301192343235016,-0.03619333729147911,-0.253574401140213,-0.6901454925537109,10.071267127990723
0.06,0.06309100240468979,0.0863676592707634,-0.06517042219638824,-0.29147130250930786,0.2931860089302063,9.722492218017578
0.08,0.02997453138232231,0.03535749390721321,-0.055052757263183594,-0.22906041145324707,0.9471779465675354,9.31399154663086
0.1,-0.002834729151800275,-0.04014567285776138,0.008095374330878258,-0.15953408181667328,0.9272987246513367,8.979440689086914
0.12,0.014567838050425053,0.0008207041537389159,0.06706651300191879,-0.3856753706932068,0.27819791436195374,9.703304290771484
0.14,-0.0012046931078657508,0.05365462973713875,0.07994545996189117,-0.1490253210067749,-0.5529971718788147,10.368982315063477
0.16,-0.02816816419363022,0.06681466847658157,0.04305580258369446,0.24205392599105835,-0.3993151783943176,10.205730438232422
0.18,0.03509395569562912,0.06191246584057808,0.020171744748950005,0.2926376760005951,0.0064123449847102165,10.028308868408203
0.2,0.024284018203616142,0.0019381633028388023,0.018740875646471977,0.019679579883813858,-0.44787144660949707,10.461634635925293
0.22,0.05802641063928604,-0.01502767764031887,-0.0017010519513860345,-0.3547252416610718,-0.8370385766029358,10.548643112182617
0.24,0.1053692102432251,-0.007780673447996378,0.012853840366005898,-0.2915056049823761,-0.3756940960884094,9.608726501464844
0.26,0.1065860316157341,-0.012776320800185204,0.03035319596529007,-0.09389783442020416,0.08604925125837326,8.769246101379395
0.28,0.045082125812768936,-0.031449586153030396,0.039210256189107895,0.024569381028413773,0.48737889528274536,8.364363670349121
0.3,-0.03255138173699379,-0.07086112350225449,-0.015844471752643585,-0.18426263332366943,0.6477819085121155,8.731732368469238
0.32,-0.09049436450004578,-0.06424777954816818,-0.054910384118556976,-0.20424094796180725,0.5690686702728271,8.951624870300293
0.34,-0.13943366706371307,0.0016619318630546331,-0.08839574456214905,-0.3418004810810089,0.7490229606628418,10.31226921081543
0.36,-0.06525229662656784,0.043645501136779785,-0.03868056461215019,-0.5514163970947266,0.6866201162338257,11.672137260437012
0.38,-0.02513984590768814,0.013637002557516098,0.030839571729302406,-0.4794923961162567,-0.05300752818584442,10.558698654174805
0.4,0.0001572302426211536,-0.006789201404899359,0.07356436550617218,-0.4272610545158386,-0.8585491180419922,8.110014915466309
0.42,0.024430885910987854,0.050818149000406265,0.06210276111960411,-0.32149654626846313,-1.3108351230621338,8.999839782714844
0.44,0.03633405268192291,0.03843623027205467,0.021509967744350433,-0.47970446944236755,-0.8217256665229797,11.91859245300293
0.46,0.06377428770065308,-0.04778757691383362,-0.027183962985873222,-0.2918328046798706,0.10804732143878937,11.624849319458008
0.48,0.03295064717531204,-0.052303675562143326,-0.05356813222169876,-0.24994979798793793,0.7369570732116699,9.107914924621582
0.5,-0.007334279362112284,-0.013586625456809998,-0.05614257603883743,-0.18319016695022583,0.7237511873245239,8.360203742980957
0.52,-0.05010778829455376,-0.04747951030731201,-0.04991624876856804,-0.31131574511528015,0.22624821960926056,9.05588150024414
0.54,-0.11564952880144119,-0.10353244096040726,-0.02485216036438942,-0.2507185935974121,0.492554634809494,9.995848655700684
0.56,-0.11467377841472626,-0.028801972046494484,-0.013989126309752464,-0.34836897253990173,0.7580404877662659,10.215676307678223
0.58,-0.11329233646392822,0.06397002190351486,0.009194758720695972,-0.44779708981513977,0.4718979299068451,10.157893180847168
0.6,-0.08178922533988953,0.04464871808886528,0.05167682468891144,-0.26567232608795166,-0.12753412127494812,9.453349113464355
0.62,0.00651986338198185,0.0076112886890769005,0.08606033772230148,0.15354757010936737,-0.6090782880783081,9.162727355957031
0.64,0.012068374082446098,0.04953763261437416,0.07312090694904327,0.7518903613090515,-1.7184702157974243,10.042272567749023
0.66,-0.006260802503675222,0.025663156062364578,0.03450300544500351,0.8250517845153809,-1.7413487434387207,11.316079139709473
0.68,-0.0013864323263987899,-0.05910024046897888,-0.011115987785160542,0.4176997244358063,-0.20685915648937225,10.238828659057617
0.7000000000000001,0.041954632848501205,-0.06031509116292,-0.006518499925732613,0.02721536159515381,0.638810932636261,8.523993492126465
0.72,0.040726978331804276,-0.05418160557746887,-0.019444571807980537,-0.22098520398139954,0.6734415292739868,8.712505340576172
0.74,0.03826501965522766,-0.0071411109529435635,-0.03815048560500145,-1.0243782997131348,0.35690537095069885,10.604122161865234
0.76,0.0051724547520279884,0.02391541562974453,-0.024438004940748215,-1.0448557138442993,-0.24938757717609406,10.660865783691406
0.78,0.0034953015856444836,0.027570709586143494,0.012421215884387493,-0.9716801643371582,-0.2258288711309433,10.197893142700195
0.8,0.021953539922833443,0.06167028844356537,0.04744615778326988,-0.5487797856330872,-0.23505616188049316,9.494617462158203
0.8200000000000001,-0.0009310980676673353,0.06687659025192261,0.05328139662742615,-0.06951164454221725,-0.13099779188632965,9.163439750671387
0.84,0.02103300392627716,-0.0026259098667651415,0.03805289417505264,0.5751245021820068,-0.2395566999912262,9.307984352111816
0.86,0.08328377455472946,-0.046907294541597366,0.004189041443169117,0.5991696119308472,-0.3486361801624298,9.919916152954102
0.88,0.05833049118518829,-0.040730301290750504,-0.03377073258161545,0.2929636836051941,-0.15634450316429138,10.3484525680542
0.9,0.01286038476973772,-0.07026413083076477,-0.0660938173532486,-0.14301471412181854,0.22567954659461975,9.977849960327148
0.92,-0.005141149275004864,-0.07746607810258865,-0.04667718708515167,-0.43297266960144043,0.5271562337875366,8.73829460144043
0.9400000000000001,0.03932422399520874,-0.03765076398849487,0.006372136529535055,-0.5920304656028748,0.31759360432624817,8.65228271484375
0.96,0.009423124603927135,-0.006935666315257549,0.046351488679647446,-0.6869572997093201,0.018502382561564445,9.918866157531738
0.98,-0.012239026837050915,-0.05859605222940445,0.07234510779380798,-0.44586098194122314,-0.5297160148620605,11.610215187072754
1.0,-0.03458298370242119,-0.0256352499127388,0.0204185601323843,-0.47373566031455994,-0.4445248246192932,11.44813346862793
1.02,0.042251404374837875,0.060096483677625656,-0.012001542374491692,-0.4165310263633728,0.0014081771951168776,9.557629585266113
1.04,-0.010865401476621628,0.007746601011604071,-0.0343194305896759,-0.15511812269687653,0.23604635894298553,8.539392471313477
1.06,0.0026596251409500837,-0.08332708477973938,-0.037366680800914764,0.20754821598529816,0.11670798808336258,8.787419319152832
1.08,-0.06511262059211731,-0.023589616641402245,-0.05139952152967453,0.2643205225467682,0.21571330726146698,9.719527244567871
1.1,-0.05637352168560028,0.0434439480304718,-0.04542124643921852,0.3769327998161316,0.30936679244041443,10.060696601867676
1.12,-0.05578345060348511,-0.014499637298285961,0.002073667012155056,0.2663966715335846,0.2783317565917969,9.708234786987305
1.1400000000000001,-0.035944096744060516,0.004736893344670534,0.044825296849012375,0.1272917091846466,-0.16954335570335388,9.39144515991211
1.16,0.015268904156982899,0.055875614285469055,0.037867072969675064,0.3047950565814972,-0.7267763018608093,9.83914566040039
1.18,0.01593964733183384,0.03774825111031532,0.01821982115507126,0.1196843683719635,-0.7014111280441284,10.077152252197266
1.2,0.04125942289829254,0.0011029088636860251,0.008050406351685524,-0.24538974463939667,-0.37566953897476196,10.323290824890137
1.22,0.0624985471367836,0.02230839617550373,-0.01067053247243166,-0.49887996912002563,-0.7603976130485535,10.316548347473145
1.24,0.06892196089029312,0.08659283816814423,-0.03259779140353203,-0.5885834097862244,-0.542456328868866,10.762353897094727
1.26,0.10202047228813171,0.06717376410961151,-0.043344896286726,-0.475555419921875,0.1283339411020279,10.2058744430542
1.28,0.030317366123199463,0.0007111025624908507,-0.013545848429203033,-0.24621255695819855,0.701910138130188,8.601162910461426
1.3,0.02292053773999214,-0.016421908512711525,0.024266118183732033,-0.31075024604797363,0.5921341776847839,8.618112564086914
1.32,-0.0018469978822395205,-0.0037767402827739716,0.017099855467677116,-0.317013680934906,0.1439824104309082,9.66055679321289
1.34,-0.04957428574562073,-0.02100713551044464,0.008614799939095974,-0.05365573987364769,0.2200506329536438,10.456745147705078
1.36,-0.06951100379228592,-0.02696075290441513,-0.015994923189282417,0.020460588857531548,0.5043637156486511,10.084439277648926
1.3800000000000001,0.0017563889268785715,-0.029532624408602715,-0.01603996567428112,-0.2028253674507141,0.2681658864021301,9.62736988067627
1.4000000000000001,0.03694310784339905,-0.030464349314570427,0.013093413785099983,-0.21153944730758667,-0.6644429564476013,9.542192459106445
1.42,0.027988040819764137,-0.06984502822160721,0.017213907092809677,-0.03811199963092804,-1.198413372039795,9.370798110961914
1.44,0.056310176849365234,-0.05811743810772896,0.010092221200466156,-0.1558394879102707,-0.9798349738121033,9.971944808959961
1.46,0.018925702199339867,-0.047211721539497375,0.006027220748364925,-0.42353710532188416,0.05552903190255165,10.75208568572998
1.48,0.04342544451355934,-0.060155563056468964,0.0005418727523647249,-0.5668988227844238,0.697783350944519,10.560677528381348
1.5,-0.020001746714115143,-0.03386211395263672,-0.03610781952738762,-0.5017937421798706,0.6888890862464905,9.265800476074219
1.52,0.018967514857649803,0.05445680767297745,-0.04319318011403084,-0.4784463346004486,0.5276740193367004,9.594709396362305
1.54,-0.04432393237948418,0.051170237362384796,-0.018576152622699738,0.024417094886302948,0.07888813316822052,9.538975715637207
1.56,-0.0463888980448246,0.0043477341532707214,0.023525526747107506,0.6083950400352478,-0.2720722258090973,9.151856422424316
1.58,-0.047489233314991,0.03480329364538193,0.01802182011306286,0.896713137626648,-0.15943698585033417,9.113058090209961
1.6,-0.0642976313829422,0.0196427870541811,0.002787094097584486,0.7878108620643616,0.2364536076784134,10.079044342041016
1.62,0.05545662343502045,-0.01652933843433857,-0.010035947896540165,0.2895658016204834,-0.010738223791122437,10.888704299926758
1.6400000000000001,-0.03496864438056946,-0.024963291361927986,0.011279657483100891,-0.14949071407318115,-0.7237852215766907,9.468454360961914
1.6600000000000001,0.014305157586932182,0.03811035305261612,9.551541734253988e-05,-0.41826820373535156,-0.8885032534599304,10.027393341064453
1.68,0.014826547354459763,-0.005591560620814562,-0.008944232016801834,-0.9157543778419495,-0.3982004225254059,10.653341293334961
1.7,-0.0385969877243042,-0.025754766538739204,-0.020482921972870827,-1.1427720785140991,0.6899287700653076,10.382170677185059
1.72,-0.00286317546851933,0.07957202196121216,-0.030238935723900795,-0.9766934514045715,1.033787727355957,9.510152816772461
1.74,-0.0361449308693409,0.09609340876340866,-0.029268689453601837,-0.45052847266197205,0.5360153913497925,9.542062759399414
1.76,-0.006814336404204369,-0.060501907020807266,0.0017577684484422207,0.14571700990200043,-0.07632051408290863,9.515544891357422
1.78,-0.01794539764523506,-0.10643406957387924,0.018961427733302116,0.29219183325767517,-0.3451592028141022,8.780344009399414
1.8,-0.010941876098513603,-0.047270517796278,0.014282723888754845,0.21968446671962738,-0.3906729519367218,9.172998428344727
1.82,0.10315612703561783,-0.05311174318194389,0.011306965723633766,0.07985016703605652,-0.7175197005271912,9.986576080322266
1.84,0.0782422199845314,-0.08012261986732483,0.0048677497543394566,-0.15439528226852417,-1.2444024085998535,10.933234214782715
1.86,0.04179234430193901,-0.04343225806951523,-0.021044135093688965,-0.2880561053752899,-1.0181114673614502,10.516864776611328
1.8800000000000001,0.005298391915857792,0.02982156164944172,-0.043640993535518646,-0.31379401683807373,-0.28593510389328003,9.850790977478027
1.9000000000000001,0.015652626752853394,0.06596909463405609,-0.06452269107103348,-0.15558336675167084,0.4374358654022217,8.776683807373047
1.92,0.07690523564815521,0.09483056515455246,-0.06429046392440796,0.24949225783348083,1.0525612831115723,8.268280982971191
1.94,0.040607597678899765,0.07847084105014801,-0.036519572138786316,0.8661372661590576,0.9939931631088257,9.279935836791992
1.96,0.013948975130915642,-0.005211454350501299,-0.017632395029067993,1.0834168195724487,0.0250846054404974,10.576006889343262
1.98,0.041052307933568954,-0.05716843530535698,-0.01053902693092823,0.5763037204742432,-0.7682039737701416,10.6226167678833
2.0,-0.02360057272017002,-0.05064668506383896,0.00469230068847537,0.5019290447235107,-0.4269552528858185,9.903336524963379
2.02,-0.037932559847831726,-0.07278890162706375,0.012073242105543613,-0.12158039212226868,0.2551440894603729,9.705674171447754
2.04,0.029629012569785118,-0.00652211531996727,0.028161106631159782,-1.3656797409057617,0.5924361944198608,10.568349838256836
2.06,0.05319821834564209,0.035969533026218414,0.014145406894385815,-1.5112890005111694,0.2773495614528656,9.865002632141113
2.08,-0.031131234019994736,-0.0407637394964695,0.01403338834643364,-1.2502350807189941,-0.20943456888198853,8.831162452697754
2.1,0.02217048779129982,-0.015627963468432426,-0.0025712314527481794,-0.4172619879245758,-0.2684900462627411,8.693259239196777
2.12,-0.036455463618040085,0.051229387521743774,-0.03173738345503807,0.04830550774931908,-0.16542088985443115,10.231779098510742
2.14,-0.05201578140258789,0.01270938292145729,-0.02040279097855091,0.306980162858963,0.30940625071525574,11.246495246887207
2.16,-0.03343527764081955,0.011981957592070103,0.0007779930019751191,0.00887040700763464,0.5491477847099304,9.995291709899902
2.18,0.0173372533172369,0.005589267238974571,0.0293915793299675,-0.3593440651893616,-0.023138971999287605,9.051908493041992
2.2,-0.030225710943341255,-0.047657325863838196,0.024025483056902885,-0.6761588454246521,-0.49375057220458984,10.07575798034668
2.22,-0.03535452112555504,-0.0962897315621376,0.007780838757753372,-0.5395953059196472,-0.3032001852989197,10.508517265319824
2.24,0.019095517694950104,-0.056679848581552505,-0.004481608979403973,-0.06737196445465088,-0.051257334649562836,9.968388557434082
2.2600000000000002,0.027242697775363922,-0.027558578178286552,-0.011709771119058132,0.2622968852519989,-0.06587836891412735,9.331276893615723
2.2800000000000002,-0.00240690098144114,-0.0275309719145298,-0.032550182193517685,0.23523586988449097,-0.170895054936409,9.557823181152344
2.3000000000000003,-0.001855894224718213,-0.03047291561961174,-0.03774763271212578,0.110478475689888,-0.2257286161184311,9.821608543395996
2.32,-0.0058608828112483025,-0.026974352076649666,-0.009993663057684898,0.11130107939243317,0.020010435953736305,10.056818008422852
2.34,-0.0321379117667675,-0.03882356733083725,0.017673105001449585,0.2780338525772095,0.2611548900604248,9.828229904174805
2.36,-0.006348674185574055,-0.03479910269379616,0.024547185748815536,0.4701559543609619,0.20892053842544556,9.467103004455566
2.38,0.02219412289559841,0.006881931331008673,0.007556142285466194,0.4128479063510895,0.08417462557554245,9.272939682006836
2.4,0.009541194885969162,0.05282595381140709,-0.013958672061562538,0.2680071294307709,0.01732008531689644,9.52135944366455
2.42,0.025629770010709763,0.08210606127977371,-0.004343391861766577,-0.15749774873256683,-0.43891072273254395,9.550821304321289
2.44,0.013715812005102634,0.07940596342086792,-0.014692236669361591,-0.24141809344291687,-0.5545363426208496,9.868897438049316
2.46,-0.016773004084825516,0.041112855076789856,-0.00022134582104627043,-0.33386972546577454,-0.13914969563484192,10.784784317016602
2.48,0.012049496173858643,0.021491197869181633,0.021008677780628204,-0.2422749102115631,0.4625573754310608,11.07502269744873
2.5,-0.000642825907561928,0.05276311933994293,0.045624129474163055,-0.09419947862625122,0.5095744729042053,9.664308547973633
2.52,-0.01481431070715189,0.02131827175617218,0.02664479799568653,0.07943649590015411,0.150659441947937,9.085882186889648
2.54,-0.023756537586450577,-0.07067173719406128,-0.0028970546554774046,0.038461968302726746,0.30961310863494873,8.825895309448242
2.56,-0.0198393315076828,-0.07644166797399521,-0.03130626678466797,-0.07166770845651627,0.3172900080680847,9.633255004882812
2.58,-0.07361288368701935,-0.05789007619023323,0.0052615269087255,-0.3733794391155243,-0.1729234904050827,9.792373657226562
2.6,-0.0631975457072258,-0.018990833312273026,0.025055216625332832,-0.6296803951263428,-0.6139805912971497,9.779206275939941
2.62,-0.029799219220876694,-0.011318827047944069,0.03663065657019615,-0.667856752872467,-0.5378486514091492,10.134016990661621
2.64,0.003553069196641445,-0.0090791629627347,0.013060800731182098,-0.3912160098552704,-0.07142405956983566,10.15346622467041
2.66,-0.018308110535144806,-0.0051785302348434925,-0.023736661300063133,0.004335697274655104,0.1851688027381897,9.385836601257324
2.68,0.010776209644973278,0.030104734003543854,-0.031216571107506752,0.1402997076511383,-0.10171331465244293,9.166058540344238
2.7,-0.010720424354076385,0.09566524624824524,-0.011711766012012959,0.4781591296195984,-0.21482697129249573,9.93594741821289
2.72,-0.012645192444324493,0.1149967685341835,0.011649802327156067,0.6373249888420105,0.06263777613639832,10.58207893371582
2.74,-0.04688984528183937,0.06195375323295593,0.022029343992471695,0.28311941027641296,0.4624600410461426,10.072969436645508
2.7600000000000002,-0.016620630398392677,0.044018134474754333,0.026072045788168907,-0.2490156590938568,0.31591516733169556,9.083418846130371
2.7800000000000002,-0.018918639048933983,0.05430703982710838,0.01920419931411743,-0.08015584945678711,0.07305634766817093,9.718171119689941
2.8000000000000003,-0.0014262601034715772,0.08623436093330383,0.012488828040659428,-0.014947944320738316,-0.5608765482902527,10.503684997558594
2.82,0.08003879338502884,0.1040879338979721,0.008310919627547264,0.10178585350513458,-0.9985079765319824,9.978033065795898
2.84,0.043196484446525574,0.03911088779568672,0.021148785948753357,-0.07716461271047592,-1.067545771598816,9.519224166870117
2.86,0.055793244391679764,0.024434475228190422,-0.004341169260442257,-0.17721666395664215,-0.34415116906166077,9.398842811584473
2.88,0.009085876867175102,0.0418408177793026,-0.005980928428471088,-0.2818564176559448,0.47789672017097473,9.731622695922852
2.9,0.03604622557759285,-0.009372388944029808,0.007692932151257992,-0.005380323156714439,0.6793224215507507,9.513625144958496
2.92,0.01340688206255436,-0.05618179216980934,0.01264958456158638,-0.25656548142433167,0.5554576516151428,8.93626880645752
2.94,-0.023103561252355576,0.008014699444174767,0.03310346230864525,-0.9514699578285217,0.5287383794784546,9.915973663330078
2.96,-0.04306716099381447,0.005064883269369602,0.009895364753901958,-1.3390439748764038,0.06584744900465012,11.565424919128418
2.98,-0.0883084237575531,-0.022721072658896446,-0.02530551515519619,-1.074610710144043,-0.11298803985118866,11.467878341674805
3.0,-0.00896640308201313,0.017540382221341133,-0.030889049172401428,-0.6540461182594299,0.10333389788866043,9.629920959472656
3.02,-0.034371718764305115,0.07272255420684814,-0.02154400385916233,-0.49903053045272827,-0.10295943170785904,8.584502220153809
3.04,-0.02437264658510685,0.04039819538593292,-0.036914143711328506,-0.43081435561180115,-0.5015159249305725,8.509719848632812
3.06,0.014307315461337566,-0.030984483659267426,-0.04965149611234665,0.5014121532440186,-0.42954304814338684,9.042129516601562
3.08,0.0673268660902977,-0.0831211507320404,-0.022049253806471825,0.9632692933082581,-0.2535094618797302,9.569334030151367
3.1,0.06749556958675385,-0.10402138531208038,0.018145574256777763,0.4862532615661621,-0.47484394907951355,10.735597610473633
3.12,-0.00834773387759924,-0.0570058673620224,0.00042899014079011977,-0.16256441175937653,-0.8036344051361084,11.44311237335205
3.14,-0.018718130886554718,-0.03349212184548378,-0.047164950519800186,-0.16749414801597595,-0.4439886212348938,10.045884132385254
3.16,-0.011272484436631203,-0.07419312745332718,-0.07321116328239441,-0.3264482021331787,0.05701233819127083,8.438212394714355
3.18,0.011494513601064682,0.0010848506353795528,-0.07022226601839066,-0.5468206405639648,0.49576136469841003,8.808204650878906
3.2,-0.010037558153271675,0.051876943558454514,-0.035919561982154846,-0.17994441092014313,0.7942436337471008,10.132829666137695
3.22,0.019529767334461212,0.03726997599005699,0.026401622220873833,0.17978206276893616,0.5928760170936584,10.096085548400879
3.24,0.014341145753860474,0.03249499574303627,0.06136325001716614,0.01462678611278534,0.13837657868862152,9.70511245727539
3.2600000000000002,0.0077041927725076675,0.1059582531452179,0.05007685348391533,-0.6384227871894836,-0.26993581652641296,10.69273853302002
3.2800000000000002,-0.0685623437166214,0.07839516550302505,0.023077957332134247,-0.1296725571155548,-0.4688050150871277,11.203507423400879
3.3000000000000003,-0.006491112522780895,-0.0057726348750293255,-0.019151700660586357,0.2293945550918579,-0.3116769790649414,10.160367965698242
3.3200000000000003,0.05414057895541191,0.029991328716278076,-0.023269226774573326,0.29702168703079224,-0.2847500741481781,8.428176879882812
3.34,0.0359475240111351,0.03875304013490677,-0.01799866370856762,-0.07106833904981613,-0.6073970794677734,8.670321464538574
3.36,0.10346774756908417,-0.004587266128510237,-0.01772496849298477,-0.377718061208725,-0.6207197308540344,9.272171974182129
3.38,0.06622768938541412,0.003624503267928958,-0.004938054364174604,-0.4104364514350891,-0.20029446482658386,9.754225730895996
3.4,0.03603903204202652,0.04107373580336571,-0.013450779020786285,-0.36331409215927124,0.3313041627407074,10.903555870056152
3.42,0.04535175487399101,-0.048105571419000626,-0.02034829929471016,-0.08263489603996277,0.4617484211921692,11.035325050354004
3.44,0.0354536734521389,-0.08663016557693481,-0.028914758935570717,0.08609877526760101,0.34228986501693726,9.595295906066895
3.46,-0.00783366896212101,-0.006343394983559847,-0.01936846412718296,0.17191442847251892,0.2790259122848511,8.058067321777344
3.48,-0.011849839240312576,0.019297288730740547,0.004779881797730923,-0.30884066224098206,0.19015005230903625,8.806610107421875
3.5,-0.03112034685909748,-0.026615602895617485,0.01133466511964798,-0.714246392250061,-0.04913987219333649,10.313250541687012
3.52,-0.04413023591041565,0.022662213072180748,0.0159861221909523,-0.8889443278312683,-0.05430363118648529,10.293302536010742
3.54,-0.059478797018527985,0.11050059646368027,-0.011527505703270435,-0.9431359171867371,0.06123189255595207,9.787275314331055
3.56,-0.04309586063027382,0.09343574941158295,-0.03244919702410698,-0.3044986128807068,0.09142161160707474,10.254128456115723
3.58,-0.05937619134783745,0.014821364544332027,-0.029774285852909088,0.4408250153064728,0.3056522607803345,10.44959831237793
3.6,-0.0664416253566742,-0.007585438434034586,-0.0007692850194871426,0.6699187755584717,0.0762874111533165,9.38864517211914
3.62,-0.07627185434103012,0.0574290007352829,0.022080648690462112,0.3957194685935974,-0.25829142332077026,8.823740005493164
3.64,-0.06380132585763931,-0.0068416716530919075,0.033590178936719894,-0.3152252733707428,-0.44401025772094727,10.407310485839844
3.66,-0.04445831850171089,-0.10414993017911911,0.027302507311105728,-0.6044378876686096,-0.23769712448120117,10.53456974029541
3.68,0.021800681948661804,-0.07698182016611099,-0.010894985869526863,-0.5457008481025696,-0.33286938071250916,10.11786937713623
3.7,0.011103578843176365,-0.015117207542061806,-0.055041030049324036,-0.5235491991043091,-0.6379420161247253,9.796981811523438
3.72,-0.003837242256850004,-0.05806542560458183,-0.09112785756587982,-0.5627907514572144,-0.3773517310619354,9.346827507019043
3.74,-0.02045198157429695,-0.0544566810131073,-0.08331938832998276,-0.43916404247283936,-0.08460454642772675,8.689990997314453
3.7600000000000002,-0.06818927079439163,-0.012686997652053833,-0.03387786075472832,-0.15424858033657074,0.39372122287750244,8.891314506530762
3.7800000000000002,-0.12352444231510162,0.07387135177850723,0.007726443465799093,-0.17015452682971954,0.9051879048347473,10.128172874450684
3.8000000000000003,-0.07639750093221664,0.10700623691082001,0.0649617537856102,0.10746823251247406,0.9308609962463379,9.867176055908203
3.8200000000000003,-0.06511982530355453,0.05737223103642464,0.08842453360557556,0.33119359612464905,0.3024119734764099,9.962510108947754
3.84,-0.007430862169712782,-0.023325812071561813,0.0710270032286644,0.6105346083641052,-0.6067789793014526,9.950180053710938
3.86,0.0010242529679089785,-0.008733428083360195,0.008042748086154461,0.326339453458786,-1.1323143243789673,9.556178092956543
3.88,-0.02515244483947754,0.03838950768113136,-0.04805164784193039,0.2791633903980255,-1.1910098791122437,9.237030982971191
3.9,0.018148967996239662,0.006095374468713999,-0.09218980371952057,0.053199078887701035,-1.1098557710647583,9.477423667907715
3.92,0.028161950409412384,-0.02584022469818592,-0.07420332729816437,-0.6948156356811523,-0.4152030348777771,10.484501838684082
3.94,0.03772139176726341,-0.004051238298416138,-0.0301288403570652,-1.0237339735031128,0.5428828597068787,11.329426765441895
3.96,0.06524986773729324,0.005335790105164051,0.033858392387628555,-1.0369638204574585,0.12905025482177734,10.815679550170898
3.98,0.0068773082457482815,-0.011240056715905666,0.04862523823976517,-0.828093945980072,-0.18289218842983246,8.985360145568848
4.0,0.021481208503246307,-0.030978308990597725,0.014635080471634865,-0.6107494235038757,-0.1506270170211792,8.810738563537598
4.0200000000000005,-0.07764363288879395,-0.023707622662186623,-0.04528910294175148,-0.5091224312782288,0.1601022481918335,9.903485298156738
4.04,-0.10336031764745712,0.04593661427497864,-0.07274193316698074,-0.5389170050621033,0.43910643458366394,10.350334167480469
4.0600000000000005,-0.07430645078420639,0.06971315294504166,-0.07355210185050964,-0.4987259805202484,0.1369723528623581,9.332589149475098
4.08,-0.08010061085224152,0.039693642407655716,-0.04306512326002121,-0.37594425678253174,-0.3030180037021637,9.256936073303223
4.1,-0.09077589958906174,0.002899785991758108,0.014605995267629623,-0.12128692865371704,-0.3602241277694702,9.99783706665039
4.12,-0.03546721860766411,0.041769541800022125,0.0621783621609211,0.06523792445659637,-0.40154123306274414,10.701627731323242
4.14,0.01781080849468708,0.03886150196194649,0.07702784240245819,0.17590339481830597,-0.6336535215377808,10.209382057189941
4.16,-0.015994084998965263,0.05453469604253769,0.05369974300265312,0.18586380779743195,-0.8093752861022949,9.647473335266113
4.18,0.050033457577228546,0.0625380203127861,0.0017400233773514628,0.3056810796260834,-0.5087870955467224,9.325610160827637
4.2,0.0028777113184332848,0.008924267254769802,-0.05063755810260773,0.30244380235671997,-0.11204559355974197,9.256509780883789
4.22,-0.005270364228636026,-0.009304041974246502,-0.04729638248682022,0.08422894775867462,0.26012399792671204,9.308977127075195
4.24,0.01433467771857977,-0.014253677800297737,-0.04353698715567589,0.02757936529815197,0.03908773511648178,9.02658462524414
4.26,-0.014916997402906418,-0.020444585010409355,-0.01896730624139309,-0.2241201251745224,-0.48340246081352234,10.236714363098145
4.28,-0.04710841923952103,-0.022775163874030113,0.007151933386921883,-0.7974214553833008,-0.32286080718040466,11.240581512451172
4.3,0.027651550248265266,-0.01646123267710209,0.02859901264309883,-0.8433231115341187,0.021399714052677155,10.598108291625977
4.32,0.026112034916877747,0.05813240632414818,0.06361173093318939,-0.7197616696357727,-0.10507648438215256,9.137710571289062
4.34,0.02069682441651821,0.08489851653575897,0.06585891544818878,-0.5718664526939392,-0.36611512303352356,8.513553619384766
4.36,-0.002667553024366498,0.050942644476890564,0.012092315591871738,-0.8111498355865479,-0.7071219682693481,9.832348823547363
4.38,0.022701548412442207,0.025073984637856483,-0.06152152270078659,-0.6590337753295898,-0.2634451985359192,10.769064903259277
4.4,0.036091398447752,0.056728512048721313,-0.07810764759778976,-0.537810742855072,0.45596858859062195,10.038371086120605
4.42,0.007737049832940102,0.0015391538618132472,-0.029926078394055367,0.08043476194143295,0.5227146148681641,9.34919261932373
4.44,0.06876432150602341,-0.05876129865646362,0.01423610094934702,-0.03496299311518669,-0.2891584634780884,9.663196563720703
4.46,0.010949668474495411,-0.060310523957014084,0.016106709837913513,-0.2536337375640869,-0.7160746455192566,10.397061347961426
4.48,0.04553266614675522,-0.046529751271009445,-0.0024886587634682655,-0.3626215159893036,-0.4960772693157196,10.381892204284668
4.5,0.018363993614912033,-0.05737241730093956,0.016446636989712715,-0.3953373432159424,-0.008045218884944916,9.071793556213379
4.5200000000000005,-0.022760696709156036,-0.06981018930673599,0.02318420633673668,-0.2504885792732239,0.04400520771741867,8.533353805541992
4.54,-0.0005238577723503113,-0.03059215098619461,0.004936147015541792,-0.14455930888652802,-0.16479459404945374,8.739141464233398
4.5600000000000005,-0.03167564049363136,-0.020385827869176865,0.007545075844973326,-0.06549614667892456,-0.3181682527065277,9.832540512084961
4.58,0.003960648085922003,-0.037378035485744476,-0.0045083388686180115,-0.27549517154693604,-0.03643953055143356,11.394083976745605
4.6000000000000005,-0.03421255573630333,-0.03568559139966965,0.005289281252771616,-0.3528287410736084,0.1918330043554306,11.298040390014648
4.62,0.005874998401850462,0.010900755412876606,-0.0047912560403347015,-0.6252495050430298,-0.1505163311958313,10.013510704040527
4.64,0.026400486007332802,0.024180937558412552,-0.001137375715188682,-0.6353287696838379,-0.5201179385185242,9.229122161865234
4.66,0.022301215678453445,-0.04179959371685982,0.010954384692013264,-0.4293793737888336,-0.5010859370231628,9.026697158813477
4.68,0.05218927189707756,-0.031231097877025604,0.03016630746424198,-0.4068523049354553,-0.4071987271308899,9.298909187316895
4.7,0.06079552322626114,-0.002099239733070135,0.035306867212057114,-0.27159935235977173,-0.31636813282966614,10.069650650024414
4.72,0.057252187281847,0.00372078875079751,0.03463875129818916,-0.1887102872133255,-0.23745732009410858,10.861741065979004
4.74,0.01897871308028698,-0.041910916566848755,0.002844172064214945,0.21573542058467865,0.08951345831155777,10.1991548538208
4.76,-0.023737043142318726,-0.061545539647340775,-0.01842780038714409,0.28208500146865845,0.5282076001167297,8.568005561828613
4.78,-0.02323019504547119,-0.04192352294921875,-0.013876001350581646,0.14135296642780304,0.5194531083106995,8.150197982788086
4.8,-0.054322175681591034,-0.08236559480428696,0.01639535278081894,-0.041233986616134644,0.25270429253578186,9.30254077911377
4.82,-0.07896293699741364,-0.10521552711725235,0.014445110224187374,-0.30800774693489075,0.11505575478076935,11.339151382446289
4.84,-0.06797295063734055,-0.06388697028160095,0.016925135627388954,-0.57160884141922,-0.003008947242051363,12.301484107971191
4.86,-0.006413933355361223,-0.07744542509317398,0.03469593822956085,-0.7339938879013062,-0.08501365035772324,10.334601402282715
4.88,-0.05902682617306709,-0.06831376254558563,0.043851714581251144,-0.5101311206817627,-0.5385380387306213,8.166065216064453
4.9,-0.0026524586137384176,-0.027658618986606598,0.03337550908327103,-0.450992226600647,-0.7724694609642029,7.729969024658203
4.92,0.051087815314531326,0.0405108705163002,0.00164412974845618,-0.2644774615764618,-0.6992618441581726,8.786628723144531
4.94,-0.006540676113218069,0.07164699584245682,-0.008631380274891853,-0.02319810725748539,-0.7041529417037964,10.574063301086426
4.96,-4.929725946567487e-06,0.08150755614042282,-0.022109340876340866,0.3311130106449127,-0.4891662895679474,11.536109924316406
4.98,-0.013727483339607716,0.019878480583429337,-0.03549603372812271,0.8922552466392517,-0.2140580713748932,11.15632438659668
5.0,-0.001429057912901044,-0.008399502374231815,-0.028709404170513153,0.8358756303787231,0.21376070380210876,9.220434188842773
5.0200000000000005,-0.011220746673643589,0.013358117081224918,0.005730782635509968,0.23283669352531433,0.5773189067840576,8.169702529907227
5.04,0.0032284287735819817,-0.007807337213307619,0.021595582365989685,-0.16110706329345703,0.3420160710811615,9.396570205688477
5.0600000000000005,-0.04327169805765152,-0.0612415112555027,0.03247557953000069,-0.2279062271118164,-0.20525026321411133,10.293340682983398
5.08,-0.030424637719988823,-0.06938283145427704,0.010477996431291103,-0.12378288805484772,-0.44991400837898254,10.311030387878418
5.1000000000000005,0.03313233330845833,-0.004145760554820299,0.002966012340039015,-0.5643151998519897,-0.2948777377605438,9.736886978149414
5.12,-0.03769529238343239,0.02529745176434517,0.005850716959685087,-0.8911912441253662,-0.19892200827598572,9.891500473022461
5.14,0.009161809459328651,-0.0039968364872038364,-0.01034438144415617,-0.9314162731170654,-0.223454087972641,9.482502937316895
5.16,0.01039416529238224,-0.032024431973695755,-0.019949059933423996,-0.6877654194831848,-0.06492581218481064,9.892428398132324
5.18,0.011407597921788692,-0.022047651931643486,-0.02116413787007332,-0.4681565463542938,-0.06328240036964417,10.208052635192871
5.2,-0.03614518418908119,0.004369506612420082,-0.024677729234099388,-0.2602577805519104,-0.23297995328903198,10.10303020477295
5.22,-0.03827273100614548,0.006037972401827574,-0.0045887441374361515,0.04668311029672623,-0.24899612367153168,9.326732635498047
5.24,-0.043911296874284744,-0.010559190064668655,-0.0013239356921985745,-0.23330797255039215,-0.06968196481466293,9.384834289550781
5.26,-0.013796990737318993,-0.08496904373168945,0.02795313484966755,-0.3520393371582031,0.13287566602230072,10.016660690307617
5.28,-0.01655186340212822,-0.09207675606012344,0.05478578805923462,-0.17508964240550995,-0.11702610552310944,9.672285079956055
5.3,-0.01182154193520546,-0.0657026544213295,0.03422031179070473,0.3931844234466553,-0.6092911958694458,9.623627662658691
5.32,0.012876596301794052,-0.0708649680018425,-0.004881818778812885,0.5171789526939392,-0.6867623925209045,9.90556526184082
5.34,0.024484721943736076,-0.037794020026922226,-0.030779946595430374,0.23051302134990692,-0.18024170398712158,10.175824165344238
5.36,0.027750609442591667,0.011731356382369995,-0.03126898035407066,-0.024013152346014977,0.07202175259590149,9.448720932006836
5.38,0.048032473772764206,0.04849529266357422,-0.009133482351899147,-0.21711336076259613,-0.2201577126979828,9.639988899230957
5.4,0.00627958495169878,0.02552380971610546,0.014458445832133293,-0.18373535573482513,-0.43236929178237915,9.882755279541016
5.42,0.03901088237762451,0.015770357102155685,0.021690117195248604,0.03790580853819847,-0.08804287761449814,10.048910140991211
5.44,0.04626123234629631,0.032017484307289124,0.018963245674967766,0.29376208782196045,0.30096009373664856,10.151183128356934
5.46,-0.0006394311203621328,0.0007742547895759344,0.03460526466369629,0.3694029152393341,0.1325114220380783,9.63154411315918
5.48,0.0558847077190876,-0.038505345582962036,-0.0016130228759720922,0.2642439603805542,-0.3042261302471161,9.360222816467285
5.5,0.06858500093221664,-0.01958891935646534,-0.00018360515241511166,-0.0873519703745842,-0.5990033745765686,9.687384605407715
5.5200000000000005,0.02756367437541485,-0.02413776144385338,-0.009219705127179623,-0.5149292945861816,-0.6168444156646729,11.043100357055664
5.54,0.012469657696783543,-0.009323742240667343,-0.001930327620357275,-0.6961801052093506,0.019207915291190147,10.12132740020752
5.5600000000000005,0.006303834728896618,0.04092223569750786,-0.010396037250757217,-0.7014105916023254,0.41887396574020386,8.764787673950195
5.58,0.000257181964116171,0.015844563022255898,-0.024677623063325882,-0.5577951669692993,0.23643891513347626,9.152931213378906
5.6000000000000005,-0.03526951000094414,-0.036251239478588104,-0.03376305475831032,-0.13615550100803375,0.26529404520988464,10.415361404418945
5.62,-0.0030863042920827866,-0.06423907727003098,-0.024813702329993248,0.09944204986095428,0.16862475872039795,10.550745964050293
5.64,-0.04156160727143288,-0.032281599938869476,0.03532415255904198,0.07610034942626953,-0.22567172348499298,9.549674987792969
5.66,-0.0058734663762152195,0.01564565859735012,0.0595410019159317,-0.4254952073097229,-0.6769062280654907,9.90085506439209
5.68,0.009261025115847588,0.013220318593084812,0.058365002274513245,-0.7711723446846008,-0.5243441462516785,10.115744590759277
5.7,0.020657749846577644,-0.0396331250667572,0.02906874194741249,-0.2700936794281006,-0.130360409617424,9.862591743469238
5.72,0.046235375106334686,-0.08511149138212204,-0.00639441329985857,0.28761714696884155,-0.05820617079734802,9.341595649719238
5.74,0.05278957262635231,-0.0362660251557827,-0.02071341499686241,0.6703982353210449,-0.30717140436172485,9.543519020080566
5.76,0.05823921784758568,0.060229286551475525,-0.028034178540110588,0.8466486930847168,-0.32053059339523315,9.911744117736816
5.78,0.006526065059006214,0.053840991109609604,-0.01579700969159603,0.6867732405662537,0.13508090376853943,10.209211349487305
5.8,0.009506924077868462,-0.03707711026072502,0.014324821531772614,-0.24252669513225555,0.02277720347046852,10.217501640319824
5.82,-0.022982073947787285,-0.01296666543930769,0.013577667996287346,-0.7967696785926819,0.20748677849769592,9.903961181640625
5.84,0.05803443491458893,0.06934256106615067,0.02234269306063652,-0.6570188999176025,0.23401260375976562,9.727295875549316
5.86,0.040694039314985275,0.055086828768253326,0.03451887518167496,0.02816035784780979,-0.19576644897460938,9.362581253051758
5.88,0.07209466397762299,-0.024509040638804436,0.013239670544862747,0.4858914315700531,-0.6141547560691833,9.07336139678955
5.9,0.011014445684850216,-0.05571357533335686,-0.03990311175584793,0.2818101644515991,-0.6765690445899963,9.205660820007324
5.92,-0.014574705623090267,-0.032280802726745605,-0.07258329540491104,0.05936422199010849,0.042710430920124054,9.932390213012695
5.94,-0.054131437093019485,-0.03731536120176315,-0.09361085295677185,-0.03435863181948662,0.8067988157272339,9.92068099975586
5.96,-0.06494426727294922,0.037487369030714035,-0.06912228465080261,-0.5623584389686584,1.120812177658081,10.250970840454102
5.98,-0.10801642388105392,0.0935736820101738,-0.023550111800432205,-0.49084025621414185,1.017425537109375,9.62707805633545
6.0,-0.11113916337490082,0.048415657132864,0.04182165861129761,-0.17916281521320343,0.412450909614563,8.708574295043945
6.0200000000000005,-0.11391124874353409,0.06461288034915924,0.06411804258823395,0.050028245896101,-0.33509397506713867,8.626176834106445
6.04,-0.15241387486457825,0.106171615421772,0.04821383208036423,0.44211217761039734,-0.7644820213317871,10.04055118560791
6.0600000000000005,-0.0975910872220993,0.05181822180747986,0.019657088443636894,0.5662118196487427,-0.5221174359321594,12.097902297973633
6.08,-0.01843794621527195,-0.016385473310947418,-0.015126560814678669,0.2622712254524231,-0.31914135813713074,11.149394989013672
6.1000000000000005,-0.027867767959833145,0.0043768673203885555,-0.03857673332095146,0.004835324361920357,-0.4762784540653229,8.315763473510742
6.12,0.013493433594703674,0.03612203523516655,-0.036708563566207886,-0.24620595574378967,-0.8637118339538574,8.463813781738281
6.140000000000001,-0.01248805783689022,-0.03932969272136688,-0.01023742277175188,-0.5553305149078369,-0.8884626626968384,10.044390678405762
6.16,0.023358002305030823,-0.049693625420331955,0.03258366882801056,-0.7492724061012268,-0.2651653289794922,10.440004348754883
6.18,-0.008290397003293037,0.024616776034235954,0.027791796252131462,-0.7486138343811035,0.2817148268222809,9.824759483337402
6.2,-0.008724402636289597,0.02566475234925747,-0.011419234797358513,-0.5994745492935181,0.5074774026870728,10.083271980285645
6.22,-0.03830169886350632,-0.02144632488489151,-0.05317408964037895,-0.4829307496547699,0.43743011355400085,10.45101261138916
6.24,-0.05642085149884224,-0.004572460427880287,-0.056441012769937515,-0.24143922328948975,0.21832524240016937,9.963642120361328
6.26,-0.041664786636829376,0.06198286637663841,-0.0216353852301836,-0.32493850588798523,-0.4181869328022003,9.809274673461914
6.28,-0.04614506661891937,0.008523992262780666,0.03423123061656952,-0.5202467441558838,-0.4666871428489685,9.427032470703125
6.3,0.03506094962358475,-0.036153241991996765,0.07983250170946121,-0.3348574936389923,-0.3994218409061432,8.993692398071289
6.32,0.008624950423836708,-0.05874427780508995,0.07555992901325226,0.19464710354804993,-0.859441339969635,9.448871612548828
6.34,0.029816363006830215,-0.05630238726735115,0.0034588004928082228,0.3499930500984192,-0.9786919951438904,10.615050315856934
6.36,-0.0010560948867350817,-0.04072077199816704,-0.07529792189598083,0.30164557695388794,-0.3235119879245758,10.422690391540527
6.38,-0.00017307033704128116,-0.0073451385833323,-0.0603952631354332,0.2691704332828522,0.36736151576042175,9.619604110717773
6.4,0.0071944864466786385,-0.019955558702349663,-0.014529544860124588,0.1803402602672577,0.5770699381828308,9.449919700622559
6.42,0.026038946583867073,-0.024685420095920563,0.038307927548885345,-0.07752208411693573,0.037100497633218765,9.70178508758545
6.44,-0.02221454679965973,-0.007377516943961382,0.05617809295654297,-0.11849885433912277,-0.34235677123069763,9.92260456085205
6.46,-0.019836565479636192,-0.022691933438181877,0.034784555435180664,0.19283166527748108,-0.2524451017379761,9.450812339782715
6.48,0.016523024067282677,-0.04064761847257614,-0.003260604338720441,0.42867082357406616,-0.22909638285636902,8.89918041229248
6.5,-0.01206974033266306,-0.050200387835502625,-0.021073326468467712,0.21094666421413422,-0.3316850960254669,9.535935401916504
6.5200000000000005,-0.02762947604060173,-0.034911852329969406,-0.056393250823020935,-0.20133580267429352,-0.32523804903030396,11.126626968383789
6.54,-0.01821831613779068,0.027579449117183685,-0.0413762591779232,-0.5650237798690796,-0.19730772078037262,11.173504829406738
6.5600000000000005,-0.0339842289686203,0.09953039139509201,-0.0037736650556325912,-0.7802923917770386,-0.26283738017082214,9.858078956604004
6.58,-0.03704559803009033,0.0325702466070652,0.016573013737797737,-0.7771322727203369,0.15856871008872986,8.279601097106934
6.6000000000000005,-0.01049204170703888,-0.02960905246436596,0.01808365061879158,-0.4617249667644501,0.17490209639072418,8.418661117553711
6.62,0.009161938913166523,-0.0011557849356904626,-0.006626736372709274,-0.17926478385925293,-0.06409477442502975,10.116276741027832
6.640000000000001,0.00908716768026352,-0.022579142823815346,-0.004508606158196926,0.00789453275501728,-0.5234342813491821,11.741837501525879
6.66,-0.03697105869650841,-0.042341671884059906,-0.025867488235235214,-0.09062349796295166,-0.743590772151947,11.718304634094238
6.68,-0.020964859053492546,-0.02272966131567955,-0.04501685872673988,-0.2178921401500702,-0.37799516320228577,9.785221099853516
6.7,-0.039445411413908005,0.009355195797979832,-0.0177389495074749,-0.13692891597747803,0.06659289449453354,7.852104187011719
6.72,-0.026560666039586067,0.0034180697984993458,0.01438720803707838,0.039494022727012634,0.07544922083616257,7.686146259307861
6.74,-0.020528849214315414,-0.03617649897933006,0.04395401105284691,0.11020133644342422,-0.19692179560661316,9.421098709106445
6.76,-0.05170544981956482,-0.029913311824202538,0.02233302593231201,0.22149938344955444,-0.1582772582769394,10.857704162597656
6.78,-0.051862481981515884,0.023786814883351326,-0.0072771525010466576,0.31532907485961914,-0.15656796097755432,11.317146301269531
6.8,-0.04299622029066086,0.05374966189265251,-0.022885765880346298,0.33576977252960205,-0.01912974752485752,9.909256935119629
6.82,-0.03928077220916748,0.00028055088478140533,-0.028831223025918007,0.3084106743335724,-0.18662498891353607,9.606912612915039
6.84,-0.030196422711014748,-0.024478785693645477,-0.030438503250479698,-0.16510377824306488,-0.6171125173568726,9.214611053466797
6.86,-0.04387751221656799,-0.06034217029809952,-0.014398562721908092,-0.20697754621505737,-0.7602253556251526,9.152676582336426
6.88,0.029728559777140617,-0.10915650427341461,0.015857553109526634,-0.29544323682785034,-0.7347767949104309,9.318610191345215
6.9,0.005717478226870298,-0.10411641001701355,0.04652973264455795,-0.2910725176334381,-0.5570989847183228,10.07627010345459
6.92,0.06656104326248169,-0.03835250809788704,0.03030594065785408,-0.9291072487831116,-0.48464810848236084,11.538633346557617
6.94,0.013733447529375553,-0.040703121572732925,-0.017815008759498596,-1.3389487266540527,-0.6781677007675171,11.866808891296387
6.96,0.03726601228117943,-0.08410230278968811,-0.06594235450029373,-1.061805248260498,-0.27493882179260254,9.825075149536133
6.98,0.02846504934132099,-0.08148297667503357,-0.05939750373363495,-0.5589913725852966,0.0702844187617302,7.532988548278809
7.0,0.011218857951462269,-0.048972174525260925,-0.029612181708216667,0.10439890623092651,0.1460801362991333,7.496973991394043
7.0200000000000005,-0.02463086135685444,-0.05680107697844505,0.044358424842357635,0.6411947011947632,-0.028072819113731384,9.505914688110352
7.04,0.04038401320576668,-0.06904934346675873,0.08760500699281693,1.0830328464508057,-0.03714548796415329,11.189122200012207
7.0600000000000005,0.04361160844564438,-0.08344914764165878,0.08569584041833878,1.2598854303359985,0.07043083012104034,11.365375518798828
7.08,0.021070409566164017,-0.12995804846286774,0.05750945955514908,0.9195001125335693,0.16776783764362335,9.787666320800781
7.1000000000000005,0.07801837474107742,-0.0889320895075798,-0.011690657585859299,0.31328409910202026,-0.3175872266292572,8.10800552368164
7.12,0.03621561452746391,0.002775498665869236,-0.049595411866903305,-0.10756496340036392,-1.0930920839309692,8.177872657775879
7.140000000000001,-0.03857264295220375,0.08262799680233002,-0.06927259266376495,-0.16734543442726135,-1.291330099105835,9.43783187866211
7.16,-0.03721446543931961,0.08225851505994797,-0.0480932891368866,0.23073607683181763,-0.2833719253540039,10.86373519897461
7.18,-0.056185562163591385,0.0518798865377903,0.011482661589980125,0.48598363995552063,0.8877671360969543,10.43964958190918
7.2,-0.09750605374574661,0.05482001602649689,0.0705818459391594,0.3683435916900635,1.1107566356658936,9.867774963378906
7.22,-0.14256559312343597,0.0030880197882652283,0.022515151649713516,-0.3398086726665497,-0.0814066156744957,10.24866008758545
7.24,-0.05568878725171089,-0.06156781315803528,-0.08322756737470627,-0.3869871497154236,-0.6102672815322876,9.956201553344727
7.26,-0.11617454141378403,-0.05562938377261162,-0.14182525873184204,-0.6561745405197144,-0.625438928604126,9.700194358825684
7.28,-0.07729361206293106,0.06323568522930145,-0.1232437714934349,-1.1376838684082031,-0.5810765027999878,10.279762268066406
7.3,-0.021763691678643227,0.052614726126194,-0.04701823741197586,-0.918707549571991,-0.7575530409812927,10.306748390197754
7.32,-0.015896599739789963,-0.040246862918138504,0.029031727463006973,-0.3517051339149475,-0.8210069537162781,9.842411041259766
7.34,0.036229852586984634,-0.06229857727885246,0.07606394588947296,0.7842886447906494,-0.8476258516311646,9.081597328186035
7.36,0.011277228593826294,-0.08556092530488968,0.03964158892631531,1.6903083324432373,-0.6623767614364624,8.51193904876709
7.38,0.06310353428125381,-0.05994458496570587,-0.017732810229063034,1.7099578380584717,-0.42967259883880615,8.52209186553955
7.4,0.09823855012655258,-0.04411450773477554,-0.05330510064959526,0.8951301574707031,-0.027948271483182907,9.227818489074707
7.42,0.05150878056883812,-0.014609388075768948,-0.03587929904460907,0.11576282232999802,-0.04313524812459946,10.933462142944336
7.44,0.061090998351573944,0.016221651807427406,0.015104919672012329,-0.43253833055496216,-0.23740266263484955,10.765595436096191
7.46,0.06794586777687073,0.018625492230057716,0.05130996182560921,-0.4295160472393036,-0.3748185336589813,9.060812950134277
7.48,-0.003428563941270113,0.06181957200169563,0.05531887710094452,-0.4606545567512512,-0.29039743542671204,8.714963912963867
7.5,-0.08100958168506622,0.09483787417411804,0.03442377224564552,0.08119730651378632,0.2092411071062088,9.49361801147461
7.5200000000000005,-0.06399984657764435,0.12149559706449509,-0.009539423510432243,0.41493576765060425,0.5329577922821045,10.65583610534668
7.54,-0.12490494549274445,0.12143538147211075,-0.057532962411642075,0.5060693621635437,0.42236366868019104,10.97083568572998
7.5600000000000005,-0.10506635159254074,0.12394684553146362,-0.05565723404288292,0.5335932374000549,0.2909357249736786,10.321137428283691
7.58,-0.08133288472890854,0.08807031065225601,-0.05164361000061035,0.36765649914741516,-0.01948186382651329,8.983094215393066
7.6000000000000005,-0.13875286281108856,0.018154513090848923,-0.03692003712058067,0.03345553204417229,-0.6658003330230713,8.632869720458984
7.62,-0.05820699408650398,0.029441893100738525,-0.015813738107681274,-0.20939500629901886,-0.990906834602356,9.155281066894531
7.640000000000001,-0.05983152985572815,0.1000843420624733,0.04188832640647888,-0.33417946100234985,-0.9310309886932373,9.891676902770996
7.66,0.005316689144819975,0.16104410588741302,0.0928543359041214,-0.4411047697067261,-0.9844131469726562,10.910326957702637
7.68,0.04650953412055969,0.1267571896314621,0.12103098630905151,-0.5334787964820862,-1.2169018983840942,10.724641799926758
7.7,0.082166887819767,0.010586485266685486,0.09180060029029846,0.010514534078538418,-1.5178098678588867,10.227453231811523
7.72,0.05807496979832649,-0.004463577643036842,0.016777409240603447,0.23626399040222168,-1.0205641984939575,9.329743385314941
7.74,0.04934285208582878,0.022132443264126778,-0.025948241353034973,-0.06933575868606567,-0.04074139520525932,8.991950035095215
7.76,0.07876817882061005,0.0007194291683845222,-0.04088365286588669,-0.0243693757802248,0.50893634557724,9.398589134216309
7.78,0.06816259771585464,-0.055607981979846954,-0.033684954047203064,-0.17055857181549072,0.4013102948665619,9.921266555786133
7.8,0.05285085365176201,-0.061355702579021454,-0.038392018526792526,-0.48990392684936523,-0.21984197199344635,10.768800735473633
7.82,0.016652248799800873,-0.00441642664372921,-0.037992607802152634,-1.1018472909927368,-0.7669053077697754,10.702131271362305
7.84,-0.05786779895424843,0.039205990731716156,-0.020879773423075676,-0.7966164350509644,-0.3703239858150482,9.681357383728027
7.86,-0.030324187129735947,0.0430438406765461,0.009216214530169964,-0.5500757098197937,0.351811021566391,8.411430358886719
7.88,-0.05341063067317009,0.06355047225952148,0.023768769577145576,-0.17571930587291718,0.4579315781593323,8.97060489654541
7.9,-0.07017826288938522,0.043924156576395035,0.031115178018808365,0.8849353790283203,0.11832310259342194,11.320813179016113
7.92,-0.06886971741914749,0.018822744488716125,0.03321155533194542,1.1221328973770142,-0.4395517110824585,10.932080268859863
7.94,-0.0006467591156251729,0.04300834983587265,0.017010580748319626,0.8891079425811768,-0.7699030637741089,9.435079574584961
7.96,-0.01686893031001091,0.045286502689123154,-0.0042005544528365135,0.16657114028930664,-0.8471510410308838,8.662430763244629
7.98,-0.04824867844581604,0.020032644271850586,-0.03587206080555916,-0.5785402059555054,-0.8936249017715454,9.327722549438477
8.0,-0.0525386705994606,0.08975411206483841,-0.04650397598743439,-0.8543509840965271,-0.8400417566299438,10.07188606262207
8.02,-0.007313744630664587,0.12041707336902618,-0.0634988397359848,-0.4749935567378998,-0.30908122658729553,10.575146675109863
8.040000000000001,0.015455410815775394,0.07679006457328796,-0.04720960929989815,0.024237655103206635,0.09701527655124664,10.265213966369629
8.06,-0.05632781237363815,0.0342407301068306,-0.029544392600655556,0.15617218613624573,0.22455723583698273,9.328407287597656
8.08,-0.037856921553611755,0.02487540803849697,-0.010788947343826294,0.09813019633293152,-0.14102016389369965,8.976629257202148
8.1,-0.04671458527445793,0.03264661133289337,-0.022944387048482895,-0.17570699751377106,-0.6870092153549194,9.968668937683105
8.120000000000001,-0.08946812152862549,-0.04244628921151161,-0.03619805723428726,-0.4838951826095581,-0.5472180247306824,10.5476713180542
8.14,-0.0430724062025547,-0.016964053735136986,-0.03836926072835922,-1.2504298686981201,-0.4474946856498718,11.158201217651367
8.16,0.010396463796496391,0.0917009487748146,-0.011182693764567375,-1.4447154998779297,-0.5783827304840088,10.217595100402832
8.18,-0.02851037122309208,0.10902075469493866,0.0036188866943120956,-1.2306861877441406,-0.9518149495124817,8.77668571472168
8.2,-0.03602714464068413,0.0800761878490448,0.03889640048146248,-0.7275263071060181,-1.0666282176971436,7.803858757019043
8.22,-0.013182390481233597,0.0699140727519989,0.04316846653819084,0.46482178568840027,-1.011436939239502,8.489032745361328
8.24,0.032959628850221634,0.05350861698389053,0.03360404446721077,1.3570665121078491,-0.6278252005577087,9.778260231018066
8.26,0.002516818465664983,0.038678839802742004,0.0325966402888298,1.6203179359436035,-0.15598668158054352,10.714590072631836
8.28,0.01892857253551483,0.03985719010233879,0.007871637120842934,0.19477444887161255,-0.2979678511619568,11.479171752929688
8.3,0.006623542867600918,0.041988492012023926,-0.0609542541205883,-0.7850135564804077,-0.2738815248012543,10.24441146850586
8.32,-0.0040037501603364944,0.011810665018856525,-0.062165483832359314,-1.0116604566574097,0.15256747603416443,8.644123077392578
8.34,-0.05491400882601738,0.0003850894281640649,-0.0575997456908226,-0.675041913986206,0.0851285383105278,8.910662651062012
8.36,-0.03526341915130615,0.031904567033052444,-0.05127798020839691,-0.46143993735313416,0.051023855805397034,10.181292533874512
8.38,-0.09953876584768295,0.03374679759144783,-0.010088654235005379,-0.0002341508661629632,-0.1138971671462059,10.636198043823242
8.4,-0.043983109295368195,-0.008564931340515614,0.02426988258957863,0.15278281271457672,-0.14331747591495514,10.640423774719238
8.42,-0.027996761724352837,-0.037550412118434906,0.062002696096897125,-0.3021334409713745,-0.5285094976425171,9.512711524963379
8.44,-0.04008888453245163,-0.03364409878849983,0.08266930282115936,-0.6202802062034607,-1.3517284393310547,9.360031127929688
8.46,0.016128335148096085,-0.034039728343486786,0.09156464785337448,-0.5911191701889038,-1.5075069665908813,8.594996452331543
8.48,0.056209150701761246,-0.09218646585941315,0.11244013160467148,-0.48857489228248596,-1.1917717456817627,8.187384605407715
8.5,0.10107877850532532,-0.09811338037252426,0.08569956570863724,-0.48436975479125977,-0.9708027243614197,9.215933799743652
8.52,0.07976386696100235,0.0022361446171998978,0.01618838869035244,-0.7806217074394226,-1.0146865844726562,11.06682300567627
8.540000000000001,0.09840244799852371,0.03631482645869255,-0.09058830142021179,-0.6117473244667053,-0.533669114112854,11.7124605178833
8.56,0.06561361253261566,-0.004208357539027929,-0.14264896512031555,-0.7361534833908081,-0.08539716899394989,9.626707077026367
8.58,0.05844351649284363,-0.009021400474011898,-0.1415167599916458,-0.5836005210876465,0.19125525653362274,8.173908233642578
8.6,-0.038841113448143005,0.0307528804987669,-0.09724809229373932,-0.4180355966091156,0.4761965572834015,8.530433654785156
8.620000000000001,-0.03190445527434349,0.03378644213080406,-0.04518899321556091,-0.06514479219913483,0.4769735038280487,10.494427680969238
8.64,-0.02861151099205017,-0.046375300735235214,0.04554753005504608,0.30567678809165955,0.14423911273479462,11.385700225830078
8.66,-0.031004054471850395,-0.11303982138633728,0.09710785746574402,0.15871624648571014,-0.5154131054878235,10.946496963500977
8.68,-0.00122214131988585,-0.08329350501298904,0.10641786456108093,-0.11235872656106949,-0.6601218581199646,9.916303634643555
8.700000000000001,-0.033040083944797516,-0.046202272176742554,0.10352759808301926,-0.25119727849960327,-0.7968003749847412,8.507624626159668
8.72,0.014911658130586147,-0.0671447366476059,0.07931853085756302,-0.30497169494628906,-0.9119999408721924,8.623536109924316
8.74,0.05105045065283775,-0.07133068144321442,0.03791949152946472,-0.5352432131767273,-0.8299435377120972,10.276629447937012
8.76,0.0862942487001419,-0.07774343341588974,-0.0030736979097127914,-0.774063229560852,-0.7349645495414734,12.160417556762695
8.78,0.056179825216531754,-0.047049980610609055,-0.029328063130378723,-0.7547607421875,-0.7789705395698547,10.632710456848145
8.8,0.06669960170984268,0.016171298921108246,-0.01018350850790739,-0.6737349629402161,-0.4912528991699219,8.296512603759766
8.82,0.07008320093154907,0.01369186770170927,0.018092727288603783,-0.48288846015930176,-0.42985430359840393,8.194280624389648
8.84,0.057053543627262115,-0.05877547338604927,0.031959325075149536,0.5346493721008301,-0.27851226925849915,9.589309692382812
8.86,0.026991456747055054,-0.1216355562210083,-0.0006224354146979749,0.9045441746711731,0.03611128032207489,10.39037799835205
8.88,-0.028154471889138222,-0.08428294956684113,-0.03135392442345619,0.6395196318626404,0.2754057049751282,10.31413459777832
8.9,-0.012031607329845428,0.0012690749717876315,-0.04521051421761513,0.05400565639138222,0.2163173109292984,9.70792293548584
8.92,-0.06352099776268005,0.01771501637995243,-0.03543718904256821,-0.2766440808773041,-0.20395296812057495,8.985014915466309
8.94,-0.050203680992126465,0.011587811633944511,-0.03918365016579628,-0.27254700660705566,-0.46633589267730713,9.28551197052002
8.96,-0.035807348787784576,0.03791936859488487,-0.02220441773533821,-0.12315350025892258,-0.6735140681266785,9.984774589538574
8.98,0.02820863574743271,0.07896610349416733,0.028857504948973656,-0.30424246191978455,-0.7061362266540527,11.038677215576172
9.0,0.0030416965018957853,0.09505486488342285,0.08779875189065933,-0.3221500515937805,-0.6816912889480591,10.425300598144531
9.02,0.018384773284196854,0.033903367817401886,0.08393924683332443,0.2881107032299042,-0.8788599371910095,9.527179718017578
9.040000000000001,0.036243632435798645,0.007459461223334074,0.02667878568172455,0.2627490162849426,-0.6708465218544006,8.730756759643555
9.06,0.03246627748012543,-0.05121661350131035,0.0017385004321113229,-0.08981399238109589,-0.27494773268699646,9.344273567199707
9.08,0.05030018091201782,-0.10765499621629715,0.01564902812242508,0.0010762043530121446,-0.2563870847225189,9.923954963684082
9.1,0.03633491322398186,-0.10819264501333237,0.021931666880846024,-0.34617123007774353,-0.16002555191516876,10.188438415527344
9.120000000000001,0.07235686480998993,-0.0015751587925478816,0.011651964858174324,-1.3732984066009521,-0.012950712814927101,10.554288864135742
9.14,0.09347647428512573,-0.00392055744305253,0.012044095434248447,-1.352163553237915,-0.11629714071750641,10.057106971740723
9.16,0.08606605231761932,-0.06543091684579849,0.019431140273809433,-1.0380382537841797,-0.2665441930294037,9.4903564453125
9.18,0.10289770364761353,0.0027886321768164635,0.012223563157022,-0.6394485235214233,-0.4017232358455658,9.297372817993164
9.200000000000001,0.10040125250816345,0.06264150887727737,0.015255125239491463,-0.44614192843437195,-0.651516318321228,10.096957206726074
9.22,0.06605970859527588,0.015624324791133404,-0.017857791855931282,0.4671660363674164,-0.7265963554382324,10.283014297485352
9.24,0.059356022626161575,-0.04700978845357895,-0.06765616685152054,1.091904878616333,-0.29415014386177063,9.32949161529541
9.26,0.026502378284931183,-0.04934436082839966,-0.07167678326368332,0.9159865975379944,-0.10986388474702835,8.592453956604004
9.28,0.026040125638246536,-0.07128890603780746,-0.04732487350702286,0.30521777272224426,0.15732137858867645,9.561077117919922
9.3,-0.030298272147774696,-0.09869544208049774,0.008370501920580864,-0.19314922392368317,0.3467203974723816,10.711363792419434
9.32,-0.02015184983611107,-0.06963896006345749,0.0313446968793869,-0.20308129489421844,0.3295343518257141,10.336323738098145
9.34,-0.044585175812244415,0.004846809431910515,0.018280504271388054,-0.1714620441198349,0.2586178481578827,9.769354820251465
9.36,-0.0034496739972382784,0.028403673321008682,0.020891109481453896,-0.5681605339050293,0.042075976729393005,9.67215633392334
9.38,-0.02167266607284546,-0.011646331287920475,0.03430788591504097,-0.42992034554481506,-0.4951897859573364,10.066905975341797
9.4,-0.029421791434288025,-0.016270386055111885,0.024419113993644714,-0.24340549111366272,-0.7822429537773132,10.449067115783691
9.42,-0.014006621204316616,-0.01881774328649044,0.000813021557405591,-0.3217715620994568,-0.993317723274231,10.106524467468262
9.44,-0.02494754269719124,-0.0639430359005928,-0.02708888053894043,-0.40199369192123413,-0.4722317159175873,9.370317459106445
9.46,-0.027676820755004883,-0.11653747409582138,-0.04695576801896095,-0.5168216228485107,0.3948250412940979,9.934433937072754
9.48,-0.04069097712635994,-0.13715577125549316,-0.021251151338219643,-0.475482702255249,0.3115524351596832,9.847805976867676
9.5,-0.058386433869600296,-0.1025564894080162,0.019702903926372528,-0.6348724961280823,-0.2654682397842407,9.741120338439941
9.52,-0.02853001467883587,-0.06798094511032104,0.03499242290854454,-0.4493815004825592,-0.6746117472648621,9.865245819091797
9.540000000000001,0.04284696280956268,-0.12124710530042648,0.04920664802193642,0.028093717992305756,-0.43131768703460693,10.43245792388916
9.56,-0.002889014780521393,-0.16159649193286896,0.047983378171920776,0.7025914192199707,-0.2489835023880005,10.510221481323242
9.58,0.04779347404837608,-0.1381225734949112,0.0064454758539795876,1.0635701417922974,-0.4943685233592987,9.817033767700195
9.6,0.05772341415286064,-0.10386943817138672,-0.019248323515057564,1.117085576057434,-0.9026371240615845,8.655529022216797
9.620000000000001,0.022081425413489342,-0.0831490159034729,-0.041855961084365845,0.8457915782928467,-0.7789519429206848,7.866839408874512
9.64,-0.00035560003016144037,-0.06962040811777115,-0.04834083467721939,0.5228216052055359,-0.3530087471008301,8.422357559204102
9.66,0.024918314069509506,0.028958022594451904,-0.04932785406708717,0.050461240112781525,0.06639929860830307,9.895480155944824
9.68,0.006552706006914377,0.07869279384613037,-0.05046180263161659,-0.04696827381849289,0.2918423116207123,11.881011962890625
9.700000000000001,-0.05019723251461983,0.01530519686639309,-0.021813057363033295,0.35426533222198486,0.4090169370174408,11.444594383239746
9.72,-0.05822417885065079,-0.03678927943110466,0.0003131765406578779,0.25949209928512573,0.2816349267959595,9.50994873046875
9.74,-0.05217943340539932,0.03988780081272125,0.02144872583448887,0.1424001008272171,0.007470432203263044,8.224526405334473
9.76,-0.06491685658693314,0.004936885088682175,0.013609538786113262,0.1481553018093109,-0.09360820800065994,9.401215553283691
9.78,-0.06624896824359894,-0.10019362717866898,-0.014805159531533718,0.1412576138973236,-0.40017953515052795,10.88919448852539
9.8,-0.03979373723268509,-0.08782375603914261,-0.04651103913784027,0.027621738612651825,-0.8212607502937317,10.801898002624512
9.82,-0.04756976291537285,0.005263890605419874,-0.048404090106487274,-0.5320168733596802,-0.9927077889442444,9.706161499023438
9.84,0.013706296682357788,0.007163724396377802,-0.008311910554766655,-1.1741249561309814,-0.7770431637763977,9.109655380249023
9.86,0.004947726149111986,-0.04128462076187134,0.043551258742809296,-1.0918755531311035,-0.4254711866378784,9.756867408752441
9.88,-0.005263475701212883,-0.034349214285612106,0.07708869874477386,-0.23000065982341766,-0.09166703373193741,10.3411283493042
9.9,0.0074150958098471165,-0.021607333794236183,0.04027814418077469,1.4127018451690674,-0.18223850429058075,10.637681007385254
9.92,0.0015632380964234471,-0.08934566378593445,-0.01659153215587139,1.8959565162658691,-0.2708689570426941,9.287091255187988
9.94,-0.0002881612745113671,-0.059564296156167984,-0.052567008882761,1.5395910739898682,-0.2632158696651459,8.15478515625
9.96,-0.050513554364442825,-0.025933820754289627,-0.06086946651339531,0.6678833365440369,-0.33570992946624756,8.241589546203613
9.98,-0.02281566523015499,-0.01960744522511959,-0.03892194479703903,0.13553093373775482,-0.4264429211616516,9.586034774780273
10.0,-0.011124459095299244,-0.025409966707229614,-0.0020349372643977404,-0.289930135011673,-0.3655000627040863,10.819771766662598
10.02,-0.06159426271915436,0.051281411200761795,0.04287920519709587,-0.45613521337509155,0.09127909690141678,10.345416069030762
10.040000000000001,0.01564049907028675,0.14931786060333252,0.06423791497945786,-0.5448963642120361,-0.18917596340179443,9.314010620117188
10.06,-0.07117544859647751,0.13447587192058563,0.06530636548995972,-0.15797843039035797,-0.680111825466156,9.882787704467773
10.08,-0.031300678849220276,0.02278856746852398,-0.0020629186183214188,0.8034419417381287,-0.6504928469657898,10.621062278747559
10.1,-0.02937646582722664,0.016189323738217354,-0.022114494815468788,0.9332761168479919,-0.08914704620838165,9.704877853393555
10.120000000000001,-0.0002539328997954726,0.056013744324445724,-0.006833577528595924,0.6701853275299072,-0.13559091091156006,9.655441284179688
10.14,-0.019419291988015175,-0.025317354127764702,-0.0005626006750389934,0.12920796871185303,-0.5532761216163635,9.560548782348633
10.16,0.06292448192834854,-0.026914138346910477,0.006480780895799398,-0.4065033197402954,-0.8766886591911316,9.660171508789062
10.18,0.102107472717762,0.07022593915462494,0.06533041596412659,-1.1019903421401978,-1.0712157487869263,10.001174926757812
10.200000000000001,0.12841437757015228,0.09562243521213531,0.11779244989156723,-0.9814804196357727,-1.3180384635925293,10.947285652160645
10.22,0.11661136150360107,-0.016868095844984055,0.08000718802213669,-0.059612248092889786,-1.3565829992294312,10.647067070007324
10.24,0.1460215151309967,-0.025315357372164726,-0.017072811722755432,0.7181214690208435,-0.875191867351532,9.904088020324707
10.26,0.11482533812522888,0.011340468190610409,-0.08537278324365616,0.7955271005630493,-0.1474795937538147,9.378287315368652
10.28,0.15406368672847748,-0.013278685510158539,-0.10470538586378098,0.9676646590232849,0.4297574460506439,9.385787010192871
10.3,0.17807218432426453,-0.10821433365345001,-0.08887676149606705,0.4605133533477783,0.5990791320800781,9.296187400817871
10.32,0.11550392955541611,-0.15845367312431335,-0.020890844985842705,-0.005293115042150021,0.3864537179470062,9.294157028198242
10.34,0.07939350605010986,-0.16486872732639313,0.01873924396932125,0.3153686225414276,0.28444841504096985,9.352028846740723
10.36,0.04895961657166481,-0.14696499705314636,0.03909965232014656,-0.11150872707366943,0.15552520751953125,8.933034896850586
10.38,-0.016489990055561066,-0.07427781820297241,0.038126472383737564,-0.4425319731235504,0.06915751844644547,8.994391441345215
10.4,-0.12661564350128174,0.0194088164716959,-0.014679884538054466,-0.5666487812995911,0.4692801237106323,11.040966033935547
10.42,-0.09476600587368011,0.11370693892240524,-0.06970957666635513,-0.6169722676277161,0.8694654107093811,11.09095573425293
10.44,-0.10507210344076157,0.10570576786994934,-0.06715748459100723,0.06127912178635597,0.4705571234226227,10.00818157196045
10.46,-0.1445428431034088,0.06764556467533112,0.016707954928278923,1.2179419994354248,0.011489719152450562,8.735397338867188
10.48,-0.0611419677734375,0.0778549537062645,0.08602944016456604,1.9494086503982544,-0.7301916480064392,8.497563362121582
10.5,-0.06909727305173874,0.1137767881155014,0.1000850647687912,1.8437951803207397,-1.3992831707000732,9.265371322631836
10.52,-0.11259559541940689,0.13243135809898376,0.045446883887052536,0.9561866521835327,-1.4458552598953247,10.249102592468262
10.540000000000001,-0.0888039618730545,0.13133838772773743,-0.002088965615257621,0.17026376724243164,-0.7239551544189453,10.15876579284668
10.56,-0.035279691219329834,0.15896175801753998,-0.016676250845193863,-0.43790093064308167,-0.09186062961816788,10.093092918395996
10.58,-0.03834975138306618,0.1836143136024475,-0.007322433404624462,-0.48678508400917053,-0.07805021852254868,10.039069175720215
10.6,-0.04593226686120033,0.1536058783531189,-0.003508732421323657,-0.2552485167980194,-0.28570032119750977,10.032794952392578
10.620000000000001,0.026086777448654175,0.19889545440673828,0.0024250175338238478,-0.37520402669906616,-0.4576933681964874,10.408137321472168
10.64,-0.04900713637471199,0.22687789797782898,0.022244958207011223,-0.06894206255674362,-0.4372614324092865,10.018680572509766
10.66,-0.015355946496129036,0.13845865428447723,0.043437544256448746,-0.4309487044811249,-0.1273738592863083,10.182870864868164
10.68,-0.009832986630499363,0.0735379308462143,0.023648275062441826,-0.4426049590110779,-0.1728566586971283,9.358922004699707
10.700000000000001,-0.048796605318784714,0.046375397592782974,-0.005348296836018562,-0.4950929284095764,-0.1653444617986679,9.028098106384277
10.72,0.057465165853500366,0.02254856936633587,-0.048320792615413666,-0.4845178723335266,-0.516467273235321,9.286530494689941
10.74,0.0582222156226635,-0.0445568785071373,-0.06248508393764496,-0.32003360986709595,-1.1610684394836426,9.991500854492188
10.76,0.058664821088314056,0.04609279707074165,-0.07364846765995026,-0.2835722863674164,-1.087173581123352,10.302751541137695
10.78,0.048279374837875366,0.10250084102153778,-0.06091333553195,-0.24444027245044708,-0.37347227334976196,9.607893943786621
10.8,0.04415037855505943,0.053667277097702026,-0.033480290323495865,-0.4300498068332672,-0.01313821692019701,9.055049896240234
10.82,-0.021820589900016785,0.07540661841630936,-0.009759603999555111,-0.7172190546989441,-0.31447833776474,9.552521705627441
10.84,-0.03308732807636261,0.14382515847682953,0.00890854001045227,-0.6019587516784668,0.14167506992816925,11.333484649658203
10.86,0.04207054153084755,0.09105765074491501,0.0401836559176445,0.1924072504043579,0.10167112201452255,11.063251495361328
10.88,-0.03668336197733879,0.07375679910182953,0.02642466314136982,0.7878223657608032,-0.22510108351707458,9.406438827514648
10.9,0.010080155916512012,0.09740106761455536,-0.003277555573731661,0.7158766984939575,-0.40542110800743103,8.552294731140137
10.92,-0.011585663072764874,0.08298048377037048,-0.031702619045972824,0.3232632577419281,-0.680269181728363,8.617477416992188
10.94,-0.031251221895217896,0.06835699081420898,-0.033495429903268814,-0.0689152330160141,-0.41843539476394653,8.614381790161133
10.96,-0.013470647856593132,0.0989154502749443,-0.03075721487402916,-0.3164781332015991,-0.14453203976154327,9.42650318145752
10.98,-0.02886779233813286,0.15613128244876862,-0.034846242517232895,-0.5988782644271851,-0.267289400100708,11.08747673034668
11.0,-0.03373678773641586,0.16966532170772552,-0.026649486273527145,-0.20100408792495728,-0.341187447309494,10.726778030395508
11.02,-0.05145587399601936,0.11401886492967606,-0.003846819046884775,-0.16646115481853485,-0.07276298105716705,9.409324645996094
11.040000000000001,0.03907617926597595,0.0662933811545372,0.0426342636346817,-0.6559292674064636,-0.1512010097503662,10.17191219329834
11.06,0.0004642039129976183,0.028435952961444855,0.08970639109611511,-0.9557576775550842,-0.6289047598838806,11.425057411193848
11.08,0.030602945014834404,-0.004897204227745533,0.09047812968492508,-1.0653083324432373,-0.7960422039031982,10.244232177734375
11.1,0.07882912456989288,-0.0019523331429809332,0.07603242248296738,-1.2611863613128662,-0.8444080948829651,9.050762176513672
11.120000000000001,0.016800401732325554,-0.02096351608633995,0.06997250765562057,-1.1433188915252686,-0.6305121183395386,8.603459358215332
11.14,0.015841567888855934,-0.07519233226776123,0.05437975376844406,-1.1185970306396484,-0.29719603061676025,8.73979377746582
11.16,0.021227411925792694,-0.09775961190462112,0.011483542621135712,-0.9232969880104065,0.05425170063972473,9.37771224975586
11.18,-0.03088131546974182,-0.06842280924320221,-0.01921718381345272,-0.5375092625617981,0.2837922275066376,10.072593688964844
11.200000000000001,-0.014672797173261642,-0.05131277069449425,-0.02092362940311432,-0.10826534032821655,0.3753238320350647,10.785877227783203
11.22,0.008387192152440548,-0.07476359605789185,-0.008469007909297943,-0.05222874879837036,0.15179404616355896,10.638035774230957
11.24,-0.03688353672623634,-0.10040447115898132,-0.013070224784314632,-0.07420678436756134,-0.44039613008499146,9.495132446289062
11.26,-0.06667962670326233,-0.0736139714717865,-0.031580884009599686,-0.35054847598075867,-0.8074715733528137,9.001235961914062
11.28,-0.09462325274944305,-0.061616357415914536,-0.05470968037843704,-0.618567943572998,-0.6114485859870911,9.13077163696289
11.3,-0.10783110558986664,-0.006945398170500994,-0.03722343221306801,-0.8098834156990051,-0.16792115569114685,9.812078475952148
11.32,-0.07500969618558884,0.03066016361117363,-0.004518243949860334,-0.9102124571800232,0.054410599172115326,10.727374076843262
11.34,-0.04882720485329628,0.004064406733959913,0.043085917830467224,-0.8807229995727539,-0.19948473572731018,10.890378952026367
11.36,-0.018726378679275513,-0.007896621711552143,0.06607435643672943,-0.053277041763067245,-0.7539179921150208,9.715263366699219
11.38,-0.014079972170293331,-0.0224309042096138,0.03247632831335068,0.7768987417221069,-1.1027050018310547,8.648815155029297
11.4,0.006329777184873819,-0.011869264766573906,-0.007574432995170355,0.9706763625144958,-0.8375329971313477,8.076071739196777
11.42,0.019223276525735855,0.0005515319062396884,-0.037658486515283585,0.6330606341362,-0.3204823136329651,8.90119743347168
11.44,-0.028478335589170456,0.0015346304280683398,-0.027344413101673126,-0.2193872332572937,-0.12209738790988922,10.884730339050293
11.46,0.10000834614038467,0.004512881860136986,0.004203855991363525,-0.9776170253753662,-0.3059167265892029,12.64501667022705
11.48,0.0860157459974289,0.051206085830926895,0.06081061065196991,-0.8499380350112915,-0.8027454018592834,11.534503936767578
11.5,0.049526747316122055,0.018703369423747063,0.06632085144519806,-0.22732879221439362,-0.6810194849967957,8.567519187927246
11.52,0.0430157408118248,0.003142276080325246,0.04698377102613449,0.029605844989418983,-0.2508562207221985,7.312926769256592
11.540000000000001,0.042579494416713715,0.021466435864567757,0.014203584752976894,0.1810866892337799,-0.028407543897628784,8.620365142822266
11.56,0.050363972783088684,0.015339815057814121,0.01063375174999237,-0.1168108880519867,-0.2278645783662796,10.666145324707031
11.58,0.03344377875328064,-0.02265927568078041,0.007728754077106714,-0.4426627457141876,-0.7232024073600769,10.89594554901123
11.6,0.05746190622448921,-0.030266758054494858,-0.01568976603448391,-0.5286263227462769,-0.9594990015029907,9.871670722961426
11.620000000000001,0.03346729651093483,-0.04452550411224365,-0.015102561563253403,-0.3770390748977661,-0.6498644948005676,8.981705665588379
11.64,-0.09300314635038376,-0.04517567902803421,-0.03356967493891716,-0.1954173892736435,-0.03762073069810867,8.898961067199707
11.66,-0.04381784051656723,-0.03517456352710724,-0.05641240254044533,-0.10352298617362976,0.5543301105499268,8.98064136505127
11.68,-0.00845677126199007,0.027616135776042938,-0.02845669724047184,-0.6031806468963623,0.7207809686660767,10.405196189880371
11.700000000000001,0.0596473291516304,0.08430352061986923,0.052024390548467636,-0.7106347680091858,-0.072960764169693,11.104095458984375
11.72,0.08890849351882935,0.05033079907298088,0.09250760078430176,-0.3065556287765503,-1.4570366144180298,10.138103485107422
11.74,0.0978652834892273,0.04788941890001297,0.081111378967762,-0.3597733974456787,-2.014895439147949,8.741909980773926
11.76,0.1440589278936386,0.13211914896965027,0.06112265959382057,-0.5600948333740234,-1.4565852880477905,8.818090438842773
11.78,0.19726867973804474,0.11353595554828644,0.03303311765193939,-0.22368521988391876,-0.40659475326538086,9.620370864868164
11.8,0.1233062669634819,0.10297688841819763,-0.022779447957873344,0.13197258114814758,-0.048259954899549484,10.442384719848633
11.82,0.16662055253982544,0.11208857595920563,-0.11616376787424088,0.24967139959335327,-0.20095373690128326,10.28728199005127
11.84,0.16081802546977997,0.11599764227867126,-0.15416519343852997,0.10114581137895584,-0.25460299849510193,9.567299842834473
11.86,0.14934110641479492,0.060210179537534714,-0.12484189122915268,-0.05311363935470581,0.2130553126335144,10.038714408874512
11.88,0.00627554627135396,-0.019425950944423676,-0.0694928839802742,-0.03161352127790451,0.8307372331619263,10.34664249420166
11.9,-0.012243391945958138,-0.1389024257659912,-0.024230020120739937,-0.22563913464546204,1.3882843255996704,10.56447696685791
11.92,-0.1010633260011673,-0.12579555809497833,0.0335344523191452,-0.6916192770004272,1.0711803436279297,9.055093765258789
11.94,-0.12860207259655,-0.11069877445697784,0.07318878173828125,-0.9852755069732666,0.5838627815246582,8.378332138061523
11.96,-0.12673033773899078,-0.2212613821029663,0.07236798852682114,-0.8615611791610718,0.5224784016609192,9.980621337890625
11.98,-0.1559230089187622,-0.21412724256515503,0.06510267406702042,-0.8245665431022644,-0.12209440767765045,10.832026481628418
12.0,-0.06291242688894272,-0.05678989738225937,0.03677825257182121,-1.1061142683029175,-0.7425369620323181,10.142980575561523
12.02,-0.01988140493631363,-0.023661183193325996,0.023734448477625847,-1.24296236038208,-1.6975558996200562,8.187505722045898
12.040000000000001,0.0344480462372303,-0.07839031517505646,0.012910100631415844,-0.7427960634231567,-1.945852518081665,8.63889217376709
12.06,0.04265656694769859,0.04426206275820732,-0.03244149684906006,-0.45367223024368286,-1.3763161897659302,10.579582214355469
12.08,0.14579159021377563,0.10125722736120224,-0.03499794006347656,-0.23443163931369781,-0.2275415062904358,12.071191787719727
12.1,0.09986985474824905,0.029326383024454117,0.020311269909143448,-0.2504209876060486,0.2278616726398468,10.04432201385498
12.120000000000001,0.13031306862831116,0.0027403368148952723,0.03444318473339081,0.12445075064897537,0.1184600293636322,8.491364479064941
12.14,0.1630096137523651,0.07023851573467255,0.029521794989705086,0.04611741751432419,-0.21494480967521667,9.690143585205078
12.16,0.08874143660068512,0.04446467384696007,0.030206482857465744,-0.10048771649599075,-0.2748993933200836,11.648032188415527
12.18,0.05287926271557808,-0.07323276996612549,0.006849251687526703,-0.13334375619888306,0.330439031124115,10.77939224243164
12.200000000000001,0.07295393943786621,-0.06160730496048927,-0.008805803954601288,-0.14129284024238586,0.6324965357780457,8.43567943572998
12.22,0.047149658203125,0.0016241183038800955,-0.0014546861639246345,-0.08434480428695679,0.3684459626674652,8.398265838623047
12.24,0.02133648842573166,-0.10047919303178787,-0.028454996645450592,-0.22348228096961975,0.012272539548575878,9.662736892700195
12.26,-0.041768502444028854,-0.15240687131881714,-0.0171118825674057,-0.29828935861587524,-0.1447755992412567,10.497552871704102
12.280000000000001,-0.07373588532209396,-0.08250701427459717,-0.05096421763300896,-0.2686666250228882,0.1479838788509369,10.194587707519531
12.3,-0.09966742247343063,-0.08241208642721176,-0.07336172461509705,-0.47746771574020386,0.5304321050643921,9.503289222717285
12.32,-0.09601662307977676,-0.1350383758544922,-0.028487836942076683,-0.3969613313674927,0.7350025177001953,9.568017959594727
12.34,-0.12321055680513382,-0.09503979980945587,0.012189872562885284,-0.44712308049201965,0.37350067496299744,9.306452751159668
12.36,-0.09928835183382034,-0.004242447204887867,0.07075398415327072,-0.34707528352737427,-0.03472061827778816,9.786650657653809
12.38,-0.05568158999085426,0.0012147153029218316,0.10058051347732544,-0.6324666738510132,-0.4794141352176666,10.341711044311523
12.4,-0.05606365203857422,-0.005107415374368429,0.10598772764205933,-0.23967722058296204,-0.9588282704353333,10.471105575561523
12.42,0.012969105504453182,0.01677488535642624,0.06837217509746552,0.06100697070360184,-1.209035873413086,9.240026473999023
12.44,0.09168187528848648,0.0578441396355629,0.0016089690616354346,0.06144719198346138,-1.2183541059494019,8.732848167419434
12.46,0.09944748878479004,0.06560726463794708,-0.01355093251913786,0.1252869963645935,-0.994860827922821,9.16484546661377
12.48,0.09425057470798492,0.05702565237879753,-0.020124703645706177,0.535291314125061,-0.46566054224967957,10.306259155273438
12.5,0.11248758435249329,0.046139102429151535,-0.02963857538998127,0.5942622423171997,0.4180058240890503,11.34178352355957
12.52,0.10257511585950851,-0.008860815316438675,-0.014131040312349796,0.25242820382118225,0.8199156522750854,10.958338737487793
12.540000000000001,0.04015057533979416,-0.07956434786319733,-0.03044227324426174,-0.10890855640172958,0.44706064462661743,8.8043794631958
12.56,-0.024978047236800194,-0.09273415803909302,-0.047441016882658005,0.10488311201334,0.5380688309669495,7.8534932136535645
12.58,-0.08307900279760361,0.0005880576791241765,-0.04108067601919174,-0.5389633178710938,0.5690267086029053,8.921860694885254
12.6,-0.07170061767101288,0.08507467061281204,-0.0027536102570593357,-0.9663965702056885,0.19646908342838287,10.835149765014648
12.620000000000001,-0.06064540892839432,0.04311958700418472,0.05135772004723549,-1.128674030303955,-0.2053123265504837,11.725360870361328
12.64,-0.022889191284775734,-0.000564717105589807,0.059489767998456955,-0.6037501692771912,-0.3018001317977905,10.60366153717041
12.66,-0.02734113670885563,0.037152282893657684,0.03524089604616165,-0.2562195658683777,-0.3107604682445526,8.654327392578125
12.68,0.0006893802783451974,0.08579260110855103,0.006785589735955,-0.07152651995420456,-0.38893020153045654,8.267318725585938
12.700000000000001,0.019483594223856926,0.04540887102484703,-0.040637239813804626,0.09462685883045197,-0.3887420892715454,9.662483215332031
12.72,-0.010025172494351864,-0.07134220004081726,-0.08056405931711197,0.14485064148902893,-0.19432125985622406,10.816224098205566
12.74,-0.00889561790972948,-0.07783518731594086,-0.08595892786979675,0.20170293748378754,0.16419363021850586,10.486322402954102
12.76,0.03637726232409477,-0.01683245226740837,-0.04215189442038536,-0.12484022974967957,-0.20073701441287994,9.698630332946777
12.780000000000001,0.010896444320678711,-0.05215270072221756,0.03614969179034233,-0.4132474660873413,-0.4381873309612274,8.878732681274414
12.8,0.02810569666326046,-0.07812820374965668,0.07496372610330582,-0.6984797716140747,-0.28055593371391296,9.017205238342285
12.82,0.024219363927841187,-0.014501701109111309,0.050198908895254135,-0.8372149467468262,0.023907292634248734,11.055896759033203
12.84,-0.007418214809149504,0.01570698991417885,-0.01992802508175373,-0.8046716451644897,0.1476467400789261,11.54202651977539
12.86,-0.024124760180711746,-0.010363815352320671,-0.07890445739030838,-0.5021064281463623,0.13836833834648132,9.501888275146484
12.88,-0.05387499928474426,0.021013660356402397,-0.0862930566072464,0.08498062193393707,0.22731240093708038,8.081283569335938
12.9,-0.07154187560081482,0.020920397713780403,-0.0625140443444252,0.6470510363578796,0.08849366009235382,8.47694206237793
12.92,-0.053183943033218384,-0.028610995039343834,-0.017828047275543213,0.4368892014026642,-0.08955191820859909,10.363819122314453
12.94,-0.06030381843447685,-0.03821789100766182,0.04194360971450806,0.0615968182682991,-0.09769101440906525,10.977667808532715
12.96,-0.0419449619948864,0.0034347516484558582,0.06893286854028702,-0.3114054799079895,-0.17263741791248322,9.963889122009277
12.98,0.020596159622073174,-0.001376359723508358,0.0511869341135025,-0.6302871704101562,-0.22940324246883392,9.351296424865723
13.0,0.03667974844574928,-0.009968932718038559,0.021199000999331474,-0.8237742185592651,-0.5622292757034302,10.200448989868164
13.02,0.011603271588683128,-0.004410522989928722,-0.006017644423991442,-0.6180102229118347,-0.6919118165969849,10.670265197753906
13.040000000000001,0.0008789666462689638,0.02349107526242733,-0.009404277428984642,0.00951305590569973,-0.5322369337081909,9.550121307373047
13.06,-0.015913894400000572,0.05006202310323715,0.002272176556289196,0.09414949268102646,-0.13405585289001465,8.680805206298828
13.08,-0.04880357161164284,0.0016497040633112192,-0.007885920815169811,0.24283209443092346,0.07815534621477127,9.16706657409668
13.1,-0.07131935656070709,-0.07518209517002106,-0.04932425543665886,0.16585911810398102,0.34618550539016724,10.361785888671875
13.120000000000001,-0.034167204052209854,-0.0802278071641922,-0.06062774732708931,0.11318375170230865,0.3921346366405487,10.369962692260742
13.14,-0.06375372409820557,-0.02373032458126545,-0.05988222733139992,-0.003238059114664793,-0.11098770052194595,10.061821937561035
13.16,0.026495352387428284,0.020910853520035744,-0.037918850779533386,-0.1658661961555481,-0.6352136135101318,9.478018760681152
13.18,-0.004730073269456625,-0.003609586739912629,-0.011292628943920135,-0.369099497795105,-0.8909228444099426,8.606487274169922
13.200000000000001,0.03492157533764839,-0.008397405967116356,-0.008928065188229084,-0.4218665063381195,-0.7883185744285583,9.181657791137695
13.22,0.0580240860581398,0.0456295870244503,0.02286909706890583,-0.46541574597358704,-0.6680322289466858,10.587568283081055
13.24,0.09617411345243454,0.0639982521533966,0.04865717515349388,-0.37140753865242004,-0.5882796049118042,11.368770599365234
13.26,0.08066356182098389,0.011324731633067131,0.037285786122083664,-0.5778281688690186,-0.2608028054237366,10.972798347473145
13.280000000000001,0.11626645922660828,-0.017560003325343132,-0.01734273135662079,-0.4379615783691406,0.26422443985939026,9.618191719055176
13.3,0.05875178799033165,0.0053536733612418175,-0.052015773952007294,-0.3585605323314667,0.2591351568698883,8.744542121887207
13.32,0.03428223729133606,0.032023463398218155,-0.070113405585289,-0.561110258102417,-0.12110371887683868,9.369109153747559
13.34,-0.007910627871751785,0.002664916217327118,-0.09998910874128342,-0.4739721715450287,-0.22438520193099976,10.05424976348877
13.36,-0.004049903247505426,-0.025007177144289017,-0.12821997702121735,-0.2608796954154968,0.21921424567699432,10.257017135620117
13.38,-0.00988807249814272,-0.019665006548166275,-0.08717851340770721,0.2784903049468994,0.5706957578659058,9.227004051208496
13.4,0.0154550950974226,-0.003626081859692931,-0.005997668020427227,0.7510381937026978,0.30927520990371704,9.117587089538574
13.42,0.037643395364284515,0.031337663531303406,0.05630398169159889,0.7369784712791443,-0.3570202589035034,9.040388107299805
13.44,-0.013525901362299919,0.02843346633017063,0.07718536257743835,0.5594842433929443,-0.6243007183074951,9.520565032958984
13.46,-0.010952829383313656,-0.007806994952261448,0.04567844420671463,-0.03070131689310074,-0.1980608105659485,10.436906814575195
13.48,-0.024372072890400887,-0.02126282826066017,0.023922445252537727,-0.2893531620502472,0.24969139695167542,10.670605659484863
13.5,-0.013532262295484543,0.014445409178733826,0.015551700256764889,-0.19577717781066895,0.18380199372768402,9.910676956176758
13.52,-0.000707734958268702,0.003729185787960887,0.011896461248397827,-0.20528556406497955,-0.36942288279533386,8.90539264678955
13.540000000000001,-0.0015895285177975893,-0.02036937139928341,-0.005334449466317892,-0.4062679708003998,-0.4123092591762543,9.525331497192383
13.56,0.03936612978577614,0.015270814299583435,-0.025720426812767982,-0.7554763555526733,-0.1126716136932373,10.886170387268066
13.58,-0.011089945212006569,0.03389891982078552,-0.025410084053874016,-0.8804354071617126,0.1383102536201477,11.126644134521484
13.6,0.011477429419755936,-0.05456293001770973,-0.05008520931005478,-0.5343124866485596,0.10246486961841583,9.63050651550293
13.620000000000001,-0.003823090810328722,-0.05992565676569939,-0.03930479660630226,-0.40450114011764526,-0.06410306692123413,8.083231925964355
13.64,-0.0239891204982996,-0.020425349473953247,-0.012560772709548473,-0.19950738549232483,0.03915293887257576,8.278912544250488
13.66,-0.06977836042642593,-0.029605979099869728,0.0009608562104403973,0.08532000333070755,0.15083453059196472,9.578160285949707
13.68,-0.042080171406269073,-0.08874412626028061,0.014138476923108101,-0.006599658168852329,0.09062676876783371,10.999407768249512
13.700000000000001,-0.0713840052485466,-0.03541787713766098,0.004357863217592239,-0.28823256492614746,-0.2278517484664917,10.812339782714844
13.72,-0.02880549058318138,0.029739772900938988,-0.013452351093292236,-0.4470119774341583,-0.3426612913608551,10.175924301147461
13.74,-0.00610462948679924,-0.012410292401909828,-0.026072843000292778,-0.44857627153396606,-0.4553543031215668,9.280104637145996
13.76,-0.030265802517533302,-0.006245211698114872,-0.05092334374785423,-0.36811932921409607,-0.3547210097312927,9.350250244140625
13.780000000000001,-0.0007624531863257289,-0.015610522590577602,-0.030535215511918068,-0.11255085468292236,-0.3949543535709381,9.958317756652832
13.8,-0.022383632138371468,-0.04394696652889252,0.020725557580590248,-0.20358198881149292,-0.33584848046302795,10.952871322631836
13.82,0.1052079051733017,-0.07574793696403503,0.07336803525686264,-0.21302033960819244,-0.2859189212322235,11.376652717590332
13.84,0.061239372938871384,-0.06587569415569305,0.08323606103658676,0.0173497311770916,-0.25493478775024414,9.584125518798828
13.86,0.08715469390153885,-0.10599973797798157,0.06866474449634552,0.08957267552614212,-0.3972882926464081,8.580851554870605
13.88,0.08582836389541626,-0.13390813767910004,0.0011793321464210749,-0.1459113359451294,-0.6914101839065552,8.591690063476562
13.9,0.061132848262786865,-0.0989786833524704,-0.06641171127557755,-0.033439118415117264,-0.4651859402656555,9.591670036315918
13.92,-0.0014526924351230264,-0.0433664545416832,-0.11395803838968277,0.07605114579200745,-0.05763573572039604,9.920795440673828
13.94,-0.006738151889294386,0.042001448571681976,-0.10805539786815643,0.28779569268226624,0.29138481616973877,9.947019577026367
13.96,-0.05872273072600365,0.07665553689002991,-0.08528982847929001,0.4991105794906616,0.6612666249275208,9.620077133178711
13.98,0.027083294466137886,0.09771304577589035,-0.03839685022830963,0.6744911670684814,0.7340087890625,9.520910263061523
14.0,-0.03861301392316818,0.09023085981607437,-0.0024322415702044964,0.8164096474647522,0.49363622069358826,9.529905319213867
14.02,-0.06771984696388245,0.06941785663366318,0.03699822351336479,0.7652637362480164,0.11045978963375092,9.507039070129395
14.040000000000001,-0.06611573696136475,0.06623058766126633,0.020397234708070755,0.25634509325027466,-0.09396607428789139,10.28242301940918
14.06,-0.09001151472330093,0.006175425369292498,0.01483457162976265,0.1411069929599762,-0.20873741805553436,10.382161140441895
14.08,-0.10292067378759384,-0.02194111794233322,-0.008119559846818447,0.17952384054660797,-0.15022091567516327,9.886223793029785
14.1,-0.04708128049969673,0.06146509200334549,-0.0005726057570427656,-0.6902040243148804,-0.2786683142185211,9.635250091552734
14.120000000000001,0.013316035270690918,0.03520620986819267,0.019098076969385147,-1.4594666957855225,-0.7481226325035095,10.108505249023438
14.14,0.017991231754422188,-0.03464088216423988,0.021715670824050903,-1.7012649774551392,-0.8561065196990967,10.532022476196289
14.16,-0.025513526052236557,0.010737431235611439,-0.03519422560930252,-1.5363997220993042,-0.11725427955389023,10.464612007141113
14.18,-0.0360342413187027,0.04887434467673302,-0.09654953330755234,-0.9440880417823792,0.3333129584789276,9.656869888305664
14.200000000000001,-0.06187182292342186,0.009161986410617828,-0.1133812889456749,-0.2659948468208313,0.5706268548965454,8.797722816467285
14.22,-0.03330303356051445,-0.03575778380036354,-0.10093255341053009,0.48856404423713684,0.5613596439361572,8.6703462600708
14.24,-0.0878734216094017,-0.04703617841005325,-0.07535108178853989,0.767475962638855,-0.07384173572063446,9.280107498168945
14.26,-0.07808583229780197,-0.029758933931589127,-0.03333757817745209,0.4450414180755615,-0.4737154245376587,10.124011039733887
14.280000000000001,-0.08495603501796722,-0.005743976216763258,0.044645361602306366,-0.019275158643722534,-0.5485018491744995,10.370553016662598
14.3,-0.04321610555052757,-0.023671677336096764,0.10515166819095612,-0.3117040991783142,-0.7508038878440857,10.479649543762207
14.32,0.02032785676419735,-0.03802300989627838,0.11664725095033646,-0.2064933478832245,-1.0340393781661987,10.037242889404297
14.34,0.05951323360204697,-0.03189439699053764,0.06995406001806259,0.1098155602812767,-1.045438528060913,9.256836891174316
14.36,0.1248161718249321,-0.013410337269306183,0.023995885625481606,0.20257830619812012,-1.1281888484954834,9.430869102478027
14.38,0.13475251197814941,-0.03086552768945694,-0.014640550129115582,0.0929802879691124,-1.1425480842590332,10.447831153869629
14.4,0.12393208593130112,-0.04111482948064804,-0.043350812047719955,-0.2120400369167328,-0.3762829005718231,10.690065383911133
14.42,0.06724833697080612,-0.008970875293016434,-0.06636032462120056,-0.31928616762161255,0.6186125874519348,9.495848655700684
14.44,0.06731058657169342,-0.017844395712018013,-0.040176235139369965,-0.10006477683782578,0.9048048257827759,9.094301223754883
14.46,0.024917077273130417,-0.06097187101840973,0.014439034275710583,-0.22876286506652832,0.5923995971679688,9.88180923461914
14.48,-0.016400491818785667,-0.03647608309984207,0.013918370939791203,-0.2927163243293762,0.2835090756416321,10.253157615661621
14.5,-0.05472608283162117,0.023360252380371094,-0.01733987405896187,-0.1767709106206894,0.1421884000301361,9.422796249389648
14.52,-0.11438547819852829,0.029414944350719452,-0.02097002975642681,0.22974607348442078,0.2230301797389984,8.913740158081055
14.540000000000001,-0.1335158497095108,0.05690356716513634,-0.017478562891483307,0.6260649561882019,0.2952413558959961,9.457010269165039
14.56,-0.07555278390645981,0.05825430154800415,0.020242122933268547,0.7192155718803406,-0.020794646814465523,10.579035758972168
14.58,-0.031356945633888245,0.06544417887926102,0.03567032888531685,0.5251859426498413,-0.7079046368598938,10.010693550109863
14.6,-0.028138412162661552,0.06101769953966141,0.02017453871667385,0.08765750378370285,-1.1415148973464966,8.818175315856934
14.620000000000001,0.010251900181174278,0.018031515181064606,-0.0160075593739748,-0.18515720963478088,-1.081940770149231,8.99654769897461
14.64,0.012015064246952534,-0.03293728828430176,-0.029446637257933617,0.046703118830919266,-0.8157379031181335,10.851251602172852
14.66,0.05290818586945534,-0.0644931048154831,-0.026683390140533447,-0.0930963084101677,-0.1879386007785797,11.531047821044922
14.68,0.030769627541303635,-0.048767123371362686,-0.0028353286907076836,-0.9710789918899536,-0.0746668130159378,9.986713409423828
14.700000000000001,0.07093832641839981,-0.055209141224622726,0.039103977382183075,-1.3827884197235107,0.03352776914834976,9.098970413208008
14.72,0.08657639473676682,-0.10825413465499878,0.054087672382593155,-1.3397303819656372,-0.09607291966676712,8.998641014099121
14.74,0.08880855143070221,-0.1522122472524643,0.03322220221161842,-1.0293971300125122,-0.48136407136917114,10.021125793457031
14.76,0.09579429030418396,-0.07892387360334396,0.011962391436100006,-0.8388862013816833,-0.523470938205719,11.015356063842773
14.780000000000001,0.07182589918375015,-0.030457893386483192,-0.004014960490167141,-0.7128068804740906,-0.14677675068378448,10.214198112487793
14.8,0.08702773600816727,-0.052024953067302704,-0.022230135276913643,-0.1448170393705368,-0.0361240953207016,9.284205436706543
14.82,0.0454166978597641,-0.05850626155734062,-0.022559182718396187,0.8032844662666321,-0.0018411279888823628,8.484668731689453
14.84,0.026375662535429,0.0016182024264708161,-0.01640833169221878,1.2713205814361572,0.006779037415981293,9.138230323791504
14.86,0.05602871626615524,0.08044262230396271,0.0013870879774913192,1.5272351503372192,-0.04293059930205345,9.850618362426758
14.88,-0.0265529565513134,0.0822402760386467,0.01370730996131897,1.7156941890716553,0.1695820540189743,9.990386962890625
14.9,-0.01929435320198536,0.06434722244739532,-0.0016935840249061584,1.0665910243988037,0.29590705037117004,9.05195426940918
14.92,-0.1262737512588501,0.12593849003314972,-0.03324019908905029,0.27146318554878235,0.311703085899353,8.42254638671875
14.94,-0.13785523176193237,0.15897661447525024,-0.056022386997938156,-0.0638040155172348,0.4077715277671814,9.677774429321289
14.96,-0.05794690176844597,0.10962262749671936,-0.02738911844789982,-0.13268938660621643,0.5172951817512512,12.477553367614746
14.98,-0.08240959048271179,0.07306075841188431,0.040096063166856766,-0.06885609775781631,-0.08180133253335953,11.961496353149414
15.0,-0.037955768406391144,0.08687707036733627,0.05950099229812622,0.2614213824272156,-0.45079508423805237,9.332385063171387
15.02,0.03385875001549721,0.07908948510885239,0.06212086230516434,-0.33960139751434326,-0.7516789436340332,7.54463529586792
15.040000000000001,0.06347957998514175,-0.01639481633901596,0.051876891404390335,-0.8713392615318298,-1.2382421493530273,8.014084815979004
15.06,0.03999157249927521,-0.07535680383443832,0.01317248959094286,-0.6634328961372375,-1.4620298147201538,9.686661720275879
15.08,-0.028333453461527824,-0.08204148709774017,-0.03983016684651375,-0.5857317447662354,-0.45920899510383606,11.444096565246582
15.1,-0.01613365299999714,-0.023245910182595253,-0.0941239446401596,-0.7609140872955322,0.6266286373138428,10.920087814331055
15.120000000000001,-0.13135075569152832,0.04408751800656319,-0.10016365349292755,-0.8097896575927734,0.9598594307899475,8.72463321685791
15.14,-0.060898467898368835,0.06719159334897995,-0.04917498305439949,-0.6155862212181091,0.7037665843963623,8.741738319396973
15.16,-0.04237377643585205,0.01673530600965023,0.012752404436469078,-0.6340073347091675,-0.15559570491313934,10.717874526977539
15.18,0.009047046303749084,0.039546720683574677,0.05648808553814888,-0.6813631057739258,-0.7780399918556213,11.535282135009766
15.200000000000001,0.0014312659623101354,0.09130069613456726,0.05600331351161003,-0.566537618637085,-0.9320117235183716,10.196131706237793
15.22,0.023139623925089836,0.018896084278821945,0.014808928593993187,0.20936256647109985,-1.1012563705444336,9.43554973602295
15.24,0.037238288670778275,-0.00863446295261383,-0.039358366280794144,0.560899555683136,-0.7038328051567078,8.565128326416016
15.26,0.04047204926609993,-0.012058950029313564,-0.06069560348987579,0.5975563526153564,-0.05710074305534363,8.795673370361328
15.280000000000001,0.017178289592266083,-0.022690845653414726,-0.04835972934961319,0.11083411425352097,0.22991015017032623,9.763392448425293
15.3,-0.0026204378809779882,-9.01319581316784e-05,-0.006327313371002674,-0.3335869014263153,0.19899556040763855,10.94087028503418
15.32,0.004512803629040718,0.06186465546488762,0.016300134360790253,-0.5909488201141357,0.05106089636683464,10.85871696472168
15.34,0.05328645184636116,-0.0224576648324728,0.031070400029420853,-1.2383893728256226,-0.37995630502700806,10.822022438049316
15.36,0.013365748338401318,-0.10367342829704285,0.039726559072732925,-1.0081355571746826,-0.843403697013855,9.574960708618164
15.38,0.100106380879879,-0.07120367884635925,0.015768181532621384,-0.7386547327041626,-0.5267530679702759,9.449332237243652
15.4,0.06334926187992096,-0.015319966711103916,0.016684897243976593,-0.5555655360221863,-0.6401116847991943,9.875582695007324
15.42,0.082302026450634,-0.0620187483727932,-0.003666818141937256,-0.7451716661453247,-0.683435320854187,10.65752124786377
15.44,0.10785429924726486,-0.1260867714881897,-0.0026598090771585703,-0.6526643633842468,-0.34692972898483276,10.146734237670898
15.46,0.08532444387674332,-0.13056233525276184,-0.03762395679950714,-0.2349361777305603,-0.11884619295597076,9.795051574707031
15.48,0.06849680095911026,-0.09867052733898163,-0.06793420761823654,0.028871336951851845,0.05023343116044998,9.153879165649414
15.5,0.0018414815422147512,-0.08119592070579529,-0.07537960261106491,0.4903011620044708,0.08280088007450104,8.56224250793457
15.52,0.041001927107572556,-0.02838842198252678,-0.11482778936624527,0.9649167060852051,0.05046181008219719,8.31239128112793
15.540000000000001,-0.040856633335351944,0.02715826779603958,-0.15459060668945312,1.3052544593811035,0.19453254342079163,8.14495849609375
15.56,-0.07861484587192535,0.07490112632513046,-0.19215798377990723,1.2460652589797974,0.4559231996536255,8.842225074768066
15.58,-0.1400083601474762,0.12428174912929535,-0.19149149954319,1.0636757612228394,0.4300999939441681,9.502761840820312
15.6,-0.21932126581668854,0.17765679955482483,-0.18725939095020294,1.4147133827209473,0.48559820652008057,9.764771461486816
15.620000000000001,-0.1587408483028412,0.2160993367433548,-0.13197000324726105,1.220475196838379,0.8827643394470215,10.56479263305664
15.64,-0.05044414475560188,0.15929362177848816,0.0165995042771101,0.5997470617294312,0.8472389578819275,12.214134216308594
15.66,-0.05852940306067467,0.07749583572149277,0.16477185487747192,-0.3570016622543335,-0.7630712985992432,11.699020385742188
15.68,0.06594998389482498,-0.0021742344833910465,0.16141940653324127,-0.6924761533737183,-1.9768198728561401,9.546614646911621
15.700000000000001,0.02218415029346943,0.0697709321975708,0.12180756032466888,-0.8593794107437134,-1.702057957649231,8.540767669677734
15.72,0.07789493352174759,0.14074602723121643,0.061666425317525864,-1.158617377281189,-1.1445896625518799,10.268402099609375
15.74,0.10528948158025742,0.026389533653855324,-0.026011768728494644,-1.2274060249328613,-0.23334386944770813,9.699928283691406
15.76,0.15345363318920135,-0.01830054447054863,-0.07164526730775833,-1.4565033912658691,0.7073580026626587,9.801508903503418
15.780000000000001,0.11334431171417236,0.02468581311404705,-0.07246807962656021,-1.685814380645752,0.31647422909736633,9.789880752563477
15.8,0.01793716289103031,0.039004288613796234,-0.04446406289935112,-1.2674261331558228,-0.14481161534786224,9.83459758758545
15.82,-0.030849386006593704,0.014950843527913094,-0.04656308516860008,-0.5985280275344849,-0.14337928593158722,9.217536926269531
15.84,-0.08012865483760834,-0.034064773470163345,-0.04513148218393326,0.015715328976511955,0.7061300277709961,9.311019897460938
15.860000000000001,-0.11572309583425522,-0.07205767929553986,-0.0073766084387898445,0.37346944212913513,1.2180424928665161,9.313100814819336
15.88,-0.08799512684345245,-0.07911870628595352,0.02100319415330887,0.20142163336277008,0.3788027763366699,8.97219467163086
15.9,-0.1264454424381256,-0.11330088973045349,0.02836485393345356,0.05154813826084137,-0.5447548627853394,10.006866455078125
15.92,-0.10175859928131104,-0.1899489015340805,0.031341589987277985,-0.30099841952323914,-0.9885671734809875,11.352815628051758
15.94,-0.057220492511987686,-0.16998177766799927,0.043818630278110504,-0.5867761969566345,-0.6423590779304504,11.158864974975586
15.96,0.026256827637553215,-0.058419667184352875,0.04367196187376976,-0.8610551357269287,-0.3426762521266937,8.921802520751953
15.98,0.04375287517905235,0.007930814288556576,0.029313888400793076,-1.0587518215179443,-0.8095338940620422,8.398054122924805
16.0,0.015145561657845974,0.059476546943187714,-0.001992301782593131,-1.3219618797302246,-0.9858859777450562,10.35391902923584
16.02,0.025784282013773918,0.07225888967514038,-0.043039411306381226,-0.2690306305885315,-0.47001099586486816,11.809741973876953
16.04,0.05353398993611336,0.06663353741168976,-0.04797611013054848,-0.17972281575202942,0.31732437014579773,10.162542343139648
16.06,0.03931877389550209,0.055489491671323776,-0.029205020517110825,0.8983519673347473,0.4302827715873718,8.302488327026367
16.080000000000002,0.031687911599874496,-0.03483467549085617,0.02424907498061657,1.3667848110198975,0.35894057154655457,8.207357406616211
16.1,-0.03534027189016342,-0.13215599954128265,0.05800555273890495,1.2863740921020508,-0.13808582723140717,9.721150398254395
16.12,-0.07079409807920456,-0.1754683256149292,0.03187249228358269,0.46313199400901794,-0.08714496344327927,10.21097469329834
16.14,-0.06831681728363037,-0.16308236122131348,0.010248861275613308,-0.17866761982440948,0.33671775460243225,9.923720359802246
16.16,-0.055550191551446915,-0.12145955860614777,0.0014535941882058978,-0.6547948122024536,0.21656200289726257,9.670820236206055
16.18,-0.025912707671523094,-0.024132952094078064,-0.007740319706499577,-1.0983028411865234,-0.4886208176612854,10.624834060668945
16.2,0.021646492183208466,0.05032353475689888,-0.021309837698936462,-0.945669412612915,-0.8608119487762451,10.507667541503906
16.22,0.05400199070572853,0.06242694333195686,0.02002546563744545,-0.636934757232666,-0.8624944686889648,9.306737899780273
16.240000000000002,0.02733507566154003,0.019312016665935516,0.05167752131819725,0.06062161549925804,-0.6148970127105713,8.66208553314209
16.26,0.057762764394283295,0.013382851146161556,0.038435954600572586,0.6739895939826965,-0.2289104461669922,9.370328903198242
16.28,0.05469974875450134,0.0019220999674871564,0.028185859322547913,0.9902821779251099,-0.055398326367139816,10.411706924438477
16.3,0.015097708441317081,-0.06372242420911789,0.014810353517532349,0.35899728536605835,0.057478830218315125,10.800259590148926
16.32,-0.021096281707286835,-0.0311345886439085,-0.02227819710969925,-0.21332530677318573,0.2566666603088379,10.12090015411377
16.34,-0.035103946924209595,0.006501431111246347,-0.02739478088915348,-0.4380819499492645,0.30133357644081116,9.593461990356445
16.36,-0.05685080215334892,-0.016765784472227097,-0.01719440333545208,-0.6634340882301331,0.12323320657014847,9.125018119812012
16.38,0.008067450486123562,-0.011839079670608044,0.012028131633996964,-0.5791571140289307,-0.12046978622674942,9.427614212036133
16.4,0.014774915762245655,0.09895835816860199,0.039735253900289536,-0.6872041821479797,-0.3948221802711487,10.279667854309082
16.42,0.11767560988664627,0.15840628743171692,0.08873511850833893,-0.47506657242774963,-1.0170518159866333,10.458610534667969
16.44,0.07490495592355728,0.09733286499977112,0.11494452506303787,0.4709438383579254,-1.463552474975586,10.44671630859375
16.46,0.05842575058341026,0.07980906218290329,0.06679657101631165,1.1449799537658691,-0.8709735870361328,9.99095630645752
16.48,0.11519065499305725,0.09977147728204727,0.008400054648518562,1.0692832469940186,0.24098587036132812,9.559925079345703
16.5,0.12123487144708633,0.06197269260883331,-0.005392015911638737,0.5384950041770935,0.7863442301750183,9.222895622253418
16.52,0.0893918126821518,0.018166227266192436,-0.008039267733693123,-0.19264258444309235,0.6300442814826965,9.233488082885742
16.54,0.04415005445480347,-0.042887136340141296,-0.006656683515757322,-0.5384016036987305,0.09951692819595337,9.820171356201172
16.56,-0.0007340722950175405,-0.025091448798775673,-0.046947501599788666,-0.3093745708465576,-0.09637144207954407,9.855205535888672
16.580000000000002,-0.08017706871032715,0.007952221669256687,-0.08710991591215134,-0.16352500021457672,0.34933069348335266,9.385703086853027
16.6,-0.15118543803691864,0.021476589143276215,-0.08652692288160324,-0.11687817424535751,0.8648558259010315,8.39741325378418
16.62,-0.16735029220581055,-0.014746611937880516,-0.06530960649251938,0.09490484744310379,0.8447043895721436,8.496766090393066
16.64,-0.1299097090959549,-0.09538069367408752,-0.05070078745484352,-0.041231658309698105,0.3863072693347931,10.100980758666992
16.66,-0.12969012558460236,-0.06354577839374542,-0.0147409588098526,-0.9064750075340271,-0.4754183292388916,12.500185012817383
16.68,-0.05291687697172165,0.010041656903922558,0.03113282099366188,-1.3701140880584717,-0.943993866443634,11.104636192321777
16.7,-0.023871349170804024,-0.0014646166237071157,0.03296118229627609,-0.9880779981613159,-1.5012022256851196,9.512886047363281
16.72,0.05419236421585083,0.001131137483753264,0.00816427357494831,-0.6459222435951233,-1.439869999885559,8.80207347869873
16.740000000000002,0.06238158419728279,0.04139050841331482,0.019620820879936218,-0.4139343798160553,-0.8486254811286926,8.810343742370605
16.76,0.05677986890077591,0.051094863563776016,0.035082802176475525,-0.2645720839500427,-0.302761971950531,9.882087707519531
16.78,0.03576861321926117,0.04386918246746063,0.02740396000444889,0.15192320942878723,0.18243536353111267,10.826422691345215
16.8,0.08565147966146469,-0.0026398696936666965,-0.00379436113871634,0.48458823561668396,0.7384714484214783,10.266891479492188
16.82,0.03945610672235489,-0.016894055530428886,-0.021323667839169502,0.5926037430763245,0.5079732537269592,9.190853118896484
16.84,-0.03299793228507042,-0.03423032909631729,-0.024379657581448555,0.4153183698654175,0.1972820907831192,8.53621768951416
16.86,-0.07868929207324982,-0.06033121794462204,-0.026567282155156136,0.10028829425573349,0.18381889164447784,9.037346839904785
16.88,-0.08258743584156036,-0.02599293552339077,-0.03052392601966858,-0.32095175981521606,0.25356486439704895,10.710063934326172
16.9,-0.1084366962313652,0.07122528553009033,-0.03312062472105026,-0.6951437592506409,0.2466086745262146,11.509342193603516
16.92,-0.12813939154148102,0.10515549778938293,0.0034416771959513426,-0.5679313540458679,0.051332078874111176,9.82737922668457
16.94,-0.059998199343681335,0.05975662171840668,0.03193631395697594,-0.1411503702402115,-0.4788344204425812,8.245914459228516
16.96,-0.001831238972954452,0.023963533341884613,0.058503683656454086,0.06040678545832634,-0.7784953117370605,9.75158405303955
16.98,0.03291487693786621,0.026142003014683723,0.049694281071424484,-0.042792003601789474,-0.9686468243598938,11.463482856750488
17.0,0.045892383903265,0.037562668323516846,0.03494873270392418,-0.13914747536182404,-0.9449468851089478,10.53864860534668
17.02,0.029156435281038284,0.006232096813619137,-0.0015719298971816897,-0.3435302972793579,-0.7316778898239136,9.981882095336914
17.04,0.057853180915117264,-0.07602621614933014,-0.0631578341126442,-0.6379658579826355,-0.14724169671535492,9.387239456176758
17.06,0.02109062485396862,-0.06847076117992401,-0.07528220117092133,-0.6676569581031799,0.3133484125137329,9.003938674926758
17.080000000000002,-0.015754930675029755,-0.03805634751915932,-0.04610711336135864,-0.6156617403030396,0.29666027426719666,9.187146186828613
17.1,-0.04534561187028885,-0.04473937302827835,0.006356619764119387,-0.5137580037117004,0.3511142134666443,9.656639099121094
17.12,-0.060375045984983444,-0.04120446741580963,0.03981154039502144,-0.41969338059425354,0.33332911133766174,9.91321849822998
17.14,-0.01596975140273571,-0.017780613154172897,0.04641762375831604,-0.30399107933044434,0.3483106195926666,10.203564643859863
17.16,-0.022538011893630028,-0.02313319221138954,0.04567689076066017,0.1293627768754959,-0.19221358001232147,10.655169486999512
17.18,-0.0267369132488966,0.00945999938994646,0.04380069673061371,0.2823999226093292,-0.9575579166412354,10.18630599975586
17.2,-0.005164934787899256,0.03879890590906143,0.023637665435671806,0.472412645816803,-1.2741656303405762,8.581742286682129
17.22,0.057337403297424316,0.026828506961464882,0.012055662460625172,0.47560200095176697,-1.0604772567749023,8.011751174926758
17.240000000000002,0.014013559557497501,0.0701196938753128,-0.015541545115411282,0.032761625945568085,-0.7292978763580322,9.336959838867188
17.26,0.10950224101543427,0.15178579092025757,-0.06571611016988754,-0.03976701945066452,-0.199091836810112,10.525705337524414
17.28,0.09342458099126816,0.11469815671443939,-0.06331648677587509,-0.22337880730628967,0.0076101417653262615,10.954366683959961
17.3,0.020516792312264442,-0.006479235365986824,-0.021555591374635696,-0.11762987077236176,0.2957213521003723,10.412861824035645
17.32,0.025312257930636406,0.004857816733419895,-0.001252739573828876,-0.14872345328330994,0.46510595083236694,9.626483917236328
17.34,0.020345410332083702,0.07031062990427017,0.029868725687265396,-0.010061209090054035,0.16588398814201355,9.738324165344238
17.36,0.013274899683892727,0.01815638691186905,0.036180686205625534,0.2399691790342331,0.0826440155506134,9.150612831115723
17.38,-0.005311667453497648,-0.11994561553001404,0.029113896191120148,0.45017188787460327,0.06250219792127609,8.495126724243164
17.400000000000002,-0.00032541895052418113,-0.12128851562738419,0.016877181828022003,-0.5185920000076294,-0.023483820259571075,9.389358520507812
17.42,0.04072503000497818,-0.06455054879188538,-0.009787890128791332,-0.7458949089050293,-0.3424876630306244,11.07027530670166
17.44,0.01953398436307907,-0.058303769677877426,0.007870392873883247,-1.3074514865875244,-0.4299911558628082,10.583871841430664
17.46,0.03898452967405319,-0.02471092902123928,0.001720717758871615,-1.3029807806015015,-0.585856020450592,9.369751930236816
17.48,-0.007605316117405891,0.025406328961253166,-0.01910392940044403,-0.9323482513427734,-0.3063013255596161,9.628009796142578
17.5,0.0028197094798088074,0.03140883892774582,-0.019070470705628395,-0.4923192858695984,0.35897576808929443,10.343131065368652
17.52,-0.01991462893784046,0.005283013917505741,0.0039425319992005825,-0.199661523103714,0.5894681215286255,10.11584758758545
17.54,-0.048536695539951324,-0.007603614125400782,0.014162872917950153,-0.017265653237700462,0.20082464814186096,9.622564315795898
17.56,-0.06925137341022491,-0.0407683439552784,0.0029490115121006966,-0.07359351217746735,-0.07919391244649887,9.743804931640625
17.580000000000002,-0.06708832085132599,-0.06588031351566315,-0.0018185897497460246,-0.2068745493888855,-0.022993184626102448,9.081984519958496
17.6,-0.060275450348854065,-0.060909148305654526,-0.0034113931469619274,-0.33655112981796265,0.014289011247456074,9.084465980529785
17.62,-0.05949069932103157,-0.025889679789543152,0.036406099796295166,-0.38191112875938416,-0.29978495836257935,10.42520809173584
17.64,-0.021726248785853386,-0.04280323535203934,0.04404638335108757,-0.16229814291000366,-0.7727876305580139,11.769187927246094
17.66,0.00804199744015932,-0.07519171386957169,0.05585401505231857,-0.07287567108869553,-0.9337019920349121,10.978222846984863
17.68,0.05611340329051018,-0.00792265310883522,0.04107970371842384,0.10637291520833969,-0.4485641121864319,8.263715744018555
17.7,0.07447048276662827,0.05401085317134857,0.04232748597860336,0.1372470110654831,-0.3485865890979767,7.579353332519531
17.72,0.06385703384876251,-0.0023239043075591326,0.029540449380874634,0.13711972534656525,-0.4994431138038635,9.785566329956055
17.740000000000002,0.0558345802128315,-0.04900820180773735,-0.008134985342621803,0.43386322259902954,0.0005646401550620794,11.178544044494629
17.76,0.03619594871997833,-0.045973990112543106,-0.04232069104909897,0.44326701760292053,0.6689267158508301,9.865645408630371
17.78,-0.024964146316051483,0.014916897751390934,-0.04294028505682945,-0.009716581553220749,0.6683740019798279,9.010834693908691
17.8,-0.020643357187509537,0.022484401240944862,-0.005163318477571011,-0.44750192761421204,0.4116443395614624,10.062774658203125
17.82,0.005347775295376778,-0.07340583205223083,0.03325926885008812,-0.8231368064880371,-0.20698268711566925,11.074737548828125
17.84,0.0035663291346281767,-0.1156795471906662,0.06670615822076797,-0.569622814655304,-0.4771473705768585,10.442907333374023
17.86,0.05768891051411629,-0.06124904006719589,0.08059552311897278,-0.40115049481391907,-0.3800384998321533,9.183521270751953
17.88,0.06463087350130081,-0.049401186406612396,0.06651114672422409,-0.13532766699790955,-0.4687730073928833,8.974710464477539
17.900000000000002,0.023394452407956123,-0.05587368831038475,-0.003494385164231062,0.20276783406734467,-0.6339908838272095,8.960114479064941
17.92,0.001231416710652411,-0.03715479373931885,-0.05911008641123772,0.08253446966409683,-0.35739341378211975,9.632431030273438
17.94,-0.043240442872047424,-0.018845664337277412,-0.09235746413469315,-0.0077954065054655075,0.3028486967086792,10.096837997436523
17.96,-0.050835415720939636,-0.023340972140431404,-0.05464480072259903,-0.1834391951560974,0.8742921948432922,10.122119903564453
17.98,-0.07243236899375916,0.008539848029613495,0.004855870734900236,0.0392136313021183,0.844237208366394,10.221206665039062
18.0,-0.08109475672245026,0.054337386041879654,0.04655788093805313,0.4164735674858093,0.2717624306678772,9.615039825439453
18.02,-0.07303431630134583,0.05448294058442116,0.058726366609334946,0.46683216094970703,-0.3847373127937317,8.810516357421875
18.04,0.002216507215052843,0.06433060020208359,0.067154660820961,0.2866346836090088,-0.6248765587806702,9.246585845947266
18.06,0.04795118048787117,0.07822515815496445,0.04746498912572861,0.2806374430656433,-0.8688337802886963,10.501873016357422
18.080000000000002,0.04796445369720459,0.02638961561024189,0.00371498242020607,0.06951715052127838,-1.1843132972717285,11.829168319702148
18.1,0.04047570750117302,0.01650053635239601,-0.01796136051416397,-0.4124195873737335,-0.9282028079032898,10.45802116394043
18.12,0.09275790303945541,0.07439000904560089,-0.04507754370570183,-0.47318440675735474,-0.11367771029472351,8.88565444946289
18.14,0.013245097361505032,0.06304309517145157,-0.040359705686569214,-0.4817807078361511,0.373045951128006,8.22945785522461
18.16,-0.0111786974593997,-0.029722288250923157,-0.025505853816866875,-0.25236067175865173,0.5112740397453308,8.954753875732422
18.18,-0.053419869393110275,-0.09022548794746399,-0.03226079046726227,-0.051050253212451935,0.7491976618766785,10.270466804504395
18.2,-0.04551646113395691,-0.07828564196825027,-0.04939788579940796,0.05105556920170784,0.6712710857391357,10.709760665893555
18.22,-0.06394212692975998,-0.034099552780389786,-0.0004290912766009569,-0.23024186491966248,0.3626159727573395,10.499601364135742
18.240000000000002,-0.05757111310958862,0.010612680576741695,0.04483230412006378,-0.3202166259288788,-0.24680449068546295,9.59648323059082
18.26,-0.03352341055870056,-0.021966515108942986,0.060149695724248886,-0.3719397187232971,-0.5956645607948303,9.091936111450195
18.28,-0.0011098202085122466,-0.047530874609947205,0.039362866431474686,-0.35548654198646545,-0.4828145205974579,9.137575149536133
18.3,-0.015159966424107552,0.015489721670746803,0.014323498122394085,-0.25883838534355164,-0.3281131386756897,9.82841968536377
18.32,0.01752127707004547,0.09948613494634628,-0.004978257231414318,-0.5472871661186218,-0.5219358801841736,10.062618255615234
18.34,0.08019551634788513,0.11218181997537613,-0.01595159061253071,-0.5900750756263733,-0.822279155254364,10.530640602111816
18.36,0.035085275769233704,0.06526211649179459,-0.006402655504643917,0.19019904732704163,-0.6342504620552063,10.488056182861328
18.38,0.10612209141254425,0.04827066510915756,0.013921874575316906,0.44388315081596375,-0.14356619119644165,10.179302215576172
18.400000000000002,0.07727252691984177,0.007253061980009079,0.04081131890416145,0.6747041940689087,0.056545231491327286,9.713607788085938
18.42,0.06405459344387054,-0.049372393637895584,0.04602469131350517,0.5000855922698975,0.11556196212768555,9.045212745666504
18.44,0.024479912593960762,-0.09757216274738312,0.018810303881764412,0.06488314270973206,0.3974417746067047,9.200251579284668
18.46,-0.02289441227912903,-0.07902784645557404,0.006426906678825617,0.016934910789132118,0.8330946564674377,9.967835426330566
18.48,0.03238756209611893,-0.00682808505371213,-0.0024656415916979313,-0.34132641553878784,0.7523987293243408,10.250587463378906
18.5,-0.0008164371247403324,0.01611599326133728,-0.005002041347324848,-0.516008734703064,-0.0913960263133049,9.194535255432129
18.52,-0.026440640911459923,-0.010484294965863228,-0.031442347913980484,-0.6877289414405823,-0.7072263956069946,9.36095142364502
18.54,-0.090130515396595,-0.007841882295906544,-0.062299780547618866,-0.41561442613601685,-0.34712648391723633,9.984061241149902
18.56,-0.09133816510438919,0.036676764488220215,-0.04901755228638649,-0.0676863044500351,0.3726002871990204,10.40836238861084
18.580000000000002,-0.049909062683582306,0.018433308228850365,0.003806502791121602,-0.157548725605011,0.6550230383872986,10.891430854797363
18.6,-0.0360061377286911,-0.026830149814486504,0.03710713982582092,-0.22244584560394287,0.1962631642818451,9.762643814086914
18.62,-0.018007729202508926,-0.03041435033082962,0.04028058424592018,-0.3700043857097626,-0.6461406350135803,8.652582168579102
18.64,-0.030370403081178665,-0.017647428438067436,0.007482636719942093,-0.3901587426662445,-0.8640003204345703,9.225713729858398
18.66,-0.019118424504995346,-0.0388062410056591,-0.0011338660260662436,-0.27625367045402527,-0.6959718465805054,10.01849365234375
18.68,0.01747976243495941,-0.026500878855586052,-0.006907741539180279,-0.15122342109680176,-0.42564430832862854,10.217310905456543
18.7,0.10146740078926086,0.04333857446908951,-0.005239011254161596,-0.022223452106118202,-0.4234964847564697,9.865525245666504
