time,wx,wy,wz,ax,ay,az
0.0,-0.0287406191927912,-0.0164493541551203,-0.1940376420791203,-0.0043818678500258,2.34896519825752,8.776845972931067
0.01,-0.0520060224591817,-0.0183658933486526,-0.190147127705341,1.1047997576224322,0.2052038152874211,10.018357070926063
0.02,-0.0085841367091165,0.0096038532417503,-0.1827183028037602,1.6197941603008372,-3.3413986561271023,8.492879428332522
0.03,0.0311318319618937,0.0155202495481626,-0.1893558462436253,1.0929556560674942,-2.9856020276173574,9.515953108626984
0.04,0.0230889021749377,0.0239784569873754,-0.178529079752689,-0.1274148300841114,1.3828772343173434,9.781523961255251
0.05,-0.0027193731787971,0.0117481384496485,-0.1686443646724278,-0.2241685044296507,1.778878635381796,10.70615526814871
0.06,-0.0153323340805376,-0.0032926849837061,-0.1699033488805348,-1.8607660171108469,1.0033822895838562,10.705146744882624
0.07,-0.0102137635385386,-0.0121616290380286,-0.1718137820537144,0.0949973774986455,-0.6203135111476349,9.85726005994624
0.08,0.0038006328016438,-4.923454509549216e-05,-0.1798408438737447,0.2021449079927456,-0.7522908273906471,9.219280413146029
0.09,0.0074293454430266,0.0039762463643624,-0.1937457879359776,0.6756361572291191,-0.471498235806659,9.393508781189796
0.1,0.0057760743596794,0.0142625969027787,-0.1957205345208699,0.0541341526566275,0.3135487001541345,9.427404662739573
0.11,-0.0012592868521689,0.0101229695302478,-0.196329589682346,0.2029844601896409,0.4189692833297398,9.996898372887657
0.12,-0.0024766375981493,0.0039496107950061,-0.1957811375434453,-0.9623298360975264,0.0682758230090642,9.958515869016816
0.13,-0.0019874557017858,-0.006030722341599,-0.189174022274738,-0.0647050401583326,-0.1025762739934508,10.157680117546589
0.14,0.0042800191735922,-0.0020488393894497,-0.1968952079589421,-0.2506785086622856,-0.5646084937635623,9.770789182760844
0.15,0.0015227330389707,0.0001248637627751,-0.1967367341096455,0.5854424912240296,0.0139028815855732,9.741556813395825
0.16,0.0056908003256815,0.0027848529353311,-0.1957623173768574,-0.0754007938836033,-0.0660619114497331,9.606091324946735
0.17,0.0034950816199763,-0.001072960554954,-0.1985076626117284,-0.100412999419372,0.0338627542020078,9.88003012580234
0.18,-0.0005582405009785,-0.0037425393097819,-0.1984827478702122,-0.4681969272272377,0.3131390542933921,9.89175523778614
0.19,-0.003359859540557,-0.0045738224568312,-0.1946945150668675,0.1444756384105592,0.2751181497445227,9.85011226550506
0.2,0.0001650570451484,-0.0093080766257157,-0.19965362151218,-0.5208684668049113,-0.2722578885538207,9.878979561596855
0.21,-0.0009010492800623,-0.0038835070669952,-0.1979812939937169,0.5231199323847427,0.0513123215224546,9.728551269973035
0.22,-5.55746610657451e-06,-0.0014774700138951,-0.1956202497060353,0.0358134182131314,0.1787969138360863,9.755186392545117
0.23,-0.0015060160913723,-0.0041777670246991,-0.1981292327220494,-0.0322367080978272,0.0093476527836703,9.939618637517867
0.24,-0.0016186032435545,-0.0004367592103076,-0.2004423250730092,-0.0651772395359464,0.1269000317052627,9.648181340647698
0.25,-0.003545386083343,-0.0047112433203179,-0.1995120306785161,-0.1859749713009425,0.1008993947751548,9.998195431687185
0.26,-0.0023718903001875,-0.006291527675898,-0.1999364902551228,-0.2315163917905469,0.0867394486464287,9.76950864622228
0.27,-0.0007636957102987,-0.004425405357291,-0.1996200789983327,0.0764231623777059,-0.0755127425075427,9.693019953024082
0.28,-0.0021226655305169,-0.0073650555614014,-0.2009523024137074,-0.2535147421937112,0.1056101036504733,9.876785156851444
0.29,-0.0023686696025658,-0.0045622213681061,-0.1996231188352162,0.2354322689714638,0.0583068483870255,9.767482883639971
0.3,-0.00466443563675,-0.0041642200057754,-0.1981284876639897,0.0784294897898158,0.2775832884647123,9.976477222759716
0.31,-0.0060853905495109,-0.0015425508161665,-0.1990672608192021,0.2701335955066207,-0.0515635445103958,9.936069702502593
0.32,-0.0046030856149072,0.0016848719588352,-0.196798186498409,0.2161609778136543,-0.0361061481323043,9.781678147149234
0.33,-0.0024712385792497,0.0013516119816279,-0.1948405613477284,0.1093070208085012,-0.2148369286968627,9.813245162806805
0.34,-0.0036786951698597,0.0035511216839137,-0.1950298358972127,0.1551130215140996,0.1602145709825522,9.686703833877926
0.35000000000000003,-0.0001781658209878,0.0039615741447429,-0.1926709522779042,0.1620647063464551,-0.1071847517727944,9.711221113237468
0.36,-0.0026910192801072,0.0038454497123959,-0.1972653080995137,0.0186068837682908,0.073755779294229,9.848127382656738
0.37,-0.0049823267745342,0.0066315672916772,-0.1945879717643315,0.3292510989320653,0.163641654159346,9.816390146057252
0.38,-0.0005218440621861,0.0059626380622972,-0.1981139888341481,-0.068131677359893,-0.2673230538479429,9.771000171121475
0.39,0.0008751582299264,0.007988855102386,-0.1972802241618687,0.1824936264098201,-0.1285424982889566,9.811784837964638
0.4,0.0004205942154785,0.0068110083733941,-0.1970216741139943,-0.1070855707274218,0.1203432666761075,9.84854828336465
0.41000000000000003,0.002582498744387,0.0042446755934211,-0.2006493916089589,-0.2118231569828364,-0.229491041679216,9.825858709445097
0.42,8.67472493752599e-07,0.003993126431668,-0.1979802211101109,-0.0906559685802718,0.2396329827783389,9.79431771778606
0.43,0.0017642466907896,0.000718340633934,-0.1965836097772176,-0.2245146332543982,-0.1332897254647153,9.829021166380782
0.44,0.000472348924821,0.001960289386634,-0.1934797128017003,0.0137766533442579,0.0661429895382493,9.815193261642367
0.45,0.0027093701551989,0.0012122998716754,-0.1919776906545216,-0.0751201330513947,-0.1887113220277613,9.82273960843693
0.46,0.0037200792563167,0.0021305125721122,-0.1891762574489171,-0.0049065420361369,0.0344065377127658,9.801679301796945
0.47000000000000003,0.0072290820569876,0.0029842047517518,-0.1913056333835179,-0.0855649895293342,-0.2729654171651005,9.707634231978831
0.48,0.0039764747752,0.0006943167520402,-0.1886219491536671,-0.2259136652757584,0.3214249947047464,9.848277312555457
0.49,0.0032727227548145,0.0010375659266402,-0.1896821518714482,-0.0359856876518214,-0.0137153047247341,9.76661494668678
0.5,0.0040109006288249,-0.0024569685604924,-0.1906160970504338,-0.2617509104879428,0.0391532592786963,9.794506605066283
0.51,0.0034724500618798,0.0010154584885276,-0.1908686866338307,0.184192284630399,-0.0043343972409725,9.695851529518654
0.52,0.0024025349903485,-0.0020342952793657,-0.1922377010161931,-0.1452265515132193,0.0778554101574103,9.86821530854556
0.53,0.0031481608428545,-0.0004243703319924,-0.1937979270989949,0.0611933274883369,-0.1171127980978038,9.75846811444164
0.54,0.00530269058557,-0.0001421217205805,-0.1950138022477681,-0.0327988836698793,-0.0588242332526717,9.78149962881472
0.55,0.0026999362948629,-0.0070247547248964,-0.1942583729798848,-0.3452882332106956,0.1959316596791754,10.035793545177569
0.56,-0.0006543042125269,-0.0067258090792221,-0.1945369501884038,0.0303498543906138,0.19792544029882,9.868600521526998
0.5700000000000001,-0.0030658901286384,-0.0065050370803653,-0.1951024939591939,0.0962333493092939,0.0383939043359551,9.831756324572616
0.58,-0.0019726431807085,-0.005793257863168,-0.1920793761785084,0.215502095874456,-0.0388739601864888,9.784889847700684
0.59,-0.00170952254121,-0.003954326049603,-0.1918238063628728,0.178560604142203,-0.1357859009227069,9.733737919434883
0.6,0.0030212826167255,-0.0035978322018379,-0.1955230345304066,-0.010826931251381,-0.3202592191811328,9.693907628185524
0.61,0.0020944049165382,-0.0052289794448565,-0.196485247212177,-0.1100150013297822,-0.038682879104845,9.865322795664593
0.62,0.0033788755660054,-0.0046527015669013,-0.1984581609542424,-0.0563612717359454,-0.1390247369854639,9.7759862566981
0.63,0.0028131518297257,-0.0103606643424311,-0.2015519698436314,-0.3335659106448734,-0.1054101257251662,10.020730993382108
0.64,0.0021464186339654,-0.0091962488634442,-0.2022513260419423,0.1590805653182764,0.1605150600282075,9.86910198529109
0.65,-0.0038902653779345,-0.0049489065806579,-0.2011232932384068,0.4694891984101366,0.4515181003659252,9.9504511813457
0.66,-0.0083243881301075,0.0024395609621817,-0.2039511313016469,0.517166999053316,0.1530261284972335,9.79611341583264
0.67,-0.0039889506390115,0.0062793120650017,-0.2038625438983494,0.2937292522979809,-0.3228427215465588,9.685083015252758
0.68,-0.0012201981912332,0.0056244175686146,-0.2063129951531941,-0.0506119785553801,-0.1614626505214358,9.686817202172142
0.6900000000000001,-0.0031604063016746,0.0015559856322305,-0.2058461715753133,-0.1953312771200687,0.2501610727366447,9.80389766661652
0.7000000000000001,-0.0061231689662536,-0.0005717405265668,-0.2044056316192204,-0.0547762404362641,0.2516981082837376,9.748337616826154
0.71,-0.0105130247234128,-0.0001408328290421,-0.2052826096589619,0.0565898770421439,0.3720454508029771,9.942693204503165
0.72,-0.0096582834739919,0.0014637190258689,-0.1974989136035496,0.2585776302243348,-0.0071699128395803,9.81372426545499
0.73,-0.0043935198176132,0.0023652448667197,-0.1992147823150212,0.0784050017948505,-0.4457511623407881,9.767348273873562
0.74,-0.0068310478068504,0.003856575947467,-0.1976427247102315,0.099729949681742,0.1569701980907607,9.834635980025611
0.75,-0.0053245288841215,0.0031981702751526,-0.197306763129955,-0.0867961062566582,-0.0495430465924697,9.80571086442186
0.76,-0.0049083673426312,-0.0003299739952678,-0.1950181980903203,-0.2600444540342675,0.0499874840224559,9.861860138527078
0.77,-0.0023874262495887,-0.0004659493655984,-0.1958739419753606,-0.1112593185454456,-0.1213556909927973,9.754458081609172
0.78,-0.0053132267458096,-0.0057790775626208,-0.196524377661472,-0.3010789052375343,0.1574408850380031,10.031750065359793
0.79,-0.0028730063381128,-0.0009397730629519,-0.194972749548679,0.3292355772863491,-0.1300342660717701,9.797855852904474
0.8,-0.0022417917635194,0.0021790405439703,-0.1953669746692235,0.2118250478666496,-0.0960492997632845,9.830927787209273
0.81,0.0010683064653035,0.0041848792691015,-0.1952104826743657,0.1527770695901004,-0.1640721829917261,9.757181937636744
0.8200000000000001,0.0001047339124782,0.0038867058736692,-0.1946699430520589,0.0077626019622025,0.0567276209133085,9.797998020322478
0.8300000000000001,0.0011996308714361,0.0038313234912253,-0.1973297854239995,-0.1075461361108778,-0.0785756150438388,9.680267834564264
0.84,0.0003123622155214,0.0007041988388841,-0.1965538223559911,-0.178133331451205,0.0565065700597384,9.810330315983876
0.85,0.0005273392303964,0.0015159613529713,-0.1937181313808018,0.0791648228517807,0.0659757962929873,9.697169817132202
0.86,0.0018264217250767,0.002496086116595,-0.1945593317325169,0.0399811949614439,-0.086444640807422,9.78733670061763
0.87,0.0008046591945004,-0.0010440230035196,-0.1948520799453313,-1.1916527004498871,0.2523277419278521,10.583129715630832
0.88,0.005745136600193,0.0008087318624979,-0.1941558678920323,0.1265663955635158,-0.2868726122598926,9.675839250339791
0.89,0.0042105119557863,0.0036743198080136,-0.1940734942729527,0.1822824231193321,0.0556110309022502,9.764455975581694
0.9,0.00247006366538,0.0015235628407448,-0.1954816242034489,-0.1631368096986171,0.0742874606893101,9.855406927406428
0.91,0.0022343044613769,0.0032846207934105,-0.1968965639646107,0.0868582477630853,-0.0141327439874452,9.711125162330369
0.92,0.0031250003286024,-0.0004549684145634,-0.2003607263143117,-0.2960571529719628,-0.0778110630959136,9.840072694475458
0.93,0.0009317040263835,-0.0029215266598566,-0.2019398768718297,-0.1950790318963126,0.1318007386619522,9.852501353431805
0.9400000000000001,-0.0012038992890847,-0.009456345880921,-0.2031617273862416,-0.1258327206974681,0.0633835897481784,9.943081513441625
0.9500000000000001,-0.0005672483103931,-0.0058705539075198,-0.1994129677588994,0.2750815342990302,0.0704829157153696,9.741850200034376
0.96,-0.001740929166586,-0.004969597658777,-0.2002384920890385,0.1337662317202217,0.0111691427251452,9.839445034477178
0.97,4.340642085502745e-05,-0.0016786780516751,-0.1995552887494618,0.193521757020782,-0.0514803305774509,9.713041188042943
0.98,0.0031498268200297,-0.0015928697518144,-0.1985494156653935,0.0061914719459755,-0.0704839689529788,9.73777764567448
0.99,-0.0004363455515426,-0.0054487983114754,-0.1984876205499226,-0.2700646192425021,0.2303942846232913,9.94430818762264
1.0,0.0006371504446571,-0.0088440578700083,-0.1989685406262929,-0.2273134684005641,-0.0361023020820524,9.845354217655771
1.01,-0.0003280749106627,-0.0092095589070521,-0.20161835451675,-0.0715267931569654,-0.0343245815096907,9.847884451692552
1.02,0.0029458607113405,-0.0113527097280827,-0.2029833902890736,-0.0928636256597077,-0.1965571898899377,9.801761769096323
1.03,0.0022822159441179,-0.0079683895610875,-0.2021704276378209,0.26292154358765,0.043129849006799,9.75831293506168
1.04,-0.0002959786414837,-0.00262247310031,-0.2045289238269383,0.3975724548816352,0.1835089106783714,9.82057522972171
1.05,-0.0041893696272566,0.0006638399037262,-0.2049756010348851,0.3197156895835354,0.2099443141849852,9.903870455180211
1.06,-0.0042104812972615,0.0017107952003573,-0.2048660625989491,0.1834176378332364,-0.0607156479823997,9.859487325348727
1.07,-0.0002592179176777,0.0025010734024854,-0.2029301037366444,0.1515679594758451,-0.1992160766411446,9.74172161234286
1.08,0.0027946378295425,0.0019254026174555,-0.203972737985378,0.0212170514399239,-0.0808125343382985,9.724192340521215
1.09,-0.0021814341499173,0.0009527191428682,-0.2038956542785222,0.0278463590694957,0.3155175212400056,9.845557614627394
1.1,-0.0041530247797182,0.0025124224113619,-0.1992602308566624,0.2243901793134138,0.235658248969703,9.76469031833881
1.11,-0.0018965590302144,0.004258603744136,-0.1958121021564061,0.2531039404005411,-0.0945962613385665,9.779880968246731
1.12,-0.0017258567398033,0.0078556066735763,-0.1940184046800191,0.2921458347627035,-0.0216456279814757,9.767859747215654
1.1300000000000001,-0.0010310501941051,0.0071413176301879,-0.1934417297418172,0.0745373034455471,-0.0267069171786355,9.886671774565675
1.1400000000000001,-0.0001019240376728,0.0090316506711209,-0.1906320114905888,0.1890341020504932,0.0667136399235807,9.775923952436283
1.1500000000000001,-0.0016638343090064,0.0083327559894256,-0.1945347895200307,-0.1344750158442284,-0.0178627465596933,9.842297369580152
1.16,-0.0003377591447097,0.0055941011694904,-0.1948867549474293,-0.2060243386851884,-0.0951204802341283,9.8489925537612
1.17,-0.0001878175953618,0.0051509387051607,-0.1954555769736821,-0.0767535159176442,-0.0306382301911936,9.825030565169772
1.18,0.002283258895307,0.0036625488301281,-0.1956221272523457,-0.0924190081396995,-0.17036075211331,9.833420398593203
1.19,0.0030849505811538,0.0029104111209366,-0.196935709315067,-0.093670756320103,-0.1096905557753857,9.81665861730042
1.2,0.0050258014690711,0.0038676747824966,-0.1927239259059483,0.0659744676709826,-0.0301612288873264,9.75308786664688
1.21,0.0018269651561201,0.0052144523349148,-0.1935683896119649,-0.0465701507702258,0.1239220916422095,9.762962564085234
1.22,0.0055472815329095,0.0066912315426815,-0.1889930625731999,0.0608307055206357,-0.044441943547158,9.649310732297282
1.23,0.0026205414075703,0.0061755011066509,-0.1869042177970463,-0.0944119121014838,0.1765879579989696,9.80626645452972
1.24,0.0037450814657926,0.001457355475491,-0.1869701256330067,-0.2760464729158512,-0.0485549188785514,9.865552292171628
1.25,0.0067948607581618,0.0002008322310737,-0.1882035990531499,-0.0978372279066959,-0.1902400082486823,9.767540257392357
1.26,0.0049571261060182,-0.0003054680024213,-0.1867424954946095,0.004013879391272,0.1696027739073409,9.838143828455015
1.27,0.0034308155852371,-0.0001501411841849,-0.1891415973479802,-0.1033283958245261,0.1467506511708062,9.83798803922314
1.28,-0.0019674732028956,-0.0035458076746772,-0.1893584241445119,-0.2547634793701757,0.4206922913440482,10.000379668324088
1.29,-0.0025388304973518,-0.0053538134117791,-0.1890138496930653,-0.0703835642837775,0.1505211035286231,9.886917716988568
1.3,-0.001817042433336,-0.0071200181930854,-0.1907714267547185,-0.0008863290642195,-0.0635132057050137,9.846524983627976
1.31,-0.0032633276844112,-0.0050270233232589,-0.1916953434522206,0.1956352049577822,0.0019441762178552,9.745412906687658
1.32,0.0021931721633068,-0.0025173014917911,-0.1951136102254445,0.1599444574992253,-0.3975464301860695,9.623625054566492
1.33,-0.0022101831958347,-0.0009151269371598,-0.1959376444394643,0.1091344304049133,0.1878756960905158,9.790413997238614
1.34,-0.001339313214716,-0.0028860666419948,-0.1943667044217641,-0.0561350660495929,-0.020512174477935,9.860534495922018
1.35,-0.0013143607817938,-0.0052338919036776,-0.1968369593198354,-0.2156414933195831,-0.1676337767813307,9.88902970044568
1.36,0.003249636421659,-0.0057145234990991,-0.1920023222739751,-0.0113491093296807,-0.2671414432332611,9.789002265179866
1.37,0.003977921333168,-0.0097398602498213,-0.1927547415072972,-0.1018154411311123,-0.1237939937407511,9.879477569675265
1.3800000000000001,0.0021996897805617,-0.009532514844844,-0.1938746233756596,-0.0275748338980305,0.62948038057582,10.070531256036388
1.3900000000000001,-0.0036207003466046,-0.0037199693831176,-0.1949370165641362,0.5295260050221997,0.5257916475701649,9.821067030801728
1.4000000000000001,-0.0075556712529786,0.0021020060661929,-0.1949702014501149,0.3014344050470517,0.1748417509941965,9.865019991000905
1.41,-0.0044074971630053,0.0064225418470692,-0.1956683804566914,0.6107614626063632,-0.4815549549841191,9.486835303633466
1.42,-0.002014998612776,0.0043580724061055,-0.1953502108628804,-0.0993743281537408,-0.1794623777589799,9.813272846380867
1.43,-0.0031001304440283,0.0021844511130951,-0.1970694025332982,-0.0422249920907611,0.12231698913833,9.813669338354137
1.44,-0.0074308641958051,0.0038367600023641,-0.1974732240016515,0.1516752799007043,0.3490167322340954,9.729987317501212
1.45,-0.006882124708354,0.0038233690398705,-0.1977779527480656,0.0813178592510616,0.0445195909165873,9.747445589375204
1.46,-0.0112495097106713,-0.0005853098790919,-0.2015684356267506,-0.1936020352226134,0.0714963287278609,10.002179130333616
1.47,-0.0078113906872168,0.0025062324469544,-0.2019934465463216,0.1862429714585046,-0.2617174375564243,9.733441467878636
1.48,-0.0077788089709328,0.0022073939366207,-0.1989133765275532,0.0214746350101336,-0.0314664911957409,9.912220824904228
1.49,-0.0058459909058055,0.0014722223383487,-0.1956687678868825,-0.0066127389296768,-0.098527133113104,9.87050039759168
1.5,-0.0029738821471681,0.0007537173873966,-0.1943574060971791,-0.0357697725973443,-0.2231153603787762,9.87663667481842
1.51,-0.0003060959767233,0.0028283940475206,-0.192085724073177,0.1127917108956181,-0.2281794495064819,9.79207570682938
1.52,0.0008167168540989,0.0044175821196091,-0.1924362589891011,0.0410397378257034,-0.1594497950334923,9.78897112701372
1.53,0.0022333091563399,0.0058995519942035,-0.1912054528768117,0.1020335390019511,-0.0603042568926692,9.742404400053053
1.54,0.0017641850791246,0.0041946767665177,-0.1889083643729741,-0.103462811298162,0.1522033511005402,9.76102899656706
1.55,-5.577901259932094e-05,0.0018040490772505,-0.1917467524583394,-0.1995221673661484,0.1237145818729546,9.824082587361264
1.56,0.0014646061755763,0.0017899652279735,-0.1926292588288838,-0.0663400981809703,-0.0618482601587566,9.720359046748197
1.57,0.0017720044278818,0.0014880901711438,-0.192748423414951,-0.0181338832133016,-0.0237196727177478,9.797664835052773
1.58,0.0004553595750958,0.0012321599322951,-0.1929134835774953,-0.0068533542454312,0.0405259929328947,9.840426910290596
1.59,0.000380880100381,-0.0007939620959175,-0.1951378246123845,-0.1046336998970388,-0.0807242625484608,9.869581799820905
1.6,0.0031452023495349,0.0038426917207068,-0.1957674284751469,0.2725413810875045,-0.20538595725597,9.65997141330448
1.61,0.0028888870399212,0.0014624552213967,-0.1906980236346776,-0.0136936097993458,0.0473681469313188,9.829681215188076
1.62,0.0053282480700211,0.0033184234400716,-0.1900018115813786,0.109081204416989,-0.2270576427080427,9.687932519055517
1.6300000000000001,0.0026321367095559,0.0022760102109917,-0.1889378537709767,-0.0168611748486199,0.0814156156263717,9.828115488099046
1.6400000000000001,0.0050819101862847,0.0034197134296075,-0.1936510463531071,-0.0158029566378878,-0.2400865507520563,9.682937702307234
1.6500000000000001,0.0016584537450656,-0.0071571817797875,-0.1922149618442113,-0.3001742169599372,0.1952902926437127,9.967194264564371
1.6600000000000001,-0.0020653387952091,-0.0068345102751806,-0.1934357841785008,0.0074469697975554,0.1656439182368983,9.900819578907043
1.67,0.0010929598774428,-0.0077128047404584,-0.1952034195239598,-0.0135396638107135,-0.1721178620934275,9.807095691613007
1.68,0.0009975019907968,-0.0031501200768572,-0.1964916249091679,0.3035212927770424,-0.0306292369320175,9.694465021736397
1.69,0.0003996676581523,-0.0032021399871778,-0.1974486072833592,0.0391810297861633,0.0308329464215059,9.794739063500144
1.7,-0.0018884129876288,-0.0019260056228527,-0.2000455369527394,0.0183552433209601,0.0858755953633308,9.812418654747711
1.71,0.0014455641043329,-0.0016255374012868,-0.1977503706986958,-0.039384451998951,-0.1157627092334009,9.734806321298407
1.72,0.001490549724584,-0.0083612766092058,-0.1995377351815755,-0.4531754662157694,-0.1300703008213575,9.977112946581578
1.73,0.0019705291986488,-0.0096022831553133,-0.1970392127807194,-0.0773125721993969,0.0183669089571201,9.858928129123084
1.74,0.0026671992906783,-0.0120819844722362,-0.1962169965083653,-0.1143727508342161,-0.1023477876253776,9.865178933984334
1.75,0.0013908167665763,-0.0110116942613509,-0.1962550540740544,0.0791889675981692,-0.0007066959625207,9.786621560092756
1.76,0.003884512653381,-0.0094569065387302,-0.1961574216659123,0.1069670592868873,-0.1617589158104959,9.705554477118309
1.77,0.0024985962133148,-0.0052641618765225,-0.2008956332976872,0.1954174508691671,0.0436838239521782,9.758055244482351
1.78,-0.0010623842694898,-0.0032326955546782,-0.1985427399451787,0.2453229175885249,0.3026019045208129,9.902671849522932
1.79,-0.0030354205200332,0.0010431690206615,-0.1974460293824727,0.369072019036367,0.1919806032590255,9.82231535751354
1.8,-0.0004434120977152,-0.0005168596121367,-0.1990694959933812,0.0034267914978479,-0.1314936058497003,9.88662535881811
1.81,0.0021673139927356,0.0043262872202275,-0.2001428415353352,0.3130765800499332,-0.1158618007868735,9.62687958425541
1.82,-0.0040262348973826,0.0036181359401877,-0.2010647614772374,0.0199916366216783,0.3505452603107951,9.884932401803384
1.83,-0.0025872845747344,0.0033920849523086,-0.2040643652255589,0.0221983991370583,-0.1319584630374185,9.76026182693143
1.84,-0.000268764854366,0.0005295908450459,-0.2069171925361211,-0.1070651178742082,-0.2099656704767291,9.886993631296138
1.85,0.0012654175539354,0.0023704366397492,-0.2035123219068104,0.2053043368238302,-0.0867057209772634,9.793121613934623
1.86,0.0010139519597463,0.0053100583560377,-0.2005465437943989,0.1768838020825031,0.0268293958006684,9.77522154888463
1.87,0.0019150277254298,0.0053149003648822,-0.1992844750459248,-0.0005438406654938,-0.0667432341750592,9.84405458085588
1.8800000000000001,0.0006005709673965,0.0013040260569277,-0.1978189011390263,-0.2734540810855261,0.0433905122239876,9.916943591206223
1.8900000000000001,-0.000881415979473,0.0016249312035076,-0.1970444281871373,-0.0084244216282495,0.004562158253411,9.823600613676591
1.9000000000000001,0.0029550189834615,0.0010645704114503,-0.1956541498477513,-0.0797849133966879,-0.2045294053992498,9.744419596203924
1.9100000000000001,0.0048576105416991,0.0028614999692623,-0.1950868477399403,0.0818250732216943,-0.131193132165048,9.72515035857405
1.92,0.0047062038832864,0.0030936889955531,-0.1939450164611394,-0.0205359211030299,0.0103027593937508,9.797003386436808
1.93,0.0066651722623799,0.0026442691186468,-0.1971453537519032,-0.1189293188716772,-0.0986112350794686,9.731179225763222
1.94,0.006179906395415,0.0004532232079104,-0.1949873377854878,-0.0566420921763207,0.09494676271495,9.869003176193123
1.95,0.0059520390330502,-0.0010498651515882,-0.1985270341212804,-0.148643662243533,-0.048159704281969,9.791140490903564
1.96,0.0038962985225059,-0.000851409200281,-0.1977504005010182,0.0999244135950351,0.1000860178355299,9.849115514200504
1.97,0.0051004719909446,0.0005817966427103,-0.1999445666844899,0.0758640837850353,-0.1281512349335076,9.728076029001349
1.98,0.0072552783516558,0.0001563864322055,-0.1981955279882008,0.1123547171615508,-0.0984819834582052,9.76870635218852
1.99,0.0060060003849572,0.0017366651151706,-0.1975991239125783,0.1881184262860394,0.0898988215721839,9.779388127156825
2.0,0.0075684073914455,0.0012983173785347,-0.1957056184585149,0.0652230088417909,-0.0407719392152658,9.784377313381231
2.0100000000000002,0.0030326414052252,-0.0004062368566832,-0.1930210997636372,-0.1265694987822669,0.3763448177078549,9.917978232878
2.02,0.0009338819401845,-0.0054281814800791,-0.1892638464744145,-0.2903445149977925,0.3319004887115521,9.9718607987751
2.0300000000000002,-0.0012527901978457,-0.0096665576229424,-0.1890689839894826,-0.1959998433371189,0.1743420869314468,9.96230103287167
2.04,-0.0003246898222832,-0.0097223115800419,-0.1883228232438618,0.1541312020624694,0.0338539576903406,9.766627985989077
2.05,0.0008403538146011,-0.0047928753773752,-0.1895673980290944,0.3811330711728518,-0.0806597243345392,9.639212076352203
2.06,0.0027457373285409,-0.0034222332257308,-0.1901113500173146,0.131692457702642,-0.1300436173928613,9.70416453473742
2.07,0.0011683326915528,-0.0059379300246122,-0.1932543178374821,-0.2386053696490503,-0.0238380046240837,9.868164409541784
2.08,0.0023323288489649,-0.0112400539209058,-0.1944217642123753,-0.3394031621782659,-0.0818424929389181,9.92533657696085
2.09,0.004371037090136,-0.0130143577140454,-0.1920179088885838,-0.0801907557389406,-0.0154924468102887,9.820577739142363
2.1,0.0020907157506482,-0.0121740165048431,-0.1932766844804341,0.0961833029007077,0.0602909230426999,9.853249392342605
2.11,0.0004127334713581,-0.0105058005716048,-0.1926757951552922,0.2404403254469902,0.065738563446745,9.824478341893826
2.12,-0.0016965167439819,-0.0044784736615945,-0.1923681606824452,0.4857030815135911,0.3143948763488858,9.786243244354509
2.13,-0.0044043346994435,-0.0011827010949416,-0.1897857149417454,0.369855589584697,0.2693572690893718,9.861085919940916
2.14,-0.0073160785198072,0.002369326548873,-0.1865119149262959,0.3400753017920846,0.280115651220763,9.822267869592766
2.15,-0.0034583833100874,0.0022145831043408,-0.1856395115430409,0.1040059022098063,-0.1554540333860717,9.77236369287911
2.16,-0.0029272166098092,0.0015471831572144,-0.1855921407516057,0.032750318287868,0.079846055417066,9.754295288992202
2.17,-0.0073668743108346,0.0008128961692579,-0.1897995134170109,-0.034318457100307,0.288841756336026,9.805339040892832
2.18,-0.0054627756508745,0.0022630168039342,-0.1944557090575749,0.0502662381311507,-0.0689556330714388,9.660174887608434
2.19,-0.005568447545425,0.001502400953051,-0.1908061464603001,0.10713888108188,0.1290129669060722,9.839030520137538
2.2,-0.00983672558141,0.0024302460516186,-0.1946177442843968,0.0432779180085804,0.0605089083470559,9.907148442155544
2.21,-0.0045992620986662,0.0025730633653548,-0.1923312505061681,0.0752023351776211,-0.2735147498759385,9.79129230439805
2.22,-0.0037276868747769,0.0028290415504371,-0.1919922043855244,0.0256929738254931,-0.0544987134456524,9.845829088384432
2.23,-0.0037637347104257,0.0010106113104347,-0.1915682663495595,-0.1055574908889743,0.0006649330286419,9.900892578777636
2.24,-0.0060814096551133,0.0014572306798216,-0.1874566783483083,0.0857146523593459,0.1373343151815811,9.879397821750896
2.25,-0.0005587280634963,-0.0003368367778633,-0.1874253561074788,-0.0908161586860433,-0.3569940775458946,9.818621989628532
2.2600000000000002,0.0026659082059663,0.0029364758651884,-0.1854152043635899,0.2051098197667481,-0.2139808462254032,9.723025942145588
2.27,0.0020119777900714,0.0053713201437183,-0.1845263948018605,0.114332213243436,0.0126363744068649,9.741075294437715
2.2800000000000002,0.0037726919075027,0.006375792534238,-0.1849860360200459,0.0119773993958738,-0.0667492276885584,9.698886153892358
2.29,0.004615485885426,0.0042197639183123,-0.1822211404616887,-0.1398439851379468,0.0930691851142811,9.78286732334276
2.3000000000000003,-0.0028144961075122,-6.471659387026992e-05,-0.1805205305392796,-0.236753596592422,0.4719860735750412,9.970638789222988
2.31,-0.0006735570361023,0.0001233226494579,-0.1865350415284688,-0.0996998760579244,-0.2028076828737074,9.74164437501704
2.32,0.0018167279458202,-0.0009727948628732,-0.1868192215735966,-0.0498978420829443,-0.0945904605679477,9.79144050684181
2.33,0.0015705683120445,0.0017100550054528,-0.1886170764739567,0.1092318276066158,-0.0159891598631795,9.7375833800853
2.34,0.0036868632058048,-0.0006903279706997,-0.1906410564954335,-0.1301018050129296,-0.1454865820750861,9.827371879472716
2.35,0.0014758685389825,0.0020985964786927,-0.1897585650260503,0.1182057960611929,0.1479325339594907,9.727789670688878
2.36,0.0023983437133999,-0.0001568477002491,-0.1908835728938634,-0.1283301413413824,-0.0973495991388776,9.810362997914783
2.37,0.0027436707431348,-0.0022011545212784,-0.1923088987643773,-0.090881436191385,0.0561970997035712,9.79637328921353
2.38,0.000108118742986,-0.0027585334831249,-0.1922708859021718,-0.1351243817952835,0.4285322915956082,9.982467052332249
2.39,-0.0017572254348066,-0.007058811980413,-0.1898863126809651,-0.1914952174364363,0.1543924587236216,9.946371577092735
2.4,-0.0003232394172882,-0.0035972364156458,-0.191490050154453,0.1596296843243745,-0.1084962190779715,9.698585120887833
2.41,0.0009412156592051,-0.0038122722995665,-0.1903586347873265,0.0446836333469988,-0.0292602104443087,9.801325036892276
2.42,0.0022226085766551,-0.0028184875254357,-0.1950454523141438,-0.0291394378049352,-0.1105078861065408,9.733317250146431
2.43,0.0004769767485039,-0.000966018564303,-0.193255077796703,0.1032710754961592,0.2383133691736098,9.7761100188528
2.44,-0.001150736818331,-0.0025531101720916,-0.194200198846584,-0.1529267361789591,0.1834609513405689,9.853804371141344
2.45,-0.0018988843828386,-0.0057164524260361,-0.1973786463315541,-0.2426301116847645,0.0260700432635258,9.90737797258169
2.46,-0.0040437527411584,-0.004316692628009,-0.1960147430474812,0.038719325781815,0.171955058181936,9.802638343661158
2.47,0.0003161265291967,-0.007640404853582,-0.1977749427135045,-0.2301463871938393,-0.268086402648031,9.817242425390264
2.48,0.0019796569961965,-0.0071097109501563,-0.1969829310948903,0.0045874690983972,-0.0802613707448039,9.771231231501565
2.49,0.0034016351268243,-0.008300072934607,-0.1956824620540196,-0.0790296288801333,-0.0435331308449119,9.815473667043394
2.5,-0.0007136323845879,-0.0098683914892874,-0.1978137602384145,-0.1000586408247702,0.1786125399606644,9.92535571009138
2.5100000000000002,-0.0023133438217353,-0.0074067471880975,-0.1988787760312611,0.2249375429368385,0.155582890044801,9.844725538692158
2.52,-0.0047820097278853,-0.00224475651703,-0.1967688014085347,0.4079974060554641,0.1849529256890875,9.813070362401168
2.5300000000000002,-0.0030129606791701,0.0035629386743429,-0.191528793173557,0.4935636020231119,-0.0390201646089418,9.73763873118497
2.54,0.0002043484019946,0.0014321582279767,-0.1903333773191029,0.0212327972281894,-0.1697946209950155,9.866483173727929
2.5500000000000003,-1.296149184091754e-05,0.002760315610836,-0.1905095388467366,0.1296986424769033,0.0396689884568882,9.766541779898978
2.56,-0.0002658825885448,0.0039306861331301,-0.1919568737323338,0.0806029828267107,0.1163522198106995,9.720871719832756
2.57,-0.0030710780671904,0.0017450061676931,-0.1938478161866719,-0.0392758931980904,0.2243881714154865,9.880138809911395
2.58,-0.0027565890746207,0.0049968883408853,-0.1962666024739796,0.2029027499106786,-0.0255886312541529,9.72159577486772
2.59,-0.0015198126318003,0.0041963011262695,-0.1948129941995198,0.0961878926798002,0.0117242513194404,9.8477011402623
2.6,-0.000658124240084,0.0046822367986282,-0.199794064956432,0.0513220039697537,-0.1805686726232765,9.83930364832223
2.61,0.0009957199571538,0.0093773167513552,-0.200916450219875,0.203870700666268,-0.1215358287326649,9.695890874075054
2.62,-0.0014297159269086,0.0066617580895248,-0.197471346455341,-0.1368741231629127,0.187114059093425,9.916587989358392
2.63,-0.0003264036937225,0.0032434448839305,-0.197697113948589,-0.2531578717487773,-0.0714887112087783,9.85011814313528
2.64,0.0012009594878807,0.0037116280548157,-0.1948394735629613,-0.0101423551537516,-0.0802329549921714,9.79792206347001
2.65,0.0038058914791794,0.0006660331969442,-0.193821381526714,-0.2139174274627706,-0.2226866352044733,9.868998132941268
2.66,0.0044711587873321,0.004936284008691,-0.1876593341405446,0.3324740369728278,0.0825406901662487,9.690017158589944
2.67,0.0037130224146891,0.0058949854552206,-0.1891733368213231,-0.059494184017035,0.0085926447574821,9.769590189044704
2.68,0.0065626143960478,0.0034060292452486,-0.1868531217153126,-0.1450056259783513,0.0075952115775566,9.791450297447623
2.69,0.0033796987654569,0.0006456090932647,-0.1886893918092305,-0.2429314949407584,0.1579918705781909,9.88155648119388
2.7,0.0067942718126699,0.0022629063710951,-0.1883019616181905,-0.0051738192448514,-0.0995265085111525,9.629203710361509
2.71,0.0070395100889017,-0.0025081518914801,-0.1903374900395924,-0.2627312856432228,-0.0101193932206034,9.892096382929935
2.72,0.0043220880567039,-0.0017397377499963,-0.1905226071651036,0.0889948391856464,0.1928537714732056,9.798157069274152
2.73,0.004654600036832,-0.0001674206061954,-0.1881015857036168,0.1767178866132485,0.0555751334804195,9.771050646005296
2.74,0.0051077225797947,-0.0010889809611313,-0.1888614406163747,-0.0253891864238682,0.0108979124607845,9.822518350675823
2.75,0.0037884510835117,-0.0024988979915835,-0.1888436039264256,-0.0898278688002591,0.1374821516223683,9.873360586439954
2.7600000000000002,-0.0005669125372195,-0.0037985146134962,-0.1907893379504735,-0.1252270199687475,0.2526726785818499,9.92102538596222
2.77,-0.0023288315227693,-0.0074357518737981,-0.192843820648914,-0.1484296997578833,0.1183854278196722,9.918693573036885
2.7800000000000002,-0.0019474953411155,-0.0066837153334642,-0.1881696989114339,0.2117301389397363,0.1233831791076583,9.788126615931562
2.79,-0.001829836574135,-0.0027402730616687,-0.192428793507343,0.2265382785432371,-0.1352785242747559,9.700875828100164
2.8000000000000003,0.0012557297788774,-0.0018695045473316,-0.1883127500588948,0.145146347107737,-0.0724264167348173,9.741754050422934
2.81,-4.653990025441327e-05,-0.0036522044352286,-0.1881626208598668,-0.1076616831158994,0.0872692721540676,9.8513774890752
2.82,0.0015687667462491,-0.0039347083535595,-0.1875621487672383,-0.0822978513873134,-0.0293771569306258,9.772181618092208
2.83,-0.0003776550853787,-0.0076539909656673,-0.1851820309932286,-0.211424736559895,0.1935823133581595,9.94817890427669
2.84,0.0008468301961494,-0.0109652404035237,-0.1912285794789845,-0.2821583223807357,-0.1836356370033224,9.878014499149122
2.85,0.0026759547883494,-0.0082719000240763,-0.1912807037408406,0.1800838959861744,-0.0094598749619373,9.750683839579002
2.86,-0.0011034257089958,-0.0058910113650049,-0.1923018207128102,0.2654085893478772,0.3667101669488374,9.927720107877798
2.87,-0.0064518282580201,-0.001018376056842,-0.1929164191062505,0.3866813782840557,0.35192579903204,9.892871896195327
2.88,-0.0113866318355147,0.0003835134321117,-0.1948756684835011,0.1902892550008562,0.1703723510189008,9.948274255912551
2.89,-0.009009313782051,0.0014985550062267,-0.1927861084516103,0.207447037727492,-0.068819363528176,9.746549052953842
2.9,-0.0048455959691491,0.0004600326524153,-0.1947843243653828,0.0417969118182826,-0.2286933741860055,9.70491460291705
2.91,-0.0075986718111304,0.0024521809118372,-0.193741585808521,0.1646616045203282,0.2314425070982898,9.680312969672569
2.92,-0.0080645037897529,0.0029008578302102,-0.1898409237439687,0.14623522497978,0.1447977291466385,9.760626111139809
2.93,-0.0075710277981622,0.0026161151787453,-0.1890630384261662,0.0250375231913331,-0.0412588561102848,9.813717718436669
2.94,-0.0070247502007306,0.0045099773819742,-0.1914828975970799,0.0452831319982084,-0.2054607268345931,9.855727503090776
2.95,-0.0027318486095042,0.0030675731338109,-0.1889613678033406,-0.02934510559161,-0.2083843110475428,9.888423600662046
2.96,0.0002874310232187,0.0037010704862864,-0.1886305322225148,0.0645014214451966,-0.1672714096204583,9.84460694052875
2.97,-0.0010892790948678,0.0034155354388779,-0.1874677946145589,0.0198354243016801,0.0789192805223767,9.907792967809035
2.98,-0.0001051916931233,0.0083054379150522,-0.1889703532035405,0.1429249768846453,-0.106463773670087,9.669626023135232
2.99,0.0033823779418076,0.0068774847249037,-0.1877732833201939,-0.1187332139955796,-0.1444688344411161,9.76958632313758
3.0,0.0040166994006599,0.0016199183188227,-0.1892116626079137,-0.3708829411763368,-0.0285673319110356,9.870870695839528
3.0100000000000002,0.0040127803257417,-0.0006351674308918,-0.18577542503429,-0.145872326424577,0.1269990575712221,9.799814766096729
3.02,0.0027487944038978,0.000961461046503,-0.1870483865315968,0.0036889365781885,0.0752248814522724,9.74016275777843
3.0300000000000002,-0.0010561585053462,0.0008952569648972,-0.1863241900975758,-0.0317429643585773,0.2338443162040604,9.834422171713838
3.04,0.00244907561524,0.001522593976743,-0.1823779751832539,0.0952351193822158,-0.0428170664283093,9.731973750674603
3.0500000000000003,0.0019898582785771,0.0027898233620169,-0.1832921912248189,0.0223252117273946,-0.0043422200818843,9.786591948930315
3.06,0.0044114798265455,0.004513793089642,-0.1818784882600362,0.0837140924603766,-0.0756274042197883,9.721296069957743
3.0700000000000003,0.0039513569024069,0.003716335272615,-0.1845357229287678,-0.124779232100745,-0.0292372395689134,9.808781991495977
3.08,0.00337559102937,0.0036807856277567,-0.1843300422008092,-0.0403152864777433,0.0765619754708541,9.767107015024775
3.09,0.0025715570968546,-5.306367969477151e-05,-0.1869619448955113,-0.2224995827275592,0.0402348979452662,9.852791721419983
3.1,0.00514883778103,-0.0002505797649313,-0.1888260801608617,-0.0320862404390678,-0.0900252914208065,9.730341472438052
3.11,-0.000940037150009,-0.0034110901856027,-0.1906559427554661,-0.2244687307991833,0.3344712967045435,9.975755809721102
3.12,0.0005660636587358,-0.0070961797902762,-0.1885806431348378,-0.1852018263240602,0.0457152273222854,9.87685203848155
3.13,-0.0011541357423085,-0.0067083560235377,-0.1902156730468327,0.0075956385847452,0.0362951943235185,9.8378292136234
3.14,0.0026130837269451,-0.0066791593087167,-0.1922846247727925,0.0425860010523936,-0.2230916828406511,9.75868369208191
3.15,0.0011247604719225,-0.0096004180978744,-0.1905580272252614,-0.0425793850522068,0.0882039656319141,9.90024023774347
3.16,0.001404168423158,-0.0052144526442969,-0.193015929060703,0.2580149250960694,-0.0528784473042543,9.669413829269104
3.17,-0.0006060973218973,-0.001791975330103,-0.1924705614621693,0.213630083491025,0.1572449534349407,9.755405303210075
3.18,0.0027259164444152,-0.0043830847157429,-0.1928352375800664,-0.1582075983964898,-0.2257746477810847,9.857251909186472
3.19,0.0036928903692286,-0.0063470212018729,-0.1920686473424489,-0.1498086027613248,-0.0134538683173006,9.861827580467134
3.2,0.0041153978545033,-0.0059812752701587,-0.1910516281898076,-0.0045009167036976,0.0185931495494553,9.82224245064255
3.21,0.0030328696334355,-0.0090253469560792,-0.1929965277488286,-0.1734634997619258,0.0612554729037051,9.899359956750734
3.22,0.0034736035711948,-0.0072572545586866,-0.1929410954291875,0.112707015442961,0.0344326026914573,9.736403479360195
3.23,0.0031242239914741,-0.0077952181385415,-0.1950320710713917,-0.0239950112354069,-0.0149367199177294,9.809957062795934
3.24,0.0032114439582336,-0.0052423530668323,-0.1965623756225163,0.1719743642312727,0.1008526162820538,9.789422125290567
3.25,-0.0011674437881349,-0.0058531723643372,-0.1968898286397511,0.0767274182989311,0.3132123133809375,9.963231873745451
3.2600000000000002,-0.003001295419376,-0.0006407090190697,-0.1948472668702656,0.3892468106132474,0.1660942052853351,9.773361017941983
3.27,-0.0039939240022382,-0.0009653137755185,-0.1966908981378133,0.0770261327449238,-0.0322694492416336,9.885618116620224
3.2800000000000002,-0.000552429655394,-0.0013311102807625,-0.196316521363979,0.0754313669661078,-0.1712965622302597,9.732010939253929
3.29,-0.0001762642645621,0.0024592018253169,-0.1963910271699483,0.2623341193950007,0.0451393213625051,9.670170770985582
3.3000000000000003,-0.0036671908033558,0.0008418407821099,-0.1971308400209004,-0.0171484506166607,0.2539688497575851,9.846388198394685
3.31,-0.0019543433590837,0.0032322632961671,-0.1960978170211369,0.1859365590339726,-0.0682497260618266,9.704079368406257
3.3200000000000003,-0.0009799945774181,0.0028652055779997,-0.1954507489974553,-0.0111061744780354,-0.1681221689800665,9.879219655054838
3.33,-0.0004673137705939,0.0029843291493348,-0.1936849762971455,0.0329138217571829,-0.0944969656614996,9.907971299221405
3.34,0.0033237588965237,0.0001110520223185,-0.1919508685643727,-0.1110050256892654,-0.1548027469685419,9.91854455038447
3.35,0.0024566135262786,0.0025683537640431,-0.1900684793765599,0.0113569165822444,0.1223029786262754,9.78588432570693
3.36,0.0008874322950132,0.0058647905329911,-0.1893800606305653,0.1030601926114812,0.1043790458116937,9.732407491274136
3.37,0.0056180391488254,0.0033880787557366,-0.189680289226299,-0.2412739214191911,-0.2777818551997529,9.774587921901103
3.38,0.0056847001076239,0.0005243667894644,-0.1919725348527486,-0.1814791064354783,-0.0299676851236445,9.830336432234196
3.39,0.0044285428144951,0.0028488742875323,-0.1885109206016118,0.2220511632089384,0.3286002316116397,9.686170890530178
3.4,0.0063614699249537,0.0013813983940221,-0.1893010695750767,-0.1243770618432327,-0.0381387263181597,9.782073092931476
3.41,0.0044678331372804,-0.0003669851359181,-0.1882653941686208,-0.0915624386238615,0.1272393204449386,9.85618227361283
3.42,0.0066614721769112,0.0020955392029678,-0.1885139604384953,0.1165361855006158,-0.0912262480263663,9.72085304674444
3.43,0.0082321039031105,0.0028064174682044,-0.1880847026879842,0.0514720501176354,-0.0585981071532832,9.747706914139858
3.44,0.0037329850208184,0.0028467955924658,-0.1845103760535771,0.0704374395489711,0.3248365328765715,9.84518635194124
3.45,0.0081180610369181,-0.0004943717631847,-0.1851529886300618,-0.1239195970036903,-0.195951320332843,9.786711877658227
3.46,0.0076594796643312,0.0016112382799848,-0.1837574501807744,0.1176705749830119,0.0674667943936239,9.723705385277547
3.47,0.0068103894934337,0.0025338733199662,-0.1854502667958791,0.0894691860462649,0.0196236569460257,9.788024597129075
3.48,0.0081954590578558,-0.0003161420283909,-0.1825415154273564,-0.0483507177709256,0.0684871463101167,9.845098564688122
3.49,0.0041901902002203,-0.0006008490038125,-0.187619473534351,-0.1452536744644778,0.2132895859003251,9.875980488925668
3.5,0.0019537688461766,-0.0068677464290476,-0.1844954450900609,-0.335583960217966,0.3600235955037322,10.013542254034729
3.5100000000000002,-0.0044241281627238,-0.0069493122863101,-0.1882520427281911,-0.0542696009695405,0.3325425465978427,9.939297183460944
3.52,-0.0022049579761931,-0.0089564378623291,-0.1867499758775288,0.0358782965508888,-0.0390085836658836,9.855648889799626
3.5300000000000002,0.0006873745673517,-0.0047609460873406,-0.1904928197438771,0.1831011978447033,-0.1369944183428863,9.686970918915383
3.54,0.0016314921108421,-0.0036179216073233,-0.1920544912393147,0.1371387792964187,-0.1545431323703603,9.665079938643132
3.5500000000000003,0.0028137569714769,-0.0061546779490575,-0.1944818158919865,-0.1722015039074863,-0.0566855555483169,9.81745527854706
3.56,0.0020268283573113,-0.0075004509364544,-0.1920295466954762,-0.1062676169704738,0.1413134415008067,9.87729142089281
3.5700000000000003,-0.0024985501844585,-0.0058036258102875,-0.1923595031077916,0.1234511126483617,0.3591224731992025,9.957704569418851
3.58,-0.0078049370474581,-0.0066339763651466,-0.190227608876949,0.0991560170724344,0.3878599017025184,10.07671566476584
3.59,-0.007802559080097,-0.0007809030366017,-0.1895916124160344,0.4284128019970574,-0.0728339569616061,9.798756160605688
3.6,-0.0020747182012161,0.0016099372359814,-0.189881156879192,0.2148276086669147,-0.2697368666104789,9.648985935737093
3.61,-0.0034119419044836,-0.001235269292569,-0.1906328906590993,-0.0480095252453214,0.1488410199669867,9.840781704482614
3.62,-0.0046511867375319,0.0016628113605389,-0.1916696538503224,0.1864112105136891,0.1528117401127606,9.638699097355978
3.63,-0.009240798256154,0.0006427043361451,-0.1944870461995656,-0.044494872209174,0.2577880396417393,9.838410972202547
3.64,-0.0069800549490563,-0.0004600868861656,-0.1952823211724812,0.020190718199889,-0.1178315005293785,9.808469226474386
3.65,-0.0082243492703544,0.0015945228955957,-0.1947708984191472,0.2436297626927188,0.0648900130940841,9.831783646509336
3.66,-0.0062344165130685,0.0035148608425542,-0.1939565797622258,0.2157946686522726,-0.1877692565435167,9.8636321796348
3.67,-0.0006700141072682,0.0034618111762002,-0.1943782975251729,0.0398290123199232,-0.4085965054056735,9.836869367329315
3.68,0.0001794872736333,0.0050939073480127,-0.1961223741347844,0.1160810658953039,-0.0949272064870532,9.849336821278836
3.69,7.246521548776415e-05,0.0022633304467394,-0.1951296289737279,-0.1580029129873856,0.0711421403158009,9.850298309498218
3.7,-0.002410696211625,0.0027125771036372,-0.1929090132291371,-0.0091716561767894,0.2059841710838179,9.761754670183196
3.71,-0.0035426351336522,0.0012342301307196,-0.1922481616313512,-0.1731146257298715,0.0383620421129257,9.751518552104535
3.72,-0.005732039441575,-0.0002661349497881,-0.1922805418546254,-0.1330697664979564,0.0353841367053642,9.837414098430049
3.73,0.0002300464439421,-0.0017923283172048,-0.190467830496555,-0.053567709278148,-0.2807264939475227,9.793685879828898
3.74,0.0007038335227755,0.0024184997762891,-0.1912076582486684,0.1749140227390939,-0.0334259416880345,9.717933094974162
3.75,0.003288513243349,0.0031756709568113,-0.1905993332440907,0.033995306301662,-0.1070561676205028,9.79601389788633
3.7600000000000002,6.86657263593747e-05,0.0022573243373734,-0.1900397946412617,-0.1101673531122438,0.2179637053719569,9.859495609039984
3.77,0.0028796217066807,0.0028929315139975,-0.1901560684020573,-0.0119851168058199,-0.1013508714906879,9.703935277609013
3.7800000000000002,-0.0002752178575697,-0.0001120013682685,-0.1931198199565465,-0.19865883182258,0.114920430472485,9.851342195583452
3.79,0.0020657670817988,-0.0005292118372003,-0.1937092204864079,-0.0222079538570248,-0.0982957134436426,9.721900219071651
3.8000000000000003,0.0024339585399352,-0.001254955268729,-0.1952790131146962,0.0035396683127508,-0.0164464330295227,9.802311921134022
3.81,0.0001643701671173,-0.0028047730922328,-0.1956332882220799,-0.024708028765966,0.1219584892751241,9.86378115837249
3.8200000000000003,0.0011317992780385,-0.002268898196743,-0.1949161549384648,0.0338050760401285,0.0183963441625714,9.803283019781006
3.83,-0.0020213120956823,-0.0033892964977418,-0.1938668002660329,-0.0483206504369459,0.2011431061136809,9.892116152363768
3.84,-0.0026744966342853,-0.0043780107653375,-0.1961767782743031,-0.0854196018018096,-0.0482529127493791,9.830687098379608
3.85,-0.0003712183838097,-0.0068356000837051,-0.192957814532047,-0.037656455769618,-0.0562683662792341,9.816948260412936
3.86,0.0016613910110845,-0.0043899374180931,-0.1911741306359822,0.1735965348958014,-0.0193798745757563,9.677338328914155
3.87,0.0014800347977815,-0.0051791692872393,-0.1946978529269749,-0.0384284046740037,-0.0003959295224573,9.800087425579402
3.88,-0.0021591180255109,-0.0032171641208304,-0.1972430010612065,0.0767292535285091,0.1836432267222948,9.800639195344049
3.89,0.0008180175809517,-0.0027841997226159,-0.1975216378743703,0.030312806164705,-0.0660685835824421,9.760816908655842
3.9,0.0005359595061708,-0.0059686332170048,-0.1979165186460072,-0.1690411727677095,0.0536113901979556,9.9096768528542
3.91,-0.0005927966454776,-0.0066261285295222,-0.1995605041558797,-0.0615521504642191,0.1028711924349954,9.858570939054957
3.92,-0.0019335193027312,-0.0048962215924844,-0.203715380030399,0.0302364705017229,0.0252775152674139,9.773334681779575
3.93,-0.0030719864029293,-0.0047239928014784,-0.2004754354531819,0.0750205827166363,0.1817830788007838,9.785843986165869
3.94,-0.0024352303965441,-0.0040416203745918,-0.20057114561153,0.0588089634624653,-0.0317265064081012,9.777835886103356
3.95,-0.0030627999711734,-0.0056386092873766,-0.1989421208674962,-0.0575394152099835,0.0363257988410908,9.84801492912431
3.96,0.0019060792872122,-0.0087018904400825,-0.1987311800296361,-0.1558601060676903,-0.2172792387149794,9.869536439541507
3.97,-0.0032544400549636,-0.0060867522070997,-0.1983513345296437,0.2104789080425453,0.3744216134505311,9.911442793581577
3.98,-0.0069369721521174,-0.0054792553741619,-0.1971122582728917,0.1242074193467608,0.2408487374865425,9.933737506756726
3.99,-0.0052848619371784,-0.0029647980838048,-0.1928427030618245,0.2799477968436509,-0.0559243093530437,9.774054345880923
4.0,-0.0005173371732822,-0.0040676008149362,-0.1953572442109639,0.0153010782846726,-0.3068882602562927,9.74939281825526
4.01,-5.799068252218077e-05,0.0009748883922469,-0.1972426285321767,0.3153656244996922,-0.0042426497869626,9.6294157247744
4.0200000000000005,-0.0020614057264304,-0.0012981610654777,-0.1988474686915929,-0.0376944462879438,0.2000028074332301,9.842623239994827
4.03,-0.0037327177865088,-0.0012420570988314,-0.2000921477849538,0.0852899746788132,0.1379668206314632,9.82269002934219
4.04,-0.0042090440117841,0.0015270534092715,-0.2005834539706761,0.2068981189032246,-0.0093098798571643,9.78650122340422
4.05,0.0007560796598652,-3.389489372220471e-05,-0.2018265535409505,-0.0412848864762556,-0.3458989972224451,9.875386280697535
4.0600000000000005,-0.0001226490303938,0.0002720349060892,-0.1990806718642766,0.1122377116332652,0.0758827298604883,9.916680392568756
4.07,-0.0011942216827118,-0.0009895181138523,-0.1965020259196812,0.0144013264480382,0.1416746892607835,9.914275742319669
4.08,-0.0007381870267077,0.0034527706470654,-0.1931816448743397,0.2889835763091015,0.0918206180507384,9.681144539499211
4.09,-0.0001716027392416,-0.0002694617800678,-0.191519494848972,-0.1828127846575552,-0.0630795627680646,9.860590770977312
4.1,0.0023461454498914,0.0023731575724917,-0.1896858771617467,0.1270910473041173,-0.1954620602147831,9.70434702701464
4.11,0.0042449667786867,0.004346637009447,-0.1868878265197331,0.0906450469011132,-0.0785043959397551,9.727913093330748
4.12,0.0096025694838188,0.0044867235385333,-0.1866527607019002,-0.0766255693476393,-0.2234235763501947,9.69390142237623
4.13,0.0043598894964576,0.0008971230389759,-0.1871332933480794,-0.2539931359494813,0.3137623366399369,9.95654243654998
4.14,0.005148430424624,0.0002392335096245,-0.1904603650147969,-0.186762883745298,-0.0227466953045212,9.77366853531704
4.15,0.0047268507880469,-0.0016251252131444,-0.1914017458732182,-0.1508742712572863,0.0814335092931203,9.833620787286424
4.16,0.0050574769230828,-0.0034183191453838,-0.192577462392574,-0.1614439120929095,0.0058005551620313,9.79705365290256
4.17,0.0012758598904264,-0.0020599714855409,-0.1917303015763814,0.0858632084619507,0.2725809847467459,9.796917391770029
4.18,0.0040421357878006,0.0003519711297509,-0.1916923185164983,0.1488325264973945,-0.0642353812386285,9.664704754123647
4.19,0.0045309387466122,0.0004640808474145,-0.1910802682216222,0.0495644312947324,0.0471804791312939,9.761648476547066
4.2,0.0021643750793609,7.404330894836912e-05,-0.1933914085204655,-0.0008055764351435,0.0773300504383474,9.84879750254092
4.21,0.0048417348954838,-0.0007024565468316,-0.1940989007527882,-0.0379463791756013,-0.1052371710427183,9.760055837146258
4.22,0.0034569202245568,-0.001955177982074,-0.1919046600635106,-0.1351542136200866,0.2296736791274606,9.84951259448727
4.23,-0.0006505338263233,-0.0059304684380571,-0.187560584145313,-0.2336509509018218,0.4921628564180433,9.975266479965324
4.24,-0.002409656529846,-0.0113172638324,-0.184288676577335,-0.2185619517243739,0.2762422905931282,9.985270567654094
4.25,-0.0033666480699996,-0.0068979312077177,-0.1871966381843144,0.2810858138727126,0.0001195741093555,9.73713754921792
4.26,0.000139828262259,-0.0055090840867693,-0.1890384515101964,0.1797044252956804,-0.1898319294109242,9.719422150710292
4.2700000000000005,-0.0004087312403884,-0.0023833914276953,-0.1933679391915852,0.1647425258176927,-0.0275539123060806,9.722181421981803
4.28,0.0013134717230818,-0.0024628112109918,-0.1934719194943959,-0.0255404072205219,0.0453407981517563,9.720072927182828
4.29,-0.0024257388826467,-0.004545414173871,-0.1950495948369557,-0.1687830185215383,0.2724926699891094,9.889303593620316
4.3,-0.0051759311505881,-0.0082438629045552,-0.1969823052461201,-0.1289544166971893,0.3468733621583225,10.064155037981244
4.3100000000000005,-0.0099909851904552,-0.0010815354635069,-0.1921509017522389,0.5584042127104191,0.4627509029547014,9.880455730786126
4.32,-0.0094005951937111,-0.0033389460799605,-0.1932082136447484,0.0388629892482354,-0.1551183077007001,10.031819603731986
4.33,-0.0062529633760616,0.0023013921820938,-0.1959123422677571,0.3405707670408738,-0.2789095118063524,9.674915831592273
4.34,-0.0045135274501553,0.0027036680797724,-0.1959059943730885,0.1599789294140314,-0.0140970796933133,9.716982701502465
4.3500000000000005,-0.0071634986633091,0.0039931032294276,-0.1960479130322987,0.0923694819997389,0.239767137793017,9.695064394744662
4.36,-0.0072870444448761,-0.0001227411274284,-0.1928121109778935,-0.1096057560206116,0.125960588888651,9.82291051630009
4.37,-0.0066260835784088,-0.0005882465269327,-0.1929998805100972,0.0321805702997485,-0.0702770777883712,9.782698641183469
4.38,-0.003390510268293,0.0023466532074321,-0.1928233613545949,0.5668074773597811,-0.5638925169094093,9.476670449928086
4.39,-0.0023873525671219,0.0036172201424054,-0.191051970916515,0.2374979176375622,-0.057977652776432,9.898415493986503
4.4,-0.0016316378331643,0.0047300101320778,-0.1923728992517049,0.1742567535736543,-0.0981127263552198,9.919110267470634
4.41,0.0004224982293459,0.0041631996254833,-0.1937963624770695,0.031463510711528,-0.1192414805675545,9.872805119106276
4.42,-0.0007958594989123,0.0073277317808233,-0.1941208948667104,0.132073175191301,0.0639384368707619,9.722522845694664
4.43,-0.0005666324251212,0.0050131885718974,-0.1973119040305669,-0.2175733155562051,-0.0210039277973226,9.777559626167418
4.44,-0.0030797586099746,0.0003979393100847,-0.1969971170003468,-0.270435186993377,0.1783645959953288,9.839411207064034
4.45,-0.0010682027912122,-0.0035849341078631,-0.1959566434199864,-0.1552482864092494,-0.0157235084517257,9.779243828388994
4.46,-0.0019723513903946,-0.001514079440667,-0.1975246032054478,0.1367103615393595,-0.0529928711493634,9.79245905209005
4.47,0.0013075082617833,0.0003336282271527,-0.1958016862447316,0.1407402049487399,-0.1956158052538554,9.775473309111836
4.48,0.0019538887421374,0.0013844337527431,-0.1934585084493214,0.0762204546350064,-0.0631930281452747,9.859261257651848
4.49,0.0041130593815845,0.0048692841780853,-0.1925163825328404,0.1145161272689564,-0.0353107152400719,9.672999120221926
4.5,0.0018121494245134,0.0020630066460245,-0.1915254702146107,-0.1877735338303582,0.2350871434687221,9.842196812156423
4.51,-0.0003595786986213,-0.0007215101912845,-0.1894258668000752,-0.2113011216874667,0.240150518273717,9.798774814224156
4.5200000000000005,-0.001308860645147,-0.0024947714978754,-0.1918178607995564,-0.1574681315722633,0.0742024585153834,9.769957471544773
4.53,0.0004199308658707,-0.0016065088516745,-0.1929403056676442,0.0442676344309624,-0.0749219707722906,9.7224389575022
4.54,0.0018485386481463,-0.0025456671158857,-0.1903196086461598,0.0494680289248727,0.0212164071854439,9.796440334277142
4.55,0.0017231280090719,0.0011915522770743,-0.190825428562885,0.1689716334118675,0.0637174358275527,9.753550440418294
4.5600000000000005,-0.0015000334518316,-9.2586672731274e-06,-0.1931232323224599,-0.143332923031199,0.1815696793763645,9.899190485681116
4.57,-0.001763466078864,-0.0050747836184646,-0.1954507638986165,-0.3064017165490287,0.0087052372501565,9.954104824511054
4.58,-0.0008439970176204,-0.0055094529400404,-0.1929619123513753,0.0341030002963034,0.0369519233377947,9.7856167770482
4.59,0.0002409861679997,-0.0080006769464167,-0.197467650967365,-0.1043421226142914,-0.171797616182257,9.810671705596413
4.6000000000000005,-0.0018397589341011,-0.0059023498429708,-0.1982551624352986,0.2041188567859589,0.0982275528828387,9.768367169423849
4.61,-0.0019494276884912,-0.0020887860841947,-0.1990888824040944,0.2003030194416015,-0.0285895315430886,9.706957870701595
4.62,-0.0008708005834973,-0.0020407923443138,-0.1968831082160527,0.0420598480837688,0.0165326439735088,9.7861872957922
4.63,-0.0024311167916229,-0.0042871749691757,-0.197620700793987,-0.170237908184571,0.1187243682384567,9.903222628122444
4.64,0.000189748783099,-0.0054655998047998,-0.1972377707536275,-0.051230299037097,-0.0581733213245462,9.814101453849638
4.65,-0.002884913606665,-0.0030167068952647,-0.192871030169254,0.1643543247738448,0.3051455470540707,9.77577113103028
4.66,-0.0021287853715297,-0.0045996978504463,-0.1959179004008824,-0.1120079385525224,-0.0540291466751122,9.826407355456029
4.67,-0.0007469567132899,-0.0064057123592035,-0.1972690482909734,-0.1013453077659596,-0.0681250785560842,9.799795619790704
4.68,-0.0012983006019231,-0.0062053961153305,-0.2005670775945241,-0.0215580935429968,0.0467212452573192,9.796134084270353
4.69,-0.0045994055026398,-0.0059453125570499,-0.2025109191711003,0.0360211178978967,0.2354624354208176,9.9578126635134
4.7,-0.0050267859264122,-0.0045464415726941,-0.2009243478353078,0.1724708542604251,0.1026819495030929,9.881469220136063
4.71,-0.0032672611980899,-0.0027183086644909,-0.200514953332668,0.2064560679926811,-0.0991760018342231,9.831084295512568
4.72,-0.0026449472946762,1.3706688345754574e-05,-0.1979016025836522,0.2697669765889733,0.0117719865303717,9.740254740797068
4.73,-0.002931452643278,-0.0006792453320589,-0.2007049133355672,0.0490238781205235,-0.0466271497299135,9.799593428051928
4.74,-0.0037487826383169,0.0017423149425783,-0.2003119548137242,0.23627029200601,0.0317867579720661,9.70491635455407
4.75,-0.0060228805461009,0.001403789683157,-0.1979154159600789,0.1248687105766068,0.1185014570296879,9.8054981684568
4.76,-0.0047848147291325,-0.0005435647000721,-0.1943439503486211,0.044906414082495,-0.0605751771393686,9.85608228099307
4.7700000000000005,-0.0010625319120806,0.0005562217703802,-0.1945488562161977,0.1165283902881845,-0.2251819903207903,9.742109844040874
4.78,-0.0035089391546311,0.0013984913079106,-0.1949251254375035,0.0663825169834018,0.0843803239338518,9.889312946786523
4.79,0.0013428356865959,-0.0006433079887043,-0.1942087372119481,-0.0564978359066147,-0.2675524977293843,9.869393198169776
4.8,0.0020180185534913,0.0023107706621329,-0.1962762882287556,0.1469270837175111,-0.0490135087185657,9.798403542923122
4.8100000000000005,-0.001234033747439,0.0003938175175533,-0.1948744614894444,-0.0418683793120147,0.232233537388837,9.95095368657212
4.82,-0.0019715666688202,7.81265443089061e-05,-0.1968164553220326,-0.0437771739191806,0.0327850418399459,9.80951942788346
4.83,-0.0014143546108553,0.0023975021446547,-0.1951452900941426,0.1098003350031472,0.0008428003989279,9.69356947959018
4.84,0.0020974604083378,0.0018572775478976,-0.1969825883681828,-0.0978852746897165,-0.2773105298701228,9.741051238125364
4.8500000000000005,0.0027095346555796,0.0022192458397898,-0.1951526363666112,0.0064864921783566,-0.0460745645870123,9.806932068066516
4.86,0.0053099667492637,0.0036408551831354,-0.1944047023828084,0.0721154886522066,-0.1351930313026874,9.763977519488025
4.87,0.0034664353537379,0.0009255024907459,-0.19004688759399,-0.0887361271648909,0.2035908997273711,9.918953916907284
4.88,0.0043792494665865,0.0045437974235023,-0.1915309687430913,0.0975679124299937,-0.1219002152004893,9.704886531547023
4.89,0.0023043864447582,0.0032120881802842,-0.1908373643930012,-0.088193799662107,0.067747067801505,9.840268026283814
4.9,0.0075196994676815,0.0022581790400486,-0.1857787926967198,0.0222770298205419,-0.1398568475145645,9.701080546614811
4.91,0.0043229628856504,0.0020014205230518,-0.1886167188460881,-0.0572737709589089,0.1309726080029648,9.793753792093211
4.92,0.0060250061562439,0.001809831962542,-0.1881116290862614,0.049309604264281,0.0116520105064422,9.75387550654882
4.93,0.0056925361585413,0.0016139071204659,-0.1907077689940984,-0.0038444757093672,-0.0137766120390557,9.797062312188212
4.94,0.0038885965527163,0.0031591229470353,-0.1924299706990773,0.0593874405907773,0.0738220122201607,9.767399620081038
4.95,0.0053694074849364,-0.0025024512739858,-0.1954310347611958,-0.3410663119419064,-0.0007520815884891,9.925844915458
4.96,-0.0007283646714754,-0.0043787951298143,-0.1966041286761815,-0.2193545973876549,0.4512726941542209,9.94897295560255
4.97,-0.0023112761491788,-0.0091252580562325,-0.193673100071674,-0.1297607914112531,0.3076051498045385,9.969454378352554
4.98,-0.004710841320705,-0.0089114937621903,-0.1957912405307347,0.1039949737094791,0.074867309314455,9.880628810709863
4.99,-0.0034000768463714,-0.004572663765438,-0.1980253269250447,0.3688156868937047,-0.1577517371842304,9.688542114684235
5.0,-0.00216413633838,-0.001200011405627,-0.2006222118909413,0.1991195271128474,-0.132628988581504,9.679641036076708
5.01,0.001572728727662,-0.001879848553543,-0.1987368573720509,-0.0140665699697162,-0.0869682638253194,9.710908104237507
5.0200000000000005,-0.0008769986664891,-0.0021010053338008,-0.1959231158073003,-0.0702724109269731,0.2360242128339729,9.80572119256171
5.03,-0.0033163830888107,-0.0088677635356693,-0.1953900118644292,-0.3778339446132938,0.1790358499725811,9.98964669510983
5.04,-0.0029523521883936,-0.007096434530207,-0.195588554936176,0.0305792795110346,-0.0134842786705327,9.777670540676654
5.05,-0.0011891853412059,-0.0064226687258291,-0.1960754950816685,0.0918479064732874,0.0504403496103588,9.895478019902129
5.0600000000000005,-0.0055165729145453,-0.0033973727724563,-0.1992718239600713,0.2896765142527094,0.346604483476504,9.955276310740148
5.07,-0.0095808014558675,-0.0012329249922957,-0.1990195473010594,0.3115196880521704,0.30973558740473,9.971772272195349
5.08,-0.0098093865614728,0.0031149358545734,-0.2018087764556462,0.2937715289977226,-0.1100564122434682,9.754497115564304
5.09,-0.0038703213479532,0.00224973291916,-0.2016466816241795,0.0620113483591702,-0.2431691199735283,9.656469025643805
5.1000000000000005,-0.004232668213963,0.0011037653737732,-0.2053552230174596,-0.0609604593804645,0.0657614617865404,9.705586848658434
5.11,-0.0082434011679393,-0.0011011625239321,-0.2063636292989308,-0.0188643544073617,0.3157636222240573,9.826740732131418
5.12,-0.0101836399544609,-0.0002119426245138,-0.2075092007691914,0.2008849091002165,0.1273523220963754,9.799241932321724
5.13,-0.0105712643715241,0.0034902694032883,-0.2038494904811436,0.4373895549436807,0.027668731707638,9.802147142484738
5.14,-0.0068766314227384,0.0068520333267367,-0.2039001693303639,0.2924968956140568,-0.4441779137768484,9.841226440447873
5.15,0.0022920116308859,0.0064954616933134,-0.1985226382787282,0.1737136905681399,-0.513595733520011,9.843306950116366
5.16,0.0039267044120188,0.0052640983313112,-0.1967337836797291,0.0290656547297221,-0.0690274306942921,9.910386967312208
5.17,0.0012409955481971,0.0049777663235234,-0.1964185794169957,-0.0434240380381073,0.2384229381498878,9.822312173778313
5.18,-0.0003733873752076,0.0038686420692579,-0.1954324801738316,-0.0732259340531593,0.1638092645839663,9.740982316392431
5.19,-0.0038474137898414,0.0005639573963315,-0.1982581575686986,-0.460226954521553,0.2294044915316915,9.925313033782428
5.2,-0.0008871410213319,0.0004377074800545,-0.1978659143025929,-0.024868067233201,-0.1382461557209635,9.678752129799005
5.21,-0.0014481649930983,-0.0005211399593392,-0.1984313686664159,-0.0012430608620251,-0.0069016861589598,9.854966683894803
5.22,7.323992497548295e-05,0.0036801919940946,-0.2000824471290166,0.2598014305124556,-0.1120459245118282,9.751156990139853
5.23,0.0009332812373881,0.0052762138796091,-0.1985710223491246,0.1341920776541595,0.0235793228597289,9.849081456793389
5.24,0.0032675508598483,0.0030661324652494,-0.1984004189546162,-0.1401790625324496,-0.096711423738636,9.83824898727242
5.25,0.0068230043957625,0.0056405507925157,-0.1963593771035725,0.1051954424672344,-0.044189840848599,9.62949771382204
5.26,0.0031763304990585,0.0011767294778897,-0.2000780065829808,-0.3346479312202012,0.1646883388323192,9.873931945480749
5.2700000000000005,0.0016186355093421,-0.0012767099261837,-0.1952175458247716,-0.0845979505854393,0.2245168131176905,9.790538475481762
5.28,0.0008208652319944,-0.0020004989571639,-0.1973171343381459,-0.1088517147524915,-0.0050507514710927,9.78430241546301
5.29,0.002319846171755,-0.0017911099730542,-0.1938451935823018,0.018453398612782,0.0466489786686526,9.7564509532149
5.3,0.0011226008550496,-0.0022753988236189,-0.1942199279840047,-0.0734549607712829,0.0856216407943936,9.860475055335952
5.3100000000000005,0.0013295546125728,-0.0055762739908371,-0.1960765977675969,-0.1979812153085779,0.0074821959107541,9.912309809731578
5.32,-0.0005789539172837,-0.0081234311628264,-0.1972206195170933,-0.0879062836885924,0.1100736257215388,9.928309400883927
5.33,-0.0003427708020554,-0.0042632998628053,-0.1986980845506245,0.1859089075019715,-0.0091853954909312,9.67364491709201
5.34,-0.0015849288408682,-0.008351789936616,-0.1998812069470937,-0.16645375938991,0.0497681241983754,9.88837031177224
5.3500000000000005,-0.001656689837318,-0.0079233575283288,-0.2031837513024861,0.0332114267330618,-0.0191795885301191,9.749697862322906
5.36,-0.0018860953595573,-0.0048334843183854,-0.2031327148253972,0.1782150405711208,0.0619027610331356,9.713224230224649
5.37,0.0011494141275647,-0.0049189309303758,-0.2024140616233403,0.0521000769854328,-0.0850892716899496,9.752865972341509
5.38,-0.0018220650105031,-0.0080145740284313,-0.2036844452197606,-0.1101689705895973,0.1632898762867329,9.955713193401822
5.39,-0.0004611324972939,-0.0049446017557704,-0.2033103962714726,0.2079521196702089,-0.0192213024081023,9.750897220006172
5.4,-0.0006397203749575,-0.0062853814727112,-0.198523010807758,0.0547403648712712,0.1264474019531548,9.86291093047189
5.41,-0.0018435747789892,-0.0039343898157985,-0.199537392454868,0.1496643546100279,0.072077377082337,9.794762018479888
5.42,-0.0008209067976913,-0.0039374015604006,-0.1979902644927556,0.1190507217465979,0.0688194482779155,9.842612127154712
5.43,-0.0051449654190447,-0.0049802444909708,-0.1998193671281392,-0.0065397859727314,0.2425473774651517,9.959695427079266
5.44,-0.0059881469771148,-0.0038206064665213,-0.1961373050983006,0.2048962067278165,0.1716612682666366,9.843206015762153
5.45,-0.0031325726166386,-0.0044777482467218,-0.1994245012576634,0.0182750813089085,-0.1684765815193606,9.79004721538973
5.46,-0.0040179260955571,1.7906336633120164e-05,-0.1995597441966588,0.3239138676217197,0.0996502735604546,9.708431970814669
5.47,-0.0023990868641455,-0.0017857457996407,-0.2008207847650105,-0.0251566339414593,-0.0259074871329945,9.780898076679684
5.48,-0.0068794766409368,-0.0006833070616947,-0.2041339834506566,0.0868836414607224,0.1913988702495314,9.82025127947195
5.49,-0.004773276164294,-0.0014875453148452,-0.2019901533896977,0.0802807225886702,-0.0375391822719164,9.783404787016964
5.5,-0.0044190624395523,-0.0021336365762598,-0.2023447712237889,0.0554264300167569,-0.0414403539429873,9.822051607111668
5.51,-0.0061771558901328,-0.001267315756694,-0.2033766766364629,0.1364535692493628,0.0240082895730328,9.851086066894789
5.5200000000000005,-0.0027707102222231,0.0040639419678859,-0.2029047419602925,0.3291390355733389,-0.1778853874079777,9.631787718597677
5.53,-0.0031092643399477,-0.0015196324125166,-0.2005827089126164,-0.2066845599526785,0.0099504691312223,9.997772273689463
5.54,0.0003460243371844,-0.0002795316124045,-0.1974683364207799,0.0926425514345164,-0.1497944113989704,9.743116825261549
5.55,-0.0008910182714879,-0.0015215282868989,-0.1974330057675893,-0.0655618887854505,0.015321337005205,9.90330099630258
5.5600000000000005,-0.0001231801606597,-0.0005450934360366,-0.1963567097957188,0.0618246874111105,0.0132582581777529,9.80372184505231
5.57,0.0001416277627192,-0.001937610525178,-0.195201899605518,-0.048233402957609,0.0571321213809663,9.868272991650707
5.58,0.0012441405710702,0.0029798526322648,-0.1976513524825627,0.2109491996069334,-0.0955197271661559,9.69447012781435
5.59,0.0009905160403638,0.0018887700773499,-0.1970377226646001,-0.0154418159281728,0.0477654827727305,9.863307322775798
5.6000000000000005,0.0027308347620764,0.0024595876565305,-0.198080848651653,0.0077969273403835,-0.1321568973973376,9.790103783689512
5.61,0.004966462871816,0.005564126657817,-0.198331143456226,0.0913308967389385,-0.0722639045863005,9.668101166637442
5.62,0.0052620778412612,0.0014730818558513,-0.2011139353091771,-0.2730410625153133,-0.0521791283260948,9.863452007850526
5.63,0.0029729969884184,-0.002264644821101,-0.198622476058727,-0.1983697486434802,0.1705125488370122,9.873127621759384
5.64,0.0049429987607397,-0.0004383134053522,-0.2003107627208287,0.0494978866339082,-0.1394380976913932,9.70624863372099
5.65,0.0084137398750926,0.0006515291321437,-0.1986414899404103,0.1072366898995211,-0.1361597528076991,9.695685379492089
5.66,0.0062612160725189,-0.0009860933566384,-0.1950107624108845,0.0051461888140643,0.1836017861435263,9.858716425360091
5.67,0.0052515429952488,0.0040017197083644,-0.1951035519416386,0.2987006687962449,0.014556392989631,9.70643440794559
5.68,0.0065823574705839,0.0028919103654492,-0.1943629791314656,-0.0104343652233662,-0.0559462191319335,9.802874330136929
5.69,0.006168502032448,0.0032053291159283,-0.1926105876739079,0.0660228570578829,0.0769765410429867,9.776715532740646
5.7,0.0060344743468176,-0.0006091088991968,-0.1934223880345875,-0.1574928608657142,0.0883314189293599,9.854773489556289
5.71,0.0062277574330458,-0.0011824326587139,-0.197726171212917,-0.1209413925001554,0.0735978727171192,9.78475440938134
5.72,-0.0003871998793508,-0.0063090890157462,-0.1988467981393391,-0.3355914234239405,0.504447845990602,10.049508291527012
5.73,-0.0056814013128539,-0.0077335544230064,-0.2004113455588872,-0.1055336281347069,0.3784594159930897,9.96078491900726
5.74,-0.0046321694875494,-0.008380701618846,-0.2016891350324208,0.0562886411444258,-0.0621662203560293,9.865955267518007
5.75,-0.0027495796854446,-0.0065058176206472,-0.2037901987607533,0.2135871064767261,-0.1059678899854986,9.745487551657472
5.76,-0.0019110627280639,-0.0066733235394995,-0.2031554241950566,0.1054441050981832,-0.0007039989330624,9.773846121282071
5.7700000000000005,0.0008125324119829,-0.0039580674648054,-0.2033208419854695,0.1620051493613689,-0.0489769532275171,9.631449122731787
5.78,-0.0017897766161766,-0.0058295999130831,-0.2075371106441075,-0.1897737100143076,0.055708309552027,9.864469109246246
5.79,0.0021832117020609,-0.0074435360019584,-0.2016220649058873,-0.0585147981112334,-0.0362804848333837,9.798181775691466
5.8,-0.0060938980240159,-0.007041785872983,-0.2037421872193867,0.0596723275591317,0.5423619539364498,10.086823440171171
5.8100000000000005,-0.0068836916659731,-0.0038951220994796,-0.198225747543102,0.4039105071486123,0.273443278973292,9.925920665458914
5.82,-0.0093628303733867,0.0002875760462891,-0.1994678040320927,0.3957103242835239,0.0654188491473302,9.884648237613602
5.83,-0.004289712120748,0.0046760902117782,-0.2040897270019109,0.2745830321042171,-0.4017817200979133,9.6425212776409
5.84,-7.470942450425302e-05,0.0009266341969848,-0.2029843886668736,-0.2114204240979074,-0.2386964552475926,9.742069161488422
5.8500000000000005,-0.0062537098771402,0.0040735756393712,-0.2075144012744481,0.1074086567018428,0.3235923555864349,9.678300922176325
5.86,-0.0090433567357057,0.0023209239251499,-0.2087492008979375,-0.137084022300477,0.3546298934303923,9.879047415959857
5.87,-0.0091990236794285,0.0009549913417673,-0.2070837130124623,0.0901394093759102,0.0742322288258604,9.84925700899728
5.88,-0.007378945691867,0.0024086337826337,-0.2105888982589299,0.1991472239145668,-0.2678095028174416,9.869459233893204
5.89,-0.0044833579927071,0.0056137922978376,-0.2084979077155644,0.3322637731320682,-0.2847024891277146,9.86959212274469
5.9,0.0009342084429922,0.0080121997907364,-0.2064955492789799,0.2547457794474928,-0.3184973040326455,9.83218004748626
5.91,0.0001345094353399,0.008195097315125,-0.2054173757607991,0.0876696639689419,0.0332142366214063,9.88532787350744
5.92,0.0006523043365278,0.0091895071923185,-0.2056849112088734,0.0119599309899043,0.023018014684894,9.72824788735385
5.93,-0.0032676210781076,0.006202651230062,-0.2023720552499348,-0.1745150996528384,0.2968029851009913,9.83410973583607
5.94,-0.0016728017299834,0.0018424825644658,-0.2015915324266011,-0.2793206130130661,-0.1182848453001783,9.784856924905158
5.95,-0.0004837663940069,0.0015457584311624,-0.2001286258275563,-0.0457747083637651,-0.0903818678579254,9.768755222450036
5.96,0.0036852982487433,0.0008398355973226,-0.200264896946674,-0.039699937133164,-0.209336310546769,9.774704352650522
5.97,0.004310458483622,0.0025276752536988,-0.1985967715556676,0.0968604088803156,0.0513574714656702,9.792074644066718
5.98,0.0034172471282965,0.0021380601379872,-0.2010536154086644,-0.0586440398417936,0.0644416191709777,9.858828799490109
5.99,0.0026019336113047,0.0049362725292761,-0.2014648278529698,0.0520191285970624,0.1325371632207425,9.735390565649867
6.0,4.616646208814018e-06,0.0028675318405777,-0.2026640435035283,-0.1991717704044045,0.1505660430285211,9.843996308620737
6.01,0.0035138981170089,0.0027666733300046,-0.2071347643907124,-0.1564791392235411,-0.1820727689101854,9.647956169869092
6.0200000000000005,0.0005656533473221,0.0005614037787696,-0.2051674385840947,-0.0909015644605922,0.2962425817865897,9.860103221305591
6.03,0.0016920222950285,-0.0026669325407276,-0.2059944530303532,-0.1437981451233328,-0.0159812247434664,9.825847374260231
6.04,-0.0001715918881699,-0.0022528641351544,-0.2049271871621663,0.0078818793249373,0.1892964297532783,9.833553132955911
6.05,-0.0010767582153212,-0.0061005560795618,-0.2039105405385548,-0.2287491841909159,0.1333313535230557,9.945680296186318
6.0600000000000005,-0.00198554476006,-0.0072970304653664,-0.2037767728145177,-0.1303476705935793,0.0897585003095194,9.859787485458602
6.07,-0.0041151638185223,-0.0067522417470109,-0.2019219507749135,0.0547789294447289,0.1689075115634641,9.813827064614806
6.08,-0.0038343095887034,-0.0075184037622974,-0.2009478320653493,-0.0098509085536052,0.0265748414202801,9.782848633450929
6.09,-0.0002186560471393,-0.0078223964826431,-0.2018865307147557,0.0073881709251303,-0.1827444141402414,9.705914233967455
6.1000000000000005,0.0018248552599497,-0.0089176701799151,-0.2077893127973134,-0.1311803103242009,-0.2048585836661987,9.730684669125331
6.11,0.0041495511437696,-0.0067938033688044,-0.2058212270314748,0.125645323072179,-8.821279870746945e-05,9.689078853478318
6.12,0.0020719007109324,-0.0076131776356215,-0.2065439482505376,-0.026968064315243,0.1248541381029775,9.85881411854453
6.13,0.0002304052321092,-0.0105211809164264,-0.2099063803727681,-0.1681090305504423,0.0499182357208428,9.952449522313955
6.140000000000001,-0.0037272604597459,-0.006510069839919,-0.2087850679929311,0.2927183090120134,0.2776870966897294,9.82510725682434
6.15,-0.0005833341526043,-0.0078191909067248,-0.2149478008325154,-0.1138249731164349,-0.265488696025318,9.811172298080905
6.16,-0.0011386254185722,-0.0053337231637505,-0.2132725377852971,0.2399352469299183,0.115712754717868,9.78219041698014
6.17,-0.0022214923722376,-0.0056055562793633,-0.2153804113442952,0.0741541148831539,0.1220809226854005,9.902102371965416
6.18,-0.0059294734473448,-0.0031968943439141,-0.214678492146259,0.2580277644159302,0.2321721881859228,9.91507704426738
6.19,-0.0063480710072519,-0.0008427846307478,-0.2141544034059102,0.2126996304779199,-0.0192586898715961,9.888450743229605
6.2,-0.006020657928019,0.0019239251979071,-0.2150938471133763,0.3007439740943886,-0.1776054983602537,9.660979511151613
6.21,0.000163557209317,0.0021199233101139,-0.2132561912114674,0.0973059050796003,-0.4686776326498691,9.615713244457607
6.22,-0.0002615559776149,-7.493993223529789e-05,-0.2141409327561909,-0.0985956833617372,0.0423842209803059,9.804431123912329
6.23,0.0005746492436188,-0.0025604825415307,-0.2124273141200597,-0.033199816108735,0.064958630070404,9.815313586044027
6.24,-0.0032542784680034,0.0021600337544494,-0.2113831003482396,0.3245423315411332,0.2355523061290296,9.719165539278356
6.25,-0.0039540398464209,0.0009522944126187,-0.2126124312455708,0.0207433118878605,0.0153730353068412,9.87409320204684
6.26,-0.003934525158315,0.0021853113036579,-0.2127283324773366,0.1550763187836977,-0.0270869187282676,9.83949920486816
6.2700000000000005,-0.0007715497500625,0.0028105635730288,-0.2125699480350072,0.0383045699070111,-0.1873692628826558,9.82190531037907
6.28,-0.0009264026238457,0.0023243229055334,-0.2115514685685689,0.0089416771321951,-0.0002625413600041,9.894319624834724
6.29,0.0019937701846571,-0.0002380289030218,-0.2108760585362965,-0.3092662779064171,-0.2816300232408909,9.884403937186065
6.3,0.0016795193765102,0.000371226008163,-0.2125449736888463,0.0082748416608235,0.03315111592505,9.801588100939142
6.3100000000000005,-0.0002576899811819,0.0014975463240336,-0.209313314157253,0.0958002035993048,0.2764644434745258,9.755606815986535
6.32,-0.00015882721341,0.0004574229504682,-0.2067916949565465,-0.0867447898576462,0.0424444561311495,9.766868104002828
6.33,0.0016245760394527,9.35930149367961e-05,-0.2025284429366643,0.0233942831741658,-0.0621616947423112,9.774202178192525
6.34,0.0017599619674152,0.0005206378366095,-0.2052229007060582,-0.0494908017998241,-0.1200458630358689,9.816248293375365
6.3500000000000005,0.0062446469246914,0.0019925675805751,-0.2051182498509938,0.0869778860839661,-0.2330302884656989,9.770102264085892
6.36,0.0041784762919763,0.0026326819894218,-0.2017703016574437,0.0708550897746038,0.1949699183529493,9.844720642439878
6.37,0.0038818111077157,0.0029190936275343,-0.2030421306664998,-0.0004294806121586,0.0218164069477964,9.800288281339451
6.38,0.0031617129848121,0.0006279606505228,-0.2046965916926915,-0.1215829587199213,0.0436809439000724,9.832823460211625
6.390000000000001,0.0035361073086854,0.0043677919833523,-0.2070274909312779,0.1577628833032955,-0.0414689947965541,9.6693192171
6.4,0.0035908052881046,-0.0023034565156497,-0.2084643801028783,-0.3277143682956432,-0.0376573275397591,9.96852559554712
6.41,0.0036088781731269,0.00011381892337,-0.2068546076591069,0.2162986266234821,0.0311870295892061,9.69959742879294
6.42,0.004243865299939,0.0031897793036389,-0.2092466463620717,0.1953972906430488,-0.1167712540148201,9.70414907160854
6.43,0.0056945968932946,0.0011937670234271,-0.2118588795239979,-0.0820306783763213,-0.1043646618888022,9.815272176099446
6.44,0.0054106414959083,-0.0022154134725339,-0.2113947083528096,-0.2262578845536746,0.184956894449487,9.895849858335268
6.45,-0.0011037608600607,-0.0053842708368024,-0.210836585360294,-0.1989865878138864,0.4347723768158043,10.012299341700867
6.46,-0.0046736310819515,-0.0086270807876771,-0.2059296627814824,-0.0051335437922275,0.3286319733142671,10.006384028824636
6.47,0.0004102004315369,-0.0070116435881139,-0.2062995394046361,0.2360753624133314,-0.2847038613160271,9.71558593663472
6.48,0.0026347107948852,-0.0022525444915889,-0.2100755234534795,0.3089459120320312,-0.2316603725399713,9.62049296188362
6.49,0.0016887139845019,-0.0004658851145616,-0.2123401423270756,0.1393706801677321,0.0445812063581268,9.721096401320692
6.5,-0.0003386850650738,-0.0018158939873683,-0.2131213506038243,-0.1291905036335948,0.1467123166816493,9.81893181255341
6.51,0.0039912679706105,-0.0068769629784945,-0.214012022810703,-0.3744478805730216,-0.118850990994367,9.856049434989554
6.5200000000000005,-0.0047031020346845,-0.0094362204379677,-0.2148353417689854,-0.1281200686700006,0.6305126087066979,10.105750959108098
6.53,-0.0087895099629173,-0.008171877998864,-0.2105102946336323,0.2759470380457952,0.3952419625531812,10.005224400527002
6.54,-0.0095666960869153,-0.0042247741039881,-0.2110083659465367,0.4439577301801472,-0.0690679136997819,9.87585775468712
6.55,-0.0050101218791878,0.0004076471836538,-0.2128076513583714,0.4172999453220924,-0.336918203462309,9.659442357133278
6.5600000000000005,-0.0039427160103015,0.0028382335993108,-0.2145641555364186,0.2759517035238238,-0.0475918043850105,9.68815744318206
6.57,-0.004463463489341,0.0071719695237726,-0.2152312954242284,0.2525467102100409,0.1823902114831881,9.584261987296989
6.58,-0.0059880077180523,0.0058210620603378,-0.2148743828113133,-0.0516781887342955,0.2004956686241472,9.760650524667074
6.59,-0.011011697704857,-0.0011808627933197,-0.215015571313625,-0.3079452621787222,0.2553887528580173,10.03028839054715
6.6000000000000005,-0.0082898955542207,0.0011685874644349,-0.2122566511209065,0.235231022707301,-0.1036393023367813,9.759788388555336
6.61,-0.0068360937590846,0.0014173394328367,-0.2101586570317799,0.162862767112677,-0.0449091836178444,9.856951111655322
6.62,-0.0067969909459194,0.0046371351827569,-0.2096855451638753,0.2523688672395037,-0.0119631129392628,9.803101805207186
6.63,-0.0036931681737717,0.0054883261517634,-0.2120507021720463,0.0740433115467248,-0.2433760459787261,9.84218618045832
6.640000000000001,-0.0019587290738908,0.0048556321065732,-0.2130110820109898,-0.0412608790269409,-0.1371699607164495,9.846673003965806
6.65,-0.0021895734970956,0.003034826011434,-0.2147328664834553,-0.1483665017567997,0.0183596185528382,9.860198180488508
6.66,-0.0011702444368617,0.0046161473927924,-0.2116885741527135,0.0492912404375989,0.1525349095894793,9.700833701421622
6.67,-0.0046795099877035,0.0008234037296187,-0.2139181901986653,-0.2860250073623032,0.2329929427784235,9.86662494424488
6.68,-0.0029996082629953,-0.000753148171103,-0.2122261633451039,-0.1240056410906081,0.010345283369552,9.744830860649518
6.69,-0.0055797708223104,-0.0017349273362819,-0.2153221925075108,-0.1026180077895061,0.0838235021144908,9.834870040383832
6.7,-0.0034767313502512,-0.0020643677741196,-0.2100956698234135,0.1355886535070778,-0.0439406698167511,9.83178479535749
6.71,0.0009515197053046,0.0003079919301468,-0.2096452375228459,0.1658267454721732,-0.2480899058817146,9.736561376933484
6.72,0.0021883596546877,0.0027092235078603,-0.2055448402936513,0.2193222551709547,0.0164038872514566,9.782162547565749
6.73,0.0029517829224438,0.0030629977268672,-0.2063536306197697,-0.0210994427317871,-0.0252963045286587,9.757899807092226
6.74,0.004070439937741,0.0005802458184782,-0.205337729054218,-0.1677820809637915,0.0539642674053473,9.775733405095448
6.75,-0.0003398114954391,-0.0008304153336237,-0.2042342682654912,-0.0486138560116491,0.3584905117891863,9.8391939355029
6.76,0.0021726835840126,-0.0024490375222927,-0.201903696852451,-0.0464331177210547,0.0126294740861099,9.71474934147531
6.7700000000000005,0.0010119157003648,-0.0016068485086498,-0.2030995150382573,0.0826384774336296,0.0609675529347239,9.80438664828196
6.78,-0.0008825138645997,-0.002560123658101,-0.2064649422938878,-0.1106087387617641,0.1047261582424126,9.875741139318508
6.79,0.0004106526934573,-0.0050330806749344,-0.2090842684085423,-0.1411642214467526,-0.0250592297279502,9.877226322276664
6.8,-0.0016615105806739,-0.0074903470262939,-0.2096526583011204,-0.0917505339625294,0.1873034576527572,9.933976071672918
6.8100000000000005,-0.0042403431814411,-0.0054124365338955,-0.2082862367208058,0.1506496354907184,0.2098222486181569,9.786386384374616
6.82,0.002395347737375,-0.0042263942950474,-0.2114977945859486,0.0990384464676279,-0.3410341632224266,9.639314958276424
6.83,0.001030018950333,-0.0040080390959023,-0.2125815858418996,0.0535335438378298,0.0747928417966751,9.7763641674539
6.84,8.603836340688346e-05,-0.0028016870134964,-0.2117518742854649,0.1134602274698383,0.0657412548567888,9.754842632415702
6.8500000000000005,0.0022994152508542,-0.0066926196149125,-0.2132521380956227,-0.2005750919955166,-0.1220238087360474,9.828398422420507
6.86,0.0023687678622322,-0.0061835207930282,-0.2092719783361012,0.1087282755448552,0.155335925381866,9.808244996922529
6.87,-0.0005698527918896,-0.0072272301353296,-0.2048299421842152,0.0620537372164156,0.3386150531673621,9.919407700155707
6.88,0.0007377776447202,-0.0062586027590376,-0.2100263347203786,-0.0042573172763665,-0.0920802739335213,9.776634890089342
6.890000000000001,-0.0021418855428998,-0.0059765761225654,-0.2079528828437382,0.1045764889170731,0.3014145801759368,9.872603437621889
6.9,-0.0035432243094897,-0.0031097808293071,-0.2105616440351063,0.2192231447948958,0.2452536860945955,9.816336892502283
6.91,-0.0066719343791829,0.0011393729090455,-0.2116110732133443,0.3351149771447876,0.2892453518050825,9.830067779290854
6.92,-0.0095746914468566,-0.0014337553760731,-0.2120313753659779,0.0034808876222366,0.1448002495058106,9.990271692363583
6.93,-0.0061739955176042,0.0001631685433289,-0.2119474818284566,0.1611212210522936,-0.2235553061168179,9.759352400509002
6.94,-0.0027748918018471,-0.0002575389116095,-0.212073426442867,0.0584889084499244,-0.1491119547325969,9.753839644895264
6.95,-0.0008408661712232,0.0014845188333333,-0.2142455985124165,0.1154428203049256,-0.0540865694536873,9.680861942282323
6.96,-0.004530491656654,0.0009235732230573,-0.2113100846583897,0.1505674608640615,0.2878161731798727,9.875562424495998
6.97,-0.0055982517435806,0.001858313246434,-0.2114743699605519,0.1151812097719348,0.0225708877803775,9.794205266696617
6.98,-0.0053471338992122,0.0017768010686075,-0.2104379941995198,0.1246284961912914,-0.0965337065584801,9.829588554072132
6.99,-0.0027170305951849,0.0035600770396868,-0.2073117603833729,0.1758266851989314,-0.0957049330568075,9.740092311809637
7.0,0.0013986100349159,0.0040945725894987,-0.2070166726882512,0.0617021170877404,-0.2098643553394091,9.75453122934979
7.01,0.000657537337948,0.0051033769075163,-0.2032947500522191,0.1110408772817981,0.1592479605032341,9.860296963181533
7.0200000000000005,-0.0014480040598085,0.005361662926134,-0.2026308735187108,0.0259323471222104,0.1704289898726863,9.892912395923233
7.03,0.0001822394183028,0.0013761705485822,-0.2050594796712453,-0.2296241796274454,-0.0672062904849396,9.925367693244253
7.04,0.0020952065341686,0.0004811222437087,-0.2022177835280949,-0.0557773754458301,0.0789538218487636,9.768530013331397
7.05,-1.9824576684424665e-05,0.0010471535373791,-0.2045572509343678,-0.0668511721507471,0.1040336182623151,9.768066012850324
7.0600000000000005,-0.0025245857258435,-0.0006006462150386,-0.2079189379985387,-0.0700065932287379,0.0823678211168263,9.750687113609374
7.07,-0.0020659254713762,-0.0026444067183648,-0.2065118809516484,-0.623564656070622,0.1686071180884191,10.131444549442604
7.08,0.004245497819037,-0.0023920125539626,-0.2052773644502217,0.0464456201712066,-0.4650375244871478,9.67885420553001
7.09,0.0056543071607903,0.0019907666988413,-0.2047293444449956,0.955511533897997,-0.3067628422712323,9.294194413325457
7.1000000000000005,0.0079307000183382,0.0010364888724195,-0.2046433200414235,-0.2640475080239127,-0.7636707201447098,9.803477630832395
7.11,0.0048150964591391,0.0018607362408504,-0.1969210763747746,0.1506524046817627,0.3049136251818067,9.853250603664652
7.12,0.0063473881756333,0.0019651268992083,-0.1960888912255818,0.0063548937851437,-0.0688462797754642,9.753265692466078
7.13,0.0045782057075403,0.0015124749860415,-0.1962595393235738,-0.0486884516786946,0.093159978395643,9.775744654985282
7.140000000000001,0.0072727751581247,-0.0019679792606641,-0.1987126578862721,-0.2143073902417877,-0.143678363056262,9.761056298859312
7.15,0.0076940818664332,-0.0028922302618402,-0.1968316992099339,0.0555636096240393,0.0943241456429277,9.76471595202581
7.16,0.0047578317487106,-0.0025212185810742,-0.2022770156438405,-0.0642194219171066,0.124568259273321,9.798082798387448
7.17,0.0003790131863175,-0.0037039310572554,-0.2029412498052174,-0.1274427466804437,0.3636251817444255,9.92527002562754
7.18,0.0005551073642453,-0.0085942368606722,-0.2038088699157292,-0.2390982640777,0.1159864700609141,9.978943816191048
7.19,-0.0039887460618332,-0.0084307952870917,-0.2059579749877507,0.0746753861753468,0.2129552421570703,9.939862680644488
7.2,-0.0022778986125749,-0.0083292765865709,-0.2083108683402592,0.1486427011015641,-0.1332365888330206,9.797643936316607
7.21,-0.0012653724204451,-0.0040853414681631,-0.2065320124204213,0.3841028308298596,0.0078460614212991,9.651611182081105
7.22,-0.000926475678555,-0.0006648941515636,-0.2084363659198338,0.2326567756120587,-0.0625961813894024,9.654140719492483
7.23,-0.0020670531325227,-0.0008660790942434,-0.206181075173145,0.0445056478842123,0.1837362787254039,9.807907164505163
7.24,-0.0062398891875525,8.924091382355312e-05,-0.2069644590194279,0.1262998228204042,0.3386389732688881,9.943819150632091
7.25,-0.0114084843520457,-0.0010340568494468,-0.2017755915696675,0.0790185410963017,0.3613874282465521,10.061546744573027
7.26,-0.0073431437534245,0.0002892540610531,-0.1982085665042454,0.1720391992848198,-0.2510274196582455,9.861521053259835
7.2700000000000005,0.0007440476684284,0.0009321179014738,-0.2007984330232197,0.065746760826826,-0.4820500721880585,9.717017320499371
7.28,-0.0005903866784827,-0.0002849811701635,-0.2004992326076085,0.0389354030518735,0.2207327572356739,9.82738749455192
7.29,-0.0054621862322128,0.0035323000443012,-0.2029706348950917,0.2391379386709482,0.3753822064361896,9.708433460898078
7.3,-0.0100433854861701,0.0039685640851126,-0.2059437294776494,0.0176049186621625,0.2931482516935257,9.77048326708014
7.3100000000000005,-0.0082360238361785,-0.000872915015506,-0.2114807178552205,-0.3245727455253042,-0.2374663836486668,9.857014464219308
7.32,-0.0035195467985714,-5.066818317892345e-05,-0.2128776570136601,0.0593167408606035,-0.1997697743416478,9.696642310008022
7.33,-0.0069746322637408,-0.0008335234172649,-0.213582854467159,0.0332923402432322,0.2021977450592583,9.916889080410956
7.34,-0.0076789986718738,0.0032629044504689,-0.2115802427108342,0.3145983809341452,0.141387392506658,9.771726601238091
7.3500000000000005,-0.0118453231557415,0.0025085598278759,-0.2098296989972645,0.1061768835713476,0.2415798500661835,9.927423943699358
7.36,-0.0070761909948206,0.0035034298838556,-0.2092660178716237,0.1064224150277273,-0.3215456207900746,9.724100101368704
7.37,-0.0061923751735553,0.0029727669544289,-0.208173405128246,-0.0428622821930069,-0.1247525874918283,9.81507223320422
7.38,-0.000296699262453,7.940247686495912e-05,-0.2028533627564961,-0.0563724406176117,-0.1872390954564776,9.795606256858523
7.390000000000001,-0.0017087415919086,-0.001247642690275,-0.2028696646268422,-0.1556631347407477,0.1859651061137224,9.945556939450269
7.4,-0.0022360878744373,0.002002059467606,-0.2032746483857686,0.0981192763866505,0.0749373113667853,9.752802517952553
7.41,-0.0027896854141767,-0.000557515274598,-0.2030463029916341,-0.1595246442805236,0.088420714180877,9.878850362986114
7.42,0.0001943476217963,-0.0004960647463217,-0.2027113695914799,-0.0569053123478421,-0.1059974174064404,9.724713767325795
7.43,-0.004581838865587,-0.0011310661902526,-0.2058406283433491,-0.0795800171741758,0.1809639555733468,9.88822590268704
7.44,0.0009817084860655,-0.0012999700879554,-0.207694347697025,-0.0548849105326236,-0.3039173065207173,9.736645871071389
7.45,-0.0003245059926988,0.0021410718850027,-0.2057068904216344,0.2536949582590047,0.1217977043772179,9.76051015785412
7.46,0.0007173922392084,0.0020022831389374,-0.205120112496143,0.0192667169821074,0.00184482273576,9.793282224835837
7.47,0.0022123597917518,-8.129697821471081e-05,-0.2028182407195622,-0.0563218171795902,0.003605982674001,9.79889621257528
7.48,-0.0001425955394642,0.0014218140388161,-0.202763493853336,0.081739909462176,0.1205155027118208,9.747897735706667
7.49,0.0031413414660844,0.0014182248211015,-0.2022389729793126,0.0350894294132296,-0.0858216968435614,9.692953553717524
7.5,-0.00172671401849,-0.0001083688709513,-0.2010509928042943,-0.0211471124441499,0.2461728053029781,9.903907949620574
7.51,-0.0002636165401695,0.0004996618764495,-0.2031528313930089,-0.0234077071758343,-0.0797507307299216,9.731803393826288
7.5200000000000005,-0.0007587702300557,-0.0030841901257986,-0.2041493018443639,-0.203988660695828,0.0654824142596333,9.93547601966929
7.53,-0.002196593477917,-0.0036696933936209,-0.2007358481462056,0.0404147594186633,0.2410637896226924,9.85731211111537
7.54,-0.0011712326096887,-0.0052837577941483,-0.2057191987807805,-0.0985042042861925,-0.1453128122341931,9.856343272132614
7.55,-0.0003580988671119,-0.0062122085733606,-0.2064660747821385,0.0550764702475409,0.0273408032751099,9.799616013905586
7.5600000000000005,-0.0005519082588588,-0.0027574462274378,-0.2088625540311391,0.1937246912952278,-0.0013492417629042,9.688243043043068
7.57,-0.0021049190003274,-0.0049316940287004,-0.2119038661296422,-0.1273965786940159,0.0421755385985996,9.830841746190838
7.58,-0.0015369828618032,-0.0058873044546569,-0.2107744326169545,-0.0261454829838904,0.0730801458010325,9.785505430242912
7.59,-0.0018770555644324,-0.0059631089610476,-0.2113197406108433,0.0474165592605311,0.0590738731265465,9.83706055661753
7.6000000000000005,-0.0032876547784911,-0.0045818672624596,-0.2123773803288991,0.0918571379506784,0.086686062175524,9.819588049704697
7.61,-0.0007159873163135,-0.0039201804290907,-0.2144113739306981,0.084769768639164,-0.1640393676630714,9.777291754496709
7.62,-0.0027797913641199,-0.003902355734889,-0.214904259639507,0.0518087990669204,0.0705351344167826,9.841886367788891
7.63,-0.0005022022753979,-0.0063283937752421,-0.2125628997857625,-0.0372028079149145,-0.0419664869073746,9.839436002735058
7.640000000000001,-0.0059385746630819,-0.0023700208425506,-0.2108518739516789,0.3299788227218772,0.4126611778475066,9.877828761967528
7.65,-0.0088762507208325,-0.0007385297772712,-0.2073855509336049,0.238436863692931,0.3118909874700579,9.903669276592804
7.66,-0.007288818897681,0.0001595035082662,-0.2068646957452351,0.1389506877341696,-0.1175987003444146,9.863140929789267
7.67,-0.0033013829672545,-0.0001840946970674,-0.2061729093368108,0.0633856826046268,-0.2317469077500788,9.809215634834189
7.68,-0.0036272720557429,0.0002526114886974,-0.2065823485429341,0.090077084758739,0.0491567663582008,9.77402218467262
7.69,-0.0066697906692267,0.000510777441487,-0.2088149001176411,0.0904834003907945,0.2064513612763061,9.7886332044004
7.7,-0.005096665307697,0.0027937957401837,-0.2090018947894627,0.2105766844116659,0.0204151736765267,9.68200109088637
7.71,-0.007702405601478,0.0043155554770451,-0.2090741505200917,0.162794148995357,0.1331776065607803,9.799851544383046
7.72,-0.0061078818920519,0.0036851609616748,-0.2118890543754155,0.0292316974836705,-0.1716527288860776,9.803710613008288
7.73,-0.0019576847040057,0.0049403466077156,-0.2134990354354436,0.1065040236620665,-0.2352342400673686,9.753039062837084
7.74,-0.0057781200478536,0.0043575879114731,-0.2128191550548131,0.0834297436654293,0.1906659833947624,9.938785896471254
7.75,-0.0040171776013107,0.0059178107508574,-0.2141926993901784,0.1291901423316721,-0.1997753414435738,9.835831217064614
7.76,-0.0025178219423079,0.005257951730657,-0.2102710862929875,0.0696100535647105,-0.061425430752533,9.871539650154268
7.7700000000000005,0.001471792050705,0.0037993682075878,-0.2079383095080907,-0.064533002112945,-0.2201560282879929,9.812608244182483
7.78,0.0022338714639995,0.003873330746436,-0.2046257515723759,0.0075952504994145,0.0398074790251895,9.752769788249005
7.79,0.0012987850471138,0.0007654687448477,-0.2027765770728642,-0.2158895268114612,0.1586212621386041,9.809811919686668
7.8,-0.0006276790964645,0.0002603883084735,-0.2043560703570897,-0.0920653862109802,0.1164019701807194,9.769487195208796
7.8100000000000005,0.0010600179383523,0.0018993982821702,-0.2018895705516392,0.0836684221462465,0.0281510441241954,9.714705194499077
7.82,0.0016681163080995,0.0018458050756123,-0.2058256973798329,-0.0730174329584923,-0.1416863914230163,9.84941068581952
7.83,0.0020606468689053,0.0045727018519047,-0.204274844127422,0.1412913786611376,0.0215212869768819,9.77396202811758
7.84,0.0037966392071201,0.0012105504734174,-0.2055257668073231,-0.1931643719560646,-0.0719759394933456,9.888977395181428
7.8500000000000005,0.0051226185594889,0.0017410744460736,-0.2051291127975041,0.009532340877375,-0.0312033356112145,9.757730159091532
7.86,0.0047827335612398,-0.0011586261838565,-0.2043016960198933,-0.1507619388859995,0.1006539929646422,9.823110552536544
7.87,0.0056065080994281,0.003166973898359,-0.2023276795918996,0.2594010965575197,0.0373622068136213,9.638425216971456
7.88,0.0059686776115075,0.0020956484247922,-0.2040331174905354,-0.0356114942178739,-0.0609964393800455,9.763639178180364
7.890000000000001,0.0052330569106108,-0.0018656639436007,-0.2042059262569005,-0.1342402403808078,0.0278642950741628,9.888964248344084
7.9,0.0027876598998687,0.0012216910706054,-0.2030421604688222,0.2594677117752618,0.1323102206049698,9.769044733413583
7.91,0.004701024381372,0.0016715119129148,-0.2036736120755727,0.0443804991126223,-0.0670605669341839,9.76342092030606
7.92,0.0023167003776972,-0.0011696703553977,-0.2033555169875676,-0.2068901918182159,0.257247216647345,9.94909291832428
7.930000000000001,-0.0013115199033323,-0.0039269857864587,-0.2044912834937627,-0.2028696700948283,0.321755130734869,9.961889722461075
7.94,-0.0038886510172978,-0.0086889990830194,-0.2076381256158406,-0.2278291048364131,0.1378204934746369,9.999839714580055
7.95,-0.0019847450982482,-0.0068163222627582,-0.2077263404901082,0.2763934093568196,-0.0266782968782544,9.71719845541078
7.96,-0.0008432749341833,-0.0039723047958854,-0.2117295523459965,0.3014379328780652,-0.0399744258714863,9.753969140154306
7.97,-0.0093638498678494,0.0033318094681836,-0.2123189379746968,0.5811986373675005,0.5680680477989876,9.8066868546338
7.98,-0.0055773820958351,0.0048016504983081,-0.214091356592899,0.146656210923583,-0.1795004981344352,9.794740440844484
7.99,-0.0066839472910802,0.0038649591723055,-0.2123937716062123,0.0272542808285287,-0.0013605962025665,9.934133584491311
8.0,-0.0033515484665355,0.0029025550989979,-0.2118595947797353,-0.0389348749875226,-0.1922576721105853,9.79967425217247
8.01,-0.0033100322018992,-0.000256048702134,-0.2146918882901723,-0.0880784879963445,-0.0037989321800763,9.908688934663106
8.02,-0.0084401797320288,0.000609566278163,-0.2189719190175587,0.0856461296628423,0.198561681499094,9.853496255815507
8.03,-0.0096507325416138,-0.0002040428964714,-0.2165188898618275,0.1123545756769195,0.0778199277299361,9.815477639462316
8.040000000000001,-0.0057047789089399,0.0003396220051302,-0.2182544430072362,0.0602741852324058,-0.369583600707586,9.701499877060854
8.05,-0.0054675491513255,0.0040203372735574,-0.2148081173474843,0.2407057826765703,0.0103555314558826,9.683053749067335
8.06,-0.0058168432676029,0.0023362299259426,-0.2147690167005116,-0.0787911417460494,0.0481006397408814,9.833102386794868
8.07,-0.0072086294612795,0.0037563166733786,-0.2138414343173558,0.0904808790817735,0.1767098097967065,9.79137270915607
8.08,-0.0097216717567302,0.0013409954552065,-0.2128393312270695,-0.0499433708184883,0.2245451286633576,9.937847167280776
8.09,-0.0055193208125357,0.0020541985330039,-0.2157066573674733,0.0183527445411396,-0.2214832940304395,9.733594888510051
8.1,-0.005172972068622,0.0027097948980792,-0.217226978140598,0.0455178170758887,-0.0720013553344327,9.82109739905991
8.11,-0.0023646901361396,0.0039330978114982,-0.216430525975948,0.062125126752588,-0.1755330951289507,9.778758898276084
8.120000000000001,-0.0013866471586734,0.0010067095558962,-0.2145026584441716,-0.1072253465242852,0.0060333521361604,9.917774501659224
8.13,-0.0027637556967406,0.001479112991163,-0.2139620741183812,0.0441950834102179,0.1377630824461214,9.858966244169766
8.14,-0.0020144949268825,0.0028388729466919,-0.2150986899907643,0.0050842557025291,-0.0104231912256802,9.739071815566277
8.15,-0.0065388494068586,-0.0002297249392003,-0.2135623802716786,-0.1498043317528775,0.253343767022671,9.906535352123107
8.16,-0.0024445653961711,0.0026722130277171,-0.21428283651424,0.1169109289663406,-0.3113653183885279,9.678038586555257
8.17,-0.0009504020133675,0.0021659211700512,-0.2136738111550862,-0.0007058795739774,-0.1528254039603156,9.81338838402984
8.18,0.0015763498188188,0.0029048769242809,-0.2096109797532613,0.153031313696174,-0.0586866970363474,9.735296664710514
8.19,0.0020930580126016,0.0036248977476889,-0.2088111450250203,0.0402836178934961,0.0010820384918368,9.774352719304554
8.2,-0.0004660164819513,-4.3564681818243335e-06,-0.2104126324231679,-0.2072653239595701,0.0934054723950763,9.901742898273
8.21,0.0023542742061228,-0.0011138904945229,-0.2095946033771092,-0.072161993756576,-0.0891787552358757,9.722682184870347
8.22,0.0033366261397682,0.00200724588956,-0.2138745595986897,0.0524636850253512,-0.1029060036898305,9.698515932867226
8.23,0.0018308981735653,-0.0002414446115137,-0.213590394454723,-0.1231877385031606,0.1658548813345556,9.889328785975684
8.24,0.0012035227472829,-0.0008610604821018,-0.2125967701251561,0.0416862261985203,0.083434863702171,9.82170597994598
8.25,0.0023455008043668,6.830835592127653e-05,-0.216738547878986,0.0282138996493864,-0.1541430615055833,9.76266502342123
8.26,0.0060141668337638,-0.0005999461359342,-0.2181012739713246,-0.0150536195704914,-0.1939405274077923,9.748822987832972
8.27,0.0031923117274196,0.0003999375751948,-0.2173867781932408,0.1294531934105743,0.1865185885210946,9.811217177051264
8.28,0.0033514410457047,-0.0028656236549224,-0.2180058618362004,-0.2318411260660522,0.0797036140087811,9.879663435780952
8.290000000000001,-0.0008067745685281,-0.0013182727031024,-0.2150957097585255,0.0702210377129412,0.2852052714774036,9.843647854926932
8.3,0.0010290507209801,-0.0065952448288593,-0.2168082257087285,-0.3159895804745367,-0.0905408163955317,9.900007752114206
8.31,0.0005543714882841,-0.0059564398273388,-0.2150796612079198,0.0697244905115044,0.1106264934483225,9.795308475234968
8.32,-8.125098682823981e-05,-0.0044434909949149,-0.2131234963710362,0.142628081578118,0.1589293024370186,9.755869653990132
8.33,-0.0004283094445448,-0.0038753027233004,-0.2184414376790578,-0.0198351291482873,-0.0189478198326571,9.788412614867418
8.34,0.0012973524169338,-0.0014193212942055,-0.2180040289933736,0.1626001379711731,0.0403004028518123,9.733293739216515
8.35,0.0001939108927099,-0.0004752573713492,-0.2172743042285496,0.0244839718331385,0.1805321621864096,9.810116454487614
8.36,-0.0025935395574246,-0.003061664555214,-0.2176683952386433,-0.1549981742300595,0.2164429342462013,9.937136538461564
8.370000000000001,-0.0016456276723615,-0.0029779432417211,-0.2167251815373952,0.0536927671963963,0.1815577368902543,9.855853966409716
8.38,-0.0062478507338719,-0.0009126763987392,-0.2180018534238393,0.1703595734493966,0.3515941028782763,9.931565936525136
8.39,-0.0085266263124076,-0.0006858902647633,-0.2181161602313573,0.1351545565061476,0.1426145069859183,9.918169763839488
8.4,-0.0038047570660287,0.0023860265640007,-0.2180659284169728,0.2590745722168704,-0.2840663594489335,9.728646951654737
8.41,-0.0042598332712153,0.0030369350857195,-0.2155524452502782,0.1829563251564416,0.0637692556967229,9.797899122500825
8.42,-0.0034532878601244,0.0047774366255687,-0.2158944119985158,0.0924536970152564,-0.0578636958475463,9.714027186885696
8.43,-0.0026456598779433,0.0067717375397127,-0.213160838680988,0.1789006176557556,0.0190424442449672,9.732156957887552
8.44,-0.0044473803774318,0.006080491173965,-0.2140567709977681,0.0208615057134814,0.0195793934262393,9.883411926038274
8.45,-0.001645527462331,0.005388338740154,-0.2110992034251744,0.1006877427649064,-0.1245321186912459,9.882078401527156
8.46,0.0010875445938267,0.0068932179868685,-0.2138987739856297,0.1042665668696285,-0.2708085478794242,9.81201993840966
8.47,0.0003450382242049,0.0091371772241376,-0.2109952976281697,0.1733756249553011,0.0657060794433666,9.805058347045833
8.48,0.0015940173783659,0.0095214433013811,-0.2106994648749882,0.0018362508204864,-0.0730046345193261,9.779569304512588
8.49,0.0004047073297967,0.0048064985394979,-0.2108253796870763,-0.2742866130802913,0.0816893553336163,9.90111097570034
8.5,0.001888200058028,0.0034682976414642,-0.208828266459232,-0.0457073530639851,0.0762590621568856,9.776217850240023
8.51,0.0002432263556862,0.0056402846693565,-0.2124232610042149,0.012386826374188,-0.0176299760628075,9.752308838737756
8.52,0.0030325130132934,0.0032297070102549,-0.2098236938293034,-0.1287445265006962,-0.0944352761204638,9.847246790488866
8.53,0.0037691996924719,0.0043532877184455,-0.2079118748481328,0.0746937930943013,-0.0260907546199825,9.821778474932026
8.540000000000001,0.0025380504862283,0.0043161987208979,-0.210121687250858,-0.0803305727676636,0.0708220933043338,9.84168429181084
8.55,0.0008529683477128,0.0063496993724969,-0.2064198811824376,0.0960988067536638,0.2037913059680957,9.76622634429661
8.56,0.0022434712459614,0.0045094958022127,-0.2051677962119633,-0.1409917985835312,-0.0316046130916007,9.76192766341602
8.57,0.0035120309571516,0.0048189990804148,-0.2026983906800801,0.0332870481189769,0.0021713540377757,9.712181655166328
8.58,0.0048121300347316,0.001570821336266,-0.2034493197972829,-0.2240672924836442,-0.0376175798183537,9.801338955533344
8.59,0.0045977711158823,0.0054793711342184,-0.1987502833182866,0.2593150132958454,0.1910081165490384,9.674728500847998
8.6,0.0057987643634193,0.0022574173081396,-0.2033554573829228,-0.2096751545041569,-0.130667115501408,9.86634884704683
8.61,0.0051951956683555,0.0024158946780872,-0.2028219660098607,0.0247665927414219,0.0816833893582493,9.817727558213784
8.620000000000001,0.0017585196201104,0.0023486938944289,-0.2051245828445012,-0.0206562970055015,0.1188390551177089,9.863145828239324
8.63,0.0051255004278056,0.0017822980505025,-0.2048548867280537,-0.0124850833575615,-0.1017629031819413,9.741848119476408
8.64,0.0044526698125049,-0.000543871738414,-0.2061572333152348,-0.1454643340259032,0.12905923356679,9.849380954324388
8.65,0.0001992697557866,-0.0037341318805938,-0.2065972348029668,-0.2430461775854855,0.3393781598269835,9.93608774389283
8.66,-0.0032022520167667,-0.0065182044807738,-0.2074085881288106,-0.1468986988347556,0.2292327334862113,9.9568729933241
8.67,-3.245916254232096e-05,-0.0070134138099813,-0.2097908963735158,0.0408651639502095,-0.208071436497027,9.82816064874509
8.68,0.0004624023137207,-0.0045440616801313,-0.2088372369582707,0.2475504540152909,-0.0027193315612931,9.733703703865212
8.69,0.0003210401595527,-0.001488100223532,-0.2056927492196614,0.3265000942076884,0.0783479227576766,9.731534085352305
8.700000000000001,0.0012292052942093,-0.0009224030812737,-0.2087738921220357,0.0647118933222535,0.0298425517955089,9.799402440042073
8.71,-0.0044374061461901,0.0006407664272447,-0.204698782163387,0.227396548004319,0.5086906087170445,9.9396373752974
8.72,-0.0084945638728886,0.0046550241787207,-0.2030931522424275,0.271245629789426,0.2606167276539654,9.89700836862598
8.73,-0.0035854204032388,-0.0019829422679024,-0.2047722001845891,-0.2722643695855966,-0.3228895235676958,9.99937144604881
8.74,-0.0040382441809205,-0.0023061839983266,-0.2069581707294041,0.0868474578740729,0.013329120266898,9.85470448773005
8.75,-0.0050762064995748,0.0008712158466073,-0.2108701278741414,0.2078465310156428,0.1214287735460013,9.698440123676264
8.76,-0.0076178304317479,0.0038252506875165,-0.2118055631692464,0.2912914314757404,0.2155339287180881,9.727193617739236
8.77,-0.0071383389069748,0.0057189283116528,-0.2127654661710316,0.1486404881675764,-0.0075584221243679,9.692410241603076
8.78,-0.0071216032254747,0.0036829054023662,-0.2136455138499791,-0.0437048453009135,-0.0434443123998182,9.842660814838371
8.790000000000001,-0.0045002519485872,0.0029804869864992,-0.2152343203599507,-0.0111710660864397,-0.1360067763496193,9.799406698940034
8.8,-0.0060622853606469,0.0051231436269773,-0.2128143270785863,0.2424808400522955,0.169926612130867,9.820990122747348
8.81,-0.0070322079868913,0.0068744125953684,-0.210962500172382,0.1915568934213855,0.0679106693347979,9.824576054260136
8.82,-0.0065133692078969,0.0058576900487649,-0.2094813992555196,0.0381687970813927,-0.0802060955846579,9.880488436232644
8.83,0.0011222218248039,0.0073693958607096,-0.2052904029662663,0.146923493018978,-0.3689852732127193,9.719525852971229
8.84,-0.0009144550216321,0.0075956636576115,-0.2062317242200429,-0.054372117669825,0.1068353834953938,9.820674093462143
8.85,0.0003768121194969,0.0059485411545049,-0.2045140226657445,-0.09252642221628,0.1391348728634555,9.808392397528085
8.86,-0.0019248702415375,0.0029185012646489,-0.2072692622716481,-0.2701248904586251,0.1600977198434154,9.83656215716348
8.870000000000001,-0.0040783724146147,0.0017695403521287,-0.2076127191360051,-0.1443897456335406,0.1622486171653392,9.84128178961857
8.88,-0.0016830926021975,0.0024311952853003,-0.2082691152865941,-0.001953736593412,-0.1485356036667365,9.782734099562408
8.89,-0.0012780723663481,0.0022629780826624,-0.2068970908696706,0.007713234456792,0.013961731440118,9.854470304238694
8.9,0.0009145685233139,0.0011957804314537,-0.2068650533731038,-0.0131684076466471,-0.0672819905440138,9.827306632867932
8.91,-0.0008430968479234,0.0058109312816767,-0.2076484968240315,0.1907243461504624,0.1231668342014021,9.701246534480314
8.92,0.0008877821825357,0.0076410815913933,-0.2056726624543721,0.1061390163240739,0.0205035334323427,9.684141047243411
8.93,0.0004275318793922,5.141640908020409e-05,-0.2082158436353261,-0.4167513073698303,-0.015103446290943,9.9562451438991
8.94,-0.0002190638533092,0.0018085045568177,-0.2074682076747472,0.0590507218212333,0.0764356004604211,9.70053882874942
8.950000000000001,0.0005776078549448,0.0025602243854531,-0.2050038983399922,0.1006894614171693,0.0011742259625916,9.754014498928358
8.96,-0.0009023358306911,0.0034949842698216,-0.2072856833512837,0.0272691842421597,-0.0089193317836676,9.800874852601977
8.97,-5.780214020529789e-05,0.0013887588316821,-0.2065369298036153,-0.029990307310598,-0.0256770048104714,9.847172056033102
8.98,0.00395801432568,0.0021882919903623,-0.208171557384258,0.0374205947826206,-0.2104562338253832,9.70905095979665
8.99,0.0058166352929097,0.0025155790419235,-0.2079900761420781,0.0691001281230828,-0.0554838745725778,9.754053232423455
9.0,0.0046595006881547,0.0015753799880838,-0.2083794136817509,-0.0136499163241295,0.0875855589383805,9.820843491611988
9.01,0.0059306573730708,0.0003127947019063,-0.2059609850223119,-0.0156340501598617,0.0313104940163367,9.797944506202953
9.02,0.0015385853136483,-0.0012791191208587,-0.2072744627769047,-0.1347594366142411,0.2967185323190187,9.90398895715506
9.03,0.0010210532666525,-0.0037607657583823,-0.2098911066825444,-0.2522059152809445,0.0564904089876474,9.87826550916678
9.040000000000001,-0.0021235147875295,-0.0038526567581734,-0.2120488395268971,-0.0346206573960979,0.1341078697920253,9.89026039631744
9.05,-0.0008549858257744,-0.0050356677550724,-0.2113752623374516,0.0133604871106576,0.0024715811128845,9.834726743815471
9.06,0.0007866826440335,-0.004492594537167,-0.2148580213363225,0.0844455114842494,-0.0817474255726331,9.786835801409453
9.07,0.0018780983254273,-0.0015671009424429,-0.214915793138271,0.1903236608366277,0.0751638292928987,9.691608914218024
9.08,-0.0023620153289524,0.0008437637013366,-0.2134610374743993,0.1205706626067651,0.293060746628669,9.824146561999502
9.09,-0.0002946487730881,-0.0008449361625331,-0.2109412660176808,-0.1132263049652742,-0.0331663336210397,9.809015666414162
9.1,-0.0017178996130499,-0.0042175874477821,-0.2066315223748738,-0.1662523181112234,0.2279297829327068,9.897755169084508
9.11,0.0002643267208878,-0.005097418223662,-0.2099398930842931,-0.1137658812335767,-0.0791627510978254,9.8222310746786
9.120000000000001,-0.0042095577723297,-0.0005274426783014,-0.2120279928023869,0.2861365283451191,0.3779325680449428,9.856771420531803
9.13,-0.0083564574331701,-0.0017187090206752,-0.2075013329560811,0.1607496028984449,0.4005464515012722,10.042089993244025
9.14,-0.0076998127958098,0.0055425757699532,-0.2073586692388112,0.4345963779933026,-0.1306708948087127,9.734854155746731
9.15,0.0013922331181815,0.0054676279635954,-0.2088771422679478,0.0605095697938676,-0.5661206586870607,9.753466092121393
9.16,0.0004519629748162,0.0050302479821246,-0.2073344697530324,0.1475720610812621,0.0757596406887759,9.882258873143982
9.17,-0.0018419926943344,0.0052563972840083,-0.210560541349178,0.0889497306716965,0.1580495187016182,9.78962106383109
9.18,-0.0063070306934906,0.0092645905775154,-0.2093751539762074,0.370161292139545,0.3088046574076806,9.73321987522548
9.19,-0.0024390608706249,0.0119064016325551,-0.2104364444787556,0.2080640931587341,-0.1918397285601636,9.645139946870229
9.200000000000001,-0.0020992167033263,0.0103635260597974,-0.2130629380519444,-0.1007037500830894,-0.1637876245352029,9.815734559415729
9.21,-0.0016464473635731,0.006085512847234,-0.212235089140659,-0.1336475533604449,-0.0280431051593325,9.895069932176805
9.22,0.001489684849263,0.0087142545732324,-0.2091665526206547,0.1393140339751083,-0.1198847860855545,9.688073212243134
9.23,0.0024951033837206,0.0067203868785543,-0.2062355538184697,-0.1133672389237879,-0.0206633751245415,9.910634332108616
9.24,-0.0006116118113755,0.0039706370915126,-0.2048739453132207,-0.2096442631614001,0.1729634959647179,9.945482917389707
9.25,0.0003462109185097,0.0035494583120356,-0.2014611174638325,-0.062842720783947,0.0910146879987562,9.793094736912789
9.26,0.0002039975942365,0.003556197450471,-0.2024367858941609,-0.0914150414835931,0.0728666646258539,9.774237783163226
9.27,-0.0030542327281147,0.0006762746753012,-0.2035246153647954,-0.2655385667510647,0.224288798127936,9.89064372486
9.28,-0.0020115809827935,0.0028568982371947,-0.2012007792766148,0.0011651227527916,0.0817734249816964,9.655739214515094
9.290000000000001,-0.001353645595663,0.0014336744778029,-0.2064835836465413,-0.2900488117386045,-0.080298821490712,9.774042712326382
9.3,-0.0002188031282095,-0.0015086408694923,-0.2058174868400151,-0.2287618605253343,-0.0219481676498331,9.864336909998912
9.31,-0.0020063993879914,-0.0008089715717938,-0.2065510859067494,-0.0379720078944201,0.0903879794401902,9.84586457734349
9.32,0.0012778503976119,0.0005579562826627,-0.2070684840257222,0.0772517667084673,-0.209032259269658,9.791835673787228
9.33,0.0037355298992092,0.0016035421278847,-0.2032068183000142,0.1047204276338807,0.0232163676970154,9.74126585225117
9.34,0.0004684921548996,0.0022411227138567,-0.2045155425841862,0.0174528329830684,0.1244649396379752,9.840848636306363
9.35,0.0012585440294573,0.001366920249213,-0.2019920160348469,-0.0197858580310467,-0.0005017069022839,9.75619151689738
9.36,0.0058650770258887,0.0027209907462033,-0.2040960748965794,0.0317698575086445,-0.2513933944543056,9.62327288881537
9.370000000000001,0.0038251477066872,-0.0018668424993863,-0.2018489499862248,-0.1471687772381603,0.1768498581580592,9.94931863208777
9.38,0.0055400185040942,-0.0016906309027975,-0.2012398352201039,0.0925807807578316,-0.0333934677235079,9.754175766363604
9.39,0.0059577948731691,0.0013064335389885,-0.2023876418645436,0.1226451526056765,0.0703603366958293,9.757516992244426
9.4,0.0027158992860161,-0.0031224354458648,-0.2040394802863652,-0.3216443167231018,0.2587477281452999,10.006541549250736
9.41,-0.0068107144920071,-0.0071043242233604,-0.2052575608069951,-0.2656975445238239,0.6127605667628372,10.147430689484004
9.42,-0.0010069265176758,-0.0076043498826393,-0.204458486037975,0.0830195727328238,-0.2453073802647077,9.775817768390883
9.43,-0.0033440706043911,-0.0064132820558457,-0.2078057636792714,0.121696324901733,0.0342790339197136,9.803541611846754
9.44,-0.0012258542289608,-0.0021738890321767,-0.2065267970140034,0.3001692012796672,-0.0420302910870643,9.631726317094577
9.450000000000001,0.0006980782027191,-0.0030292616274977,-0.207986380654102,-0.0816181680627881,-0.0702489035631946,9.726751895465148
9.46,-0.0061313074920356,-0.001387557179241,-0.2074193765695149,0.1272860084958527,0.5677322576614842,9.987346147897624
9.47,-0.0087092759957161,-0.0017022529267686,-0.2059796263749654,0.0803142076756439,0.2264741437929872,10.03170443429901
9.48,-0.0118707880805944,-0.0007361798476166,-0.2024282177264744,0.2545291651853847,0.1658840704533477,10.026642917353415
9.49,-0.0060856257876945,0.0046292315387535,-0.2017655779893452,0.3653301547097849,-0.3113768323998542,9.66344496874125
9.5,-0.0060953642320727,0.0016723445042789,-0.2039299567515904,-0.1680891050244871,0.0194593706422021,9.775103658422616
9.51,-0.0070724524249378,0.0013067815028048,-0.2085351010139043,-0.1167801759462228,0.1362951960664798,9.656227428575404
9.52,-0.0063328553271041,0.0006621075437411,-0.2093356808002049,-0.0775618632555333,0.1456181718648915,9.659059755089874
9.53,-0.0092938775772344,-0.0023450664594428,-0.2111580481107289,-0.1759713364464317,0.1286317947659817,9.919085684395943
9.540000000000001,-0.0108899400702777,-0.0016247092724537,-0.2116368522222096,0.0804146239194397,0.0520914506025775,9.87708111743683
9.55,-0.0079103480755104,-0.0007624625535754,-0.2121330310876424,0.1223620973848175,-0.1345345259995792,9.846944366456473
9.56,-0.0062699682972207,0.0006852107968954,-0.2109014501149708,0.1750666951539957,0.0108610795360923,9.820724072557626
9.57,-0.012518621207459,0.0036590804222904,-0.2109374960238988,0.1754437084928288,0.3641474765475889,9.830816450314837
9.58,-0.0096785615475964,0.0047683331918854,-0.2098882009561116,0.0932820515955152,-0.10109973223295,9.740324481617796
9.59,-0.0048542252212067,0.0006666975326069,-0.2114918639237935,-0.2379560990637401,-0.2777998687015999,9.82682890980252
9.6,-0.0039594446892134,0.0001295428482697,-0.2110877146298939,-0.0354409760556449,-0.0774773517756188,9.844742856325164
9.61,-0.0045691385698505,-0.0003725244086209,-0.2084780742700154,0.0077543967962689,0.0866675220725184,9.838119320113394
9.620000000000001,-0.0024871529659989,0.0023843872073599,-0.2042559196527058,0.2316201889784127,0.0005890442752421,9.728092315925045
9.63,-0.0047986899944756,0.0011946760890582,-0.204965602355724,-0.039820378532786,0.0287484419999262,9.944084374920171
9.64,-0.0030519051730478,0.0032407126017142,-0.201253603893047,0.1424727058377859,-0.0722832975862344,9.749839597835246
9.65,8.959032195581592e-05,0.0036433135261721,-0.203700463968044,-0.0343743036813766,-0.1771961961098804,9.720367250359786
9.66,-0.0010526954830631,0.0039986873570049,-0.2014998753840977,0.0302749444189302,0.1895190145038518,9.78514893894548
9.67,0.0005487796404712,0.0007385620096134,-0.2026644160325581,-0.1969637828335064,-0.0372609390388264,9.803324447590324
9.68,0.0009098013120643,0.0027327010855035,-0.202889408665424,0.1088214095664294,-0.0047105885965859,9.709751876621851
9.69,0.0019230327180604,0.0020525253703473,-0.2017222305114323,0.0364930955024215,0.0062179501324296,9.80165665591808
9.700000000000001,0.0019087486679788,-0.0002701785003251,-0.2027687241609151,-0.0743615572006935,-0.0275914568119562,9.85337666355025
9.71,0.0016676185945227,0.0024304754167986,-0.2060820271546895,0.1114580088724375,-0.0544908814638808,9.719951791636053
9.72,0.0028605685850008,0.0004830602614677,-0.2051365186746175,-0.0517030037312779,-0.0209375078169724,9.832397371100551
9.73,0.0020386626033301,0.0027039490308856,-0.2066821416194493,0.0392881259577055,-0.0257017196185748,9.730852636919886
9.74,0.0006192229129713,-0.0006698345578776,-0.2030954768235738,-0.1731396442728539,0.1919377319804844,9.892922247306634
9.75,-0.0013264223526736,-0.0047138055540979,-0.2033796568687016,-0.2897497067323035,0.1508226374043903,9.916572106240032
9.76,-0.0005414178330293,-0.005173491022503,-0.2038870563085133,-0.0592737341760882,-0.019607636262006,9.792274115718598
9.77,-0.0015119529869956,-0.0066106230507348,-0.2029926886136586,-0.0132558119484165,0.0876805942290485,9.87615996483283
9.78,0.0005356647038246,-0.0022688758843948,-0.2042376508290822,0.2447955659219774,-0.0677323790751325,9.662891738871584
9.790000000000001,-0.0017738474648214,0.0015464881915133,-0.2042741735751683,0.2132178852098974,0.1618762951068454,9.748101224753611
9.8,-0.001263327632161,-0.0017425317762042,-0.2066724856669957,-0.2133155818599665,-0.0158714398520715,9.857457505422078
9.81,-0.0016717071082589,-0.0027959425071634,-0.2066996355826909,-0.0592089326561641,0.1278171834153968,9.838899597342444
9.82,0.0007807932241411,-0.0037146909577844,-0.206994291144138,-0.0658830011565476,-0.0740954498710885,9.796644210630715
