time,gyrX,gyrY,gyrZ,accX,accY,accZ
0.0,-0.00241331965662539,-0.06453843414783478,0.04724326357245445,-0.43424150347709656,-0.3850153982639313,10.384871482849121
0.02,0.054115455597639084,-0.05042468383908272,0.05415240675210953,-0.37485215067863464,0.12582947313785553,9.369057655334473
0.04,-0.004599055740982294,-0.03414067625999451,0.04946359619498253,-0.22323031723499298,0.16758908331394196,9.232717514038086
0.06,-0.01522359810769558,-0.025731785222887993,0.002655240474268794,-0.15291957557201385,-0.03049316629767418,10.002442359924316
0.08,-0.019366007298231125,-0.03527836129069328,-0.05749921500682831,0.04893620312213898,-0.012743589468300343,10.088929176330566
0.1,0.023851625621318817,-0.03947274386882782,-0.08442317694425583,-0.007917025126516819,-0.13394050300121307,9.902250289916992
0.12,0.04410230740904808,-0.020011115819215775,-0.0435616560280323,0.27853676676750183,-0.5690776705741882,9.876408576965332
0.14,0.021112609654664993,-0.021859729662537575,0.014771818183362484,0.4578881859779358,-0.6338269710540771,9.637710571289062
0.16,0.02864169515669346,-0.024997342377901077,0.046972934156656265,0.347697377204895,-0.1846657395362854,9.578110694885254
0.18,0.000707625353243202,-0.029769575223326683,0.03222622722387314,0.07044138014316559,0.3532577157020569,9.73961067199707
0.2,-0.024972032755613327,0.018141107633709908,-0.0005299397744238377,-0.21848736703395844,0.650728702545166,10.38851261138916
0.22,-0.011350221000611782,0.03822546452283859,-0.02256593480706215,-0.18322965502738953,0.42202243208885193,10.411904335021973
0.24,-0.030640333890914917,-0.017919903621077538,-0.02681087702512741,-0.0843377634882927,-0.2727656960487366,9.506697654724121
0.26,0.017014339566230774,-0.03127046674489975,-0.012739812023937702,-0.311313271522522,-0.9686467051506042,9.412147521972656
0.28,-0.0025931675918400288,0.02710084058344364,0.009364493191242218,-0.25624677538871765,-0.9846013188362122,9.713207244873047
0.3,0.0010438051540404558,0.018341390416026115,0.017932487651705742,0.05601108446717262,-0.1692376434803009,9.86341381072998
0.32,-0.04018113389611244,-0.03021826595067978,0.022601047530770302,0.05827450752258301,0.4160858690738678,9.873299598693848
0.34,-0.02492108941078186,-0.012864528223872185,0.0035473827738314867,-0.19220900535583496,0.5855703949928284,9.889854431152344
0.36,0.043978046625852585,0.0285944826900959,-0.021871743723750114,-0.11303635686635971,-0.002515104366466403,9.930802345275879
0.38,0.0034689956810325384,-0.013081597164273262,-0.04059819132089615,0.07242003828287125,-0.537194013595581,9.225955963134766
0.4,-0.0009671161533333361,-0.04846666753292084,-0.010988702066242695,-0.07472884654998779,-0.30125951766967773,8.96359920501709
0.42,0.025256041437387466,-0.00952889770269394,0.019184937700629234,-0.2209095060825348,-0.41301846504211426,10.085636138916016
0.44,-0.003113596234470606,0.018209153786301613,0.037643082439899445,-0.21007707715034485,-0.32157987356185913,10.643500328063965
0.46,-0.01099304761737585,-0.023773256689310074,0.04772907495498657,-0.11981736123561859,-0.04133932664990425,9.65335464477539
0.48,0.050689585506916046,-0.04513498768210411,0.02946406975388527,0.00319461477920413,0.20718728005886078,9.053717613220215
0.5,0.005281758029013872,-0.017968954518437386,-0.0007589913439005613,-0.11269688606262207,0.39305663108825684,9.430520057678223
0.52,-0.010077531449496746,0.035438813269138336,-0.0227238517254591,-0.20330917835235596,0.2888852059841156,10.497637748718262
0.54,0.03923536837100983,-0.003831610782071948,-0.03264254704117775,-0.23920929431915283,-0.15702946484088898,10.559819221496582
0.56,0.03624933212995529,-0.019839582964777946,-0.02923828735947609,-0.36556851863861084,-0.5062547326087952,10.280694007873535
0.58,0.009940418414771557,0.03577304258942604,0.000895241741091013,-0.5005799531936646,-0.4546525478363037,9.505573272705078
0.6,0.010786297731101513,0.03889021277427673,0.019982097670435905,-0.10514909774065018,-0.3166884183883667,9.317641258239746
0.62,0.0019485203083604574,-0.019000070169568062,0.017910035327076912,0.20718161761760712,-0.053884513676166534,9.437580108642578
0.64,0.038734834641218185,-0.024239733815193176,-0.004614644218236208,0.1702127456665039,0.2653537392616272,10.021410942077637
0.66,0.01673523709177971,0.010388005524873734,-0.011024427600204945,0.15369021892547607,0.10458742082118988,10.199710845947266
0.68,0.024099692702293396,-0.010527188889682293,-0.027796223759651184,0.17731717228889465,-0.043348606675863266,9.884551048278809
0.7000000000000001,-0.001821096520870924,-0.057098474353551865,-0.02237234078347683,-0.0966874212026596,-0.08089939504861832,9.329832077026367
0.72,0.03836878389120102,-0.014639732427895069,-0.003073049709200859,-0.2704520523548126,-0.13462650775909424,9.436444282531738
0.74,0.023355402052402496,0.002919549588114023,0.015506510622799397,-0.42151740193367004,-0.3163486421108246,9.958932876586914
0.76,-0.02047540992498398,-0.024860205128788948,0.03368934988975525,-0.35029417276382446,-0.00477570341899991,10.210395812988281
0.78,0.05504943057894707,-0.03880701959133148,0.03417385369539261,-0.2591707408428192,0.03415052592754364,10.007452011108398
0.8,0.04171823710203171,-0.0019370237132534385,0.026694510132074356,-0.2598626911640167,0.12100674211978912,9.776701927185059
0.8200000000000001,0.03823361173272133,-0.018753787502646446,-0.02221095561981201,0.0044140503741800785,0.2319934368133545,9.838603019714355
0.84,-0.02678985707461834,-0.0777793675661087,-0.046566192060709,0.03423905000090599,-0.0722789466381073,9.687728881835938
0.86,0.04202539846301079,-0.046900033950805664,-0.04017375409603119,-0.13244974613189697,-0.31773537397384644,9.572078704833984
0.88,0.020153189077973366,-0.006736489944159985,0.013616631738841534,-0.2245677411556244,-0.522413432598114,9.723419189453125
0.9,-0.03428959473967552,-0.023996347561478615,0.031485483050346375,-0.16960467398166656,-0.2538822591304779,9.644057273864746
0.92,0.026005854830145836,-0.0648641586303711,0.03511245176196098,-0.03464663773775101,0.056517671793699265,9.823902130126953
0.9400000000000001,-0.03012167289853096,-0.029625805094838142,0.01199351716786623,-0.0961969792842865,0.4146130383014679,10.26472282409668
0.96,-0.02540975622832775,0.016039788722991943,-0.023230472579598427,0.08183210343122482,0.30697864294052124,10.338932991027832
0.98,-0.0035443061497062445,-0.027734840288758278,-0.045080214738845825,0.42722225189208984,-0.2714899778366089,9.709237098693848
1.0,0.0151982381939888,-0.0652705505490303,-0.024165388196706772,0.16003413498401642,-0.5904248952865601,9.025753021240234
1.02,-0.029023371636867523,0.011613150127232075,0.006377615500241518,-0.09005031734704971,-0.4839729964733124,9.535943984985352
1.04,-0.03759708255529404,0.05844929441809654,0.03545491397380829,0.18370452523231506,-0.18963070213794708,10.15645980834961
1.06,0.000736110785510391,0.00426499592140317,0.02291003242135048,0.28701525926589966,0.5684967041015625,9.9456148147583
1.08,-0.03304696083068848,-0.011917640455067158,0.0009986702352762222,-0.0890667587518692,0.6577361822128296,9.7413330078125
1.1,-0.011007001623511314,0.05491330847144127,-0.006481416989117861,-0.04350224882364273,0.3398786187171936,10.102195739746094
1.12,-0.044608600437641144,0.05893531069159508,-0.01823621243238449,0.2720626890659332,-0.34013888239860535,9.70037841796875
1.1400000000000001,0.005942841526120901,-0.011881903745234013,-0.015384182333946228,0.13086383044719696,-0.8853693604469299,9.309220314025879
1.16,-0.03130059689283371,0.0015533819096162915,0.0018029788043349981,-0.23566719889640808,-0.585780918598175,9.691753387451172
1.18,-0.001448672846890986,0.038915760815143585,0.015527741983532906,-0.2873254120349884,0.15564429759979248,10.442710876464844
1.2,0.020421814173460007,0.028558997437357903,0.016178328543901443,-0.23536930978298187,0.10952045023441315,9.875738143920898
1.22,-0.013581947423517704,-0.010916427709162235,0.0007820598548278213,-0.2285226732492447,0.16130273044109344,9.630424499511719
1.24,0.0009560908074490726,0.02233939990401268,-0.002878469182178378,-0.16864940524101257,0.14940381050109863,9.722099304199219
1.26,-0.0029728468507528305,0.039001207798719406,-0.020018508657813072,-0.07540106773376465,-0.3912658393383026,9.748560905456543
1.28,-0.0017127875471487641,-0.005665205419063568,-0.02750658057630062,0.0520944781601429,-0.5757654905319214,9.887290954589844
1.3,0.009083528071641922,-0.013607466593384743,-0.0051167500205338,-0.08349953591823578,-0.4737170934677124,9.672333717346191
1.32,0.04380050674080849,0.0234515517950058,0.02137814275920391,-0.12414778023958206,-0.051122911274433136,9.802240371704102
1.34,0.032298147678375244,0.04155829921364784,0.012950620613992214,0.01763499714434147,-0.07248557358980179,9.565217971801758
1.36,0.03482426330447197,-0.000387328676879406,0.0071492004208266735,0.06849130988121033,0.21253225207328796,9.701898574829102
1.3800000000000001,-0.0045517259277403355,0.012040470726788044,-0.010001793503761292,-0.03089194931089878,0.332599937915802,9.845462799072266
1.4000000000000001,-0.0029420002829283476,0.050205618143081665,-0.018032772466540337,-0.02273513749241829,0.3093949854373932,9.755600929260254
1.42,0.011398098431527615,0.025204870849847794,-0.012353576719760895,0.08134439587593079,-0.18037289381027222,9.767203330993652
1.44,0.0041954233311116695,-0.015807341784238815,-0.015306965447962284,-0.12419302761554718,-0.47972822189331055,9.94223403930664
1.46,0.04067053273320198,0.031134819611907005,0.013599101454019547,-0.27313822507858276,-0.5744810104370117,10.277626991271973
1.48,0.024211350828409195,0.06981193274259567,0.0308414064347744,-0.23574601113796234,-0.08516760170459747,9.673404693603516
1.5,0.05848243832588196,0.012925890274345875,0.03257158026099205,0.06276630610227585,0.1902233064174652,9.08640193939209
1.52,0.0024028681218624115,-0.042268361896276474,0.008914969861507416,0.08748717606067657,0.37093934416770935,9.231118202209473
1.54,0.018380453810095787,0.019383182749152184,-0.0034927362576127052,-0.17625775933265686,0.21546001732349396,10.44365406036377
1.56,0.014104521833360195,0.03438404202461243,-0.027647053822875023,-0.14937254786491394,-0.1640036553144455,10.515151023864746
1.58,0.03291258215904236,-0.0667724683880806,-0.037533726543188095,0.07460184395313263,-0.3812274932861328,9.783426284790039
1.6,0.006693350616842508,-0.0500660240650177,-0.01575147546827793,-0.0812344178557396,-0.4421441853046417,9.36077880859375
1.62,0.025607794523239136,0.04014897346496582,0.009788903407752514,-0.4193103313446045,-0.33210307359695435,9.696318626403809
1.6400000000000001,-0.019936509430408478,0.05605188384652138,0.03292849659919739,-0.5577490329742432,-0.258841872215271,9.572405815124512
1.6600000000000001,-0.0058726659044623375,0.003374146530404687,0.02459804154932499,-0.6446847319602966,0.5326376557350159,10.080365180969238
1.68,0.02257288247346878,0.01665533147752285,0.011170035228133202,-0.7423712015151978,0.6866152286529541,10.415112495422363
1.7,-0.023850975558161736,0.08588369935750961,-0.0128010343760252,-0.3830014169216156,0.26751306653022766,10.0333833694458
1.72,0.01868310011923313,0.03761626034975052,-0.05070793256163597,0.5133119225502014,-0.48571088910102844,9.279337882995605
1.74,-0.012814058922231197,-0.03040975332260132,-0.05371697247028351,0.7762346863746643,-0.7072730660438538,9.087430953979492
1.76,-0.0086824344471097,0.02045387029647827,-0.007716180291026831,0.4741041958332062,-0.4387154281139374,10.17591667175293
1.78,-0.01555496733635664,0.06761244684457779,0.024372391402721405,0.29754579067230225,-0.09911167621612549,10.03229808807373
1.8,-0.010328761301934719,0.028050292283296585,0.02870652638375759,-0.1439317762851715,0.30924442410469055,9.656763076782227
1.82,-0.06050080806016922,0.010689466260373592,0.01787426508963108,-0.4706481397151947,0.8605700135231018,9.93675422668457
1.84,-0.02697484754025936,0.029332220554351807,-0.003218882018700242,-0.5637163519859314,0.5270677804946899,9.934774398803711
1.86,-0.05091576650738716,0.03721208497881889,-0.017905037850141525,-0.3717382550239563,-0.5291111469268799,9.900073051452637
1.8800000000000001,-0.02567189559340477,0.03410719707608223,-0.009144756942987442,-0.36775901913642883,-1.0798262357711792,9.891868591308594
1.9000000000000001,0.02627209573984146,0.03857722505927086,0.002193651394918561,-0.2394428551197052,-0.887406051158905,9.830435752868652
1.92,0.005793196149170399,0.04414615407586098,0.0065015144646167755,-0.07703705132007599,-0.1165778711438179,9.63395881652832
1.94,-0.01673097535967827,0.012997874990105629,0.004786520730704069,0.007859711535274982,0.37762171030044556,9.367023468017578
1.96,0.03744960203766823,-0.005817578174173832,-0.006701588165014982,-0.1806560754776001,0.7097153067588806,9.880319595336914
1.98,-0.006478534545749426,0.043378718197345734,-0.013890063390135765,-0.274505615234375,0.30142027139663696,10.392236709594727
2.0,-0.043080221861600876,0.027430161833763123,-0.020232899114489555,-0.1676073521375656,-0.3588854670524597,9.673504829406738
2.02,0.01865610107779503,-0.02611668035387993,-0.012342234142124653,-0.18429943919181824,-0.49411383271217346,9.284917831420898
2.04,0.011461413465440273,-0.02103474736213684,0.017693715170025826,-0.3817044198513031,-0.7224552035331726,9.701703071594238
2.06,0.02367473393678665,0.03158015385270119,0.02593538723886013,-0.3990037441253662,-0.3530046045780182,10.21783447265625
2.08,-0.009866989217698574,0.005132625810801983,0.01637570746243,-0.1663762927055359,0.04554042965173721,9.924543380737305
2.1,-0.00906406156718731,-0.06260719895362854,0.0001954311883309856,-0.15999320149421692,0.32294267416000366,9.535674095153809
2.12,-0.026641124859452248,-0.013315269723534584,-0.0028490314725786448,-0.33962562680244446,0.43218234181404114,9.607070922851562
2.14,0.033688660711050034,0.06062912940979004,-0.0033055352978408337,-0.3359992504119873,0.04837203398346901,9.701827049255371
2.16,0.011553793214261532,0.026627905666828156,-0.019279783591628075,0.07319770753383636,-0.32520750164985657,9.59587287902832
2.18,0.010088607668876648,-0.04783986508846283,-0.016323471441864967,0.037212908267974854,-0.36945828795433044,9.863805770874023
2.2,-0.015416623093187809,-0.0005242847837507725,0.008596946485340595,-0.21938462555408478,-0.4009972810745239,10.593415260314941
2.22,0.01626189425587654,0.03854445740580559,0.020728928968310356,-0.14997920393943787,-0.2721109688282013,10.068901062011719
2.24,-0.00863319355994463,0.001044135307893157,0.0220783781260252,-0.09603653103113174,0.2045394629240036,9.02742862701416
2.2600000000000002,0.025058448314666748,-0.054694585502147675,0.013067786581814289,-0.1449141651391983,0.20314835011959076,8.86423397064209
2.2800000000000002,-0.007170192431658506,-0.02109599858522415,0.01279765646904707,-0.3083248734474182,0.0962916687130928,10.130728721618652
2.3000000000000003,-0.030887819826602936,0.0011730712139979005,-0.013516250066459179,-0.3261300325393677,0.028553936630487442,10.752885818481445
2.32,-0.00962543673813343,-0.018652325496077538,-0.016366541385650635,-0.3958926498889923,-0.24989590048789978,10.393320083618164
2.34,-0.03527059033513069,-0.030930927023291588,-0.00939810462296009,-0.4844757616519928,-0.499424010515213,9.917652130126953
2.36,-0.02486908808350563,-0.0072554429061710835,0.016114965081214905,-0.5417960286140442,-0.1811642199754715,9.272786140441895
2.38,-0.007634572684764862,-0.007278232369571924,0.021731922402977943,-0.45010215044021606,-0.1171245351433754,9.062704086303711
2.4,-0.039367590099573135,-0.01460828073322773,0.014104005880653858,-0.3684767484664917,0.12250741571187973,9.551247596740723
2.42,-0.04828229546546936,0.012017186731100082,0.022729849442839622,-0.018334876745939255,0.36371707916259766,10.29370403289795
2.44,0.029299817979335785,-0.00473542558029294,0.004020758904516697,0.39799559116363525,-0.1162799671292305,10.282407760620117
2.46,-0.012906047515571117,-0.028694383800029755,-0.027816057205200195,0.49934467673301697,-0.3441428244113922,9.792157173156738
2.48,0.01462212111800909,-0.022026166319847107,-0.02362600527703762,0.1925520896911621,-0.42371824383735657,9.146581649780273
2.5,0.03782118484377861,0.028811139985919,0.004937643185257912,-0.09088735282421112,-0.4365863800048828,9.445730209350586
2.52,-0.006165003404021263,-0.005654859822243452,0.02438175678253174,-0.3687748312950134,-0.10286787152290344,10.123169898986816
2.54,0.006844186689704657,-0.06395763158798218,0.025519300252199173,-0.326196551322937,0.23186156153678894,10.155755043029785
2.56,0.06841631233692169,-0.02669358067214489,0.023018203675746918,-0.31075721979141235,0.01959780603647232,9.927563667297363
2.58,0.03332151472568512,0.04108184576034546,0.010318844579160213,-0.3622487783432007,0.0707724392414093,9.88567066192627
2.6,-0.002300799358636141,0.0036517686676234007,-0.02158007025718689,-0.28937023878097534,-0.11349239945411682,9.367985725402832
2.62,0.007424905896186829,-0.06016268953680992,-0.03600945696234703,-0.12777407467365265,-0.19462957978248596,9.294516563415527
2.64,0.0429290272295475,-0.02301650494337082,-0.0283662062138319,-0.10514888912439346,-0.10291869938373566,10.053457260131836
2.66,0.02518448978662491,0.024851292371749878,-0.00600417098030448,-0.22096115350723267,-0.10875006020069122,10.173067092895508
2.68,0.008229219354689121,0.0003379538538865745,0.010689751245081425,-0.23395845293998718,-0.030239557847380638,9.64637279510498
2.7,-0.04075946658849716,-0.046564746648073196,0.024715380743145943,-0.11440840363502502,0.21247835457324982,9.271550178527832
2.72,0.006182059179991484,-0.049626424908638,0.013892858289182186,-0.32645508646965027,0.5151228904724121,10.323468208312988
2.74,0.01631764881312847,-0.016730843111872673,0.00908651389181614,-0.33986982703208923,0.07362660765647888,10.530609130859375
2.7600000000000002,-0.061268504709005356,-0.03146357089281082,-0.01592266373336315,-0.19623839855194092,-0.34001773595809937,9.696556091308594
2.7800000000000002,-0.06162706017494202,-0.04511939361691475,-0.03461736813187599,-0.1666385680437088,-0.08707237243652344,9.199237823486328
2.8000000000000003,-0.021179473027586937,-0.016293734312057495,-0.024913163855671883,-0.1941351443529129,-0.3362518548965454,9.156692504882812
2.82,0.01642560213804245,0.0003466018242761493,0.005633640568703413,-0.10539183765649796,-0.43358924984931946,9.660008430480957
2.84,0.06804494559764862,-0.021089857444167137,0.0354534387588501,0.017613448202610016,-0.10778587311506271,10.315584182739258
2.86,0.032973311841487885,-0.01126150693744421,0.034622903913259506,0.010832922533154488,0.024099549278616905,10.644194602966309
2.88,-0.013880112208425999,0.0034961607307195663,0.014336503110826015,0.14799284934997559,-0.06741678714752197,10.119138717651367
2.9,0.0061834948137402534,-0.013577762991189957,-0.043243881314992905,0.2523137629032135,0.03838702291250229,9.000624656677246
2.92,0.006830231286585331,-0.03143206611275673,-0.04600270092487335,0.05858699977397919,-0.14699694514274597,8.808093070983887
2.94,0.013409117236733437,0.0059093595482409,-0.029382238164544106,-0.061784543097019196,-0.5720961093902588,10.029159545898438
2.96,0.0029785363003611565,0.027690665796399117,0.010950081050395966,-0.19834111630916595,-0.6423192620277405,10.838444709777832
2.98,0.07489223033189774,0.004748363513499498,0.032574668526649475,-0.2990317940711975,-0.03524262458086014,10.214495658874512
3.0,-0.009773130528628826,-0.0034209047444164753,0.027363957837224007,-0.4007449746131897,0.3337863087654114,9.5737943649292
3.02,0.0009205267997458577,0.023515941575169563,-0.007471457589417696,-0.2190052568912506,0.6641384959220886,9.423737525939941
3.04,-0.03267606347799301,0.004775212612003088,-0.035052455961704254,0.0760950818657875,0.6864862442016602,9.752010345458984
3.06,-0.007268008776009083,-0.028739027678966522,-0.031062187626957893,-0.023287486284971237,-0.2185567021369934,10.026555061340332
3.08,-0.015624343417584896,-0.016975518316030502,-0.018574444577097893,-0.07194960117340088,-0.7078816890716553,10.231826782226562
3.1,-0.027321964502334595,0.005307280924171209,0.0034192504826933146,-0.09429457783699036,-0.4531838893890381,9.54922103881836
3.12,-0.04527028650045395,-0.023465102538466454,0.02729993686079979,-0.14586672186851501,0.043292250484228134,9.084549903869629
3.14,-0.058250073343515396,-0.03967591002583504,0.053108006715774536,-0.1490950733423233,0.3606630265712738,9.233020782470703
3.16,-0.021827751770615578,-0.0362272784113884,0.03605502471327782,-0.16017666459083557,0.3313728868961334,10.456080436706543
3.18,-0.03947554901242256,-0.008802881464362144,0.004525705240666866,-0.14599643647670746,0.0003262586542405188,10.692655563354492
3.2,0.0021462435834109783,-0.01420652400702238,-0.044993311166763306,-0.27526596188545227,-0.20086409151554108,9.738832473754883
3.22,0.015498265624046326,-0.01817735657095909,-0.037054505199193954,-0.2650659680366516,-0.7084108591079712,8.899521827697754
3.24,0.004680524114519358,0.003152883145958185,-0.02398134581744671,-0.20749033987522125,-0.4932329058647156,9.255911827087402
3.2600000000000002,0.04345441237092018,0.02865927293896675,0.014239931479096413,0.14765875041484833,-0.12426061183214188,10.011408805847168
3.2800000000000002,0.02554856613278389,0.024189399555325508,0.032296545803546906,0.36707332730293274,0.12243841588497162,10.156310081481934
3.3000000000000003,0.003436510916799307,0.01741575077176094,0.028173865750432014,0.38669583201408386,0.15150126814842224,10.158336639404297
3.3200000000000003,0.013059679418802261,0.08256082981824875,-0.009471293538808823,0.30938130617141724,0.08064855635166168,9.59588623046875
3.34,-0.011321553960442543,0.0814986601471901,-0.027554063126444817,0.30881887674331665,-0.0038071414455771446,8.987316131591797
3.36,0.029551969841122627,0.06494824588298798,-0.033095721155405045,-0.023700878024101257,-0.36043521761894226,9.28253173828125
3.38,0.021336577832698822,0.10706344246864319,-0.009544995613396168,-0.17579904198646545,-0.38916534185409546,9.718644142150879
3.4,-0.003146013943478465,0.1644003987312317,0.006098234560340643,-0.0746220126748085,-0.1329682618379593,9.712334632873535
3.42,0.017872991040349007,0.1720713973045349,0.017293035984039307,0.11769416928291321,0.08957061916589737,9.128646850585938
3.44,0.013785791583359241,0.20437052845954895,0.013573880307376385,0.1085013747215271,0.3366071283817291,9.16347599029541
3.46,0.015221801586449146,0.252423495054245,0.0007920250063762069,0.06279756128787994,0.26730209589004517,9.136484146118164
3.48,6.55829135212116e-05,0.2850534915924072,-0.014538618735969067,0.10442795604467392,-0.0437072217464447,9.23962116241455
3.5,-0.0241897851228714,0.28593429923057556,-0.03259371593594551,0.15557554364204407,-0.2524993419647217,9.656805992126465
3.52,-0.046399131417274475,0.29000046849250793,-0.047039106488227844,0.16095587611198425,-0.5269191861152649,10.528767585754395
3.54,-0.11321542412042618,0.33335909247398376,-0.04003414511680603,0.23426447808742523,-0.12280717492103577,10.23896598815918
3.56,0.005793146789073944,0.28437092900276184,0.004134668968617916,0.0258528720587492,0.5258650779724121,10.528290748596191
3.58,0.02376593090593815,0.2119564712047577,0.05565671622753143,-0.9320204257965088,-0.42857626080513,11.117622375488281
3.6,-0.016432153061032295,0.17213547229766846,0.04796430841088295,-1.4028866291046143,0.08591347187757492,11.348808288574219
3.62,0.027110278606414795,0.1428859531879425,-0.022533899173140526,-1.541477084159851,-0.12007428705692291,10.012689590454102
3.64,-0.017209157347679138,0.09604572504758835,-0.08188962936401367,-1.2423052787780762,-0.32412755489349365,9.46922492980957
3.66,-0.01007155142724514,0.06286024302244186,-0.14098437130451202,-1.2690532207489014,0.45813634991645813,8.668546676635742
3.68,-0.027008607983589172,0.017436830326914787,-0.14098986983299255,-1.359416127204895,0.4044506251811981,8.515843391418457
3.7,-0.025177909061312675,-0.001429253607057035,-0.09051015973091125,-2.0998456478118896,-0.12069294601678848,9.388901710510254
3.72,-0.004798222798854113,-0.03132150322198868,-0.0013681472046300769,-2.5398833751678467,-0.6543999314308167,10.343795776367188
3.74,-0.009986907243728638,-0.05536605790257454,0.06178687885403633,-2.2956511974334717,-0.7285774946212769,10.52990436553955
3.7600000000000002,0.06559953838586807,-0.0723458081483841,0.08948903530836105,-1.340538501739502,-0.592775821685791,9.829197883605957
3.7800000000000002,-0.005819123703986406,-0.0696667805314064,0.05636521428823471,-0.9179198145866394,-0.1695212423801422,9.523064613342285
3.8000000000000003,0.005846942309290171,-0.0396331250667572,0.025193287059664726,-0.685140073299408,0.20869199931621552,9.354131698608398
3.8200000000000003,0.06344696879386902,-0.02249862812459469,-0.020930083468556404,-0.6736451387405396,0.12242601066827774,9.536652565002441
3.84,0.03732697665691376,-0.018715260550379753,-0.04536351561546326,-0.775942325592041,-0.10524491220712662,9.905517578125
3.86,0.04590676352381706,-0.0012136880541220307,-0.033349521458148956,-0.6693520545959473,-0.34010443091392517,10.212423324584961
3.88,0.01283076498657465,0.030513018369674683,0.00844313483685255,-0.6207923889160156,-0.04489978402853012,9.939692497253418
3.9,-0.018472205847501755,0.03614847734570503,0.028990009799599648,-0.48556411266326904,-0.03284839540719986,9.738720893859863
3.92,0.009630996733903885,0.03329596295952797,0.009977815672755241,-0.23492646217346191,0.053783196955919266,9.535494804382324
3.94,0.062485963106155396,0.034033097326755524,-0.00037010133382864296,-0.03525528684258461,-0.08580990880727768,9.67578411102295
3.96,0.05114747956395149,0.04746274650096893,-0.029127640649676323,0.23734135925769806,-0.43501001596450806,9.654792785644531
3.98,-0.006963039748370647,0.038833748549222946,-0.03853880986571312,0.26641401648521423,-0.151434987783432,9.739069938659668
4.0,0.051275018602609634,0.0016936191823333502,-0.019732078537344933,0.0011338305193930864,0.285786896944046,9.859590530395508
4.0200000000000005,-0.02956528216600418,0.041283607482910156,0.010019962675869465,-0.801533579826355,0.3760230839252472,10.082737922668457
4.04,0.03286084160208702,0.06979154050350189,0.0032952495384961367,-0.972052276134491,0.49110445380210876,9.909978866577148
4.0600000000000005,-0.026741087436676025,0.023888973519206047,-0.0004197535163257271,-0.9986265301704407,0.02121542952954769,9.986695289611816
4.08,-0.033404719084501266,0.024027641862630844,-0.005043413024395704,-0.9147605895996094,-0.17380885779857635,10.288204193115234
4.1,0.002076663076877594,0.07335315644741058,0.0008661670726723969,-0.8025677800178528,-0.37383630871772766,9.849369049072266
4.12,-0.0262282844632864,0.09323395788669586,0.004859355743974447,-0.6377055644989014,-0.4103842079639435,8.840913772583008
4.14,-0.02375068888068199,0.03402073308825493,0.0028186568524688482,-0.5474866032600403,-0.16495415568351746,8.711461067199707
4.16,-0.02637770026922226,0.0060900538228452206,0.007597733289003372,-0.6880388259887695,0.24936866760253906,10.005143165588379
4.18,0.006586479488760233,0.0751308724284172,0.00181871117092669,-0.8828868865966797,0.3854520320892334,10.741300582885742
4.2,0.010337581858038902,0.05596769228577614,-0.013999253511428833,-0.8277530074119568,-0.08103383332490921,10.31411361694336
4.22,0.011795190162956715,-0.009761983528733253,-0.026146911084651947,-0.7172863483428955,-0.05367322638630867,9.7760009765625
4.24,0.004882077220827341,-0.03514629602432251,-0.008377029560506344,-0.6630632281303406,-0.5378854274749756,9.626785278320312
4.26,0.03166548162698746,-0.012847419828176498,0.009414331056177616,-0.7241537570953369,-0.7623641490936279,9.46320629119873
4.28,0.026410192251205444,-0.030961276963353157,0.04089244455099106,-0.8572492599487305,-0.26772943139076233,9.251697540283203
4.3,0.044516731053590775,-0.07595868408679962,0.040625572204589844,-0.8469086289405823,-0.10684655606746674,9.183110237121582
4.32,-0.005944886244833469,-0.08032871037721634,0.04407805949449539,-1.3643431663513184,0.4479488730430603,9.653225898742676
4.34,0.03938577324151993,-0.03974483162164688,0.011559545062482357,-1.6243083477020264,0.3583173453807831,10.209501266479492
4.36,0.022411834448575974,-0.0527675561606884,-0.014383379369974136,-1.4689861536026,0.05685140937566757,10.184667587280273
4.38,0.006828810553997755,-0.08907650411128998,-0.02639414370059967,-0.9349801540374756,0.015306917950510979,9.5205659866333
4.4,0.04407471790909767,-0.09602290391921997,-0.01265875343233347,-0.5368949770927429,-0.5100985765457153,8.584715843200684
4.42,0.010812252759933472,-0.09202763438224792,0.01877742074429989,-0.3296257257461548,-0.5604562163352966,8.565298080444336
4.44,0.03370271995663643,-0.12030962109565735,0.01763298176229,-0.4102224111557007,-0.3460557162761688,9.579620361328125
4.46,0.023111863061785698,-0.14693373441696167,0.01571352779865265,-0.6513537168502808,0.1445402204990387,10.491769790649414
4.48,0.009909042157232761,-0.17449167370796204,0.02403075061738491,-0.6085245013237,0.5064755082130432,10.637153625488281
4.5,-0.01383476983755827,-0.1800564080476761,0.028260953724384308,-0.5764960050582886,0.5566686987876892,9.7920503616333
4.5200000000000005,0.021386614069342613,-0.23558485507965088,0.015418973751366138,-0.45525169372558594,-0.06415511667728424,8.918821334838867
4.54,-0.029429282993078232,-0.2769187390804291,-0.014402425847947598,-0.17574836313724518,-0.2684662640094757,8.651546478271484
4.5600000000000005,-0.044526804238557816,-0.2779688835144043,-0.02524796687066555,-0.18157945573329926,0.026693902909755707,9.435467720031738
4.58,-0.05744222179055214,-0.26882556080818176,-0.025276504456996918,-0.41911593079566956,-0.07041984051465988,10.586648941040039
4.6000000000000005,-0.08409592509269714,-0.29877111315727234,-0.028496161103248596,-0.7239184975624084,0.012922045774757862,11.382759094238281
4.62,0.013398573733866215,-0.18942376971244812,0.017773039638996124,-1.6108731031417847,-0.13545095920562744,11.322714805603027
4.64,0.005461007822304964,-0.0474952757358551,0.052875909954309464,-1.516787052154541,-0.27281031012535095,10.005282402038574
4.66,0.02625999040901661,-0.05415799096226692,0.05456959456205368,-1.024670958518982,-0.11990983039140701,9.184591293334961
4.68,0.026612993329763412,-0.07499610632658005,0.036367110908031464,-0.9119941592216492,-0.001831121277064085,8.96652603149414
4.7,0.017768973484635353,-0.01786511391401291,0.0059772878885269165,-0.24495378136634827,-0.20652544498443604,9.670283317565918
4.72,0.030145566910505295,0.044522907584905624,-0.03378257900476456,0.011436719447374344,-0.2712163031101227,10.32538890838623
4.74,0.022798119112849236,0.05182565376162529,-0.04195230454206467,0.016437653452157974,-0.19161149859428406,10.453423500061035
4.76,0.0444948710501194,0.039864882826805115,-0.030438775196671486,0.35699424147605896,-0.13319896161556244,10.198643684387207
4.78,0.015362439677119255,0.013315447606146336,-0.004846928175538778,0.5853049755096436,-0.12495341897010803,9.755024909973145
4.8,0.027162624523043633,-0.0053244698792696,-0.006202939432114363,0.6178039312362671,0.03734983876347542,9.395630836486816
4.82,0.03327110782265663,-0.05009393021464348,-0.009701212868094444,0.6465125679969788,0.03687172010540962,9.531442642211914
4.84,0.06539937108755112,-0.06625162065029144,-0.017172204330563545,0.28279566764831543,0.05135045573115349,9.73737621307373
4.86,-0.023821532726287842,-0.07847640663385391,-0.0009027546620927751,-0.3149411380290985,0.1095169186592102,10.081650733947754
4.88,-0.04811787232756615,-0.07242469489574432,0.02239408530294895,-0.6302173733711243,0.035805266350507736,9.798836708068848
4.9,-0.043868087232112885,-0.07757207751274109,0.042946044355630875,-0.5383240580558777,-0.03408113494515419,9.922033309936523
4.92,0.007402860093861818,-0.06632663309574127,0.03727292641997337,-0.45750662684440613,-0.02707088366150856,9.525644302368164
4.94,0.005658077076077461,-0.023560067638754845,0.029916534200310707,-0.4188615381717682,0.004718275740742683,9.504756927490234
4.96,0.050295863300561905,-0.006755945272743702,0.011764911003410816,-0.17924290895462036,-0.01299542747437954,9.91936206817627
4.98,-0.0019321450963616371,-0.015092268586158752,-0.03371169790625572,-0.09158124774694443,0.007036862429231405,10.13858413696289
5.0,0.0008247460355050862,0.004517856054008007,-0.05818631127476692,0.05951988324522972,-0.20448549091815948,9.566359519958496
5.0200000000000005,0.017738351598381996,0.04141621291637421,-0.029658954590559006,0.3219156861305237,-0.5741497874259949,9.195923805236816
5.04,0.022273685783147812,0.05128691717982292,0.002186790108680725,0.48281633853912354,-0.5143164396286011,9.618451118469238
5.0600000000000005,0.04166035354137421,0.0161297507584095,0.018886787816882133,0.4924096167087555,0.002199549227952957,10.201462745666504
5.08,0.04946844279766083,0.0006246345001272857,0.02942933887243271,0.18365806341171265,0.10126303881406784,10.424676895141602
5.1000000000000005,0.01716262847185135,0.03891054913401604,0.03349439427256584,-0.07901706546545029,0.30859658122062683,10.09860897064209
5.12,0.011940771713852882,0.023172864690423012,0.016225438565015793,-0.1888672262430191,0.2643933594226837,9.694025993347168
5.14,0.020286792889237404,-0.05940854921936989,-0.00641969870775938,-0.29996204376220703,-0.25813308358192444,9.402985572814941
5.16,-0.015934331342577934,-0.06832611560821533,-0.023400889709591866,-0.6064703464508057,-0.3007402718067169,9.839810371398926
5.18,-0.01689864881336689,-0.011953791603446007,-0.022456344217061996,-0.8230759501457214,0.05612802878022194,10.198156356811523
5.2,0.006984938867390156,-0.047966133803129196,0.0010633375495672226,-0.922084391117096,0.1099969744682312,10.382756233215332
5.22,-0.005522908642888069,-0.10719293355941772,0.029885688796639442,-0.8594013452529907,0.14667178690433502,9.577276229858398
5.24,-0.022851213812828064,-0.0864354595541954,0.032895468175411224,-0.781452476978302,0.46188923716545105,9.282798767089844
5.26,-0.022498877719044685,-0.07593749463558197,0.020912334322929382,-0.6751695871353149,-0.03258494660258293,9.730573654174805
5.28,0.004536832682788372,-0.08263231068849564,0.00043703371193259954,-0.7295886874198914,-0.2940067946910858,10.412405967712402
5.3,0.0030071057844907045,-0.04132223501801491,-0.011145811527967453,-0.8871919512748718,-0.4327755570411682,10.417040824890137
5.32,0.04934121295809746,-0.020193781703710556,-0.010777168907225132,-0.6273934841156006,-0.22234562039375305,10.044576644897461
5.34,-0.011211637407541275,-0.07796259969472885,-0.002883786568418145,0.21806015074253082,0.018118908628821373,9.648778915405273
5.36,0.03717057779431343,-0.0880342572927475,-0.008745252154767513,0.5465203523635864,0.010170649737119675,9.433691024780273
5.38,0.026763223111629486,-0.031109005212783813,-0.019595740363001823,0.8472036719322205,0.01704755239188671,9.58739948272705
5.4,-0.02664480358362198,-0.02435125969350338,-0.026574254035949707,1.2300961017608643,-0.05428951233625412,9.472743034362793
5.42,0.03844628110527992,-0.07333111763000488,-0.020326681435108185,1.101481318473816,-0.2405753880739212,9.467185020446777
5.44,0.048384569585323334,-0.05440814420580864,0.0014990910422056913,0.4825965464115143,-0.10581298172473907,9.377198219299316
5.46,0.010201657190918922,0.001457327976822853,0.012439477257430553,0.038231756538152695,-0.02634735405445099,9.388861656188965
5.48,-0.042680662125349045,0.05755019187927246,0.007928264327347279,-0.20857299864292145,0.31839489936828613,9.941268920898438
5.5,-0.00789676047861576,0.04441351071000099,0.0022544993553310633,-0.1968790739774704,0.634051501750946,10.602298736572266
5.5200000000000005,0.056484535336494446,0.05842581018805504,0.010089129209518433,-0.2150353044271469,0.2342502623796463,10.142939567565918
5.54,0.004517445340752602,0.06396733224391937,0.0020893735345453024,-0.1207319051027298,-0.26693886518478394,9.305804252624512
5.5600000000000005,-0.00863620825111866,0.04986191168427467,-0.0033337646164000034,0.05560503900051117,-0.23564587533473969,9.20315170288086
5.58,-0.0397835448384285,0.03486764058470726,-0.02467331476509571,0.13280950486660004,-0.14462846517562866,9.644610404968262
5.6000000000000005,-0.047039639204740524,0.03945391625165939,-0.02920655719935894,-0.06880097091197968,-0.07373695820569992,10.381831169128418
5.62,-0.038983218371868134,0.030638404190540314,-0.03271562233567238,-0.321641206741333,0.2832714915275574,10.583078384399414
5.64,-0.031621482223272324,-0.01538885198533535,0.005126715172082186,-0.13625778257846832,0.18253013491630554,10.31030559539795
5.66,-0.016536129638552666,-0.03744448721408844,0.033976130187511444,0.019875342026352882,0.002506030723452568,9.350342750549316
5.68,-0.014116646721959114,-0.01883588172495365,0.04046066850423813,-0.22807195782661438,-0.04408672824501991,8.864553451538086
5.7,0.01641044206917286,0.0012922427849844098,0.01209566742181778,-0.630824625492096,-0.16891729831695557,9.303033828735352
5.72,0.03047485649585724,-0.007708865683525801,-0.01424473151564598,-0.6301628947257996,-0.04449237510561943,10.107048034667969
5.74,0.03602489084005356,-0.06272361427545547,-0.011870565824210644,-0.6107269525527954,-0.11926295608282089,10.604910850524902
5.76,-0.004243191331624985,-0.03845357522368431,0.0055800145491957664,-0.7204289436340332,-0.11820521950721741,9.97450065612793
5.78,0.041767578572034836,0.006323023233562708,0.006485318765044212,-0.5914825201034546,-0.19232609868049622,9.736308097839355
5.8,0.001596267451532185,0.01945836842060089,-0.01517625991255045,-0.30805325508117676,-0.21173414587974548,9.8756103515625
5.82,0.021268116310238838,-0.0006535804131999612,-0.03907906264066696,0.1729741394519806,0.29577767848968506,9.719141006469727
5.84,-0.02110983058810234,-0.02867751009762287,-0.044428639113903046,0.5445021986961365,0.42642512917518616,9.54539680480957
5.86,-0.014033699408173561,-0.04274813085794449,-0.02402142621576786,0.529668927192688,0.3240768015384674,9.702457427978516
5.88,-0.03632277622818947,-0.028073765337467194,0.017804378643631935,0.4870243966579437,-0.05500109866261482,10.133996963500977
5.9,0.023716196417808533,-0.016219986602663994,0.021923406049609184,0.2907237708568573,-0.28634247183799744,9.903360366821289
5.92,-0.010315004736185074,-0.03330531343817711,0.02207382768392563,-0.1256539672613144,-0.13516239821910858,9.39730167388916
5.94,-0.018580174073576927,-0.029559532180428505,0.007345086894929409,-0.37102076411247253,0.19081617891788483,9.69627857208252
5.96,-0.005433867685496807,-0.014881244860589504,0.010981252416968346,-0.37180691957473755,0.2783343493938446,9.824440002441406
5.98,-0.014361004345119,0.007911942899227142,0.001740308478474617,-0.2957376539707184,-0.09844659268856049,9.88727855682373
6.0,-0.008639908395707607,0.04590057581663132,-0.024263421073555946,-0.05791010335087776,-0.21233752369880676,9.687776565551758
6.0200000000000005,-0.023831626400351524,0.0016803931212052703,-0.03193631023168564,0.2186139076948166,-0.24485574662685394,9.643765449523926
6.04,0.05071396380662918,0.0014702236512675881,-0.017894282937049866,0.2496122568845749,-0.2681000530719757,9.973649024963379
6.0600000000000005,-0.0023177845869213343,0.013650776818394661,0.008787676692008972,0.19398951530456543,-0.19495388865470886,9.694060325622559
6.08,-0.0480363592505455,-0.009375725872814655,0.02735435962677002,0.16683541238307953,-0.19135582447052002,9.482763290405273
6.1000000000000005,0.06321784853935242,-0.07580269873142242,0.02421056665480137,0.1510874629020691,-0.06543875485658646,9.525282859802246
6.12,0.008720992133021355,-0.08007407933473587,0.018903888761997223,0.06462801247835159,0.18191498517990112,10.098278999328613
6.140000000000001,-0.0395854152739048,-0.03664270043373108,-0.0029694437980651855,-0.3605760335922241,0.32695692777633667,10.468034744262695
6.16,0.015981294214725494,-0.026550376787781715,-0.012576224282383919,-0.6152772903442383,0.5609181523323059,10.634023666381836
6.18,0.0001229073095601052,-0.02647479623556137,-0.02779344655573368,-0.7094174027442932,0.0439370833337307,9.614988327026367
6.2,-0.04180488362908363,-0.04283389449119568,-0.018485883250832558,-0.7272759675979614,-0.27324292063713074,8.85576343536377
6.22,-0.032317399978637695,-0.015588794834911823,-0.004574202466756105,-0.7979186177253723,-0.3011717200279236,9.327129364013672
6.24,0.015534069389104843,0.03657855466008186,0.0222187377512455,-0.8538644909858704,-0.14136770367622375,10.316276550292969
6.26,-0.049617450684309006,0.056187670677900314,0.02767845243215561,-0.3932033181190491,0.20789660513401031,10.811680793762207
6.28,-0.018905507400631905,-0.016940273344516754,-0.00147414265666157,0.9301495552062988,0.5433949828147888,10.080180168151855
6.3,-0.04331071302294731,-0.03474092483520508,-0.03641458600759506,1.270588755607605,0.13771629333496094,9.821252822875977
6.32,-0.011537224985659122,0.009957659989595413,-0.042379286140203476,1.1758359670639038,-0.38534432649612427,9.503003120422363
6.34,-0.04894256219267845,0.019863570109009743,-0.03231388330459595,0.8228518962860107,-0.7527576684951782,9.135149955749512
6.36,-0.03914458304643631,-0.026042712852358818,0.019024327397346497,-0.0080055370926857,-0.647964358329773,9.681914329528809
6.38,0.04399637505412102,-0.016336269676685333,0.04932764172554016,-0.6712365746498108,-0.006946544628590345,10.032319068908691
6.4,0.0266510471701622,0.012035776861011982,0.0595717653632164,-0.832684338092804,0.19375130534172058,9.854759216308594
6.42,0.04421796649694443,0.058643147349357605,0.02395850233733654,-0.5473148226737976,0.26336780190467834,9.888118743896484
6.44,0.052782271057367325,0.023661892861127853,-0.02750282920897007,0.021464863792061806,-0.017671681940555573,9.778266906738281
6.46,0.005199083127081394,-0.01311472523957491,-0.0524006150662899,0.32250353693962097,-0.5492916703224182,9.652629852294922
6.48,0.0012454111129045486,-0.018839778378605843,-0.043501220643520355,0.3103773891925812,-0.5779385566711426,9.573647499084473
6.5,-0.0005778027116321027,0.030683042481541634,-0.012280961498618126,0.28846973180770874,-0.367311030626297,9.402997016906738
6.5200000000000005,-0.01867741160094738,0.0010467416141182184,0.0010515317553654313,0.2220275104045868,0.027628539130091667,9.545716285705566
6.54,-0.027797652408480644,-0.02772609144449234,0.0006147812819108367,-0.08450497686862946,0.5363609194755554,9.971365928649902
6.5600000000000005,-0.041712190955877304,-0.029823921620845795,-0.0034357712138444185,-0.3957813084125519,0.8427514433860779,10.392824172973633
6.58,-0.027701226994395256,-0.03423827514052391,-0.003974542953073978,-0.45386379957199097,0.522903323173523,10.331418991088867
6.6000000000000005,-0.04350268095731735,-0.03513175621628761,0.013376496732234955,-0.5700888633728027,-0.15598368644714355,9.55374526977539
6.62,-0.023960424587130547,-0.01074032299220562,0.0039352187886834145,-0.6184476017951965,-0.6534807085990906,9.2454195022583
6.640000000000001,-0.0008406066917814314,-0.026818696409463882,0.0004433107387740165,-0.5680192708969116,-0.6453492641448975,9.597299575805664
6.66,0.022024942561984062,-0.04501066729426384,-0.0035784621722996235,-0.1530287265777588,-0.2732996642589569,9.71467399597168
6.68,-0.031168989837169647,-0.04897871986031532,-0.004290154203772545,0.39844250679016113,-0.02130693383514881,9.989140510559082
6.7,-0.00653341319411993,-0.00783602800220251,0.003403895767405629,0.6922248601913452,0.02529703453183174,10.032011985778809
6.72,0.05844875052571297,-0.010001158341765404,-0.001237971126101911,0.7250542640686035,-0.1932239979505539,9.60559368133545
6.74,0.06400202214717865,-0.04704010486602783,0.007732705678790808,0.3537585139274597,-0.38897794485092163,9.52375602722168
6.76,0.0817970260977745,-0.056462161242961884,0.020770953968167305,-0.12757617235183716,-0.3889133930206299,9.373810768127441
6.78,0.006347195245325565,-0.031137919053435326,0.012730375863611698,-0.28323861956596375,-0.27603957056999207,9.610209465026855
6.8,0.04160701856017113,-0.011656144633889198,0.009921452961862087,-0.2339273989200592,-0.3243045210838318,10.180048942565918
6.82,0.0028402626048773527,-0.010144746862351894,-0.01773136854171753,-0.14762566983699799,-0.22422347962856293,10.728708267211914
6.84,-0.03265443816781044,0.023035898804664612,-0.03001168929040432,-0.1610763967037201,0.29215243458747864,10.417835235595703
6.86,0.042123086750507355,0.040286142379045486,-0.046883080154657364,0.017367905005812645,0.6567263007164001,9.717386245727539
6.88,-0.00276898592710495,0.0388832725584507,-0.03044285625219345,0.23473311960697174,0.5451645851135254,9.279947280883789
6.9,-0.059728771448135376,0.0342562273144722,-0.012421670369803905,0.4509026110172272,0.23705793917179108,9.02980899810791
6.92,-0.08398666977882385,0.027756402269005775,0.0035555842332541943,0.5575549602508545,0.0375741682946682,9.451974868774414
6.94,-0.0733015388250351,0.004507352132350206,0.024137137457728386,0.4310707449913025,-0.02319362200796604,9.96303939819336
6.96,-0.05955532565712929,0.0006388095207512379,0.03124958835542202,-0.027810001745820045,-0.08012773841619492,10.275487899780273
6.98,-0.03881567344069481,0.0046747601591050625,0.025104548782110214,-0.22134363651275635,-0.16524486243724823,9.979995727539062
7.0,-0.1336030662059784,0.02602219767868519,0.02788688614964485,-0.09131757915019989,0.15530604124069214,9.623353004455566
7.0200000000000005,-0.08696077018976212,0.010413112118840218,0.024342548102140427,-0.24539753794670105,0.2549370527267456,9.702672958374023
7.04,-0.0339323952794075,0.010518179275095463,-0.011304352432489395,-0.4001913070678711,-0.13471463322639465,9.958654403686523
7.0600000000000005,-0.02247353084385395,-0.001571137341670692,-0.022656571120023727,-0.3525795638561249,-0.40565770864486694,9.801495552062988
7.08,-0.05247688665986061,0.0009893032256513834,-0.03782602772116661,-0.3698354959487915,-0.526933491230011,9.639571189880371
7.1000000000000005,0.07045663893222809,-0.00020952544582542032,-0.028187023475766182,-0.29997608065605164,-0.8634681701660156,9.648024559020996
7.12,0.022386513650417328,-0.042878638952970505,-0.015381857752799988,0.02890041470527649,-0.7498362064361572,9.826560020446777
7.140000000000001,0.04730089381337166,-0.06519783288240433,-0.005864755250513554,0.23540663719177246,-0.2004331648349762,9.830994606018066
7.16,0.0444902628660202,-0.07320822030305862,0.005963864736258984,0.23529815673828125,0.21164797246456146,9.707221031188965
7.18,0.03237007558345795,-0.05555642768740654,0.005189250688999891,0.1298840194940567,0.1857629269361496,9.601567268371582
7.2,-0.006405148189514875,-0.03377937525510788,-0.010336621664464474,0.04607328027486801,0.16328582167625427,9.538095474243164
7.22,0.008394407108426094,-0.02135244756937027,-0.017790494486689568,-0.0373203344643116,0.12051156163215637,9.760799407958984
7.24,-0.04098757728934288,-0.00539938360452652,-0.022243989631533623,-0.17071928083896637,-0.12619584798812866,10.031987190246582
7.26,-0.00974892359226942,0.002398925367742777,-0.003091439139097929,-0.12720231711864471,-0.17696933448314667,10.23511028289795
7.28,-0.007670605555176735,-0.01502076257020235,0.03062111884355545,0.039343252778053284,-0.22800429165363312,10.074531555175781
7.3,-0.015739062801003456,0.001326582278124988,0.025189869105815887,0.40977928042411804,0.11301504820585251,9.940056800842285
7.32,-0.02171475812792778,0.01671452261507511,0.010760048404335976,0.5640919208526611,0.3029178977012634,9.806556701660156
7.34,-0.02799038402736187,0.0230269692838192,-0.03241349011659622,0.6234880685806274,-0.010043500922620296,9.723735809326172
7.36,-0.030748190358281136,0.019982311874628067,-0.04167161509394646,0.4752154052257538,-0.14988973736763,9.512008666992188
7.38,-0.07529069483280182,0.017188426107168198,-0.03774131461977959,0.13426336646080017,-0.03267012536525726,9.442445755004883
7.4,-0.020575694739818573,0.023929497227072716,-0.008542260155081749,-0.2514778971672058,-0.1487133502960205,9.44837474822998
7.42,-0.0006002458976581693,0.029525263234972954,0.035286884754896164,-0.4005754292011261,-0.41295474767684937,10.019477844238281
7.44,-0.017512770369648933,0.017466407269239426,0.053447749465703964,-0.3955937922000885,-0.3053804039955139,10.236717224121094
7.46,0.008046599105000496,-0.02273694798350334,0.029505828395485878,-0.31375211477279663,-0.21924665570259094,10.394636154174805
7.48,0.010422257706522942,-0.031193600967526436,-0.0018114151898771524,-0.20168063044548035,-0.21397534012794495,9.968175888061523
7.5,0.02608240209519863,-0.02464945986866951,-0.0278564915060997,-0.14190146327018738,-0.2161855548620224,9.533001899719238
7.5200000000000005,-0.04888540506362915,0.019036339595913887,-0.04828821122646332,-0.21200108528137207,-0.3309451639652252,9.354838371276855
7.54,-0.08711142092943192,0.037802789360284805,-0.050690315663814545,0.19972237944602966,-0.1421647071838379,9.090428352355957
7.5600000000000005,-0.05027202516794205,0.031235745176672935,-0.009264649823307991,0.6310354471206665,0.057118527591228485,9.11159896850586
7.58,-0.006035882513970137,0.0028499625623226166,0.015798233449459076,0.6547435522079468,0.050997525453567505,9.656608581542969
7.6000000000000005,-0.0025876713916659355,0.04835725203156471,0.04245902597904205,0.35385218262672424,-0.16131412982940674,10.31900691986084
7.62,0.03819045424461365,0.06275424361228943,0.041591618210077286,0.20794309675693512,-0.3797105550765991,10.311506271362305
7.640000000000001,0.016452288255095482,0.043536461889743805,0.021030904725193977,0.05591512843966484,-0.5152031183242798,9.838857650756836
7.66,0.0007883567595854402,-0.009523331187665462,-0.007190491538494825,-0.11846251785755157,-0.10572239011526108,9.831310272216797
7.68,-0.00026610211352817714,0.026360224932432175,-0.03364824876189232,-0.36172786355018616,-0.1461670845746994,10.082328796386719
7.7,0.04693756252527237,0.0733158141374588,-0.033928077667951584,-0.3141842186450958,-0.12274505198001862,9.85222053527832
7.72,0.05323897674679756,0.06874409317970276,-0.02902269922196865,-0.09129545092582703,-0.040880393236875534,9.55718994140625
7.74,-0.007571337278932333,-0.005007009021937847,-0.01643289625644684,0.022354856133461,-0.1110801100730896,9.799389839172363
7.76,-0.01325380802154541,-0.04724925383925438,0.01745406538248062,-0.16021588444709778,-0.10808815807104111,9.792070388793945
7.78,0.022592687979340553,-0.03143196180462837,0.019564758986234665,-0.1895318627357483,-0.20934313535690308,9.984659194946289
7.8,0.014377783983945847,-0.08460352569818497,0.015938058495521545,-0.10719702392816544,-0.3002101480960846,9.54896068572998
7.82,0.015318009071052074,-0.10278819501399994,-0.007652312517166138,-0.06421393901109695,-0.29365256428718567,9.353185653686523
7.84,-0.028920259326696396,-0.07094476372003555,-0.01889200136065483,-0.3547910451889038,-0.15402944386005402,9.595911026000977
7.86,0.02131691575050354,-0.053688257932662964,-0.022078102454543114,-0.6723341345787048,0.00018452684162184596,10.070150375366211
7.88,-0.04975023493170738,-0.011928953230381012,-0.021423151716589928,-0.8459635972976685,0.21917065978050232,10.003705978393555
7.9,-0.04762890934944153,-0.0015315016498789191,-0.011485391296446323,-0.830186128616333,0.18668104708194733,9.737801551818848
7.92,0.015058941207826138,-0.02043810859322548,-0.005808928515762091,-0.1742325872182846,-0.29164567589759827,9.726511001586914
7.94,-0.014695718884468079,-0.03985631465911865,0.003791290568187833,0.9853169322013855,-0.2821159064769745,9.877132415771484
7.96,-0.02062183991074562,0.020117321982979774,0.003951874561607838,1.4297469854354858,-0.2854691743850708,10.041959762573242
7.98,0.0093351099640131,0.07165440171957016,0.006241716910153627,1.5333882570266724,-0.4772842526435852,9.958964347839355
8.0,-0.03939453139901161,0.06320993602275848,-0.005186671856790781,1.020946979522705,-0.5429075956344604,9.409730911254883
8.02,-0.020025597885251045,0.019620506092905998,-0.008058963343501091,0.1442166119813919,0.09337535500526428,9.325581550598145
8.040000000000001,0.005578399635851383,0.05144331231713295,-0.011016206815838814,-0.5230954885482788,0.18920327723026276,9.755228996276855
8.06,0.010752327740192413,0.04189298674464226,-0.005406735930591822,-0.4619876444339752,0.12745651602745056,10.007244110107422
8.08,0.027073128148913383,0.03264714777469635,-0.004434764850884676,-0.37314754724502563,-0.13111455738544464,10.090276718139648
8.1,0.021775610744953156,0.04134858399629593,0.00042796230991370976,-0.10742323100566864,-0.5692938566207886,9.973320007324219
8.120000000000001,-0.04095938056707382,0.046107564121484756,0.00931861437857151,0.029271649196743965,-0.556028425693512,9.193022727966309
8.14,-0.01616010069847107,0.026699407026171684,-0.006554619874805212,0.0233414638787508,-0.19772540032863617,9.337040901184082
8.16,-0.03854992613196373,-0.0258176252245903,-0.013570562936365604,0.02736400067806244,0.21167832612991333,10.04980754852295
8.18,-0.01872202381491661,-0.04002958536148071,-0.018842706456780434,-0.037866558879613876,0.5164080262184143,10.56312370300293
8.2,-0.013549543917179108,0.000607603054959327,-0.015047658234834671,-0.29705098271369934,0.13100746273994446,9.873786926269531
8.22,0.0020393277518451214,0.01693194918334484,-0.00954981055110693,-0.5473408102989197,-0.3963788151741028,9.204179763793945
8.24,0.023341147229075432,-0.016109634190797806,0.007449245546013117,-0.5868229269981384,-0.6671595573425293,9.638385772705078
8.26,0.014928576536476612,-0.007217399310320616,0.02966814488172531,-0.6222085356712341,-0.614288330078125,9.992506980895996
8.28,-0.032383158802986145,-0.002980680437758565,0.04092998802661896,-0.6387488842010498,-0.3700296878814697,10.250152587890625
8.3,0.0390252061188221,0.020906832069158554,0.040144726634025574,-0.399189293384552,-0.3997880518436432,9.763571739196777
8.32,0.06327579915523529,0.016596456989645958,0.03422437608242035,0.3219620883464813,-0.0982004702091217,9.12205982208252
8.34,-0.008767256513237953,-0.0010528468992561102,-0.005293403286486864,0.8909116387367249,0.06146510690450668,9.069015502929688
8.36,0.024451635777950287,0.033533211797475815,-0.02175835520029068,0.9500396251678467,0.08899916708469391,9.641067504882812
8.38,0.03368958458304405,0.0774989128112793,-0.022923048585653305,0.8811677098274231,-0.15504586696624756,10.352643966674805
8.4,0.016718097031116486,0.05673358961939812,-0.02425317093729973,0.3744470775127411,-0.5244043469429016,10.894283294677734
8.42,-0.004027345217764378,-0.010603653267025948,-0.011288554407656193,-0.43008965253829956,-0.3830771744251251,10.355796813964844
8.44,-0.02178058959543705,-0.0073518818244338036,-0.011393257416784763,-0.6241054534912109,-0.16539587080478668,9.699689865112305
8.46,0.023524703457951546,0.04909411072731018,-0.013132050633430481,-0.3933184742927551,-0.11713556200265884,9.36890697479248
8.48,0.0005738948821090162,0.048688583076000214,-0.001656242529861629,-0.094247005879879,-0.155900239944458,9.338733673095703
8.5,0.0025328046176582575,0.022380312904715538,0.009526407346129417,0.04236958920955658,-0.08257346600294113,9.68028736114502
8.52,-0.03647128492593765,-0.014578421600162983,0.01348993182182312,-0.11113376915454865,0.041706427931785583,10.092072486877441
8.540000000000001,-0.020914731547236443,-0.02206970378756523,0.006714358925819397,-0.17300771176815033,0.27834945917129517,10.332341194152832
8.56,0.016182567924261093,-0.007819551043212414,0.0077393511310219765,-0.03824104368686676,0.06105189770460129,9.205915451049805
8.58,-0.002344918204471469,-0.01484233234077692,0.02329777553677559,-0.08223249763250351,-0.4043274223804474,8.522433280944824
8.6,0.0017346258973702788,-0.017092403024435043,0.035081055015325546,-0.3752956688404083,-0.6313197612762451,9.432538032531738
8.620000000000001,0.04127730429172516,-0.030582258477807045,0.04153192415833473,-0.5147155523300171,-0.5617064237594604,10.815488815307617
8.64,0.008518671616911888,-0.022219834849238396,0.03629213571548462,-0.4925037622451782,-0.2366909235715866,10.65032958984375
8.66,0.01950865611433983,-0.009165221825242043,0.019951025024056435,-0.633283793926239,0.1552215963602066,10.189264297485352
8.68,0.07258755713701248,0.01899208500981331,-0.005583747755736113,-0.6975947618484497,-0.08111380785703659,9.928654670715332
8.700000000000001,0.07200266420841217,0.007432675454765558,-0.014921286143362522,-0.6472983360290527,-0.42373502254486084,9.67207145690918
8.72,0.09566666185855865,0.00029053285834379494,-0.011872433125972748,-0.043164003640413284,-0.5292916893959045,9.649588584899902
8.74,0.04954184591770172,-0.01218884252011776,0.028482912108302116,0.6024698615074158,-0.2506435215473175,9.918453216552734
8.76,0.048549577593803406,-0.028493838384747505,0.050962433218955994,0.8897227048873901,0.21054472029209137,9.810044288635254
8.78,0.026955094188451767,-0.016541631892323494,0.049003686755895615,0.7548861503601074,0.41034170985221863,9.543270111083984
8.8,0.015188449993729591,-0.03236585482954979,0.023161601275205612,0.46136173605918884,0.47136759757995605,9.169778823852539
8.82,-0.02106950618326664,-0.033497173339128494,-0.014080079272389412,0.0761861577630043,0.33615151047706604,9.278011322021484
8.84,-0.005788969341665506,-0.009679747745394707,-0.02389909140765667,-0.31969329714775085,-0.1192518025636673,9.945565223693848
8.86,-0.01608728989958763,0.027185523882508278,-0.028223982080817223,-0.44658300280570984,-0.45130980014801025,10.204426765441895
8.88,-0.008421373553574085,0.025225166231393814,-0.0073500932194292545,-0.22768783569335938,-0.6098323464393616,9.956843376159668
8.9,0.002944157924503088,0.03339042514562607,0.023998813703656197,0.1143956407904625,-0.3134683072566986,9.678692817687988
8.92,-0.01887042075395584,0.03040364943444729,0.03093167021870613,0.2438223510980606,0.05074078217148781,9.506209373474121
8.94,0.025615042075514793,0.05322092026472092,0.018584657460451126,0.20053192973136902,0.5100584030151367,9.569153785705566
8.96,-0.031011657789349556,0.07131913304328918,-0.01664396934211254,0.24985705316066742,0.30976879596710205,10.057517051696777
8.98,-0.02037615329027176,0.05819505453109741,-0.03805827721953392,0.09978689253330231,-0.14948847889900208,10.374475479125977
9.0,-0.00801457092165947,0.03984988108277321,-0.01705680415034294,-0.04936734959483147,-0.577802836894989,10.008731842041016
9.02,-0.008900142274796963,0.020998526364564896,0.003045370802283287,-0.2907894253730774,-0.5587088465690613,9.655187606811523
9.040000000000001,0.05411701276898384,-0.0041772471740841866,0.023439085111021996,-0.2379150390625,-0.4582238793373108,9.867380142211914
9.06,0.026779264211654663,-0.05700427293777466,0.042072538286447525,-0.32256147265434265,-0.2770330607891083,9.85368824005127
9.08,0.010291670449078083,-0.025974780321121216,0.005602814722806215,-0.55124431848526,0.3788376450538635,9.727285385131836
9.1,-0.016481731086969376,-0.01885267160832882,-0.018075892701745033,-0.6065754890441895,0.17044894397258759,9.910847663879395
9.120000000000001,0.013480634428560734,-0.06392189860343933,-0.03725964203476906,-0.4336499273777008,0.13678666949272156,9.857475280761719
9.14,0.02106023021042347,-0.08296249061822891,-0.03954140841960907,-0.30879491567611694,0.026078306138515472,9.297189712524414
9.16,-0.005377875175327063,-0.03901291638612747,-0.036728207021951675,-0.3671933710575104,-0.2433527708053589,9.393635749816895
9.18,-0.012737446464598179,-0.03789658844470978,0.012041684240102768,-0.47454124689102173,-0.5861284136772156,9.528291702270508
9.200000000000001,0.003943540155887604,-0.051521461457014084,0.028801754117012024,-0.46953892707824707,-0.48758700489997864,10.188675880432129
9.22,0.03152669221162796,-0.051206156611442566,0.033670391887426376,-0.2891748249530792,0.09069979190826416,10.688709259033203
9.24,-0.0024674341548234224,-0.017969701439142227,0.04001671448349953,0.24052530527114868,0.3899228870868683,10.048086166381836
9.26,-0.005736781749874353,-0.006898283027112484,-0.001598466420546174,0.6919436454772949,0.47591859102249146,9.472634315490723
9.28,-0.02843388356268406,-0.026945117861032486,-0.031673531979322433,0.9235731363296509,0.2082001119852066,9.227423667907715
9.3,0.03781219944357872,-0.015203959308564663,-0.029423505067825317,0.9408584833145142,-0.3114444315433502,9.266942024230957
9.32,0.029522864148020744,-0.003580310847610235,-0.00981342326849699,0.622138261795044,-0.560442328453064,9.414545059204102
9.34,0.05274035409092903,0.01209922507405281,0.03890412300825119,0.18966342508792877,-0.6445214748382568,9.576276779174805
9.36,0.02127428539097309,-3.308012674096972e-05,0.06463032215833664,-0.2361752986907959,-0.5027697682380676,10.459174156188965
9.38,0.05104779079556465,-0.046972405165433884,0.056045860052108765,-0.17334145307540894,-0.039694275707006454,10.195630073547363
9.4,0.08110793679952621,-0.03929789364337921,0.041942376643419266,0.012831494212150574,0.34439486265182495,9.364221572875977
9.42,0.011887270025908947,-0.02357807382941246,0.008365463465452194,0.10429790616035461,-0.03811495378613472,9.243145942687988
9.44,-0.020634666085243225,-0.004887288901954889,-0.027813438326120377,0.022982852533459663,-0.14009696245193481,9.987092971801758
9.46,0.0139314578846097,0.00114121672231704,-0.0548115000128746,-0.28745999932289124,-0.17256778478622437,10.606634140014648
9.48,-0.013559411279857159,0.00554016325622797,-0.07243115454912186,-0.519511878490448,0.11890493333339691,10.107733726501465
9.5,0.02348870411515236,0.01678907684981823,-0.029266556724905968,-0.7630490064620972,-0.10634580254554749,9.579638481140137
9.52,-0.04134444147348404,0.019777903333306313,0.010993985459208488,-0.8362016677856445,0.01850990578532219,9.596096992492676
9.540000000000001,-0.002592068165540695,-0.02243141457438469,0.04581229016184807,-0.6623006463050842,0.0857800617814064,10.217489242553711
9.56,-0.06608473509550095,-0.01621415466070175,0.0659351572394371,-0.33094775676727295,-0.0884876400232315,10.738256454467773
9.58,-0.012434740550816059,0.010016532614827156,0.04302448034286499,0.4742240905761719,-0.02274392545223236,9.852418899536133
9.6,-0.01708730310201645,0.024475274607539177,0.019991643726825714,0.8852478265762329,-0.3317316770553589,8.861660957336426
9.620000000000001,-0.04318388178944588,-1.7338295947411098e-05,0.0038787145167589188,1.01975417137146,-0.005596654023975134,8.929585456848145
9.64,-0.007912450470030308,-0.0329565703868866,0.014677741564810276,0.827881395816803,0.3663026690483093,9.570589065551758
9.66,0.006530736573040485,-0.023360716179013252,0.007291282992810011,0.3230050504207611,0.30292442440986633,10.323960304260254
9.68,0.01913486048579216,0.0019244839204475284,0.02719763293862343,-0.08323801308870316,-0.19890499114990234,10.226210594177246
9.700000000000001,0.00407056137919426,-0.024346381425857544,0.0185635294765234,-0.24966266751289368,-0.37913230061531067,9.644618034362793
9.72,0.026860710233449936,-0.053623441606760025,0.030252374708652496,-0.32662180066108704,-0.3904343545436859,9.112161636352539
9.74,0.019452674314379692,0.0028805891051888466,0.03748265653848648,-0.30182957649230957,-0.3457212746143341,9.505037307739258
9.76,0.012627032585442066,0.06193458288908005,0.012894718907773495,-0.07421839237213135,-0.07006941735744476,10.03028392791748
9.78,0.01406064722687006,0.054904695600271225,-0.030009768903255463,-0.0544477254152298,-0.04147758707404137,10.442519187927246
9.8,0.038651466369628906,0.039775099605321884,-0.036199554800987244,0.06916636228561401,-0.12025129050016403,10.154217720031738
9.82,0.04613640159368515,0.03372161462903023,-0.024362510070204735,0.1580076813697815,-0.08637380599975586,9.579874992370605
9.84,0.05956665799021721,0.03206823766231537,-0.00967750046402216,0.11903775483369827,0.22100889682769775,9.29700756072998
9.86,0.004264409653842449,0.024981185793876648,-0.002946363529190421,0.11697451025247574,0.08315644413232803,9.325030326843262
9.88,0.06281446665525436,0.025380592793226242,-0.013108261860907078,0.13261264562606812,-0.06568804383277893,9.76279354095459
9.9,-0.059111203998327255,0.04017692059278488,-0.028515256941318512,-0.10128241032361984,0.08214708417654037,10.781296730041504
9.92,-0.014395751059055328,0.018736442551016808,-0.021966468542814255,-0.242020845413208,0.25492891669273376,10.501872062683105
9.94,0.024591483175754547,-0.020456306636333466,-0.011010740883648396,-0.14715471863746643,-0.0059785498306155205,9.380533218383789
9.96,-0.04432263597846031,-0.01887301355600357,-0.002254428109154105,-0.22752773761749268,0.12622293829917908,9.144197463989258
9.98,-0.04149509593844414,-0.00765546690672636,0.006661945953965187,-0.24633671343326569,-0.11550479382276535,9.872078895568848
10.0,0.025430364534258842,-0.027877550572156906,-0.008081926964223385,-0.05899711325764656,-0.3322050869464874,10.028765678405762
10.02,-0.012289907783269882,-0.08633193373680115,-0.0054457769729197025,0.012729520909488201,0.011190933175384998,9.432010650634766
10.040000000000001,0.006732166279107332,-0.09996408224105835,0.006163051817566156,-0.07725654542446136,0.17149312794208527,9.316384315490723
10.06,-0.041723694652318954,-0.029520206153392792,0.01808973401784897,-0.371826708316803,-0.10985076427459717,10.012565612792969
10.08,-0.023588426411151886,-0.029473962262272835,0.009046636521816254,-0.4257189929485321,-0.31936100125312805,10.412407875061035
10.1,-0.027430957183241844,-0.05122799053788185,0.004535148851573467,-0.5156263709068298,-0.25934141874313354,10.149893760681152
10.120000000000001,-0.01818867027759552,-0.03313076123595238,-0.00045338383642956614,-0.3540036678314209,0.10251374542713165,10.457405090332031
10.14,0.027061011642217636,-0.005669121164828539,-0.009030689485371113,0.20513883233070374,0.07485424727201462,10.315299034118652
10.16,0.005614957306534052,-0.009033814072608948,-0.014469400979578495,0.5584080219268799,-0.19998078048229218,9.291458129882812
10.18,0.05399910360574722,0.017283782362937927,-0.01692393235862255,0.7615979313850403,-0.33057892322540283,8.65031623840332
10.200000000000001,-0.005063194781541824,0.031108444556593895,-0.0152413509786129,0.8472898006439209,-0.15430761873722076,9.066874504089355
10.22,0.03734166547656059,0.03604894131422043,-0.008192276582121849,0.6875479221343994,0.06464359909296036,9.995706558227539
10.24,0.020611682906746864,0.04396221786737442,0.005807089153677225,0.4556574523448944,0.3469398617744446,10.273486137390137
10.26,-0.07148291170597076,0.04831347614526749,1.020553372654831e-05,0.18201760947704315,0.4399919807910919,9.887309074401855
10.28,-0.07336270809173584,0.048299480229616165,-0.011806964874267578,-0.18739360570907593,0.3157547414302826,9.749471664428711
10.3,-0.023791003972291946,0.048984285444021225,-0.023052820935845375,-0.34432685375213623,-0.08066822588443756,9.674110412597656
10.32,0.008192304521799088,0.039599817246198654,-0.019038092344999313,-0.17423991858959198,-0.43659061193466187,9.380876541137695
10.34,-0.005339605268090963,0.04632534459233284,0.002859903033822775,-0.03386944904923439,-0.5065922737121582,9.624223709106445
10.36,-0.1117132231593132,0.03323914110660553,0.01923544518649578,-0.052556268870830536,0.17424185574054718,10.015459060668945
10.38,-0.005327101796865463,-0.0038809047546237707,0.011075939051806927,0.0013185819843783975,0.4920930564403534,10.183399200439453
10.4,-0.038735609501600266,-0.013946261256933212,-0.0036161195021122694,0.11705172806978226,0.39689183235168457,9.972901344299316
10.42,-0.047014642506837845,0.0033504886087030172,-0.01885126531124115,-0.2249756157398224,0.17575086653232574,9.924838066101074
10.44,-0.04492432624101639,-0.008977842517197132,-0.0144156813621521,-0.5443568229675293,-0.43542590737342834,10.050165176391602
10.46,-0.06990080326795578,-0.034232378005981445,-0.027149785310029984,-0.6523854732513428,-0.6978309750556946,10.003118515014648
10.48,-0.006069320719689131,-0.04197310656309128,0.0016229556640610099,-0.6563891172409058,-0.5931174159049988,9.305366516113281
10.5,-0.011864988133311272,0.0009211228461936116,0.026936685666441917,-0.46839359402656555,-0.4265057444572449,9.158251762390137
10.52,0.03348834440112114,0.00020922653493471444,0.05263163521885872,-0.372379869222641,-0.21845176815986633,9.66995906829834
10.540000000000001,0.01662786304950714,-0.03278731182217598,0.03663823381066322,-0.39666956663131714,0.0996251031756401,10.192065238952637
10.56,0.07219477742910385,-0.0136636383831501,0.003545500570908189,-0.01291816309094429,0.13182181119918823,10.35150146484375
10.58,0.043308455497026443,0.005665118340402842,-0.04350461810827255,0.42771583795547485,-0.05642809718847275,10.323744773864746
10.6,-0.010771780274808407,-0.0038444590754806995,-0.06151130422949791,1.0183587074279785,-0.35144558548927307,9.400898933410645
10.620000000000001,0.011833826079964638,-0.01919671706855297,-0.0488194040954113,0.911268413066864,-0.46239909529685974,8.872845649719238
10.64,0.0015792528865858912,-0.0018801630940288305,-0.01764807291328907,0.41691628098487854,-0.26013755798339844,9.461474418640137
10.66,-0.00424186373129487,0.016887793317437172,0.00904831662774086,-0.0729583278298378,0.051948532462120056,10.551369667053223
10.68,-0.001729705254547298,0.03320677578449249,0.01270363200455904,-0.31957003474235535,0.2566384971141815,10.327739715576172
10.700000000000001,0.0045818849466741085,0.01829197257757187,0.015076393261551857,-0.2760276198387146,0.6026632189750671,9.61733627319336
10.72,0.012598525732755661,0.029511326923966408,0.005193134769797325,-0.049023982137441635,0.32886406779289246,9.469870567321777
10.74,0.007986515760421753,0.02947342023253441,-0.004218996036797762,0.1309414803981781,-0.2584443986415863,10.210246086120605
10.76,0.011916214600205421,-0.034825216978788376,0.005698652938008308,-0.1058303713798523,-0.6490767598152161,10.63162899017334
10.78,-0.0527883805334568,-0.03874417394399643,0.01393834501504898,-0.25099748373031616,-0.6721500754356384,10.006388664245605
10.8,-0.013528665527701378,-0.024546055123209953,0.026808761060237885,-0.060307543724775314,0.11547431349754333,9.047300338745117
10.82,0.007833827286958694,-0.0511324480175972,0.02566821314394474,0.17950284481048584,0.3373537063598633,8.766256332397461
10.84,0.0352945402264595,-0.10305475443601608,-0.0072186607867479324,0.15566353499889374,0.16857145726680756,9.266946792602539
10.86,0.04215110093355179,-0.0957377627491951,-0.0037582169752568007,-0.04404343664646149,-0.050808947533369064,10.223875999450684
10.88,0.02606271579861641,-0.08573748916387558,0.004265979863703251,-0.05376577004790306,-0.5649452805519104,10.695783615112305
10.9,0.03628620132803917,-0.08403857797384262,0.0021659419871866703,-0.11895683407783508,-0.6484643816947937,10.097052574157715
10.92,0.0934724435210228,-0.08174127340316772,0.0012740675592795014,-0.2056068778038025,-0.5020124912261963,8.914165496826172
10.94,0.02401650696992874,-0.029107024893164635,-0.005068636033684015,-0.3429033160209656,-0.26037314534187317,8.978150367736816
10.96,0.008168470114469528,0.042400773614645004,-0.04826661944389343,-0.34476736187934875,0.2141031175851822,9.988592147827148
10.98,-0.02930619567632675,0.061479516327381134,-0.08693069964647293,-0.19915771484375,0.5106295347213745,10.187376022338867
11.0,-0.03405104950070381,0.05004027485847473,-0.08180002123117447,0.6104334592819214,0.22137178480625153,10.159997940063477
11.02,-0.0060452427715063095,0.03991476818919182,-0.026335733011364937,1.1217015981674194,0.09805411100387573,10.07702350616455
11.040000000000001,-0.03350312262773514,0.07355361431837082,0.02353709191083908,1.164494276046753,0.1003803238272667,9.74051284790039
11.06,-0.07487481087446213,0.0939752385020256,0.03460808843374252,1.0775580406188965,-0.040642399340867996,9.531597137451172
11.08,-0.05676120147109032,0.07641546428203583,0.016968807205557823,0.4204866588115692,0.29298749566078186,9.649760246276855
11.1,-0.0480508990585804,0.06546841561794281,0.008916312828660011,-0.2650269865989685,0.0651279017329216,10.217811584472656
11.120000000000001,-0.02677180804312229,0.023683495819568634,0.00582641689106822,-0.5413574576377869,-0.1166851818561554,10.502357482910156
11.14,-0.022830136120319366,0.02978447824716568,0.029028834775090218,-0.6015340685844421,0.1952875256538391,10.228300094604492
11.16,-0.015522068366408348,0.031147008761763573,0.026524744927883148,-0.43215182423591614,-0.42174196243286133,9.706116676330566
11.18,0.003645949764177203,0.02932928130030632,-0.014325182884931564,-0.4812547564506531,-0.7795692682266235,9.011070251464844
11.200000000000001,0.03140968084335327,-0.002377778058871627,-0.053688518702983856,-0.3520243167877197,-0.5712795853614807,8.83772087097168
11.22,0.026303410530090332,-0.02665737271308899,-0.04649018123745918,-0.07630795240402222,-0.2711193561553955,9.256555557250977
11.24,0.028285888954997063,-0.03278890252113342,-0.027680853381752968,0.011515019461512566,-0.3366677463054657,10.175484657287598
11.26,0.03858835622668266,-0.0484628826379776,-0.003570942208170891,-0.12305358052253723,-0.26583102345466614,10.597732543945312
11.28,0.07211656868457794,-0.04767616465687752,0.0204513818025589,-0.37294045090675354,0.007624866906553507,9.722640037536621
11.3,0.051495689898729324,-0.034711312502622604,0.04201167821884155,-0.3802977204322815,0.12876667082309723,9.905486106872559
11.32,0.01569320820271969,-0.03629588335752487,0.016525859013199806,-0.1020045131444931,0.13464903831481934,9.794883728027344
11.34,0.010235674679279327,-0.059689197689294815,-0.020655525848269463,0.16311867535114288,0.10307706147432327,9.604220390319824
11.36,-0.002946774708107114,-0.05151429772377014,-0.053699616342782974,0.001965755596756935,-0.00830343458801508,9.615193367004395
11.38,-0.011065622791647911,-0.024579040706157684,-0.05906585231423378,-0.134007066488266,0.02294320799410343,9.785792350769043
11.4,-0.05678585171699524,-0.030424749478697777,-0.04265391826629639,0.14812840521335602,-0.18033230304718018,9.984787940979004
11.42,-0.029908690601587296,-0.051557231694459915,-0.01506574172526598,0.46383988857269287,0.017104361206293106,10.01174545288086
11.44,-0.018484758213162422,-0.042065419256687164,0.02796376310288906,0.5683441758155823,0.3105362057685852,10.12352466583252
11.46,-0.035454053431749344,-0.050312478095293045,0.038281895220279694,0.4752286374568939,0.17022152245044708,10.274568557739258
11.48,-0.04273820295929909,-0.044958584010601044,0.010739392600953579,0.2516719400882721,-0.009493651799857616,9.82712173461914
11.5,-0.00957403052598238,-0.017083752900362015,-0.023921340703964233,0.002059497172012925,-0.2936411499977112,9.122794151306152
11.52,-0.0614331029355526,0.0025922972708940506,-0.03536094352602959,-0.2137998640537262,-0.6267803907394409,9.322283744812012
11.540000000000001,-0.02078425884246826,0.02032487839460373,-0.01675335131585598,-0.07098998129367828,-0.4674907326698303,9.731801986694336
11.56,0.044027138501405716,0.008239733055233955,0.014655566774308681,0.18015626072883606,-0.2928747236728668,9.908793449401855
11.58,0.0847494900226593,0.00047182172420434654,0.04050546512007713,0.3881995677947998,-0.29009586572647095,9.827468872070312
11.6,0.06902015954256058,0.01974199339747429,0.039769578725099564,0.6908641457557678,-0.14599047601222992,10.06126594543457
11.620000000000001,-0.006825690157711506,0.028263162821531296,0.003938624169677496,0.664687991142273,-0.1648649275302887,10.181439399719238
11.64,-0.008087563328444958,0.0315990075469017,-0.05199060216546059,0.3670111894607544,0.09345506876707077,9.354763984680176
11.66,0.00756248040124774,0.05246850848197937,-0.0680123120546341,0.1527480036020279,-0.018120408058166504,8.672187805175781
11.68,-0.013465199619531631,0.0571884922683239,-0.040805965662002563,0.057598646730184555,-0.12795516848564148,9.304350852966309
11.700000000000001,-0.0279581006616354,0.03403393551707268,-0.018129389733076096,-0.13450120389461517,0.10720717161893845,10.813716888427734
11.72,-0.05233055725693703,0.04559798538684845,-0.007285911124199629,-0.24272657930850983,0.14561964571475983,10.791569709777832
11.74,-0.017096474766731262,0.05438574030995369,-0.0018315577181056142,-0.3617030084133148,-0.19145415723323822,9.811882972717285
11.76,-0.07533660531044006,0.03153581544756889,-0.005644054152071476,-0.29178208112716675,0.2058083415031433,9.406795501708984
11.78,-0.017047664150595665,0.0066243004985153675,0.007803561165928841,-0.17916718125343323,0.2961113154888153,9.535924911499023
11.8,-0.10836256295442581,0.021800465881824493,0.02347644977271557,-0.23904894292354584,-0.16498200595378876,10.08395004272461
11.82,-0.023315956816077232,0.062220506370067596,0.025425251573324203,-0.26630765199661255,-0.22287617623806,10.35771656036377
11.84,-0.035088591277599335,0.03389095142483711,0.01073467917740345,0.13729825615882874,-0.5441856384277344,9.731719970703125
11.86,-0.04474300891160965,-0.024976246058940887,-0.009119466878473759,0.1407916098833084,-0.3204040825366974,9.33177375793457
11.88,0.034487269818782806,0.01508203987032175,-0.004191650077700615,0.14085446298122406,-0.09166214615106583,9.415205955505371
11.9,-0.004057958722114563,0.034570422023534775,0.008182217366993427,0.09972599893808365,-0.49181511998176575,10.05588436126709
11.92,0.04553699493408203,0.019444594159722328,-0.0004071639268659055,0.0008495213696733117,-0.6678312420845032,10.42806339263916
11.94,0.02245938777923584,-0.005820826627314091,-0.003975511994212866,-0.07991284132003784,-0.46366778016090393,9.853928565979004
11.96,0.01711699366569519,0.0296409223228693,-0.02214159071445465,-0.031184254214167595,-0.11012493818998337,9.604185104370117
11.98,0.033195268362760544,0.06110295653343201,-0.018130455166101456,0.40001100301742554,0.0637265294790268,9.350292205810547
12.0,0.0012720422819256783,0.019880974665284157,-0.016576550900936127,0.5842902064323425,0.18683387339115143,9.227750778198242
12.02,0.004883991554379463,-0.012013442814350128,-0.011040923185646534,0.2666729986667633,0.22119100391864777,9.676826477050781
12.040000000000001,0.03131593391299248,0.004246601834893227,-0.0007821967010386288,0.046821799129247665,-0.037097636610269547,10.323335647583008
12.06,0.013378193601965904,0.001981013221666217,-0.007305628154426813,0.11594259738922119,-0.23286302387714386,10.007888793945312
12.08,-0.03554578125476837,-0.0073313419707119465,-0.005816346034407616,0.0029976374935358763,-0.1280565857887268,8.955519676208496
12.1,-0.020191509276628494,-0.004881709814071655,-0.0030082936864346266,-0.307716429233551,-0.01700616627931595,9.311843872070312
12.120000000000001,-0.0741879940032959,0.0016490014968439937,-0.016102980822324753,-0.48070481419563293,0.3070288896560669,10.51816463470459
12.14,-0.07303938269615173,0.03290689364075661,-0.005469311494380236,-0.6998933553695679,0.26244673132896423,10.788375854492188
12.16,-0.06535489857196808,0.029930798336863518,-0.003335743211209774,-0.6611211895942688,-0.19468018412590027,9.863147735595703
12.18,-0.0664757490158081,0.01632038503885269,-0.0034154511522501707,-0.5378457307815552,-0.3833823800086975,9.215479850769043
12.200000000000001,-0.03331296890974045,0.032752830535173416,-0.0017166179604828358,-0.3068316876888275,-0.34797945618629456,9.19273567199707
12.22,-0.08104696869850159,0.03953612223267555,-0.006218444090336561,-0.14098390936851501,-0.33297041058540344,9.542966842651367
12.24,-0.007334718946367502,0.0418468713760376,0.000722280761692673,0.23232057690620422,-0.49915677309036255,9.93644905090332
12.26,0.022678861394524574,0.021848080679774284,0.018452178686857224,0.7292921543121338,-0.6651931405067444,9.845419883728027
12.280000000000001,-0.036111243069171906,0.01109131146222353,0.03153643757104874,0.6262778043746948,-0.5558459758758545,10.03144645690918
12.3,0.02837439253926277,0.016329599544405937,0.02733483351767063,0.23311318457126617,-0.18984496593475342,10.061891555786133
12.32,0.025170691311359406,-0.02485007978975773,0.009518830105662346,-0.2347586452960968,0.1265641152858734,10.114666938781738
12.34,-0.008618535473942757,-0.01034984178841114,-0.011826564557850361,-0.632798433303833,0.29814913868904114,9.702460289001465
12.36,0.026708027347922325,0.03886184096336365,-0.0233840923756361,-0.7983506917953491,-0.139216810464859,9.798431396484375
12.38,0.0020193452946841717,0.03703899309039116,-0.011988840065896511,-0.28195199370384216,-0.6608086228370667,9.820961952209473
12.4,0.019450722262263298,-0.0025878865271806717,-0.014428378082811832,0.11737069487571716,-0.662789523601532,10.064879417419434
12.42,0.020558297634124756,0.009719140827655792,0.0032624194864183664,0.3297889232635498,-0.17847415804862976,10.112521171569824
12.44,-0.02101595513522625,0.010598583146929741,0.014019162394106388,0.3937719762325287,0.11638817191123962,9.940149307250977
12.46,-0.02418459765613079,0.0422343835234642,0.013873405754566193,0.39894524216651917,0.6798540949821472,9.670781135559082
12.48,-0.021013936027884483,0.038541533052921295,0.0003565580409485847,0.06996112316846848,0.6590878367424011,9.338000297546387
12.5,-0.07425957173109055,0.05428004637360573,-0.009209975600242615,-0.2812252938747406,0.10482423007488251,9.323421478271484
12.52,-0.008036698214709759,0.053620897233486176,-0.002007601084187627,-0.4676440358161926,-0.7139204740524292,9.541058540344238
12.540000000000001,-0.03846673667430878,0.06572624295949936,-0.0028553542215377092,-0.33794668316841125,-0.8317912220954895,10.244773864746094
12.56,0.0037590486463159323,0.050355441868305206,0.023661183193325996,-0.05092211067676544,-0.5389542579650879,10.186214447021484
12.58,0.0018093260005116463,0.01698201149702072,0.007808709051460028,0.1094522774219513,-0.33292195200920105,9.469265937805176
12.6,-0.015163714997470379,0.011015625670552254,-0.005183002445846796,0.11265210062265396,0.03129345178604126,9.102032661437988
12.620000000000001,0.015918809920549393,0.005553425755351782,-0.01123612467199564,-0.12290492653846741,0.26082468032836914,9.701086044311523
12.64,0.03128999471664429,0.03548295423388481,-0.003412040416151285,-0.3191259801387787,0.0654871016740799,10.222752571105957
12.66,0.031272757798433304,-0.005072419997304678,0.0011913205962628126,-0.43422365188598633,-0.21443204581737518,10.374414443969727
12.68,0.03471501171588898,-0.0709991529583931,0.005152832716703415,-0.259290486574173,-0.7817915678024292,9.767656326293945
12.700000000000001,0.0496966652572155,-0.06330405175685883,0.015757087618112564,0.030430948361754417,-0.9136620163917542,9.208367347717285
12.72,0.044444739818573,-0.08318834751844406,0.02763611450791359,0.08519827574491501,-0.8736600279808044,8.763172149658203
12.74,0.026783544570207596,-0.10286480188369751,0.007139156106859446,-0.17332644760608673,-0.4301036298274994,9.671204566955566
12.76,0.01328349020332098,-0.07833339273929596,-0.037349883466959,-0.9410801529884338,0.478865385055542,11.068355560302734
12.780000000000001,0.06074483320116997,-0.0010846753139048815,-0.0717417448759079,-1.1199108362197876,1.0827279090881348,10.99935531616211
12.8,0.024535100907087326,0.011543706990778446,-0.051937371492385864,-0.863332211971283,0.21378037333488464,9.448572158813477
12.82,-0.08112938702106476,-0.018968366086483,-0.028541559353470802,-0.7048524618148804,-0.3732890188694,8.7302885055542
12.84,0.016024461016058922,0.03061310574412346,0.03480977192521095,-0.25344178080558777,-0.7065144181251526,9.379190444946289
12.86,0.014083892107009888,0.025475749745965004,0.08087710291147232,0.9898574948310852,-1.0331746339797974,10.412405967712402
12.88,-0.043415170162916183,-0.019200798124074936,0.047329630702733994,1.5176399946212769,-0.20075666904449463,10.421879768371582
12.9,0.042430926114320755,-0.038776617497205734,-0.01792313903570175,1.1169203519821167,0.6044947504997253,9.57829761505127
12.92,-0.02763652801513672,0.01889016292989254,-0.05488991737365723,0.5224655866622925,0.658802330493927,8.984613418579102
12.94,-0.022397132590413094,0.07019653916358948,-0.05271833389997482,-0.13051936030387878,0.11765553802251816,9.451742172241211
12.96,0.021881265565752983,0.044732511043548584,-0.018515722826123238,-0.507819414138794,-0.7240396738052368,10.013766288757324
12.98,-0.058296799659729004,0.009349429979920387,0.010836991481482983,-0.7646300792694092,-0.9289001822471619,10.28431510925293
13.0,-0.04603993520140648,0.020453281700611115,0.02432260476052761,-0.8332724571228027,-0.640146017074585,10.504980087280273
13.02,-0.06680683046579361,0.07652352750301361,0.014703115448355675,-0.7422274947166443,-0.1287585347890854,10.216633796691895
13.040000000000001,-0.02983914315700531,0.1109168604016304,0.00022650242317467928,-0.10029133409261703,-0.0038577637169510126,9.806687355041504
13.06,-0.020212994888424873,0.038748424500226974,-0.029923230409622192,0.5979095101356506,0.06978019326925278,9.278864860534668
13.08,-0.0022343217860907316,-0.03976698964834213,-0.01834522746503353,0.5467358231544495,-0.062418654561042786,8.966386795043945
13.1,-0.008107847534120083,0.009476318955421448,-0.012400858104228973,0.17699503898620605,-0.2675420045852661,9.374603271484375
13.120000000000001,0.015098349191248417,0.004671965725719929,0.004749880637973547,-0.05518484488129616,-0.4553215503692627,9.751548767089844
13.14,-0.02071126364171505,-0.07318519800901413,0.024157755076885223,-0.2402939349412918,-0.33863887190818787,10.22114086151123
13.16,0.003263297490775585,-0.10110192745923996,0.017063267529010773,-0.407977819442749,-0.20881861448287964,10.277674674987793
13.18,-0.013709649443626404,-0.012562542222440243,0.02770858444273472,-0.9206416010856628,-0.14990560710430145,10.168604850769043
13.200000000000001,-0.0324496291577816,0.01574631780385971,0.00611423933878541,-0.8531378507614136,-0.23159590363502502,9.685242652893066
13.22,0.01173559669405222,-0.031576287001371384,-0.007006381638348103,-0.5887945294380188,-0.18897272646427155,9.53591251373291
13.24,0.012932425364851952,-0.07435335963964462,-0.019048504531383514,-0.4648754894733429,-0.2594592869281769,9.46103286743164
13.26,-0.034901026636362076,-0.042956940829753876,-0.02921571582555771,-0.3002174198627472,-0.38781604170799255,9.767123222351074
13.280000000000001,0.014896511100232601,0.008653145283460617,-0.019434625282883644,0.015897240489721298,-0.4489971697330475,9.82717227935791
13.3,-0.008061947301030159,-0.008520528674125671,-0.027520759031176567,0.10921328514814377,-0.33408084511756897,9.722723007202148
13.32,0.05350721627473831,-0.07590223103761673,0.0012254049070179462,0.23163454234600067,-0.043291155248880386,9.654272079467773
13.34,-0.016433753073215485,-0.06884676963090897,0.021557742729783058,0.05994708091020584,-0.1388101577758789,9.733538627624512
13.36,-0.038713254034519196,-0.0414697639644146,0.006473802961409092,0.05727619305253029,0.04519088193774223,10.128417015075684
13.38,-0.034533604979515076,-0.04787592589855194,-0.010548154823482037,0.10913395881652832,0.5380133390426636,10.025217056274414
13.4,-0.04449302330613136,-0.030219007283449173,-0.02844732068479061,-0.03594695031642914,0.23506243526935577,10.011940956115723
13.42,-0.03921571746468544,-0.008610393851995468,-0.02880089357495308,0.18524956703186035,-0.4320615828037262,9.6810884475708
13.44,-0.03042108751833439,-0.00012381677515804768,-0.004091416019946337,0.2915126383304596,-0.7586274743080139,9.694117546081543
13.46,0.01438493374735117,0.004789283033460379,0.01683858036994934,0.2585216760635376,-0.8645197153091431,9.318206787109375
13.48,0.052922382950782776,0.03377432003617287,0.029219921678304672,0.23171766102313995,-0.5150595903396606,9.519865036010742
13.5,0.011924436315894127,0.02326122112572193,0.01881316490471363,0.061143457889556885,-0.09020230174064636,10.291515350341797
13.52,0.027121081948280334,0.03683247044682503,-0.01608748361468315,-0.2046564370393753,0.46975845098495483,10.79977798461914
13.540000000000001,0.004236718639731407,0.04936929792165756,-0.04032352939248085,-0.020656850188970566,0.0916900783777237,10.194576263427734
13.56,-0.039881955832242966,0.033490270376205444,-0.03415114805102348,0.3103176951408386,-0.1568095088005066,9.126614570617676
13.58,-0.04352119192481041,0.004818998277187347,-0.003155485726892948,0.26344865560531616,-0.6751936078071594,8.955632209777832
13.6,-0.02606474608182907,0.017241379246115685,0.018711011856794357,0.04548073187470436,-0.8356975317001343,9.712632179260254
13.620000000000001,0.012696540914475918,-0.01447602454572916,0.020646773278713226,-0.03861486166715622,-0.550671398639679,10.013339042663574
13.64,-0.015245508402585983,-0.03670455142855644,0.013387925922870636,-0.08904603123664856,-0.07820852845907211,9.90487289428711
13.66,-0.014656088314950466,-0.057916946709156036,0.004603405483067036,-0.47032684087753296,0.656897246837616,10.185396194458008
13.68,-0.034256815910339355,-0.051984984427690506,-0.006369562819600105,-1.014101266860962,0.30525535345077515,10.1395845413208
13.700000000000001,0.023909486830234528,-0.011826040223240852,0.0024597833398729563,-1.143364667892456,-0.5723916292190552,10.035419464111328
13.72,-0.021251093596220016,-0.03191253915429115,0.010572703555226326,-0.9063885807991028,-0.9864616990089417,9.366981506347656
13.74,-0.014967046678066254,-0.0028814903926104307,0.025794396176934242,-0.6053040027618408,-0.8277736902236938,9.176899909973145
13.76,0.01784750446677208,0.011915420182049274,0.03005640208721161,-0.2522953152656555,-0.2828023135662079,9.629623413085938
13.780000000000001,0.040852535516023636,0.005889663007110357,-0.006654092110693455,0.5407476425170898,0.21672794222831726,9.923956871032715
13.8,0.008429564535617828,-0.023825528100132942,-0.03554666042327881,1.1768882274627686,0.2504830062389374,9.880630493164062
13.82,-0.02495460771024227,-0.007332701236009598,-0.029580000787973404,1.147178053855896,-0.12974922358989716,9.844413757324219
13.84,-0.025100264698266983,0.013226219452917576,-0.006106331944465637,0.603860080242157,-0.4054824709892273,9.585087776184082
13.86,0.01359561737626791,0.0003941117611248046,0.010631183162331581,-0.15588875114917755,-0.4016135334968567,9.743682861328125
13.88,0.017834311351180077,-0.04326185584068298,0.010964027605950832,-0.7418849468231201,-0.4046461582183838,10.42104434967041
13.9,-0.05386656895279884,-0.029705524444580078,0.0258948877453804,-0.7443522810935974,-0.13642452657222748,10.548027992248535
13.92,-0.017363114282488823,-0.0026253382675349712,0.019309552386403084,-0.27925926446914673,0.00675522955134511,9.69916820526123
13.94,0.003404116490855813,-0.008793852292001247,0.009636811912059784,0.1963125318288803,-0.25067541003227234,8.735066413879395
13.96,-0.04306463897228241,-0.0257070604711771,-0.03506522625684738,0.49170246720314026,-0.20227296650409698,9.008907318115234
13.98,-0.027164725586771965,-0.03195662051439285,-0.03518570214509964,0.31551122665405273,-0.1381213366985321,9.776566505432129
14.0,-0.0250288974493742,-0.03068045899271965,-0.01571379043161869,-0.04762747511267662,-0.3086123466491699,10.360921859741211
14.02,-0.04892602562904358,-0.02701687067747116,0.008425329811871052,-0.20493227243423462,-0.5045468211174011,10.530019760131836
14.040000000000001,0.0008561321883462369,-0.023384403437376022,0.020446287468075752,-0.5847837328910828,-0.39027824997901917,10.62705135345459
14.06,-0.041551489382982254,0.013158421963453293,0.01670036092400551,-0.5150824189186096,-0.17125055193901062,9.427977561950684
14.08,-0.006124673876911402,-0.008803421631455421,-0.0029362563509494066,-0.09519915282726288,0.07879674434661865,8.791029930114746
14.1,0.005462875589728355,-0.0016060399357229471,-0.020192084833979607,0.29675906896591187,-0.11446622759103775,9.203245162963867
14.120000000000001,-0.002530163386836648,0.002848988398909569,-0.015230120159685612,0.5883319973945618,-0.4506644010543823,10.093212127685547
14.14,-0.0020063037518411875,-0.01893669366836548,-0.014979630708694458,0.4872925579547882,-0.6122924089431763,10.516124725341797
14.16,0.041114721447229385,-0.0131025779992342,-0.0007598013035021722,0.1154952347278595,-0.6588270664215088,9.928077697753906
14.18,0.007723203394562006,0.004881749395281076,0.0019325688481330872,-0.17539164423942566,-0.543430745601654,9.510371208190918
14.200000000000001,0.008115928620100021,0.04880807176232338,0.024929162114858627,-0.2526572644710541,-0.15491487085819244,9.609786987304688
14.22,-0.03173486888408661,0.020691150799393654,0.02549302764236927,-0.15626737475395203,0.05127336084842682,9.967584609985352
14.24,0.0055593205615878105,0.0034851969685405493,0.031043820083141327,-0.22309808433055878,-0.19183093309402466,10.146918296813965
14.26,0.002681678393855691,0.007396953646093607,0.028174161911010742,-0.06623365730047226,-0.26894980669021606,10.0340576171875
14.280000000000001,0.06943243741989136,0.002319029299542308,0.004721222445368767,0.20024709403514862,-0.4113042652606964,9.682353973388672
14.3,0.03354506567120552,-0.013183673843741417,-0.01830858737230301,0.27610674500465393,-0.36697208881378174,9.230815887451172
14.32,0.04105285555124283,-0.009494646452367306,-0.01290847361087799,0.07056435942649841,-0.4216083884239197,9.252972602844238
14.34,0.02578146755695343,0.000568537856452167,0.006418251898139715,-0.13402912020683289,-0.41521596908569336,10.173418998718262
14.36,-0.02950276993215084,-0.027779124677181244,0.006864266004413366,-0.26732784509658813,0.0641365498304367,10.973766326904297
14.38,-0.012918605469167233,-0.03455452620983124,0.00056516716722399,-0.32117128372192383,0.42498692870140076,10.051309585571289
14.4,-0.021105561405420303,0.0038803869392722845,-0.006779558025300503,-0.35043543577194214,0.15160955488681793,8.522005081176758
14.42,-0.00522373104467988,0.02073860354721546,-0.010265449061989784,-0.019642800092697144,-0.0022409504745155573,8.481260299682617
14.44,-0.03592805936932564,-0.0026746224611997604,-0.0017733393469825387,0.23482246696949005,-0.37943798303604126,9.861079216003418
14.46,-0.00974796712398529,0.0022420671302825212,0.010228111408650875,0.33325865864753723,-0.5369138121604919,11.1829195022583
14.48,0.0017316903686150908,0.005812142975628376,0.039150040596723557,0.3046417236328125,-0.5904435515403748,10.362739562988281
14.5,0.009894615970551968,0.0036280143540352583,0.054087184369564056,0.18513399362564087,-0.43345367908477783,9.276738166809082
14.52,0.04482527822256088,-0.009642851538956165,0.04179401695728302,0.06262709200382233,-0.3483026623725891,9.303555488586426
14.540000000000001,0.027279900386929512,0.004118901677429676,0.018917296081781387,-0.03376804664731026,-0.34763574600219727,9.787611961364746
14.56,0.022514892742037773,0.0331609845161438,-0.016003424301743507,-0.32474637031555176,-0.3182407319545746,9.831089973449707
14.58,0.11604150384664536,0.03821740671992302,-0.03724449872970581,-0.44338229298591614,-0.3699539005756378,9.766645431518555
14.6,0.07054176181554794,0.01458842121064663,-0.03256076201796532,-0.2549254894256592,-0.41040363907814026,10.421598434448242
14.620000000000001,0.031958967447280884,0.005904171150177717,-0.008002019487321377,0.059792857617139816,-0.23048031330108643,10.149641036987305
14.64,0.0231753159314394,0.017340224236249924,0.020767463371157646,0.22971211373806,-0.16233375668525696,9.452357292175293
14.66,-0.01710136979818344,0.014811357483267784,0.037193890661001205,0.2805596590042114,-0.06467544287443161,9.077495574951172
14.68,0.021735655143857002,-0.01856367290019989,0.06030919775366783,0.08214659243822098,-0.18813128769397736,9.618061065673828
14.700000000000001,0.006047107744961977,-0.005895793437957764,0.0454823300242424,-0.26006758213043213,-0.09550461918115616,10.277555465698242
14.72,-0.016273558139801025,0.031009269878268242,0.016535062342882156,-0.33104583621025085,0.3008572459220886,10.195162773132324
14.74,-0.030400967225432396,0.05178453400731087,-0.0015273962635546923,-0.3260294198989868,0.5651814937591553,9.623242378234863
14.76,0.022173931822180748,-0.01131804846227169,-0.02732912264764309,-0.23055022954940796,0.37987151741981506,9.690225601196289
14.780000000000001,-0.026649998500943184,-0.04572732746601105,-0.016116265207529068,-0.13076165318489075,-0.27483272552490234,9.837028503417969
14.8,-0.011856580153107643,-0.019060762599110603,-0.008530089631676674,-0.07556844502687454,-0.8052809834480286,10.116605758666992
14.82,-0.030830247327685356,-0.02904311753809452,0.014640258625149727,-0.14004163444042206,-1.0854971408843994,10.319348335266113
14.84,-0.03157133609056473,-0.054111432284116745,0.02557787299156189,-0.08906667679548264,-0.484321266412735,9.884958267211914
14.86,-0.05208270251750946,-0.05110715702176094,0.03246241435408592,-0.03239843249320984,0.13193713128566742,9.432384490966797
14.88,-0.00045347976265475154,-0.04018305614590645,0.031391024589538574,-0.03540561720728874,0.37719523906707764,9.34201431274414
14.9,0.01266767643392086,-0.02848413959145546,0.009734236635267735,-0.07956244796514511,0.22127197682857513,9.783552169799805
14.92,0.00858901347965002,-0.05708976835012436,0.006293873768299818,-0.08210881054401398,-0.11782874166965485,10.13217830657959
14.94,0.04431410878896713,-0.040684279054403305,0.012974078767001629,0.1379099190235138,-0.6154133081436157,9.881305694580078
14.96,0.07508011162281036,-0.04714822396636009,0.011243006214499474,0.43667176365852356,-1.0506223440170288,9.14832592010498
14.98,0.07256509363651276,-0.045322395861148834,0.007469909731298685,0.5357462763786316,-0.9568348526954651,9.473652839660645
15.0,0.044862087815999985,0.030539974570274353,-0.01455164048820734,0.29246431589126587,-0.15685278177261353,9.819522857666016
15.02,0.02738001011312008,0.08719152212142944,-0.025503750890493393,0.18607167899608612,0.23256143927574158,9.483621597290039
15.040000000000001,0.012549753300845623,0.1098632663488388,-0.023844758048653603,0.14895889163017273,0.2679670751094818,9.778276443481445
15.06,0.009055932983756065,0.02533913031220436,-0.024071117863059044,0.2911185622215271,0.1466001570224762,10.700039863586426
15.08,0.042556822299957275,-0.012759515084326267,-0.003348860889673233,0.32094648480415344,-0.04161153733730316,10.002972602844238
15.1,0.026000628247857094,0.04340485483407974,0.017555944621562958,0.5279667973518372,-0.2826519012451172,9.527914047241211
15.120000000000001,0.029822690412402153,0.07929432392120361,0.02744179032742977,0.49302658438682556,-0.6266909837722778,9.006481170654297
15.14,0.029567958787083626,0.050772134214639664,0.01363658718764782,0.15870116651058197,-0.5353283882141113,9.76783561706543
15.16,-0.04347149282693863,0.005672698374837637,-0.021943971514701843,0.024304954335093498,0.14790989458560944,10.42605209350586
15.18,-0.01493508368730545,-0.03339478746056557,-0.04001493379473686,0.04667847603559494,0.9112432599067688,10.223938941955566
15.200000000000001,0.02873605489730835,-0.035087745636701584,-0.024239376187324524,-0.19751763343811035,0.3071914315223694,9.671716690063477
15.22,-0.02868996001780033,-0.007439382839947939,-0.004667515866458416,-0.9206667542457581,-0.31663212180137634,9.101106643676758
15.24,-0.019572824239730835,0.006393073592334986,0.020106330513954163,-1.0347398519515991,-0.7525250911712646,10.07314682006836
15.26,0.007547386456280947,-0.01596139743924141,0.036863282322883606,-1.140890121459961,-0.7061431407928467,10.84335708618164
15.280000000000001,0.012158322148025036,-0.02894309163093567,0.03078022040426731,-0.7405706644058228,-0.18862105906009674,9.871427536010742
15.3,-0.00784438755363226,0.0030077907722443342,0.012658514082431793,-0.4620044529438019,0.22711919248104095,8.882882118225098
15.32,0.048783861100673676,0.02463909052312374,-0.005036948248744011,-0.4498157501220703,0.18816910684108734,9.151263236999512
15.34,0.024855410680174828,0.0032912646420300007,-0.01829974725842476,0.07463056594133377,-0.35826346278190613,10.117264747619629
15.36,0.017878977581858635,-0.033613353967666626,0.0028373252134770155,0.567135214805603,-0.5053532123565674,10.565667152404785
15.38,-3.473011020105332e-05,-0.014502989128232002,0.0032066518906503916,0.6747567653656006,-0.5394803881645203,10.147209167480469
15.4,0.08423919975757599,0.0189103614538908,0.023814227432012558,0.9381467700004578,-0.3477175831794739,9.399389266967773
15.42,0.008219669573009014,-0.010106537491083145,0.015797965228557587,0.7329497337341309,0.0010857154848054051,8.872786521911621
15.44,-0.019359324127435684,-0.025343796238303185,-0.005236991681158543,0.24574671685695648,0.44111502170562744,9.471105575561523
15.46,0.0018386810552328825,-0.0317721888422966,-0.02537291683256626,-0.21583563089370728,0.5092189908027649,10.248420715332031
15.48,-0.027403324842453003,-0.03983951732516289,-0.037885040044784546,-0.14031335711479187,0.0006690743030048907,10.112236976623535
15.5,-0.005929763428866863,-0.03824450448155403,-0.03886670246720314,-0.11255765706300735,-0.4339974522590637,9.402871131896973
15.52,-0.056180376559495926,0.011963611468672752,-0.011472274549305439,-0.2497347742319107,-0.48105093836784363,9.54671859741211
15.540000000000001,0.039083607494831085,0.07551108300685883,0.01830257661640644,-0.33859753608703613,-0.37637272477149963,10.595294952392578
15.56,-0.022675156593322754,0.02871043048799038,0.027688350528478622,-0.308550089597702,-0.04680940881371498,10.593939781188965
15.58,-0.008035467937588692,-0.024745432659983635,0.03360986337065697,-0.11202939599752426,0.39836639165878296,9.365198135375977
15.6,-0.016353877261281013,0.001315009780228138,0.029475463554263115,0.31196680665016174,0.4876173138618469,8.486452102661133
15.620000000000001,-0.0016879106406122446,0.017859093844890594,0.005249652545899153,0.4952566623687744,-0.13728919625282288,9.142602920532227
15.64,-0.015301437117159367,0.03270033746957779,-0.03359315171837807,0.4229545593261719,-0.8946160674095154,10.522903442382812
15.66,-0.02056378498673439,-0.001661167829297483,-0.04584873840212822,0.024427328258752823,-0.3975514769554138,10.972128868103027
15.68,-0.007642577402293682,-0.013605390675365925,-0.014790667220950127,-0.40759897232055664,-0.052175845950841904,10.484305381774902
15.700000000000001,0.02752074971795082,-0.007402119226753712,0.01360070239752531,-0.40788039565086365,0.05214952304959297,9.775357246398926
15.72,-0.011236402206122875,-0.02636747434735298,0.018532956019043922,-0.29561465978622437,0.0009412052459083498,9.304495811462402
15.74,-0.027827894315123558,-0.049378402531147,0.018011145293712616,-0.05155804008245468,0.039702899754047394,9.020551681518555
15.76,-0.00486629968509078,-0.03171493858098984,-0.0026301320176571608,-0.026881776750087738,-0.00017199281137436628,9.798007011413574
15.780000000000001,0.0009872610680758953,-0.0009142772760242224,-0.008644490502774715,-0.05217304453253746,-0.1817888468503952,10.45253849029541
15.8,-0.0069514126516878605,-0.016355566680431366,-0.0005673878476954997,0.24980348348617554,-0.3688974678516388,9.85305118560791
15.82,-0.010854117572307587,-0.03441237285733223,0.01372430007904768,0.2800564169883728,-0.2776722311973572,9.26657485961914
15.84,-0.0040126764215528965,-0.025305822491645813,0.028784899041056633,0.029464608058333397,-0.15966081619262695,9.553740501403809
15.860000000000001,-0.011307124979794025,0.023649713024497032,0.023788101971149445,-0.09624090790748596,-0.11869992315769196,10.13401985168457
15.88,0.02828425168991089,0.03240670636296272,0.003749449737370014,0.07457143068313599,-0.04069385305047035,10.573038101196289
15.9,0.02049112319946289,0.02666514180600643,-0.014904008246958256,0.1671568602323532,-0.2625403106212616,10.157964706420898
15.92,0.01593775302171707,0.018279341980814934,-0.0049051931127905846,0.12368356436491013,-0.24723604321479797,9.656240463256836
15.94,0.07650361210107803,0.04453883692622185,0.01757299154996872,0.22617913782596588,-0.4901972711086273,9.053475379943848
15.96,0.06366164982318878,0.1008143350481987,0.04580952972173691,0.43089669942855835,-0.6166757941246033,9.31686782836914
15.98,0.017971927300095558,0.06547734141349792,0.02866077795624733,0.41163739562034607,-0.20452357828617096,9.585603713989258
16.0,0.017764050513505936,0.029313964769244194,-0.013753289356827736,0.07851371169090271,0.4906785190105438,10.045060157775879
16.02,0.012652476318180561,0.03370126709342003,-0.02115679159760475,-0.03804362565279007,0.6529004573822021,10.232208251953125
16.04,0.051910653710365295,0.025637762621045113,-0.013978978618979454,-0.05158620700240135,0.4055042862892151,10.203775405883789
16.06,0.015333548188209534,0.0006320358370430768,-0.011026340536773205,0.05755746364593506,-0.23797523975372314,9.04399299621582
16.080000000000002,-0.02455340512096882,-0.014392636716365814,-0.015616257674992085,0.07232990115880966,-0.4813704490661621,8.733302116394043
16.1,0.008982153609395027,0.025177452713251114,-0.022325193509459496,-0.47657954692840576,-0.6523354649543762,10.775557518005371
16.12,-0.06904629617929459,0.06983862817287445,-0.04629627987742424,-0.5749465227127075,-0.1881335973739624,10.533596992492676
16.14,-0.09168992191553116,0.04953569173812866,-0.054759494960308075,-0.3815615475177765,0.7065005302429199,9.026649475097656
16.16,-0.01356806792318821,-0.04250666871666908,-0.055264681577682495,-0.08373825997114182,0.7431660890579224,8.649502754211426
16.18,-0.02420363947749138,-0.022004984319210052,-0.023630956187844276,0.04506118595600128,0.06715560704469681,9.683055877685547
16.2,-0.02977633662521839,0.05843210220336914,-0.009256809018552303,0.010274166241288185,-0.5878065228462219,10.231435775756836
16.22,-0.04302974417805672,0.05836965888738632,-0.012010527774691582,-0.10699402540922165,-0.545077919960022,10.430976867675781
16.240000000000002,-0.01668361946940422,-0.010553875006735325,-0.004058084450662136,-0.010551992803812027,-0.22422417998313904,10.191349029541016
16.26,-0.06785839796066284,0.010177657008171082,0.010661066509783268,-0.08354665338993073,0.23888491094112396,9.801231384277344
16.28,0.019747965037822723,0.0747622475028038,0.033513009548187256,-0.3495471179485321,-0.098215252161026,9.305432319641113
16.3,-0.009511006996035576,0.06792578846216202,0.021524185314774513,-0.29798805713653564,-0.5717104077339172,9.290482521057129
16.32,0.006513603962957859,0.020968785509467125,0.011379234492778778,-0.2663267254829407,-0.1792702078819275,10.436808586120605
16.34,0.03994162753224373,-0.02378193847835064,-0.0015033595263957977,-0.3117145597934723,-0.00991713348776102,11.033549308776855
16.36,0.02781699039041996,0.01699521392583847,-0.010764024220407009,-0.2281918227672577,-0.26337680220603943,9.62440013885498
16.38,0.04643478989601135,0.051734257489442825,-0.018139665946364403,-0.18139033019542694,-0.4356197118759155,8.386072158813477
16.4,0.06992204487323761,0.0424470491707325,0.002820120193064213,0.03269500285387039,-0.4118206799030304,9.242012977600098
16.42,0.02835218422114849,0.00024115234555210918,0.02499283105134964,-0.06349636614322662,-0.05663720518350601,10.62534236907959
16.44,0.05306382477283478,0.005195470992475748,0.038646213710308075,-0.02860727161169052,0.17108334600925446,10.600776672363281
16.46,0.0646204873919487,0.02570940926671028,0.021619781851768494,0.02246982231736183,0.346304327249527,10.054215431213379
16.48,0.005854494869709015,0.005623980890959501,-0.006295236758887768,0.02983912080526352,0.5260330438613892,9.55474853515625
16.5,-0.004705043975263834,0.0029916323255747557,-0.03394355624914169,-0.143162339925766,-0.13517752289772034,9.243648529052734
16.52,-0.006830933969467878,0.01655593514442444,-0.016092101112008095,-0.35372182726860046,-0.5985994338989258,9.662670135498047
16.54,-0.007394685409963131,0.024809034541249275,0.01336731482297182,-0.13366222381591797,-0.5148375630378723,10.242226600646973
16.56,-0.007671481464058161,-0.0051182713359594345,0.04479111358523369,0.07562103867530823,-0.019756974652409554,9.912611961364746
16.580000000000002,-0.026198549196124077,-0.0016505139647051692,0.02336025983095169,0.015499677509069443,0.43625590205192566,9.492657661437988
16.6,-0.003656546352431178,0.01257799006998539,0.009360277093946934,0.12216141819953918,0.5370005965232849,9.175302505493164
16.62,-0.03693302348256111,0.03061150759458542,-0.01670745760202408,-0.044160567224025726,-0.052483007311820984,9.660608291625977
16.64,-0.03139417618513107,-0.0040736147202551365,-0.03223390877246857,-0.19098398089408875,-0.19553536176681519,9.92717456817627
16.66,0.0302988700568676,-0.003821246325969696,-0.02910822443664074,-0.21818634867668152,-0.43701833486557007,10.042255401611328
16.68,0.0040494780987501144,0.017600571736693382,0.0024322508834302425,-0.42574506998062134,-0.6555620431900024,10.475099563598633
16.7,0.01471622008830309,0.01089988648891449,0.023341897875070572,-0.4965231418609619,-0.4417497217655182,10.03718090057373
16.72,-0.025605058297514915,-0.04674282670021057,0.016591696068644524,-0.35694146156311035,0.08158659934997559,9.646673202514648
16.740000000000002,0.02457333356142044,-0.018838681280612946,-0.011302524246275425,-0.4165210425853729,0.5045440196990967,9.813189506530762
16.76,-0.009214109741151333,0.032869987189769745,-0.025291623547673225,-0.5471956729888916,0.3783207833766937,9.906746864318848
16.78,-0.060392074286937714,0.02809830941259861,-0.012876375578343868,-0.23152080178260803,-0.1691896617412567,9.995869636535645
16.8,-0.01640576310455799,-0.010277247056365013,0.029343845322728157,-0.07496067136526108,-0.600464940071106,9.40290355682373
16.82,-0.03339420258998871,0.004123295657336712,0.049623001366853714,0.03656085208058357,-0.2894127368927002,9.374707221984863
16.84,0.009684531018137932,0.01390716340392828,0.05517881363630295,0.1271112710237503,-0.2440313994884491,9.876153945922852
16.86,-0.05365273356437683,0.008526650257408619,0.019090084359049797,0.17677368223667145,0.033453457057476044,10.050942420959473
16.88,-0.005229349248111248,0.005154834594577551,-0.009195314720273018,0.0918293222784996,0.4470221698284149,9.88053035736084
16.9,-0.05987793579697609,0.012770333327353,-0.01526467315852642,-0.08589204400777817,0.10312752425670624,9.79478931427002
16.92,-0.054807133972644806,0.0033095015678554773,-0.030752476304769516,-0.22095875442028046,-0.12592963874340057,9.877422332763672
16.94,-0.04019054397940636,-0.01625886932015419,-0.026421137154102325,-0.07694116979837418,-0.2309708446264267,9.672639846801758
16.96,0.02435098960995674,0.024400653317570686,0.004137434996664524,0.02443355694413185,-0.486516535282135,9.278715133666992
16.98,0.022418493404984474,0.02927062101662159,0.02959033101797104,-0.2250434160232544,-0.4416293799877167,9.902029991149902
17.0,-0.021088318899273872,-0.022574342787265778,0.04939468577504158,-0.581511914730072,-0.15385431051254272,10.388906478881836
17.02,0.026784995570778847,-0.03528759628534317,0.03881780058145523,-0.5954596400260925,-0.04792112857103348,9.956587791442871
17.04,0.010753442533314228,-0.00990736298263073,0.0352150984108448,-0.6390617489814758,-0.02729642391204834,9.475298881530762
17.06,-0.0371854268014431,0.027314482256770134,0.005078904330730438,-0.597984790802002,0.14773663878440857,9.302740097045898
17.080000000000002,0.006303223315626383,-0.0155771654099226,-0.03197719529271126,-0.3250708281993866,0.10162446647882462,9.446159362792969
17.1,-0.005535248201340437,-0.07383181154727936,-0.039631202816963196,0.09433367848396301,-0.09941352903842926,10.376949310302734
17.12,-0.015694325789809227,-0.058999203145504,-0.01789833791553974,0.17604093253612518,-0.5430192947387695,10.581101417541504
17.14,-0.03097030520439148,0.010418536141514778,0.018381359055638313,0.2586740255355835,-0.6853768825531006,9.667837142944336
17.16,-0.006927200127393007,-0.032132573425769806,0.01787390746176243,0.23341774940490723,-0.7052210569381714,8.344924926757812
17.18,-0.04229864478111267,-0.06207519397139549,0.016523761674761772,-0.06753097474575043,0.08822757750749588,8.66239070892334
17.2,0.031010711565613747,-0.04425880312919617,0.031620804220438004,-0.24852138757705688,0.46594324707984924,10.189736366271973
17.22,-0.005475775804370642,-0.02526790462434292,0.026285607367753983,-0.5011864900588989,0.12540286779403687,11.650956153869629
17.240000000000002,0.06683823466300964,-0.020907210186123848,-0.02028213068842888,-0.5389913320541382,-0.21381738781929016,10.895368576049805
17.26,-0.04721997305750847,-0.019337274134159088,-0.0552557036280632,-0.15739592909812927,-0.5146536827087402,9.081282615661621
17.28,0.008904580026865005,0.007078919094055891,-0.04213106632232666,0.24893875420093536,-0.3483811020851135,8.108708381652832
17.3,0.04234005883336067,0.025004150345921516,0.006140243262052536,0.4380906820297241,-0.611506462097168,8.532700538635254
17.32,0.006102441344410181,-0.019292540848255157,0.04165821895003319,0.24294298887252808,-0.4287361204624176,10.809584617614746
17.34,0.0857677310705185,-0.07234779745340347,0.05743207409977913,0.11055761575698853,-0.11914946138858795,11.391158103942871
17.36,0.006933204829692841,-0.08223827928304672,0.06217039376497269,0.12682922184467316,0.3107083737850189,10.951374053955078
17.38,0.08309309929609299,-0.055837731808423996,0.015832409262657166,-0.19211028516292572,0.29061830043792725,9.42240047454834
17.400000000000002,0.06712458282709122,-0.01763080060482025,-0.04683804139494896,-0.578249454498291,-0.23105669021606445,8.273950576782227
17.42,0.03365446999669075,-0.02196810021996498,-0.05775722861289978,-0.4709116518497467,-0.2843630611896515,8.973093032836914
17.44,0.007630589418113232,-0.03641101345419884,-0.04908343404531479,-0.5499410629272461,-0.2844063341617584,10.474678039550781
17.46,-0.0201459638774395,-0.01797221601009369,-0.021354762837290764,-0.5854777693748474,-0.31799688935279846,10.766621589660645
17.48,0.03543686866760254,-0.0017695034621283412,0.002854478545486927,-0.41487979888916016,-0.01481953077018261,9.718266487121582
17.5,0.025178831070661545,-0.0013760620495304465,0.006697422359138727,-0.06842760741710663,0.28313905000686646,9.48276424407959
17.52,0.03296710178256035,0.014795148745179176,0.003964011091738939,0.37657999992370605,0.1427994817495346,9.985681533813477
17.54,-0.007228251546621323,-0.018238015472888947,-0.013585000298917294,0.7051998376846313,0.08047474175691605,10.179427146911621
17.56,0.025287451222538948,-0.04307376593351364,-0.021096425130963326,0.5693937540054321,-0.19320744276046753,9.170193672180176
17.580000000000002,-0.0012911398662254214,-0.03804558515548706,-0.016989313066005707,0.23275867104530334,-0.2968112528324127,9.418075561523438
17.6,-0.005256231874227524,0.003875828580930829,0.00853743590414524,-0.08254846185445786,-0.3520644009113312,10.2381010055542
17.62,0.03262024000287056,-0.000775764521677047,0.023291122168302536,-0.22423195838928223,0.11640370637178421,10.160894393920898
17.64,0.003151282900944352,-0.0357440710067749,0.021209487691521645,-0.19593268632888794,0.13909687101840973,9.608613014221191
17.66,-0.013228924944996834,-0.01978847198188305,0.015097801573574543,-0.14378340542316437,-0.0018683555535972118,9.703265190124512
17.68,-0.015680167824029922,0.006054992321878672,-0.011343123391270638,-0.1500748246908188,-0.25306105613708496,10.078490257263184
17.7,0.04641538858413696,0.016376759856939316,-0.03071947582066059,-0.11112698912620544,-0.5907071828842163,9.54085636138916
17.72,0.044441502541303635,0.025775816291570663,-0.014972752891480923,-0.012400694191455841,-0.5902650952339172,8.913495063781738
17.740000000000002,0.01884778030216694,0.01764722168445587,-0.0141830462962389,0.032760314643383026,-0.2867729663848877,9.4049072265625
17.76,-0.002367709530517459,0.020128171890974045,-0.018537232652306557,0.15166357159614563,0.4500715136528015,10.536603927612305
17.78,-0.009314320981502533,0.01164901815354824,-0.02663530223071575,0.17157503962516785,0.7590358853340149,10.575343132019043
17.8,-0.013976696878671646,0.033773068338632584,-0.020136184990406036,0.04536532983183861,0.5277464389801025,10.260985374450684
17.82,-0.005724919494241476,0.015322977676987648,-0.015881989151239395,0.0064582680352032185,0.11159903556108475,9.276891708374023
17.84,-0.023333776742219925,-0.012158657424151897,-0.0005896356888115406,-0.1999482810497284,-0.2651631832122803,9.330727577209473
17.86,0.0012010224163532257,-0.01227828674018383,0.01705613173544407,-0.18117442727088928,-0.4385607838630676,9.84412670135498
17.88,-0.0997575968503952,0.02083921618759632,0.009627014398574829,-0.20985035598278046,-0.33475831151008606,10.5660400390625
17.900000000000002,-0.03291507437825203,0.005514061078429222,0.009767934679985046,-0.07645424455404282,0.17456398904323578,9.866954803466797
17.92,-0.053273193538188934,-0.03665589168667793,-0.000423477147705853,0.06680817157030106,0.4227815270423889,9.08363151550293
17.94,-0.08210830390453339,0.005567148327827454,-0.008105090819299221,-0.10102970153093338,0.5883347392082214,9.46601676940918
17.96,-0.01831861399114132,0.04980245977640152,-0.002061402192339301,-0.10264948755502701,-0.08546153455972672,10.113363265991211
17.98,-0.08622334152460098,-0.003331044688820839,-0.01979142427444458,0.053765036165714264,-0.7912467122077942,10.338091850280762
18.0,-0.01975010149180889,-0.04410852491855621,-0.015561259351670742,-0.008604533970355988,-0.8815884590148926,10.080340385437012
18.02,-0.04213770478963852,0.011794226244091988,0.018375305458903313,-0.278830885887146,-0.5989808440208435,10.197145462036133
18.04,-0.006687483284622431,0.030869394540786743,0.03567812219262123,0.008433574810624123,-0.34209707379341125,9.78548812866211
18.06,0.04526611045002937,-0.041962966322898865,0.021626513451337814,0.15117059648036957,0.14243511855602264,9.04951000213623
18.080000000000002,-0.0010397396981716156,-0.04866413399577141,-0.011128896847367287,-0.20783758163452148,0.13973340392112732,9.450644493103027
18.1,-0.007240492384880781,-0.004892056342214346,-0.03783605992794037,-0.21240855753421783,0.19929003715515137,9.943166732788086
18.12,-0.03774004057049751,-0.02705717459321022,-0.04436628893017769,0.01396181620657444,0.03049267642199993,10.170600891113281
18.14,-0.02195226401090622,-0.029015081003308296,-0.021993419155478477,-0.11756354570388794,-0.30135902762413025,10.057856559753418
18.16,-0.02669954113662243,0.016483571380376816,0.004128568340092897,-0.1139848604798317,-0.21280041337013245,9.415946006774902
18.18,-0.027592182159423828,0.018109265714883804,0.026908012107014656,0.12360432744026184,-0.19366152584552765,9.012290954589844
18.2,-0.06218341737985611,0.007783064153045416,0.033083222806453705,0.349559485912323,0.09003543853759766,9.682859420776367
18.22,-0.04240582510828972,-0.01041598990559578,0.02194429561495781,0.18826764822006226,0.16135624051094055,10.351003646850586
18.240000000000002,-0.02938583679497242,0.04380723088979721,0.01071831677109003,0.031463708728551865,-0.19086192548274994,10.217607498168945
18.26,-0.029734311625361443,0.023172294721007347,-0.019569341093301773,0.159832164645195,-0.4274194538593292,9.561599731445312
18.28,0.031772464513778687,-0.02948145754635334,-0.042419612407684326,0.081389419734478,-0.5265251994132996,9.571589469909668
18.3,-0.032456912100315094,0.003922628704458475,-0.03561357036232948,0.02412867359817028,-0.5299392342567444,10.112703323364258
18.32,0.006573902443051338,0.03591978922486305,-0.02982746809720993,-0.07662923634052277,-0.39067772030830383,10.323823928833008
18.34,0.00413639098405838,0.014099463820457458,-0.012847627513110638,-0.20867891609668732,0.022342320531606674,9.603797912597656
18.36,0.0723276287317276,-0.02736807055771351,-0.0010060190688818693,-0.3781379163265228,0.0338471345603466,9.443232536315918
18.38,0.05270877107977867,-0.028707657009363174,0.0313262864947319,-0.5077647566795349,-0.22498707473278046,9.61264419555664
18.400000000000002,0.05243883281946182,0.002230259822681546,0.0495983362197876,-0.49525099992752075,-0.30822500586509705,9.831347465515137
18.42,0.04940221458673477,-0.012208882719278336,0.06511407345533371,-0.31974753737449646,-0.589072585105896,9.820296287536621
18.44,0.015773244202136993,-0.0032845831010490656,0.032008372247219086,-0.08341100066900253,-0.4264242947101593,9.237436294555664
18.46,0.053455110639333725,0.018795471638441086,-0.0066799623891711235,0.1539061963558197,0.06545069068670273,9.147939682006836
18.48,-0.03673436492681503,0.021364109590649605,-0.06116516888141632,0.21405257284641266,0.4174102544784546,9.612775802612305
18.5,0.014829806983470917,0.005193600431084633,-0.06461123377084732,0.19975516200065613,-0.013544376939535141,10.575906753540039
18.52,0.006309457588940859,0.010548682883381844,-0.020524481311440468,0.36314213275909424,-0.38051313161849976,10.820327758789062
18.54,-0.00166677450761199,0.014291242696344852,0.02558003179728985,0.12906761467456818,-0.48596659302711487,10.561654090881348
18.56,0.015540104359388351,-0.0019833550322800875,0.02722223475575447,-0.1741190403699875,0.008301778696477413,9.478744506835938
18.580000000000002,0.010850646533071995,-0.005437940824776888,-0.006208386272192001,-0.34959715604782104,0.007663686294108629,9.413116455078125
