time,gyrX,gyrY,gyrZ,accX,accY,accZ
0.0,-0.04888878017663956,0.13150309026241302,-0.010670351795852184,0.5155280232429504,-0.35280340909957886,10.279376983642578
0.02,-0.005499133840203285,0.02185598574578762,-0.02098509669303894,0.3459175229072571,-0.21618947386741638,9.333001136779785
0.04,0.007669475860893726,-0.028620142489671707,-0.017897969111800194,0.07369310408830643,0.3794933557510376,9.478169441223145
0.06,0.0031531043350696564,-0.02983192913234234,-0.025181762874126434,-0.28352534770965576,0.8799675703048706,10.00938892364502
0.08,-0.09424474835395813,-0.030998418107628822,-0.03024372272193432,-0.6960627436637878,0.7262173891067505,10.632476806640625
0.1,-0.017188705503940582,-0.040085095912218094,0.017707914113998413,-1.940835952758789,0.40074771642684937,10.007201194763184
0.12,-0.05144915729761124,-0.0405706912279129,0.09910445660352707,-2.88059663772583,-0.5278375148773193,8.927220344543457
0.14,-0.04078499227762222,-0.01562987081706524,0.11103799939155579,-2.9163296222686768,-1.0827428102493286,9.007465362548828
0.16,-0.016451168805360794,-0.0006715480121783912,0.046964529901742935,-1.6275886297225952,-0.5585659742355347,9.376612663269043
0.18,0.06103527545928955,-0.04709407314658165,-0.009765202179551125,-0.20125176012516022,0.3811405301094055,10.646080017089844
0.2,0.03128623589873314,-0.0566597543656826,-0.04816548526287079,-0.02031794749200344,0.541719913482666,10.44757080078125
0.22,0.02921394072473049,-0.050768859684467316,-0.08530303090810776,-0.033149104565382004,0.0716092586517334,9.529075622558594
0.24,0.040619857609272,-0.05731545761227608,-0.06550044566392899,0.38265329599380493,0.05292568728327751,8.76035213470459
0.26,0.0050489576533436775,-0.062295977026224136,-0.02774757146835327,0.26151007413864136,0.013375506736338139,9.547680854797363
0.28,0.02795393019914627,-0.01731613278388977,0.028736865147948265,0.05012821778655052,0.15543797612190247,10.189467430114746
0.3,0.020203258842229843,-0.017628999426960945,0.04534295201301575,0.19806557893753052,0.1549454927444458,10.179412841796875
0.32,-0.017649883404374123,-0.04054214805364609,0.05053100734949112,0.3358123004436493,0.3117663264274597,9.564155578613281
0.34,-0.037143874913454056,-0.019299868494272232,0.03635554388165474,0.34591832756996155,0.35063087940216064,9.507209777832031
0.36,-0.04693135991692543,0.015640364959836006,0.013726385310292244,0.29879727959632874,-0.03318165987730026,10.43808364868164
0.38,0.012714024633169174,0.009620965458452702,-0.022535130381584167,0.30619722604751587,-0.22776760160923004,10.205231666564941
0.4,-0.03801576793193817,-0.012339935638010502,-0.045328643172979355,0.12905147671699524,0.04694183170795441,9.395639419555664
0.42,-0.07039916515350342,0.01902558095753193,-0.013272048905491829,0.06175011023879051,0.19385676085948944,9.407634735107422
0.44,0.015408371575176716,0.04127940163016319,0.014612391591072083,0.29494160413742065,0.119740329682827,9.646385192871094
0.46,-0.04171498864889145,0.02244730480015278,0.022237710654735565,0.24798992276191711,-0.12147709727287292,9.95291805267334
0.48,-0.030543381348252296,0.05487823486328125,0.0055264923721551895,0.036420561373233795,-0.027707993984222412,10.35584545135498
0.5,-0.01924494467675686,0.061293430626392365,0.004503155592828989,-0.01059618778526783,0.3034297823905945,10.3241548538208
0.52,0.0434294268488884,0.00591825507581234,0.00018414670194033533,-0.03565560653805733,0.07264617830514908,9.743670463562012
0.54,0.05484377592802048,-0.04474543407559395,0.005008154548704624,-0.08663609623908997,-0.3573227524757385,8.863508224487305
0.56,0.004459920804947615,-0.011057060211896896,0.01174469105899334,-0.17134907841682434,-0.4291033446788788,9.187066078186035
0.58,-0.008539573289453983,0.02674880623817444,0.008520667441189289,-0.34995031356811523,-0.01072754617780447,10.014517784118652
0.6,-0.04758288338780403,0.0037804918829351664,-0.003216428216546774,-0.39842426776885986,0.4103274941444397,10.524060249328613
0.62,0.038931604474782944,0.015543559566140175,-0.011188074015080929,-0.4749254286289215,0.9185406565666199,10.81718635559082
0.64,-0.042529456317424774,0.06849095970392227,-0.0065896469168365,-0.5850986838340759,0.3763081431388855,9.755184173583984
0.66,0.016117513179779053,0.060639310628175735,-0.010099010542035103,-0.3322795033454895,-0.2601863145828247,8.861677169799805
0.68,0.00572211341932416,-0.022412890568375587,-0.0026526027359068394,0.04995635151863098,-0.45580407977104187,8.741707801818848
0.7000000000000001,-0.01947004534304142,0.020802702754735947,0.0023344827350229025,0.0512067973613739,-0.17045973241329193,10.218962669372559
0.72,0.0586320161819458,0.05488187447190285,1.2665716894844081e-05,0.08553328365087509,-0.10356885939836502,10.794535636901855
0.74,-0.0349702350795269,0.027208145707845688,0.011838317848742008,0.20998936891555786,0.19541697204113007,10.063631057739258
0.76,0.016973521560430527,-0.04419328272342682,0.01639898307621479,0.35279110074043274,0.5408318042755127,8.988061904907227
0.78,-0.05907769501209259,0.0028580676298588514,-0.004686371423304081,-0.06270769238471985,0.18939317762851715,9.600054740905762
0.8,-0.07398085296154022,0.03884359076619148,-0.01863810233771801,-0.23958462476730347,-0.1512187421321869,10.116406440734863
0.8200000000000001,0.010300414636731148,-0.009186537005007267,-0.03440561145544052,-0.20689503848552704,-0.17297014594078064,9.798480987548828
0.84,0.011000050231814384,-0.04892873764038086,-0.02380027063190937,-0.17455382645130157,-0.042574796825647354,9.738103866577148
0.86,0.03145125135779381,0.02589016780257225,0.004194195847958326,-0.4182667136192322,-0.15655027329921722,10.136096954345703
0.88,-0.035615500062704086,0.04528427869081497,0.023324940353631973,-0.3035071790218353,-0.25223308801651,9.826786041259766
0.9,0.06185571476817131,0.023731309920549393,0.04437648132443428,-0.13467010855674744,0.08686777204275131,9.255380630493164
0.92,0.005755050107836723,0.0010846771765500307,0.025737999007105827,0.018116619437932968,0.1963450312614441,9.441330909729004
0.9400000000000001,-0.011600240133702755,0.018168620765209198,0.012932431884109974,0.030750013887882233,0.5360190272331238,10.327601432800293
0.96,-0.011076893657445908,0.01804637350142002,-0.013768770731985569,0.2546961009502411,0.29884955286979675,10.267984390258789
0.98,0.02380824275314808,-0.005555036477744579,-0.038041096180677414,0.21877628564834595,-0.2701094448566437,9.268538475036621
1.0,-0.01959904097020626,-0.008330103941261768,-0.04775279760360718,-0.022602001205086708,-0.24096457660198212,9.717144012451172
1.02,-0.05669161304831505,0.025957100093364716,-0.03240401670336723,-0.14554588496685028,-0.020865876227617264,10.02536678314209
1.04,-0.03155318647623062,0.004126269835978746,-0.0063849459402263165,-0.17380975186824799,0.21928955614566803,9.402329444885254
1.06,0.008754591457545757,-0.04179861396551132,0.01915225200355053,-0.1728224903345108,0.3288804888725281,9.252607345581055
1.08,0.01361838262528181,-0.012895484454929829,0.060715146362781525,-0.18141256272792816,0.06824208796024323,9.810081481933594
1.1,0.008725641295313835,0.01003411877900362,0.052677325904369354,-0.3142322897911072,0.13368608057498932,10.730523109436035
1.12,0.00042390485759824514,0.009281785227358341,-0.00015631741553079337,-0.48362863063812256,0.04199900105595589,10.484369277954102
1.1400000000000001,-0.00407095393165946,0.009483160451054573,-0.035542067140340805,-0.6431730389595032,-0.1833663433790207,9.85974407196045
1.16,-0.02538432739675045,0.05189862474799156,-0.04947490245103836,-0.6462870836257935,0.09071571379899979,9.523819923400879
1.18,-0.02114708535373211,0.04531549662351608,-0.02383640967309475,-0.4403529167175293,0.11580988019704819,9.20543384552002
1.2,-0.004013506695628166,0.017495715990662575,0.017709793522953987,-0.036212529987096786,-0.23562444746494293,9.203878402709961
1.22,-0.03082096576690674,0.02576807700097561,0.04116927832365036,0.15332013368606567,-0.0921056941151619,10.11022663116455
1.24,0.002854457590728998,0.03589653968811035,0.03221018239855766,0.3030933439731598,0.20513053238391876,10.359723091125488
1.26,0.008557251654565334,0.0026329620741307735,0.006930218543857336,0.3773508667945862,0.40072035789489746,9.945651054382324
1.28,-0.03358960524201393,-0.03680523484945297,-0.018873609602451324,0.10261719673871994,0.203505739569664,9.356573104858398
1.3,-0.0026916267815977335,-0.02654135227203369,-0.029262902215123177,-0.24657949805259705,-0.22646404802799225,9.647310256958008
1.32,-0.004674898460507393,-0.003466947004199028,-0.02179122157394886,-0.36088383197784424,-0.36366814374923706,9.830841064453125
1.34,0.0663795992732048,-0.03194676339626312,0.0033298858907073736,-0.29660946130752563,-0.22008754312992096,9.770160675048828
1.36,-0.009903918020427227,-0.04654962569475174,0.038646794855594635,-0.30213993787765503,0.08986417204141617,9.777891159057617
1.3800000000000001,0.039166536182165146,0.004796311259269714,0.04965187981724739,-0.4268009662628174,0.4225306212902069,9.91540813446045
1.4000000000000001,0.0079274233430624,0.02684647962450981,0.013481530360877514,-0.4488774538040161,0.2768615782260895,9.673876762390137
1.42,-0.0026679481379687786,0.001419002073816955,-0.02184409275650978,-0.35859939455986023,-0.047025591135025024,9.562958717346191
1.44,0.009070242755115032,-0.005837819539010525,-0.03509478271007538,-0.14401714503765106,-0.32898369431495667,9.911240577697754
1.46,0.0029516583308577538,0.03262297436594963,-0.013383805751800537,0.1623155027627945,-0.14842548966407776,10.197890281677246
1.48,0.006865805480629206,0.00879932101815939,0.015095749869942665,0.3690800070762634,-0.20170439779758453,9.874567985534668
1.5,0.0006012089434079826,-0.04365793615579605,0.03357445076107979,0.3033852279186249,0.11029158532619476,9.175704956054688
1.52,0.021877290681004524,-0.02182178944349289,0.016366414725780487,0.2237396538257599,0.5072043538093567,9.503418922424316
1.54,-0.014962239190936089,0.01895154081285,-0.009067347273230553,-0.024630310013890266,0.5540729761123657,9.893964767456055
1.56,-0.006284131668508053,-0.0016445955261588097,-0.029046369716525078,-0.22960388660430908,0.3099711239337921,9.82985782623291
1.58,0.02439842000603676,-0.027585508301854134,-0.031823739409446716,-0.4053947925567627,-0.10421143472194672,10.208761215209961
1.6,-0.03370364010334015,-0.005028038751333952,0.007120163645595312,-0.8477200865745544,-0.6138453483581543,10.528634071350098
1.62,0.013603880070149899,0.012826496735215187,0.0358850322663784,-0.6396976113319397,-0.44697239995002747,10.169417381286621
1.6400000000000001,-0.005166908726096153,-0.01659398153424263,0.031663890928030014,-0.3523310720920563,-0.052037641406059265,9.271773338317871
1.6600000000000001,0.033457059413194656,0.01969900354743004,0.016048753634095192,-0.346697062253952,0.6451205611228943,9.486493110656738
1.68,-0.020506326109170914,0.058215510100126266,-0.010725346393883228,-0.3547682464122772,0.672905445098877,9.895272254943848
1.7,0.0021197302266955376,0.015230742283165455,-0.03781513869762421,-0.15458282828330994,0.07279062271118164,9.762266159057617
1.72,0.005226115230470896,-0.032210808247327805,-0.027693387120962143,0.33733370900154114,-0.09392959624528885,9.323493957519531
1.74,0.04921233654022217,-0.01826629601418972,0.007833689451217651,0.37959593534469604,-0.45718130469322205,9.724021911621094
1.76,-0.014699115417897701,0.004189441911876202,0.043384283781051636,0.17070148885250092,-0.6047298908233643,9.82902717590332
1.78,0.025928359478712082,-0.030257025733590126,0.054558560252189636,-0.1640724092721939,-0.00667271763086319,10.110286712646484
1.8,0.05359511449933052,-0.06985902041196823,0.031119097024202347,-0.1830437034368515,0.46747320890426636,9.874412536621094
1.82,-0.015297053381800652,-0.016502367332577705,0.01364123448729515,-0.4499489963054657,0.625559389591217,9.907870292663574
1.84,-0.0005982904112897813,0.03923434019088745,-0.010779596865177155,-0.6445037722587585,0.47388431429862976,9.7832670211792
1.86,0.04131960868835449,0.0014471776084974408,-0.029783383011817932,-0.44463494420051575,-0.36369723081588745,9.598800659179688
1.8800000000000001,0.022597579285502434,-0.01765594445168972,-0.01797734946012497,-0.09607208520174026,-0.3931766748428345,9.874480247497559
1.9000000000000001,0.03308304399251938,0.029663732275366783,0.011803768575191498,-0.0007180573302321136,-0.13869412243366241,9.948037147521973
1.92,0.001000507501885295,0.035299938172101974,0.031539324671030045,0.253745436668396,-0.012366549111902714,9.881035804748535
1.94,0.013822388835251331,-0.01605914533138275,0.01995491050183773,0.3034897744655609,0.5414562821388245,9.595572471618652
1.96,0.0016181562095880508,-0.0006046261405572295,-0.00956502091139555,0.10094740241765976,0.6469939351081848,9.924434661865234
1.98,-0.002576722763478756,0.03097507916390896,-0.029275275766849518,-0.07930755615234375,0.497957319021225,9.980193138122559
2.0,-0.02031124196946621,0.0010680854320526123,-0.03190010040998459,-0.1608831286430359,-0.04856948181986809,9.492599487304688
2.02,-0.11518236994743347,-0.03149973228573799,-0.013379625976085663,-0.1435052752494812,-0.20487698912620544,9.442351341247559
2.04,-0.02032066322863102,-0.02798503078520298,-0.008338861167430878,-0.3314419686794281,0.19789330661296844,10.218809127807617
2.06,-0.036417849361896515,0.0008444220875389874,0.0026689087972044945,-0.4252152442932129,-0.00275632506236434,10.069291114807129
2.08,-0.05681151896715164,-0.04803577437996864,0.013578339479863644,-0.27103951573371887,0.124471016228199,9.584573745727539
2.1,-0.051566679030656815,-0.04844558984041214,0.018676510080695152,-0.02882199175655842,0.1788317859172821,9.39769172668457
2.12,0.006897532846778631,0.02668476291000843,0.023815032094717026,-0.20929421484470367,0.24429307878017426,10.020975112915039
2.14,-0.026317106559872627,0.0574004203081131,0.021260971203446388,-0.4033452868461609,-0.2761683762073517,9.862238883972168
2.16,-0.0015715877525508404,-0.019909342750906944,-0.019146380946040154,-0.3296263515949249,-0.06788662821054459,9.583712577819824
2.18,-0.002157186158001423,-0.038628045469522476,-0.024276554584503174,-0.292409211397171,-0.1662003993988037,9.649085998535156
2.2,0.03793783485889435,0.01968977600336075,-0.012600989080965519,-0.30797192454338074,0.012489382177591324,10.195287704467773
2.22,0.08291010558605194,0.015620735473930836,0.012814102694392204,0.034738872200250626,-0.2856258153915405,9.898959159851074
2.24,-0.02117820642888546,-0.03001287952065468,0.02139335125684738,0.3634132146835327,-0.19639965891838074,9.496539115905762
2.2600000000000002,0.008422961458563805,-0.009514260105788708,0.007256625220179558,0.24829652905464172,0.38758888840675354,10.018543243408203
2.2800000000000002,-0.027607839554548264,0.03525354713201523,-0.010300428606569767,0.07624965906143188,0.6401867270469666,9.86642074584961
2.3000000000000003,0.013302630744874477,-0.004227077588438988,-0.03970968350768089,-0.008538533002138138,0.34374120831489563,9.438142776489258
2.32,-0.05415715277194977,-0.04389631375670433,-0.02756098099052906,-0.2587856352329254,0.09456951171159744,9.640690803527832
2.34,0.024118199944496155,0.012943015433847904,-0.0025403504259884357,-0.49225056171417236,-0.1787118911743164,10.416492462158203
2.36,-0.0014983717119321227,0.037761759012937546,0.02668203040957451,-0.48174434900283813,-0.21796263754367828,10.235345840454102
2.38,0.02952693961560726,-0.023189514875411987,0.04544864967465401,-0.22766512632369995,0.018332449719309807,9.280692100524902
2.4,-0.01032942719757557,-0.03890294209122658,0.04033760353922844,0.09753680974245071,0.3778890371322632,9.061470985412598
2.42,-0.05677630379796028,0.026524819433689117,0.016555724665522575,0.14958138763904572,0.4838753938674927,10.000641822814941
2.44,-0.026733804494142532,0.02573031187057495,-0.03671707585453987,0.18393588066101074,0.18184222280979156,10.346623420715332
2.46,0.010117368772625923,-0.02659066952764988,-0.050468556582927704,-0.018261313438415527,-0.060854438692331314,9.835230827331543
2.48,-0.010380461812019348,-0.028779922053217888,-0.019016722217202187,-0.24313689768314362,-0.4862065017223358,9.987960815429688
2.5,0.025438694283366203,0.022344257682561874,0.02540183998644352,-0.36028003692626953,-0.3379655182361603,9.784295082092285
2.52,0.013135270215570927,-0.012234807945787907,0.05118022859096527,-0.26924049854278564,-0.24048511683940887,9.328327178955078
2.54,0.003931747749447823,-0.05543908849358559,0.05052768439054489,-0.1256789118051529,0.16736193001270294,9.475631713867188
2.56,0.004686260595917702,-0.032135043293237686,0.026949243620038033,-0.25386765599250793,0.41041839122772217,10.235682487487793
2.58,0.024709763005375862,0.012737302109599113,-0.009000399149954319,-0.2251308709383011,0.3921618163585663,10.329154968261719
2.6,0.0010044293012470007,-0.027101047337055206,-0.05174988880753517,-0.1173330694437027,0.02951539121568203,9.457892417907715
2.62,-0.04066675528883934,-0.05419769883155823,-0.04580220207571983,-0.1701219528913498,-0.013649939559400082,9.37756633758545
2.64,0.04375959187746048,0.003183177439495921,-0.011035113595426083,-0.27939262986183167,-0.14067442715168,10.061336517333984
2.66,0.02514095976948738,0.024953385815024376,0.01750631257891655,-0.2808983027935028,-0.27287617325782776,9.956815719604492
2.68,0.008158943615853786,-0.022288000211119652,0.03500138968229294,0.05210902914404869,0.16653838753700256,9.520869255065918
2.7,-0.012742053717374802,-0.03167612478137016,0.03063138574361801,0.06799057871103287,0.7942871451377869,9.78964614868164
2.72,0.014769678935408592,0.0330672450363636,-0.0030693805310875177,0.0904942974448204,0.760005533695221,10.279706001281738
2.74,0.017205562442541122,0.023850763216614723,-0.025042567402124405,0.23496733605861664,-0.0737362876534462,9.870466232299805
2.7600000000000002,0.008520582690834999,-0.031984955072402954,-0.024528929963707924,0.13172246515750885,-0.5431517958641052,9.25265884399414
2.7800000000000002,-0.040806159377098083,-0.005603221710771322,-0.004402960650622845,-0.11983411014080048,-0.4301522374153137,9.51030445098877
2.8000000000000003,0.04190141335129738,0.03911122679710388,0.024966314435005188,-0.16945362091064453,-0.0740891844034195,10.112776756286621
2.82,0.02165595069527626,-0.006125029642134905,0.023448072373867035,-0.05378153175115585,0.2625637948513031,9.912010192871094
2.84,0.004022498149424791,-0.03105792962014675,0.01519574224948883,-0.08545170724391937,0.4673306345939636,9.749924659729004
2.86,0.02129744552075863,0.017906442284584045,-0.011726430617272854,-0.18569903075695038,0.40295645594596863,10.005170822143555
2.88,0.014480539597570896,0.027221709489822388,-0.03549782186746597,-0.14270395040512085,-0.00554630346596241,9.930520057678223
2.9,0.0339893214404583,-0.015711147338151932,-0.034241933375597,-0.09422221034765244,-0.30733054876327515,9.62411117553711
2.92,0.025889942422509193,-0.021282797679305077,-0.005855434574186802,-0.12137875705957413,-0.14516666531562805,9.542606353759766
2.94,0.023085806518793106,0.0042007979936897755,0.013623688369989395,-0.29618969559669495,-0.034596242010593414,9.795260429382324
2.96,0.0007044121157377958,-0.0024040762800723314,0.015511340461671352,-0.3760872781276703,0.26832643151283264,9.721353530883789
2.98,0.019573736935853958,-0.024384720250964165,0.019218847155570984,-0.33653655648231506,0.5864644646644592,9.697171211242676
3.0,-0.022927721962332726,-0.008850420825183392,0.005037293769419193,-0.3712064027786255,0.5571187138557434,10.567692756652832
3.02,-0.01972036063671112,0.023443298414349556,-0.014525767415761948,-0.011023439466953278,0.2596777081489563,10.60863208770752
3.04,-0.010488316416740417,-0.01771560125052929,-0.02816852740943432,0.3619168996810913,-0.046673860400915146,9.190624237060547
3.06,-0.006299830973148346,-0.05146682634949684,-0.01100892759859562,0.23635798692703247,-0.34211674332618713,8.59790325164795
3.08,-0.0007013872382231057,0.01742798648774624,0.009327707812190056,-0.08176425844430923,-0.27842840552330017,9.856864929199219
3.1,0.01566140353679657,0.026460153982043266,0.016610577702522278,-0.0824367105960846,0.04011368006467819,10.598808288574219
3.12,-0.049725137650966644,-0.01909230463206768,0.020498095080256462,-0.2052985429763794,0.3953702747821808,10.106643676757812
3.14,0.0007189669995568693,-0.03022853657603264,0.012253363616764545,-0.17661753296852112,0.4327563941478729,9.483586311340332
3.16,-0.03157860413193703,0.024942466989159584,-0.00723371934145689,-0.0597810372710228,0.04102437198162079,9.512251853942871
3.18,0.03175733610987663,0.020099837332963943,-0.027863116934895515,0.15770362317562103,-0.23319078981876373,9.410200119018555
3.2,-0.017184369266033173,-0.03744180127978325,-0.03434240445494652,0.047865130007267,-0.2443893849849701,9.494486808776855
3.22,0.02228773944079876,-0.018050912767648697,-0.0003025400510523468,-0.11680594086647034,-0.14592549204826355,10.421004295349121
3.24,0.0697234496474266,0.02973044104874134,0.022418644279241562,-0.3540457487106323,-0.28160610795021057,10.169106483459473
3.2600000000000002,-0.007107346784323454,0.019558578729629517,0.024505453184247017,-0.31507521867752075,0.3436346650123596,9.369115829467773
3.2800000000000002,0.0309414342045784,-0.022629568353295326,0.018794933333992958,-0.17547373473644257,0.4862752854824066,9.318859100341797
3.3000000000000003,-0.027413181960582733,0.007109423633664846,0.00022348639322444797,-0.1400383710861206,0.42480066418647766,10.430166244506836
3.3200000000000003,0.01989693194627762,0.022235263139009476,-0.0063407751731574535,0.07831519842147827,0.33319026231765747,10.33224868774414
3.34,-0.013500782661139965,-0.0021968181245028973,-0.020135929808020592,0.07719933986663818,0.10432147234678268,9.368115425109863
3.36,0.018938904628157616,-0.019241325557231903,-0.014069018885493279,0.041494131088256836,-0.29216668009757996,9.418412208557129
3.38,-0.01649203523993492,-0.022555137053132057,0.0019554132595658302,-0.1451902538537979,-0.18049302697181702,9.902129173278809
3.4,-0.008417532779276371,-0.014013619162142277,0.01621803268790245,-0.25023889541625977,0.1316147893667221,10.15457820892334
3.42,-0.023330260068178177,-0.015355964191257954,0.016292434185743332,-0.22048714756965637,0.2759651243686676,9.650100708007812
3.44,-0.07536973059177399,-0.008784051053225994,0.0014927996089681983,-0.23314617574214935,0.4147648215293884,10.04708480834961
3.46,-0.06612560898065567,-0.0020748726092278957,-0.00870389025658369,-0.13547033071517944,0.4031028151512146,9.884242057800293
3.48,-0.03268348053097725,-0.02713433839380741,-0.022027499973773956,-0.07321016490459442,-0.05813966318964958,9.174660682678223
3.5,0.0332234762609005,-0.017836090177297592,-0.01019191462546587,0.11974163353443146,-0.410963237285614,9.310956954956055
3.52,0.006241685710847378,0.0001968440628843382,0.01135250274091959,0.06491369009017944,-0.6549621224403381,10.300935745239258
3.54,-0.009582491591572762,-0.008772375993430614,0.026563644409179688,-0.05966195464134216,-0.16858543455600739,10.514135360717773
3.56,0.016122322529554367,-0.03328699618577957,0.039695244282484055,-0.2064700424671173,0.23798665404319763,9.229933738708496
3.58,0.020345553755760193,-0.019324200227856636,0.017342597246170044,-0.23154376447200775,0.23889432847499847,9.1569242477417
3.6,-0.030855368822813034,0.007374150212854147,-0.004543577786535025,-0.2590828239917755,0.27662602066993713,10.381831169128418
3.62,0.007924141362309456,0.00556202931329608,-0.032680004835128784,-0.08211865276098251,0.5250094532966614,10.69454288482666
3.64,0.009473559446632862,-0.036119554191827774,-0.028026744723320007,0.09810473024845123,-0.06976423412561417,9.942493438720703
3.66,-0.002471392508596182,-0.014804081059992313,-0.008211921900510788,0.11551906168460846,-0.8023510575294495,9.513830184936523
3.68,0.019932089373469353,0.01761573553085327,0.004199131391942501,-0.005094229709357023,-0.304780513048172,9.071584701538086
3.7,0.013188399374485016,0.004083666484802961,0.035170190036296844,-0.1613616794347763,0.18948645889759064,9.331581115722656
3.72,-0.010831638239324093,-0.04295151308178902,0.03540071099996567,-0.24031537771224976,0.5209651589393616,10.302641868591309
3.74,-0.01242912095040083,-0.012315504252910614,0.020450225099921227,-0.3322960436344147,0.8299736976623535,10.903451919555664
3.7600000000000002,0.0023068105801939964,0.0375138558447361,-0.018820183351635933,0.009484946727752686,0.4471612572669983,9.827882766723633
3.7800000000000002,-0.019453756511211395,0.008192108012735844,-0.035174258053302765,0.3359631299972534,-0.1961526870727539,8.738090515136719
3.8000000000000003,-0.061350222676992416,-0.04614230617880821,-0.022836532443761826,0.35081905126571655,-0.5516648888587952,9.093343734741211
3.8200000000000003,-0.010315986350178719,-0.016253197565674782,0.012958649545907974,0.06253859400749207,-0.5057999491691589,10.33049488067627
3.84,0.0071695842780172825,0.0209103561937809,0.0242081880569458,-0.1838439255952835,-0.09573598206043243,10.530241966247559
3.86,0.014828570187091827,-0.012463836930692196,0.008091691881418228,-0.24192151427268982,0.46014469861984253,9.526288032531738
3.88,-0.02029687725007534,-0.040468279272317886,0.006176415830850601,-0.22943449020385742,0.5576192736625671,9.484018325805664
3.9,0.018180599436163902,0.010333461686968803,0.017704999074339867,-0.33174726366996765,0.4102034568786621,9.84975528717041
3.92,0.032664794474840164,0.0019451251719146967,-0.010089926421642303,-0.15999864041805267,-0.3255150020122528,9.924477577209473
3.94,0.00447285920381546,-0.03839169070124626,-0.026019666343927383,0.028332959860563278,-0.5155332088470459,9.928354263305664
3.96,-0.00723757641389966,-0.04571990296244621,-0.008869053795933723,0.030721601098775864,-0.07304408401250839,10.009034156799316
3.98,0.04231922701001167,-0.012281235307455063,0.01180127914994955,-0.03513231500983238,0.11633479595184326,9.820612907409668
4.0,0.044157110154628754,-0.03311145678162575,0.007419963832944632,-0.06794512271881104,0.2015143185853958,9.43216609954834
4.0200000000000005,0.021638913080096245,-0.042780801653862,0.011129972524940968,-0.21833595633506775,0.3600314259529114,9.528250694274902
4.04,0.0003211523580830544,0.003389589721336961,-0.002038626465946436,-0.16391737759113312,0.5269802212715149,10.159123420715332
4.0600000000000005,-0.0018647717079147696,0.012637875974178314,-0.005680580157786608,0.014940483495593071,0.007271289359778166,10.048279762268066
4.08,-0.03217935562133789,-0.017152214422822,-0.012666548602283001,0.11721228808164597,-0.3911050856113434,9.499664306640625
4.1,-0.01859252341091633,-0.005773041397333145,-0.022654501721262932,0.19850414991378784,-0.033160604536533356,9.825511932373047
4.12,0.01276756078004837,0.023656897246837616,-0.026820959523320198,0.12521232664585114,0.28113695979118347,9.624985694885254
4.14,-0.01305127702653408,-0.002920441562309861,-0.007933486253023148,0.17763538658618927,0.1977403461933136,9.801053047180176
4.16,-0.018931398168206215,-0.025876067578792572,0.0036628632806241512,0.13717612624168396,0.13537824153900146,9.885579109191895
4.18,-0.034014396369457245,0.02706768922507763,0.016853023320436478,0.0895843356847763,0.15141095221042633,10.046229362487793
4.2,-0.005087036173790693,0.050089891999959946,0.006628919392824173,0.011266566812992096,0.15561309456825256,9.819136619567871
4.22,-0.03459205850958824,0.005830110050737858,-0.016175122931599617,0.03218397498130798,-0.2485402226448059,9.45552921295166
4.24,-0.0186455100774765,-0.020883096382021904,-0.019562041386961937,-0.02818962372839451,-0.18132415413856506,9.549065589904785
4.26,0.0063317022286355495,-0.009530121460556984,-0.005975595209747553,-0.039211612194776535,-0.22723956406116486,9.691067695617676
4.28,0.04576307162642479,-0.0024934534449130297,0.0030662063509225845,-0.21795544028282166,-0.3154866397380829,9.753921508789062
4.3,0.026677006855607033,-0.004816840402781963,0.01648271642625332,-0.2854524552822113,-0.03345634788274765,9.88847541809082
4.32,0.019049853086471558,0.0018862566212192178,0.026631386950612068,-0.21734659373760223,0.11855417490005493,10.046334266662598
4.34,0.045634228736162186,0.017411302775144577,0.027751127257943153,-0.19407474994659424,0.6487405896186829,9.989079475402832
4.36,0.031252697110176086,0.0205584317445755,-0.0061028399504721165,-0.13264572620391846,0.3427923023700714,9.991497993469238
4.38,-0.01133064366877079,-0.008236088789999485,-0.02945973351597786,-0.0033875948283821344,-0.14997020363807678,9.75979995727539
4.4,0.03158034384250641,-0.003373656189069152,-0.03348167613148689,0.004893876612186432,-0.09950263053178787,9.529684066772461
4.42,-0.025221161544322968,0.007837406359612942,-0.016060002148151398,-0.07114459574222565,-0.3437756896018982,9.34025764465332
4.44,0.014322108589112759,-0.00879847165197134,-0.005902991630136967,-0.07462194561958313,-0.07993221282958984,9.692967414855957
4.46,-0.00269338209182024,-0.015902133658528328,0.024265814572572708,-0.07124128192663193,0.23273088037967682,9.997587203979492
4.48,-0.035549528896808624,0.009640422649681568,0.01622227393090725,-0.04854068532586098,0.7911855578422546,10.230477333068848
4.5,-0.006546687800437212,0.022209011018276215,0.00107004854362458,0.014984101057052612,0.672573983669281,10.083727836608887
4.5200000000000005,-0.04807448014616966,-0.0037751730997115374,-0.0280257947742939,0.2248111367225647,-0.0928192287683487,10.11584186553955
4.54,-0.04883340001106262,-0.0029459239449352026,-0.024107731878757477,0.26841095089912415,-0.19257836043834686,9.725183486938477
4.5600000000000005,-0.02317138947546482,0.006690016947686672,-0.0035567707382142544,0.22107450664043427,-0.5598570108413696,8.96380615234375
4.58,0.009591671638190746,0.0042935628443956375,0.027469372376799583,-0.057795725762844086,-0.35120341181755066,9.345771789550781
4.6000000000000005,-0.0013780684676021338,0.0017169076018035412,0.03589944168925285,-0.2713594436645508,-0.017369963228702545,9.947148323059082
4.62,-0.02046368457376957,-0.003457149025052786,0.023258725181221962,-0.2652038335800171,0.4760436713695526,10.705347061157227
4.64,0.026915017515420914,0.02872740663588047,0.003445660462602973,-0.3877815008163452,0.5109473466873169,10.810245513916016
4.66,0.021362967789173126,0.012115334160625935,-0.024604447185993195,-0.038290493190288544,-0.05709988623857498,9.811969757080078
4.68,0.006756667513400316,-0.015663648024201393,-0.04208230972290039,0.23312564194202423,-0.22927796840667725,8.926257133483887
4.7,0.007086594123393297,0.017273016273975372,-0.017772162333130836,0.19230715930461884,-0.25913161039352417,8.695670127868652
4.72,-0.017914338037371635,0.03287439048290253,0.006685853004455566,0.09326775372028351,-0.0913429856300354,9.331048011779785
4.74,0.011123839765787125,0.011015684343874454,0.024659380316734314,0.06986220180988312,0.01027659047394991,10.525062561035156
4.76,-0.010184401646256447,-0.006743662059307098,0.027348017320036888,0.0069663203321397305,0.22058159112930298,10.569550514221191
4.78,-0.0017220178851857781,0.04357689619064331,0.022402366623282433,-0.16452087461948395,0.6912038922309875,10.184950828552246
4.8,-0.002217572182416916,0.06542038172483444,-0.014224485494196415,-0.044315364211797714,0.4195209741592407,9.369181632995605
4.82,-0.0030082007870078087,0.005101869348436594,-0.04562252759933472,0.06217615306377411,-0.23099461197853088,8.89112377166748
4.84,-0.00444308016449213,0.022081729024648666,-0.03993747755885124,-0.046025458723306656,-0.13961587846279144,9.339787483215332
4.86,-0.056779805570840836,0.04332926869392395,-0.016532616689801216,-0.08431112766265869,-0.2841545045375824,10.33216667175293
4.88,-0.025258997455239296,0.055378712713718414,0.012104025110602379,-0.08239613473415375,-0.03205876424908638,10.621222496032715
4.9,-0.023808566853404045,0.0075471969321370125,0.03192560002207756,-0.05940566956996918,0.1271359920501709,9.811004638671875
4.92,-0.03411196544766426,0.008165146224200726,0.02914183959364891,-0.12175504863262177,0.5904445648193359,9.39877700805664
4.94,-0.02012142911553383,0.050433408468961716,-0.0049290405586361885,-0.1549670547246933,0.03938553109765053,9.560445785522461
4.96,-0.023640189319849014,0.021986478939652443,-0.03176448866724968,-0.16590072214603424,-0.3064931035041809,10.066282272338867
4.98,-0.009119466878473759,-0.004498622380197048,-0.045477982610464096,-0.28334447741508484,-0.25263866782188416,10.241411209106445
5.0,-0.03533057123422623,0.0023425198160111904,-0.02127840183675289,-0.4000745713710785,-0.08375563472509384,9.892434120178223
5.0200000000000005,0.01978701911866665,0.019710008054971695,0.011129549704492092,-0.35887473821640015,-0.11022531986236572,9.304232597351074
5.04,0.01428650226444006,-0.014095991849899292,0.02479902282357216,-0.0948757752776146,0.07007277756929398,9.081066131591797
5.0600000000000005,0.020197244361042976,-0.017489735037088394,0.02745216153562069,-0.04354184493422508,0.2679789066314697,9.89581298828125
5.08,-0.021144412457942963,0.04062920808792114,0.003992339130491018,-0.0036952951923012733,0.42415788769721985,10.392280578613281
5.1000000000000005,0.03729579597711563,0.032577406615018845,-0.012061785906553268,0.20846642553806305,0.01657516323029995,10.212136268615723
5.12,-0.0609227791428566,-0.02938959188759327,-0.01895289681851864,0.08075112104415894,-0.35129812359809875,9.671454429626465
5.14,0.018224304541945457,-0.005346938967704773,-0.013923981226980686,-0.2644645869731903,-0.05976331979036331,9.582023620605469
5.16,0.03620939701795578,0.04446714371442795,0.015143421478569508,-0.3505519926548004,-0.2616428732872009,9.812546730041504
5.18,-0.021545911207795143,0.044091708958148956,0.018546750769019127,-0.11990202963352203,0.10617584735155106,9.509927749633789
5.2,-0.016191167756915092,0.0053319912403821945,0.007473789155483246,-0.04208510369062424,0.2969401776790619,9.543554306030273
5.22,0.04131098464131355,0.023516427725553513,0.006521174218505621,0.04595882073044777,0.2862037122249603,9.841043472290039
5.24,0.019524436444044113,0.05205758661031723,-0.010005964897572994,0.1129201129078865,-0.085941381752491,10.196805953979492
5.26,-0.028663355857133865,0.017338654026389122,-0.024333473294973373,0.12057274580001831,-0.316376268863678,9.723176956176758
5.28,0.0023806418757885695,-0.022232014685869217,-0.01733165979385376,-0.11373573541641235,-0.28458496928215027,9.633761405944824
5.3,0.028170082718133926,0.03167467191815376,-0.002327954862266779,-0.2503814995288849,-0.15188276767730713,9.905627250671387
5.32,-0.023265492171049118,0.04268704354763031,0.018786126747727394,-0.3024744689464569,0.09483637660741806,9.681658744812012
5.34,-0.002395093673840165,-0.030110683292150497,0.031767260283231735,-0.20672479271888733,0.1644486039876938,9.664905548095703
5.36,0.0001485872926423326,-0.029963191598653793,0.031740181148052216,-0.17760276794433594,0.17021583020687103,10.050386428833008
5.38,0.008701407350599766,0.045449547469615936,0.01178922038525343,-0.28803321719169617,0.06996791064739227,10.011330604553223
5.4,-0.03449229151010513,0.02771959826350212,-0.024091558530926704,-0.29997900128364563,-0.032143063843250275,9.56181526184082
5.42,0.01654774695634842,-0.044336069375276566,-0.03378533571958542,-0.25642845034599304,-0.15156075358390808,9.58527660369873
5.44,0.026822257786989212,-0.015583685599267483,-0.010726089589297771,-0.4250967800617218,-0.31500211358070374,10.103256225585938
5.46,-0.025628456845879555,0.030790548771619797,0.004406327847391367,-0.4396795332431793,-0.13606348633766174,9.893531799316406
5.48,0.06221574917435646,-4.007169991382398e-05,0.015320481732487679,-0.3031524121761322,0.10115017741918564,9.28003215789795
5.5,-0.013526695780456066,-0.02209610864520073,0.02693210355937481,-0.1549747735261917,0.2943919897079468,9.658392906188965
5.5200000000000005,-0.015580607578158379,0.02783064730465412,0.01964801363646984,-0.29141002893447876,0.529937207698822,10.387947082519531
5.54,-0.009611732326447964,0.027349460870027542,-0.003225639695301652,-0.31939080357551575,0.25032228231430054,9.968111038208008
5.5600000000000005,-0.03470289334654808,-0.015296726487576962,-0.030900046229362488,-0.1805073618888855,-0.0958528071641922,9.133163452148438
5.58,0.020928222686052322,-0.015750272199511528,-0.022199030965566635,-0.1914452463388443,-0.4885598123073578,9.684715270996094
5.6000000000000005,-0.003048767801374197,0.012754696421325207,0.012085902504622936,-0.24067750573158264,-0.2698383629322052,10.552511215209961
5.62,0.00040474470006302,-0.00853049661964178,0.04507862776517868,-0.14634302258491516,-0.20104441046714783,10.412776947021484
5.64,0.026809440925717354,-0.04828977212309837,0.04139409959316254,-0.07671746611595154,0.3287031054496765,9.519290924072266
5.66,-0.023158572614192963,-0.018114032223820686,0.010952383279800415,-0.05653902143239975,0.44367295503616333,9.097414016723633
5.68,-0.0052767167799174786,0.018420208245515823,-0.029064279049634933,0.044060155749320984,0.21375969052314758,9.410857200622559
5.7,0.03500879183411598,-0.007174156606197357,-0.028539767488837242,0.09295394271612167,-0.4227272570133209,9.699250221252441
5.72,0.00273346365429461,-0.028877219185233116,-0.002865566872060299,-0.17011070251464844,-0.27384427189826965,10.117208480834961
5.74,0.0731157436966896,0.023707695305347443,0.024964382871985435,-0.38778939843177795,-0.38136065006256104,10.201295852661133
5.76,-0.011532540433108807,0.044828034937381744,0.04645226150751114,-0.2113800048828125,-0.34016361832618713,10.28814697265625
5.78,0.06282339245080948,-0.020643778145313263,0.023385891690850258,-0.014263399876654148,0.06697624921798706,9.705955505371094
5.8,0.02895837090909481,-0.013245743699371815,-0.008681980893015862,-0.05159257724881172,0.37983447313308716,9.444511413574219
5.82,-2.1240271962597035e-05,0.05738581717014313,-0.027542924508452415,0.02142256684601307,0.5307549834251404,9.62606430053711
5.84,-0.017527470365166664,0.03663858771324158,-0.03835398703813553,0.21122221648693085,0.23573197424411774,9.54183578491211
5.86,-0.029842600226402283,-0.03611162677407265,-0.010454030707478523,0.24076725542545319,0.13936500251293182,9.15881061553955
5.88,0.04660729691386223,-0.011443144641816616,0.016721636056900024,-0.1311570405960083,-0.16429352760314941,10.010381698608398
5.9,0.009251151233911514,0.03114033304154873,0.030244778841733932,-0.38663771748542786,-0.7039973139762878,10.494153022766113
5.92,-0.0012219359632581472,-0.036000777035951614,0.05506863072514534,-0.3055177628993988,-0.26630502939224243,10.385469436645508
5.94,0.019690385088324547,-0.07934637367725372,0.029670318588614464,-0.10227426886558533,0.3215338885784149,9.832779884338379
5.96,0.014087398536503315,-0.013923942111432552,0.009711500257253647,-0.379553884267807,0.6880055069923401,9.369691848754883
5.98,-0.003545028856024146,0.023336246609687805,-0.04017334803938866,-0.4885851740837097,0.334044873714447,9.113649368286133
6.0,-0.007358611095696688,-0.022733725607395172,-0.04564317315816879,-0.5445505380630493,-0.02074611932039261,9.399867057800293
6.0200000000000005,0.01418671477586031,-0.024441678076982498,0.005368268582969904,-0.6191914677619934,-0.41413483023643494,10.349310874938965
6.04,0.048449430614709854,0.005634030792862177,0.04533683508634567,-0.5268646478652954,-0.6134476661682129,10.559250831604004
6.0600000000000005,0.03285451978445053,0.010615610517561436,0.06304995715618134,-0.4132052958011627,-0.3773016035556793,9.841894149780273
6.08,0.0178377628326416,-0.015312579460442066,0.04459942504763603,-0.20673353970050812,0.04933067783713341,9.510045051574707
6.1000000000000005,0.0029457653872668743,-0.006935502868145704,-0.009568722918629646,-0.2581111490726471,0.734787106513977,9.720149993896484
6.12,0.06883269548416138,0.0035481168888509274,-0.04020209237933159,-0.7014408111572266,0.548320472240448,10.244674682617188
6.140000000000001,-0.008608122356235981,-0.03378980606794357,-0.03874659910798073,-0.36413609981536865,0.09026684612035751,10.040627479553223
6.16,0.003450879594311118,-0.056857630610466,-0.010709412395954132,0.1374405473470688,-0.2189171463251114,9.36700439453125
6.18,-0.021657021716237068,-0.027890071272850037,0.016043955460190773,0.1052345409989357,-0.2214619219303131,9.032326698303223
6.2,-0.011778052896261215,-0.01935407891869545,0.04186225309967995,0.2836519479751587,-0.085641048848629,9.627530097961426
6.22,-0.03174435347318649,-0.08265752345323563,0.017601612955331802,0.5152051448822021,0.3872668743133545,10.26559829711914
6.24,0.02663668617606163,-0.06580256670713425,0.01480154413729906,0.32635870575904846,0.5310191512107849,10.296551704406738
6.26,-0.006720094475895166,-0.0019474946893751621,-0.011344284750521183,0.16514438390731812,-0.04547470435500145,9.733092308044434
6.28,-0.02025565877556801,0.02608560025691986,-0.03764951601624489,0.24317263066768646,-0.0995216891169548,9.30480670928955
6.3,-0.03132762387394905,-0.009612353518605232,-0.045806799083948135,-0.1341247409582138,-0.11579882353544235,9.329834938049316
6.32,-0.031602222472429276,-0.034485653042793274,-0.042788416147232056,-0.5817922949790955,0.19291472434997559,9.689924240112305
6.34,-0.00197920436039567,0.008577725850045681,0.009120333939790726,-0.6730798482894897,-0.006233571097254753,10.525070190429688
6.36,0.05063287168741226,0.044168613851070404,0.06220671907067299,0.023515192791819572,-0.29351332783699036,10.482149124145508
6.38,-0.025296388193964958,0.006867385469377041,0.059396203607320786,0.763584315776825,-0.07811298966407776,9.633711814880371
6.4,0.010498585179448128,-0.027870265766978264,0.020665684714913368,0.83902508020401,0.2673799991607666,9.244026184082031
6.42,0.036895446479320526,0.012540210969746113,-0.01278834417462349,0.5411437749862671,0.31784695386886597,9.150032997131348
6.44,0.019301271066069603,0.025606976822018623,-0.019016820937395096,0.23835434019565582,0.02426404319703579,9.00507926940918
6.46,0.059727467596530914,0.01361685898154974,0.014008315280079842,-0.07974162697792053,-0.3024117648601532,9.42813777923584
6.48,0.07207885384559631,0.0452602319419384,0.015231172554194927,-0.6710990071296692,-0.5642721652984619,10.322575569152832
6.5,0.044217001646757126,0.07819657027721405,0.02366294153034687,-0.9256957173347473,-0.39944988489151,10.959659576416016
6.5200000000000005,0.05536489933729172,0.04628642648458481,0.010498139075934887,-0.9700051546096802,0.014368842355906963,10.448158264160156
6.54,0.023637082427740097,0.0028094069566577673,-0.004304756410419941,-0.5627719759941101,0.4420887231826782,9.765327453613281
6.5600000000000005,0.050242479890584946,0.012224545702338219,-0.03229242563247681,-0.22053316235542297,0.7204895615577698,9.506085395812988
6.58,0.02884797379374504,0.0651639774441719,-0.019514713436365128,-0.11604856699705124,0.6613219380378723,9.723414421081543
6.6000000000000005,0.05484095960855484,0.03674602508544922,-0.010515167377889156,0.14021456241607666,-0.2075188159942627,10.135454177856445
6.62,-0.042007461190223694,-0.04895048215985298,-0.015520412474870682,0.17248445749282837,-0.43041059374809265,9.855487823486328
6.640000000000001,-0.003768742550164461,-0.05761079862713814,-0.005459351930767298,-0.07764281332492828,0.3945064842700958,9.435216903686523
6.66,-0.018127989023923874,-0.021187609061598778,0.008933935314416885,-0.5389459729194641,0.560171902179718,9.3287992477417
6.68,-0.06222095340490341,-0.04753250628709793,0.02473135106265545,-0.6936808228492737,0.6234307289123535,9.69514274597168
6.7,-0.05550434812903404,-0.09570053219795227,0.014453659765422344,-0.7689756751060486,0.37997108697891235,10.378110885620117
6.72,-0.06192624941468239,-0.06603807210922241,0.007145757786929607,-0.8868967294692993,0.24475322663784027,10.40087890625
6.74,0.023078611120581627,-0.04022786766290665,0.006056435871869326,-0.6740579009056091,-0.2655821144580841,9.843074798583984
6.76,-0.001299081603065133,-0.02224988117814064,0.007271996233612299,-0.5567008852958679,-0.8316702246665955,9.41650390625
6.78,0.033628545701503754,-0.028652505949139595,0.02436629682779312,-0.10639681667089462,-0.5103462338447571,9.489386558532715
6.8,-0.01880245842039585,-0.03634006530046463,0.008208712562918663,0.7637115120887756,0.17874722182750702,9.455904960632324
6.82,0.025719471275806427,-0.027497300878167152,-0.02201630175113678,0.8325226306915283,0.3154219686985016,9.98669719696045
6.84,-0.024126196280121803,-0.027402540668845177,-0.037998735904693604,0.907716691493988,0.31710919737815857,10.10964298248291
6.86,0.040300145745277405,-0.029838668182492256,-0.03093351423740387,0.7820816040039062,0.046489667147397995,9.85361385345459
6.88,0.014730950817465782,-0.03407231345772743,0.0027105791959911585,0.14243406057357788,0.13344071805477142,9.90644359588623
6.9,0.06023769453167915,-0.03474126011133194,0.02587914653122425,-0.520392894744873,-0.35810980200767517,10.058170318603516
6.92,0.010104243643581867,-0.027425119653344154,0.03950848430395126,-0.4742361605167389,-0.2527233958244324,9.540907859802246
6.94,0.045648057013750076,-0.021992448717355728,0.038968656212091446,-0.3052339553833008,0.13134808838367462,9.441499710083008
6.96,0.05870537832379341,-0.033134810626506805,0.021977610886096954,-0.15934431552886963,0.5607878565788269,10.084501266479492
6.98,-0.05694294720888138,-0.040613796561956406,-0.030181847512722015,-0.2712451219558716,0.5633395314216614,10.699563026428223
7.0,-0.04743313044309616,-0.06733402609825134,-0.07717766612768173,-0.21894536912441254,0.8225452303886414,9.859427452087402
7.0200000000000005,-0.0395834781229496,-0.07943722605705261,-0.08818360418081284,-0.184296116232872,0.3704102337360382,8.98169994354248
7.04,-0.07215525209903717,-0.07172694057226181,-0.033857714384794235,0.10011785477399826,0.01700451783835888,8.93476676940918
7.0600000000000005,-0.05624600127339363,-0.09858101606369019,0.01909373141825199,-0.006893387995660305,-0.31782016158103943,9.860361099243164
7.08,-0.0565408393740654,-0.04916209727525711,0.05210472270846367,-0.16169050335884094,-0.07679185271263123,10.235971450805664
7.1000000000000005,-0.024168340489268303,-0.01689833775162697,0.05197009816765785,0.05990378558635712,0.07777247577905655,9.767417907714844
7.12,-0.052747298032045364,-0.028383437544107437,0.03255411237478256,0.4000645577907562,0.24581865966320038,9.4356050491333
7.140000000000001,-0.03136972337961197,-0.03710886463522911,-0.001607728423550725,0.3865112066268921,0.04430830106139183,9.82556438446045
7.16,-0.0763809084892273,0.03386721760034561,-0.03122549317777157,0.4347187578678131,-0.39947596192359924,9.869582176208496
7.18,0.04154743626713753,0.059069424867630005,-0.033187273889780045,0.21853868663311005,-0.4396640360355377,10.167960166931152
7.2,0.0749216079711914,0.0664505884051323,0.01452216599136591,0.02806297317147255,-0.801388144493103,10.166412353515625
7.22,0.05167541652917862,0.10802637785673141,0.04925720393657684,0.342553049325943,-0.35712435841560364,10.217334747314453
7.24,0.0736391693353653,0.11276470124721527,0.06501507014036179,0.5272911190986633,0.08392494916915894,9.281109809875488
7.26,0.07070659101009369,0.08555128425359726,0.03861290216445923,0.6526157259941101,0.22105073928833008,8.69162368774414
7.28,0.08046986907720566,0.0802699476480484,-0.0006657897029072046,0.8170942664146423,0.264527291059494,9.164902687072754
7.3,0.04693339392542839,0.06655684113502502,-0.04211210831999779,0.726355254650116,0.5278358459472656,9.893553733825684
7.32,0.03095289319753647,0.01145852915942669,-0.04926307871937752,0.6650408506393433,0.5484213829040527,9.652563095092773
7.34,-0.005459495820105076,-0.032479893416166306,-0.056823424994945526,0.08774905651807785,0.021264931187033653,10.39691162109375
7.36,-0.0681457370519638,0.008376684971153736,-0.07314024120569229,-0.9389382600784302,0.4055832028388977,10.554522514343262
7.38,-0.0635322853922844,0.0473991334438324,-0.060761068016290665,-1.304317593574524,0.36723703145980835,9.965516090393066
7.4,-0.0224144384264946,0.04258105158805847,-0.01020508911460638,-1.2039079666137695,0.08420072495937347,9.641989707946777
7.42,-0.04623553529381752,0.006102500483393669,0.05581587925553322,-0.9364080429077148,0.2754786014556885,9.177841186523438
7.44,-0.05372374877333641,-0.010091979056596756,0.08484838902950287,-0.573508620262146,0.05802198499441147,9.326000213623047
7.46,-0.10339739918708801,-0.008010531775653362,0.06706489622592926,-0.25101566314697266,-0.10821937024593353,9.531740188598633
7.48,0.0015071190427988768,-0.018952909857034683,0.022610360756516457,0.03738914802670479,-0.08440225571393967,9.749499320983887
7.5,-0.0010944170644506812,-0.0296146459877491,-0.021169567480683327,0.2730153501033783,0.011018697172403336,9.903531074523926
7.5200000000000005,0.02884470485150814,-0.06053692102432251,-0.05315977334976196,0.2817758321762085,-0.44508376717567444,10.172471046447754
7.54,0.036713872104883194,-0.08248773217201233,-0.05668843165040016,0.046369824558496475,-0.5396004915237427,9.73543643951416
7.5600000000000005,0.10526084899902344,-0.05777040868997574,-0.047916945070028305,-0.4286399185657501,-0.8004170060157776,9.844230651855469
7.58,0.07523248344659805,-0.0491408035159111,0.00505888881161809,-0.6378356218338013,-0.9487038254737854,9.96676254272461
7.6000000000000005,0.08569996803998947,-0.03554287552833557,0.022261232137680054,-0.5603803992271423,0.3288304805755615,9.991201400756836
7.62,0.1103900596499443,0.0036793281324207783,0.027728574350476265,-0.4669320285320282,0.6482662558555603,9.908785820007324
7.640000000000001,0.04375796020030975,0.03088613599538803,0.012390065006911755,-0.5407583713531494,0.5067398548126221,10.041424751281738
7.66,0.056120581924915314,0.029438575729727745,-0.00982631929218769,-0.3885962665081024,0.5432711839675903,9.983169555664062
7.68,0.04956786707043648,-0.0005619908915832639,-0.03427412360906601,0.43131500482559204,-0.22687982022762299,9.494440078735352
7.7,0.0026943518314510584,-0.00941961258649826,-0.036103952676057816,0.590707004070282,-0.3820045292377472,9.392753601074219
7.72,-0.022623252123594284,0.021587636321783066,-0.011479436419904232,0.6276785731315613,0.4434291124343872,9.639297485351562
7.74,-0.047170963138341904,0.04060332477092743,0.007649314124137163,0.5694373250007629,0.9778920412063599,10.16490650177002
7.76,-0.027802567929029465,0.03479722514748573,0.01340476144105196,0.529976487159729,1.1798080205917358,9.951889038085938
7.78,-0.02692415937781334,0.03879047557711601,0.0037317038513720036,0.19098128378391266,0.10369858890771866,9.74325180053711
7.8,-0.09625288099050522,0.0475374199450016,0.00850742682814598,0.11247677356004715,-0.2023545801639557,10.033538818359375
7.82,-0.0321970097720623,0.07643893361091614,0.016567697748541832,0.11979389190673828,-0.5845555663108826,9.87330436706543
7.84,-0.058916471898555756,0.0566478855907917,0.026218974962830544,-0.07668811827898026,-0.7344985604286194,10.254241943359375
7.86,0.01737285777926445,0.035804878920316696,0.02194223552942276,-0.11591851711273193,-0.5133134722709656,9.804045677185059
7.88,0.029295220971107483,0.040746159851551056,-0.0022187537979334593,-0.12126225978136063,-0.1483585387468338,9.330068588256836
7.9,0.029812105000019073,0.07893381267786026,-0.00924493744969368,-0.30374202132225037,0.1626860648393631,9.57588005065918
7.92,0.04954145476222038,0.10509046912193298,-0.031150422990322113,-0.42075636982917786,0.095701202750206,10.083540916442871
7.94,0.05771873891353607,0.07264222949743271,-0.00023908985895104706,-0.05179857835173607,-0.23472976684570312,10.15351390838623
7.96,0.05385459586977959,0.022852251306176186,0.03058013692498207,-0.11855459213256836,-0.2078758329153061,9.909022331237793
7.98,0.037871766835451126,0.06347964704036713,0.044826652854681015,-0.19528459012508392,-0.12060718238353729,9.383003234863281
8.0,0.07193715125322342,0.046757154166698456,0.04098610579967499,0.08979422599077225,-0.09637792408466339,9.23560619354248
8.02,0.026156999170780182,0.03823000565171242,0.0012626037932932377,-0.2552996575832367,0.611138641834259,10.133172035217285
8.040000000000001,-0.0036540019791573286,0.04635557904839516,-0.040228232741355896,-0.8147293925285339,1.2050011157989502,10.76180362701416
8.06,-0.008109938353300095,0.09490612894296646,-0.0885978490114212,-0.7847149968147278,0.9022248983383179,10.124375343322754
8.08,-0.03184620663523674,0.11150527000427246,-0.0731266438961029,-0.20479385554790497,0.13904282450675964,8.964678764343262
8.1,-0.029469139873981476,0.07943452149629593,-0.019881848245859146,0.18154235184192657,-0.5077868103981018,8.804524421691895
8.120000000000001,-0.026942381635308266,0.048720669001340866,0.022422589361667633,0.464799165725708,-0.528596043586731,9.442319869995117
8.14,-0.02833526022732258,0.059942327439785004,0.06843069940805435,0.5707818269729614,-0.14422233402729034,9.920130729675293
8.16,-0.058573175221681595,0.045342735946178436,0.04511423408985138,0.2757088840007782,0.46267229318618774,10.101544380187988
8.18,-0.06017651408910751,0.05286219343543053,0.0032392037101089954,-0.1548275202512741,0.8151798248291016,10.19822883605957
8.2,-0.025364438071846962,0.03111468441784382,-0.03543052077293396,-0.2684134542942047,0.23332969844341278,9.809473991394043
8.22,-0.05371176823973656,-0.027027878910303116,-0.04861045256257057,-0.03973795846104622,-0.12968537211418152,9.664649963378906
8.24,-0.011916042305529118,-0.024891115725040436,-0.02800678461790085,-0.6284340023994446,-0.7277376055717468,9.737174987792969
8.26,0.05096197500824928,0.018358755856752396,0.01657823659479618,-0.8883721232414246,-0.944573700428009,9.811125755310059
8.28,-0.02753031998872757,-0.024227213114500046,0.05190642550587654,-0.8351262807846069,-0.5895735025405884,9.869972229003906
8.3,0.011878665536642075,-0.09279850870370865,0.05903465300798416,-0.703599750995636,0.15486463904380798,9.747003555297852
8.32,0.07650015503168106,-0.05146663635969162,0.038099996745586395,-0.9200637936592102,0.432422399520874,9.982975959777832
8.34,0.0075259702280163765,0.0030987581703811884,-0.007891478016972542,-0.8646389245986938,0.543163537979126,9.787714958190918
8.36,0.06132126227021217,-0.04553423449397087,-0.05827034264802933,-0.42014020681381226,0.14825963973999023,9.36698055267334
8.38,-0.035878077149391174,-0.06543060392141342,-0.06021883338689804,-0.45334258675575256,-0.16071997582912445,9.777139663696289
8.4,0.03613166883587837,-0.023393359035253525,-0.02473517134785652,-0.4154019057750702,-0.043549470603466034,10.04987621307373
8.42,0.017472578212618828,0.00209801085293293,0.010311701335012913,-0.3948098123073578,-0.2603467106819153,9.793253898620605
8.44,0.0004497967893257737,-0.057537741959095,0.03911123797297478,-0.2923896014690399,0.05934976413846016,9.726114273071289
8.46,-0.03403390944004059,-0.056133437901735306,0.03930152952671051,-0.4228074550628662,0.717174232006073,9.754091262817383
8.48,0.00468682823702693,0.005717558786273003,0.01815515011548996,-0.19201767444610596,0.7032380104064941,9.937931060791016
8.5,-0.03243754431605339,-0.02021755278110504,-0.01795818842947483,0.30266690254211426,0.13056106865406036,9.605978012084961
8.52,-0.07592269033193588,-0.046101126819849014,-0.05165308713912964,0.41062167286872864,-0.041342876851558685,9.356996536254883
8.540000000000001,-0.027645329013466835,-0.005088383331894875,-0.03662997856736183,0.20410847663879395,-0.3131222724914551,10.2552490234375
8.56,-0.01127573475241661,0.02966722659766674,-0.007855483330786228,0.15009745955467224,-0.6057887673377991,10.308847427368164
8.58,-0.0036932528018951416,-0.024092858657240868,0.029027733951807022,-0.023901818320155144,-0.2514491677284241,9.576053619384766
8.6,0.0009375744848512113,-0.03703228756785393,0.04068862646818161,-0.2512141466140747,0.09737829118967056,9.431235313415527
8.620000000000001,-0.021122416481375694,0.0006884222384542227,0.013059399090707302,-0.2977166175842285,0.36665767431259155,10.244974136352539
8.64,0.021077582612633705,0.04552995413541794,-0.03328018635511398,-0.11197351664304733,0.2972007095813751,10.181428909301758
8.66,0.011698867194354534,-0.0009086806094273925,-0.04661024734377861,0.07618103176355362,-0.1063128262758255,9.135050773620605
8.68,0.022705435752868652,-0.020470749586820602,-0.025435319170355797,0.051653675734996796,-0.3879067301750183,9.287800788879395
8.700000000000001,0.01151104737073183,0.002918633632361889,0.007034075912088156,-0.22259512543678284,-0.4286288619041443,10.434998512268066
8.72,0.05021482706069946,0.026141205802559853,0.030736563727259636,-0.38293713331222534,-0.04722362384200096,10.217229843139648
8.74,0.03508935868740082,-0.006621276494115591,0.03637990355491638,-0.22471649944782257,0.2886253297328949,9.268839836120605
8.76,0.03503928706049919,-0.030914219096302986,0.024479281157255173,-0.0948655903339386,0.4578400254249573,9.181238174438477
8.78,-0.024742228910326958,-0.010421842336654663,-0.0024000692646950483,-0.24757537245750427,0.4894908666610718,10.245512008666992
8.8,0.01457976270467043,-0.005768590606749058,-0.03685329854488373,-0.2667654752731323,0.30344077944755554,10.154973030090332
8.82,-0.028221657499670982,-0.0165242999792099,-0.016552219167351723,-0.30802685022354126,-0.21650220453739166,9.57905101776123
8.84,0.0037577077746391296,-0.010003868490457535,-0.02274945192039013,-0.4305306375026703,-0.5320642590522766,9.967805862426758
8.86,0.00436463113874197,0.004803686868399382,0.020048219710588455,-0.4509779214859009,-0.05730877071619034,10.09223747253418
8.88,0.012338696978986263,-0.008838754147291183,0.04992721229791641,-0.34398379921913147,0.08859297633171082,9.513215065002441
8.9,-0.04754546284675598,0.0014046364231035113,0.03871266543865204,-0.2571612000465393,0.34004369378089905,9.474281311035156
8.92,-0.025368981063365936,0.012935113161802292,-0.0058794389478862286,-0.24251818656921387,0.334430456161499,9.8691987991333
8.94,0.0030426455195993185,0.021869827061891556,-0.056811895221471786,-0.24011142551898956,0.07159046828746796,9.926405906677246
8.96,-0.032654497772455215,-0.012455364689230919,-0.052227623760700226,-0.13321325182914734,-0.023407261818647385,9.506093978881836
8.98,0.042987704277038574,-0.018483122810721397,-0.02313004806637764,-0.08480978012084961,-0.32188132405281067,9.790578842163086
9.0,-0.016837332397699356,0.0009648945415392518,0.018873365595936775,-0.1556854397058487,-0.6830236911773682,10.241377830505371
9.02,0.03124314174056053,0.008258848451077938,0.03549563139677048,-0.048221200704574585,-0.1778520792722702,9.989683151245117
9.040000000000001,0.005376195069402456,-0.07584168016910553,0.03450232744216919,0.11747688055038452,0.3935351073741913,9.528975486755371
9.06,-0.012948918156325817,-0.05642259865999222,0.01126378495246172,0.012957431375980377,0.5626180171966553,9.481291770935059
9.08,-0.026398006826639175,-0.0005395455518737435,-0.015545309521257877,-0.2424093633890152,0.49606776237487793,9.904810905456543
9.1,-0.015140951611101627,-0.03455747663974762,-0.03855639323592186,-0.3146666884422302,-0.05438052490353584,9.884286880493164
9.120000000000001,-0.04244674742221832,-0.0732763484120369,-0.034519921988248825,-0.18418879806995392,-0.46065622568130493,9.673808097839355
9.14,0.003926235716789961,-0.03779502958059311,-0.012869480066001415,-0.23760250210762024,-0.16145731508731842,9.910111427307129
9.16,-0.004337938968092203,0.011978079564869404,0.009434524923563004,-0.3382623791694641,0.026222288608551025,9.981117248535156
9.18,-0.023594334721565247,-0.017494650557637215,0.032958172261714935,-0.33482256531715393,0.03331587463617325,9.4205961227417
9.200000000000001,-0.0632057636976242,-0.0334743969142437,0.02843373827636242,-0.2392241656780243,0.4505898952484131,9.70251750946045
9.22,-0.0489044114947319,0.002240046625956893,-0.0024109091609716415,-0.13650843501091003,0.5363837480545044,10.318669319152832
9.24,-0.0448145754635334,0.028905076906085014,-0.02991466224193573,0.05051569268107414,0.029397284612059593,10.179330825805664
9.26,0.0047278814017772675,-0.01936708204448223,-0.023243233561515808,0.2740143835544586,-0.28749895095825195,9.404228210449219
9.28,-0.018809212371706963,-0.021095596253871918,-0.00816362164914608,0.19841806590557098,-0.4575512409210205,9.473989486694336
9.3,0.02973889745771885,0.03363844007253647,0.016973959282040596,0.04832025617361069,-0.18085938692092896,10.377582550048828
9.32,-0.013747972436249256,0.01171762403100729,0.022340215742588043,-0.07691215723752975,-0.14963483810424805,9.81216049194336
9.34,-0.0014418921200558543,-0.01490047387778759,0.009869369678199291,-0.18927516043186188,0.44492557644844055,9.613147735595703
9.36,-0.04244517534971237,0.024439537897706032,-0.0056959339417517185,-0.3187382221221924,0.45218425989151,9.785665512084961
9.38,-0.025393612682819366,0.04941115900874138,-0.02943037450313568,-0.28688153624534607,-0.10145819187164307,9.725536346435547
9.4,-0.01670018583536148,0.012776240706443787,-0.021753622218966484,-0.1576082706451416,-0.5297274589538574,9.604146957397461
9.42,0.01910289190709591,-0.00034271442564204335,-0.010990395210683346,-0.05528093874454498,-0.6224126815795898,10.091414451599121
9.44,0.022219020873308182,0.03217489644885063,0.015913357958197594,0.11544926464557648,-0.2310570627450943,10.183462142944336
9.46,0.032108742743730545,0.01461193710565567,0.023284198716282845,0.08936314284801483,0.35528331995010376,9.822624206542969
9.48,0.05300062522292137,-0.03243424370884895,0.002270149067044258,-0.10886970162391663,0.4847218692302704,9.056650161743164
9.5,-0.07414368540048599,-0.015306483954191208,-0.008161691017448902,-0.09633798152208328,0.5330674052238464,9.609397888183594
9.52,-0.004641572944819927,0.033235084265470505,-0.029359059408307076,-0.2605988085269928,0.27734705805778503,10.103898048400879
9.540000000000001,0.022312216460704803,0.03394505754113197,-0.02978476509451866,-0.5080447793006897,-0.4779447913169861,10.020516395568848
9.56,-0.006085319444537163,-0.04140477627515793,-0.002221302827820182,-0.6096373200416565,-0.3111341893672943,10.085955619812012
9.58,-0.009056886658072472,-0.02062520943582058,0.03061569109559059,-0.6013796925544739,-0.2619436979293823,10.08737564086914
9.6,-0.012052549980580807,0.0032110223546624184,0.039987631142139435,-0.4516359865665436,0.08536775410175323,9.794130325317383
9.620000000000001,0.052921563386917114,-0.016907935962080956,0.032154232263565063,-0.10653083771467209,0.16769766807556152,9.039922714233398
9.64,-0.026691285893321037,-0.033748287707567215,-0.007717132568359375,0.17107973992824554,0.16506244242191315,9.234930992126465
9.66,-0.011941198259592056,-0.015688380226492882,-0.02631310373544693,0.1022147461771965,0.30504876375198364,10.229713439941406
9.68,-0.021206185221672058,-0.012120858766138554,-0.039006415754556656,0.02657249942421913,0.10216531902551651,10.297861099243164
9.700000000000001,0.02805301919579506,-0.049041565507650375,-0.025373589247465134,-0.11864087730646133,-0.12434174120426178,9.688518524169922
9.72,0.07128037512302399,-0.010536633431911469,0.002291689394041896,-0.2263336032629013,-0.4233551621437073,9.683677673339844
9.74,-0.03601479530334473,0.02070760540664196,0.02465188503265381,-0.2552593946456909,-0.08175065368413925,9.839888572692871
9.76,0.046916861087083817,-0.008192136883735657,0.04145072400569916,-0.006642361171543598,0.0712457150220871,9.635846138000488
9.78,-0.020095601677894592,-0.04603258892893791,0.016049358993768692,0.003085650037974119,0.396303653717041,9.100322723388672
9.8,0.03201241418719292,-0.03282995894551277,0.003997690975666046,0.07605117559432983,0.4224618077278137,9.609760284423828
9.82,0.01686055213212967,0.02671789564192295,0.005008329637348652,0.09502744674682617,0.019522985443472862,10.305699348449707
9.84,0.01194795686751604,0.010007306933403015,-0.025049500167369843,-0.009538774378597736,-0.11098536103963852,10.021760940551758
9.86,0.013826715759932995,-0.008345482870936394,-0.026749184355139732,-0.12126144766807556,0.12438235431909561,9.719247817993164
9.88,-0.035201672464609146,0.010024121962487698,-0.013935837894678116,-0.14990699291229248,-0.026915114372968674,9.973994255065918
9.9,-0.034909408539533615,0.022283736616373062,0.011378091759979725,-0.2284427434206009,-0.0064245848916471004,10.074542045593262
9.92,-0.006834227591753006,0.01145943533629179,0.0341244600713253,-0.3313731849193573,0.017710139974951744,9.942596435546875
9.94,-0.0006924655754119158,0.0007385315257124603,0.027458708733320236,-0.27892982959747314,-0.04247841238975525,9.859641075134277
9.96,-0.027624594047665596,-0.0002293640427524224,0.010142548009753227,-0.23960575461387634,0.14332453906536102,9.669219970703125
9.98,0.008797270245850086,-0.0017273537814617157,-0.016155561432242393,-0.12767663598060608,-0.006964313797652721,9.154412269592285
10.0,0.019456027075648308,-0.017138201743364334,-0.007531383074820042,-0.0464928075671196,0.06433779746294022,9.53869342803955
10.02,0.025258444249629974,-0.01841787062585354,0.0032715066336095333,-0.042710527777671814,-0.17476241290569305,10.638503074645996
10.040000000000001,0.04386312887072563,-0.010808649472892284,0.0025739604607224464,-0.209024578332901,-0.015201207250356674,10.548680305480957
10.06,0.010926434770226479,-0.025681165978312492,0.006683475337922573,-0.14189590513706207,0.05943902209401131,9.281317710876465
10.08,0.004777064546942711,-0.055331166833639145,0.00453966623172164,-0.0004687572072725743,0.09726134687662125,8.626640319824219
10.1,-0.023764323443174362,-0.007791565265506506,0.003377960529178381,-0.06900045275688171,0.26980623602867126,9.339344024658203
10.120000000000001,0.04645716771483421,0.013529804535210133,-0.0009987077210098505,-0.29529109597206116,0.048384569585323334,10.485594749450684
10.14,0.009575814940035343,0.00313556008040905,-0.013739352114498615,-0.37526121735572815,0.004893795121461153,10.658681869506836
10.16,0.02140767127275467,-0.008954177610576153,-0.017033690586686134,-0.18105973303318024,0.09249895066022873,10.210565567016602
10.18,0.02479238063097,0.010006935335695744,-0.009025506675243378,-0.04367215558886528,0.05572100728750229,9.719481468200684
10.2,-0.004592582583427429,0.00907532311975956,0.014363943599164486,0.22638075053691864,0.10732925683259964,9.318910598754883
10.219999999999999,0.00981274526566267,-0.014145227149128914,0.012580390088260174,0.26398786902427673,-0.0780194029211998,9.174307823181152
10.24,0.0037172900047153234,0.007895125076174736,-0.000522010843269527,0.20364394783973694,0.11683005094528198,9.711421966552734
10.26,0.016819017007946968,0.006285225041210651,-0.020312996581196785,-0.04372360184788704,0.10229537636041641,10.419761657714844
10.28,-0.024465734139084816,-0.0038436150643974543,-0.02875358611345291,-0.2939794063568115,0.39809826016426086,10.004704475402832
10.299999999999999,-0.003509148955345154,-0.007503048051148653,-0.024664919823408127,-0.18593183159828186,0.5508841276168823,9.286026954650879
10.32,-0.04869282245635986,-0.019120892509818077,-0.007544716354459524,-0.0739775225520134,-0.07646111398935318,9.517143249511719
10.34,-0.02577592432498932,-0.02932599000632763,0.02205558493733406,-0.07710450887680054,-0.238364115357399,9.861586570739746
10.36,-0.03250744566321373,-0.041504573076963425,0.0462663471698761,-0.14983807504177094,-0.3595743179321289,9.891125679016113
10.379999999999999,0.01350774522870779,-0.03160560131072998,0.050859589129686356,-0.29119884967803955,-0.06492312252521515,10.378191947937012
10.4,-0.024414902552962303,0.007203918881714344,0.02500182017683983,-0.4978601336479187,0.19581516087055206,10.500387191772461
10.42,0.0028015330899506807,0.013081753626465797,-0.020908644422888756,-0.43529894948005676,0.6305691599845886,9.402029991149902
10.44,0.031194308772683144,-0.03527678921818733,-0.037958018481731415,-0.3568746745586395,0.17812205851078033,8.70639419555664
10.459999999999999,-0.008857649751007557,-0.014486385509371758,-0.04372332617640495,-0.30284786224365234,-0.17658458650112152,9.548564910888672
10.48,0.09033938497304916,0.01567699760198593,-0.00770686287432909,-0.1560175120830536,-0.6485325694084167,10.514385223388672
10.5,0.03697827085852623,0.0013284138403832912,0.026331817731261253,0.10764724761247635,-0.5627620816230774,10.101495742797852
10.52,0.0003879466385114938,-0.005200583953410387,0.04454711079597473,0.3234494626522064,0.17241142690181732,9.596431732177734
10.54,-0.00762535072863102,-0.014938338659703732,0.01972830295562744,0.37857407331466675,0.5098708271980286,9.753457069396973
10.56,-0.00335930404253304,0.007879981771111488,-0.012149084359407425,0.3380889892578125,0.599468469619751,9.8726224899292
10.58,0.07376815378665924,0.018898354843258858,-0.034823864698410034,0.17820192873477936,0.48537111282348633,9.445367813110352
10.6,0.04286647588014603,0.003499912563711405,-0.020231181755661964,-0.09395477175712585,-0.2502959072589874,9.78006649017334
10.62,0.05678577348589897,0.02781452238559723,0.005070865619927645,-0.37453657388687134,-0.5162423253059387,10.339970588684082
10.639999999999999,0.0005107691395096481,0.022916704416275024,0.03255660831928253,-0.4287002980709076,0.09111884981393814,10.211140632629395
10.66,0.033499591052532196,0.01739961840212345,0.04120062291622162,-0.2751968502998352,0.29133692383766174,9.352372169494629
10.68,0.05417126044631004,0.013403364457190037,0.02158341184258461,-0.037615738809108734,0.3030259609222412,9.289705276489258
10.7,0.01125335693359375,0.03568728640675545,-0.028281327337026596,0.2189684361219406,0.6212387084960938,9.922331809997559
10.719999999999999,0.0039544119499623775,0.027939341962337494,-0.04260111600160599,0.2611546814441681,0.2536430060863495,10.04449462890625
10.74,-0.03188887611031532,-0.0184776671230793,-0.031023046001791954,0.03790907561779022,-0.06930390000343323,10.017995834350586
10.76,-0.032510705292224884,-0.014836864545941353,-0.009459921158850193,-0.15441012382507324,-0.20728623867034912,10.14999008178711
10.78,-0.05094043165445328,0.0002558044216129929,0.015387991443276405,-0.25385698676109314,0.05460146442055702,9.656679153442383
10.799999999999999,0.013933361507952213,-0.016838647425174713,0.029198162257671356,-0.22574511170387268,0.09291478991508484,9.012472152709961
10.82,-0.0010860927868634462,-0.04532543197274208,0.043147191405296326,-0.22616712749004364,0.2575312852859497,9.495840072631836
10.84,-0.031162699684500694,-0.02539917640388012,0.023299332708120346,-0.3674755096435547,0.32323676347732544,10.242212295532227
10.86,-0.03266473114490509,-0.011145244352519512,-0.0163787342607975,-0.4657163619995117,0.11800891906023026,10.110407829284668
10.879999999999999,-0.03281908482313156,-0.020893855020403862,-0.03507840260863304,-0.4286161959171295,0.08496123552322388,9.481090545654297
10.9,-0.03264481574296951,-0.03935950621962547,-0.03092208504676819,-0.47885802388191223,-0.2338808923959732,9.733926773071289
10.92,-0.028667600825428963,-0.004230075981467962,-0.002937079407274723,-0.34680962562561035,-0.19150787591934204,10.163134574890137
10.94,0.003994211088865995,0.0028810114599764347,0.0291107390075922,0.21218213438987732,-0.11603687703609467,9.939119338989258
10.959999999999999,-0.020324284210801125,-0.026360750198364258,0.028364606201648712,0.6958719491958618,0.06637232005596161,9.260977745056152
10.98,-0.034931305795907974,0.0025779958814382553,0.00590034993365407,0.5489231944084167,0.6157895922660828,9.519585609436035
11.0,-0.006588253192603588,0.0490386039018631,-0.015394673682749271,0.34877267479896545,0.3854832053184509,9.958027839660645
11.02,-0.040016427636146545,0.014183285646140575,-0.028464697301387787,0.06255245208740234,-0.12130137532949448,9.72170352935791
11.04,0.038227763026952744,-0.023844558745622635,-0.007351254113018513,-0.40649715065956116,-0.3001454174518585,9.767523765563965
11.06,-0.00542717007920146,0.017279084771871567,0.01007052045315504,-0.6210483312606812,-0.45438575744628906,10.0816011428833
11.08,0.04150843247771263,0.05044298246502876,0.03922383487224579,-0.4202381670475006,-0.017548175528645515,10.495433807373047
11.1,0.013443153351545334,0.025486024096608162,0.03199676424264908,0.1388455182313919,0.1424807608127594,9.606757164001465
11.12,0.039170410484075546,-0.008978273719549179,-0.002933275420218706,0.35899221897125244,0.4541999101638794,9.256643295288086
11.139999999999999,0.009461945854127407,0.04411084204912186,-0.028068782761693,0.183974951505661,0.5542283654212952,9.609054565429688
11.16,0.05103873088955879,0.04253854230046272,-0.027406029403209686,0.07853369414806366,0.11329201608896255,9.656073570251465
11.18,0.057628463953733444,-0.004829431883990765,-0.014602229930460453,-0.09841300547122955,-0.33167362213134766,9.569787979125977
11.2,-0.06021841987967491,-0.02303822711110115,0.010792266577482224,-0.24147769808769226,-0.08049436658620834,10.292191505432129
11.219999999999999,0.02628972940146923,0.010491456836462021,0.02788814716041088,-0.3236156702041626,0.18739701807498932,10.57924747467041
11.24,-0.012830927968025208,0.009737737476825714,0.02966553531587124,-0.2561197280883789,0.25656312704086304,9.74574089050293
11.26,-0.03800137713551521,-0.027483802288770676,0.011067063547670841,-0.2515544295310974,0.24210980534553528,9.086816787719727
11.28,-0.016830138862133026,0.000374920287868008,-0.004509011749178171,-0.46722573041915894,0.2664940357208252,9.663724899291992
11.299999999999999,0.02478685975074768,0.027013441547751427,-0.0170058012008667,-0.5603610277175903,0.09360411763191223,10.183026313781738
11.32,0.036269914358854294,0.006894874852150679,-0.020793549716472626,-0.39712217450141907,-0.22854594886302948,10.038345336914062
11.34,-0.011214246042072773,-0.01696145161986351,-0.023745594546198845,-0.4653061330318451,-0.11315134167671204,10.043126106262207
11.36,0.03874222934246063,0.028254905715584755,-0.00024866321473382413,-0.1967073380947113,0.15051116049289703,10.108515739440918
11.379999999999999,0.01258126087486744,-0.002074224641546607,0.012949712574481964,0.46592363715171814,0.11790589243173599,9.24244213104248
11.4,-0.029592348262667656,-0.05552198365330696,0.015362590551376343,0.6441196203231812,0.24639013409614563,8.868492126464844
11.42,-0.022993702441453934,-0.04252723976969719,0.0021915575489401817,0.20956024527549744,0.33235296607017517,10.012256622314453
11.44,0.021917613223195076,0.003623593132942915,-0.009511716663837433,-0.2711232304573059,0.2705293595790863,10.820096015930176
11.459999999999999,-0.006698959972709417,-0.011183194816112518,-0.0018690834986045957,-0.32128098607063293,-0.13376224040985107,10.141990661621094
11.48,-0.00043286249274387956,-0.06698878109455109,-0.008109723217785358,-0.3682216703891754,-0.10775981843471527,9.07933235168457
11.5,-0.00021838625252712518,-0.03771241754293442,0.0037753682117909193,-0.5237656235694885,0.11466702073812485,9.440046310424805
11.52,-0.0012917066924273968,0.042646925896406174,0.015100938268005848,-0.44262418150901794,-0.057944271713495255,9.898821830749512
11.54,-0.030648719519376755,0.014398879371583462,0.008917957544326782,0.2963114380836487,-0.11392487585544586,9.830015182495117
11.56,-0.032546401023864746,-0.05057697743177414,-0.0044136191718280315,0.4083048105239868,0.31696969270706177,9.976630210876465
11.58,-0.039262447506189346,-0.008772995322942734,-0.004038095008581877,0.181513249874115,0.448716938495636,9.973350524902344
11.6,0.01346561498939991,0.04583374783396721,-0.001160799409262836,0.2918686866760254,0.1552160233259201,9.912188529968262
11.62,-0.0029584297444671392,0.018555760383605957,-0.011583429761230946,0.30151769518852234,-0.2052132487297058,9.131412506103516
11.639999999999999,-0.06329409778118134,-0.03760991990566254,-0.01732419990003109,-0.17443956434726715,-0.11820230633020401,9.399640083312988
11.66,0.03931858018040657,0.00411437451839447,-0.0023844337556511164,-0.3732624650001526,0.05656781047582626,10.333175659179688
11.68,-0.0008907654555514455,0.028819521889090538,0.0077509027905762196,-0.25751373171806335,-0.1690000742673874,10.307140350341797
11.7,0.01614309288561344,-0.00023995531955733895,-0.0017207158962264657,-0.16679362952709198,0.11570855230093002,9.823405265808105
11.719999999999999,-0.018647387623786926,-0.0069713350385427475,0.00317850592546165,-0.25628864765167236,0.5822761654853821,9.24638557434082
11.74,0.009387101978063583,0.01751149259507656,-0.00780380517244339,-0.27853959798812866,0.43984997272491455,9.241059303283691
11.76,0.00011445824929978698,0.005848143715411425,-0.026022514328360558,-0.21785390377044678,-0.15393120050430298,9.781035423278809
11.78,-0.010230863466858864,-0.0032744884956628084,-0.024184130132198334,-0.17608793079853058,-0.15581808984279633,10.398679733276367
11.799999999999999,-0.03183981031179428,0.0037412275560200214,-0.006304821465164423,-0.17810247838497162,-0.19786180555820465,10.566614151000977
11.82,-0.0351327583193779,0.01333762239664793,0.017923492938280106,-0.10363300144672394,-0.1460658311843872,10.03769302368164
11.84,0.03935954347252846,-0.023083962500095367,0.02287568524479866,0.038495440036058426,0.29717302322387695,9.178763389587402
11.86,0.02459835633635521,-0.0281407181173563,-0.00017262299661524594,0.05826520919799805,0.4246494174003601,8.857023239135742
11.879999999999999,-0.03668425977230072,0.008981917053461075,-0.0007549868314526975,-0.053404685109853745,0.34184589982032776,9.8663969039917
11.9,0.0034363067243248224,0.0018447746988385916,-0.015627490356564522,-0.09880964457988739,-0.10745074599981308,10.412248611450195
11.92,-0.025269344449043274,-0.030153805390000343,-0.02038545347750187,-0.13937000930309296,-0.2612198293209076,10.26270866394043
11.94,0.03943047299981117,-0.0006337970262393355,-0.0021389510948210955,-0.1845180243253708,-0.18699847161769867,9.837983131408691
11.959999999999999,-0.016077479347586632,0.01329749170690775,0.01627173274755478,-0.08097705990076065,-0.1654062122106552,9.462834358215332
11.98,0.0668841078877449,-0.022556286305189133,0.02539900504052639,-0.03546791151165962,0.143204927444458,9.448208808898926
12.0,0.005708951037377119,-0.025254718959331512,0.012103786692023277,-0.0284100454300642,0.2242492288351059,9.714553833007812
12.02,0.01427159272134304,0.02795393206179142,-0.011945897713303566,-0.0005380617803893983,0.36446285247802734,10.240365982055664
12.04,-0.037104833871126175,0.027737559750676155,-0.025524087250232697,0.27080240845680237,0.2653559446334839,10.069683074951172
12.06,-0.01417269092053175,-0.020049288868904114,-0.01886996440589428,0.24271707236766815,0.14469461143016815,9.274653434753418
12.08,0.014608403667807579,-0.029120484367012978,0.001497281133197248,0.10276323556900024,-0.20247995853424072,9.184447288513184
12.1,0.009615413844585419,-0.006394056137651205,0.00948287732899189,-0.1399865299463272,-0.380603164434433,9.872663497924805
12.12,0.006349625531584024,-0.021252466365695,0.016389206051826477,-0.2898702323436737,-0.19163917005062103,10.10836410522461
12.14,0.03465002030134201,-0.0402139388024807,0.015766676515340805,-0.4097484052181244,0.30513039231300354,10.137243270874023
12.16,0.018918510526418686,-0.017050152644515038,0.016112765297293663,-0.3826415538787842,0.3151738941669464,10.1024169921875
12.18,-0.018610866740345955,0.011859135702252388,0.01692122407257557,-0.42529377341270447,0.3050861656665802,9.967599868774414
12.2,0.05991363525390625,-0.013090822845697403,-0.0034961809869855642,-0.2612796425819397,0.12257815152406693,9.604331970214844
12.219999999999999,0.06070414558053017,-0.03652404993772507,0.0023006091360002756,-0.08889610320329666,-0.1440538913011551,9.280141830444336
12.24,0.0614251084625721,-0.01007244735956192,-0.01292986236512661,-0.13457012176513672,-0.19338570535182953,9.736120223999023
12.26,0.015831761062145233,-0.007712398190051317,0.008367326110601425,-0.14135956764221191,-0.2680894732475281,9.683088302612305
12.28,0.03201780840754509,-0.04897550866007805,0.019460152834653854,-0.05532175302505493,0.05434861406683922,9.596123695373535
12.299999999999999,0.03732624650001526,-0.07592657953500748,0.016604751348495483,-0.066753089427948,0.3862844407558441,9.844898223876953
12.32,0.035355839878320694,4.383629857329652e-05,0.0035144947469234467,-0.0567983016371727,0.7769190669059753,10.357707977294922
12.34,0.02772071585059166,0.013096959330141544,-0.0031983135268092155,0.15144798159599304,0.5776171088218689,10.195556640625
12.36,-0.0008199210278689861,-0.03286345303058624,-0.023848315700888634,0.22201493382453918,0.2286670058965683,9.670300483703613
12.379999999999999,0.024799607694149017,-0.009767473675310612,-0.014420220628380775,-0.022309409454464912,-0.18453717231750488,9.374302864074707
12.399999999999999,-0.025949034839868546,0.03396729752421379,0.005827328655868769,0.034882254898548126,-0.3230990469455719,9.488991737365723
12.42,-0.015187603421509266,0.013936521485447884,0.0057261171750724316,0.19486138224601746,-0.1153874546289444,9.684833526611328
12.44,-0.0642758384346962,-8.131174399750307e-05,0.010920194908976555,0.05695965513586998,0.29700201749801636,10.019336700439453
12.46,-0.04332573711872101,0.04417642578482628,0.0013475846499204636,-0.009958057664334774,0.7431691288948059,10.835108757019043
12.48,-0.06248318776488304,0.0806175172328949,-0.01163877360522747,0.21365098655223846,0.45098328590393066,10.304641723632812
12.5,0.0218906719237566,0.010864544659852982,-0.025660870596766472,0.39752042293548584,0.024633264169096947,9.146777153015137
12.52,-0.04306790605187416,-0.008720307610929012,0.0032372926361858845,0.14875471591949463,-0.6045257449150085,8.78965950012207
12.54,-0.01722392626106739,0.06072764843702316,0.028043696656823158,-0.13891692459583282,-0.41662678122520447,9.948487281799316
12.559999999999999,-0.0033593312837183475,0.06399217993021011,0.03331476077437401,-0.13114340603351593,-0.2376093715429306,10.006027221679688
12.58,0.015339551493525505,-0.014579850248992443,0.024230264127254486,-0.08881478011608124,0.4579049050807953,9.413487434387207
12.6,0.008456200361251831,-0.02023646980524063,0.010408337228000164,-0.14349980652332306,0.7361714839935303,10.006070137023926
12.620000000000001,0.031203871592879295,0.02342480793595314,-0.01586608774960041,-0.32622453570365906,0.2449789047241211,10.499076843261719
12.64,-0.02505253255367279,0.02069116197526455,-0.030173784121870995,-0.24373356997966766,-0.21093741059303284,9.81299877166748
12.66,0.014863946475088596,-0.03736512362957001,-0.025216227397322655,-0.14098083972930908,-0.23948454856872559,8.989322662353516
12.68,-0.0054224818013608456,-0.01710168458521366,0.0011062808334827423,-0.21943433582782745,-0.20993877947330475,9.646787643432617
12.7,0.016040677204728127,0.016717631369829178,0.02133735455572605,-0.40669724345207214,0.012238707393407822,10.353431701660156
12.719999999999999,0.01855194754898548,0.008340645581483841,0.03439043462276459,-0.43240901827812195,0.2021411657333374,9.844259262084961
12.739999999999998,0.01552576757967472,-0.027888013049960136,0.023070789873600006,-0.37572261691093445,0.486955463886261,9.38801383972168
12.76,-0.03421415016055107,0.0033588239457458258,0.011342428624629974,-0.4021477997303009,0.541337251663208,10.110069274902344
12.78,-0.005650477483868599,0.038233425468206406,-0.01529180072247982,-0.25665754079818726,0.24318455159664154,10.158613204956055
12.8,-0.004364730790257454,-0.009836982004344463,-0.02703884057700634,-0.10294888913631439,-0.11983983218669891,9.548906326293945
12.82,-0.026188774034380913,-0.049481965601444244,-0.0340418703854084,0.025751829147338867,-0.3469030261039734,9.542505264282227
12.84,-0.021202944219112396,-0.020369872450828552,-0.004727713298052549,0.06859109550714493,-0.24123331904411316,10.196908950805664
12.86,0.03949453681707382,-0.014981030486524105,0.0041924454271793365,0.3261881172657013,-0.010584116913378239,9.94433879852295
12.879999999999999,-0.010301770642399788,-0.04893837496638298,0.005456915590912104,0.321931391954422,0.4065837860107422,9.378493309020996
12.899999999999999,-0.021317776292562485,-0.04602385684847832,0.014179226011037827,0.019872812554240227,0.49899396300315857,10.051118850708008
12.92,-0.014593012630939484,-0.01603458821773529,-0.004953694064170122,-0.24238434433937073,0.3612758219242096,10.494599342346191
12.94,0.01736806519329548,-0.024780884385108948,-0.020361697301268578,-0.09810851514339447,0.09947028011083603,9.782989501953125
12.96,0.007620740681886673,-0.06883632391691208,-0.009607414714992046,-0.07830394059419632,-0.4022175967693329,8.799171447753906
12.98,-0.00661896588280797,-0.0053898124024271965,0.00854539405554533,-0.12192320823669434,-0.22104403376579285,9.525524139404297
13.0,0.013267865404486656,0.027900967746973038,0.015595209784805775,0.11428312957286835,-0.07421474903821945,10.209579467773438
13.02,-0.028542067855596542,-0.014509285800158978,0.009200982749462128,0.3003297746181488,0.30853620171546936,10.133423805236816
13.04,-0.018347598612308502,-0.01610197313129902,0.001982947578653693,0.1635838747024536,0.5824876427650452,9.484379768371582
13.059999999999999,-0.011929692700505257,0.030484141781926155,-0.00794779509305954,0.2349633276462555,0.5447602272033691,9.483511924743652
13.08,0.026258032768964767,0.07092611491680145,-0.013875908218324184,0.4804094433784485,0.2452603280544281,9.668037414550781
13.1,-0.012745787389576435,-0.012996340170502663,-0.013673615641891956,0.26804155111312866,-0.25612494349479675,9.60017204284668
13.120000000000001,-0.023583639413118362,-0.008328665979206562,-0.0032727534417062998,-0.04449480026960373,-0.31381434202194214,9.836995124816895
13.14,0.002308822935447097,0.05226278305053711,0.01712142862379551,-0.17241017520427704,-0.20519544184207916,10.492111206054688
13.16,0.018938176333904266,0.04834126681089401,0.02795826829969883,-0.22005988657474518,0.01205346081405878,9.691396713256836
13.18,-0.028474248945713043,-0.018722722306847572,0.02822336181998253,-0.20200470089912415,0.5246208310127258,9.243429183959961
13.2,0.002905426546931267,-0.0034163964446634054,0.008266807533800602,-0.262971967458725,0.5182592868804932,9.994824409484863
13.219999999999999,0.01466844230890274,0.03582571819424629,-0.023791130632162094,-0.36066892743110657,0.3343559205532074,10.323406219482422
13.239999999999998,0.023395337164402008,0.004028914496302605,-0.033795516937971115,-0.23012036085128784,-0.1811758428812027,10.030623435974121
13.26,-0.021364999935030937,-0.042165741324424744,-0.02760493941605091,-0.2448844313621521,-0.17973698675632477,9.888858795166016
13.28,-0.02652098424732685,0.00173009536229074,-0.0007750741206109524,-0.33457592129707336,-0.09282031655311584,9.54134464263916
13.3,0.036814235150814056,0.020510246977210045,0.03164215385913849,-0.4383382797241211,-0.07741977274417877,9.232393264770508
13.32,-0.026794428005814552,-0.029125886037945747,0.03786759823560715,-0.3808077573776245,0.24986030161380768,9.635939598083496
13.34,-0.042975910007953644,-0.05929659679532051,0.037994153797626495,-0.5561798214912415,0.637495756149292,10.653634071350098
13.36,-0.02257651463150978,0.020138641819357872,0.010643829591572285,-0.4540375769138336,0.46602073311805725,10.562142372131348
13.379999999999999,-0.021571213379502296,0.0034314338117837906,-0.029640747234225273,0.11687539517879486,-0.1760762482881546,9.083158493041992
13.399999999999999,-0.04217012599110603,-0.06958717852830887,-0.06836506724357605,0.6111197471618652,-0.22887149453163147,8.514142036437988
13.42,0.0005398140056058764,-0.06401915103197098,-0.03804193437099457,0.6178991198539734,-0.22173947095870972,9.424395561218262
13.44,0.041868820786476135,0.010429962538182735,0.01078584510833025,0.41830208897590637,-0.20058944821357727,10.843945503234863
13.46,-0.0031372997909784317,-0.0009331838809885085,0.037471234798431396,0.22149603068828583,0.09411110728979111,10.604148864746094
13.48,0.015260267071425915,-0.05717369541525841,0.03590422123670578,-0.1415664255619049,0.7417200803756714,9.248242378234863
13.5,-0.0200795978307724,-0.01404422614723444,0.008746650069952011,-0.33833980560302734,0.7319101691246033,9.09153938293457
13.52,-0.015442566014826298,0.03670627623796463,-0.018507249653339386,-0.23457735776901245,0.27695930004119873,9.604634284973145
13.54,-0.005424341186881065,0.014880684204399586,-0.03625950217247009,0.08969651162624359,-0.339157372713089,10.077743530273438
13.559999999999999,-0.0238780677318573,-0.036157697439193726,-0.02560611627995968,0.1588587909936905,-0.46586906909942627,10.209389686584473
13.58,-0.03517075255513191,0.009310713037848473,0.007399102207273245,0.14581076800823212,-0.07402108609676361,10.5556058883667
13.6,0.014502051286399364,0.03268646448850632,0.020467523485422134,0.132004976272583,0.022912543267011642,9.68468189239502
13.620000000000001,0.006091996096074581,-0.011713759042322636,0.016910690814256668,0.16184590756893158,0.5967424511909485,8.834488868713379
13.64,-0.07530605792999268,-0.023900475353002548,0.008326035924255848,-0.056381531059741974,0.703812837600708,9.226493835449219
13.66,-0.019428789615631104,0.020879285410046577,0.002298000268638134,-0.09695440530776978,0.4318193197250366,10.379706382751465
13.68,0.006681452505290508,0.014561477117240429,-0.014745463617146015,-0.14308162033557892,-0.44745463132858276,10.1846342086792
13.7,-0.032315801829099655,-0.04754035174846649,-0.017393173649907112,-0.18137355148792267,-0.3653278946876526,9.597978591918945
13.719999999999999,0.034996792674064636,-0.030788280069828033,-0.0026792504359036684,-0.38505834341049194,-0.2755044102668762,10.047147750854492
13.739999999999998,0.010504249483346939,0.017399145290255547,0.010747196152806282,-0.4030214548110962,-0.0451626218855381,10.088534355163574
13.76,0.006732372101396322,-0.019853129982948303,0.03322615474462509,-0.2697394788265228,0.1114204153418541,9.451234817504883
13.78,0.03329245746135712,-0.049348216503858566,0.015025308355689049,-0.08592274785041809,0.24959143996238708,9.309935569763184
13.8,0.028992190957069397,-0.009058846160769463,-0.0033398910891264677,0.11820714920759201,0.46515339612960815,10.039538383483887
13.82,0.02119462937116623,0.007431709673255682,-0.04349900782108307,0.44542285799980164,0.24399235844612122,10.121682167053223
13.84,-0.008035975508391857,-0.04437406361103058,-0.032066211104393005,0.4845285713672638,-0.012902732007205486,9.861319541931152
13.86,0.019278855994343758,-0.05347200483083725,0.006520697381347418,0.036384955048561096,-0.3324516713619232,9.717421531677246
13.879999999999999,-0.009152062237262726,-0.0064188530668616295,0.02883131615817547,-0.18029049038887024,-0.1808553785085678,9.999740600585938
13.899999999999999,0.03828426077961922,0.0007076798938214779,0.022640185430645943,-0.12650568783283234,0.1734478622674942,9.713432312011719
13.92,-0.06211703643202782,-0.04214264452457428,0.012672219425439835,-0.18338249623775482,0.5754705667495728,9.399933815002441
13.94,-0.04839695245027542,-0.00563706224784255,0.0020633023232221603,-0.1346082091331482,0.7226121425628662,9.662422180175781
13.96,-0.025969406589865685,0.03884664550423622,-0.013796297833323479,0.24432341754436493,0.1281372755765915,9.870112419128418
13.98,-0.006727439817041159,0.021506670862436295,-0.02497257851064205,0.5134313702583313,-0.2108108550310135,9.62050724029541
14.0,-0.0033362603280693293,-0.002847268246114254,-0.003096821252256632,0.09588219970464706,0.011134681291878223,10.185513496398926
14.02,0.011422090232372284,0.023731516674160957,0.04028908163309097,-0.14396078884601593,-0.4480898380279541,10.503914833068848
14.04,-0.008999837562441826,0.022837810218334198,0.05782334879040718,0.08634355664253235,0.02824578806757927,10.335227966308594
14.059999999999999,0.01304603647440672,-0.036363109946250916,0.024753043428063393,0.13722163438796997,0.05570956692099571,9.142048835754395
14.08,0.028145523741841316,-0.010843770578503609,-0.005207878537476063,0.011729303747415543,0.33194074034690857,9.32833194732666
14.1,0.07410460710525513,0.031659457832574844,-0.037226058542728424,-0.17656965553760529,0.10661861300468445,9.711651802062988
14.120000000000001,0.04197254776954651,0.013239633291959763,-0.048562925308942795,-0.050939492881298065,-0.28334060311317444,9.635584831237793
14.14,0.018645379692316055,-0.04773680493235588,-0.02496867999434471,0.10657474398612976,0.21060551702976227,9.45132827758789
14.16,0.05662098526954651,-0.028493409976363182,0.016462987288832664,0.11753693968057632,0.06929224729537964,9.559478759765625
14.18,0.05492312088608742,0.02989077940583229,0.04405350610613823,-0.07306607812643051,-0.2092726081609726,10.090755462646484
14.2,0.034087102860212326,0.0004926663241349161,0.047108106315135956,-0.17055438458919525,-0.14248637855052948,9.802203178405762
14.219999999999999,-0.009349019266664982,-0.05520842969417572,0.03380013629794121,-0.10737861692905426,0.3426626920700073,9.726390838623047
14.239999999999998,0.016399290412664413,-0.023545509204268456,-0.0010054983431473374,-0.1885250061750412,0.6200751662254333,9.811482429504395
14.26,-0.015568668954074383,0.02967672049999237,-0.02802039124071598,-0.21333014965057373,0.36131563782691956,10.003902435302734
14.28,0.006157143507152796,0.006485269870609045,-0.056368641555309296,-0.17275701463222504,0.02074088342487812,9.95674991607666
14.3,-0.004185373429208994,-0.016948550939559937,-0.04127254709601402,-0.06338062882423401,0.19888412952423096,9.823822021484375
14.32,0.016036301851272583,0.018237004056572914,-0.0031483846250921488,0.10365980118513107,-0.10237961262464523,9.800592422485352
14.34,0.009812280535697937,0.016392936930060387,0.03530355542898178,0.4687756299972534,-0.04881665110588074,9.655826568603516
14.36,0.01305700745433569,0.005422651302069426,0.0481133908033371,0.4791151285171509,0.22607950866222382,9.831123352050781
14.379999999999999,-0.01184176281094551,0.022444749251008034,0.03240200877189636,0.30150270462036133,0.31103911995887756,9.879788398742676
14.399999999999999,-0.012793770991265774,0.05503322184085846,-0.013957183808088303,0.2446843385696411,0.4404716193675995,9.871805191040039
14.42,0.02392677590250969,0.03410288318991661,-0.02868824079632759,0.02593415603041649,0.15908101201057434,9.667798042297363
14.44,-0.018401840701699257,0.021072769537568092,-0.03380089998245239,-0.21557940542697906,-0.3463139533996582,10.093323707580566
14.46,0.00636106776073575,0.03159058839082718,-0.008312840946018696,-0.19796739518642426,-0.35192736983299255,10.056827545166016
14.48,0.0017628511413931847,0.03845256194472313,0.014672563411295414,-0.1448328197002411,-0.0757964551448822,9.375645637512207
14.5,0.027467550709843636,0.017267603427171707,0.031402382999658585,-0.03924044594168663,0.27264049649238586,9.155373573303223
14.52,0.005643025040626526,0.004816894419491291,0.01596800424158573,0.075630322098732,0.5596734881401062,9.978578567504883
14.54,-0.022070936858654022,0.023987604305148125,-0.0024048355408012867,0.030349282547831535,0.6387788653373718,10.596745491027832
14.559999999999999,0.009097442962229252,0.02357717975974083,-0.03130309283733368,-0.04737938940525055,0.18155111372470856,9.644139289855957
14.58,-0.04188438504934311,-0.03188848868012428,-0.03328094631433487,-0.029438303783535957,-0.20452521741390228,9.306831359863281
14.6,0.0037282751873135567,-0.05967570096254349,-0.03155495598912239,-0.15008699893951416,-0.10273264348506927,9.73941707611084
14.620000000000001,-0.007032438181340694,-0.02036825381219387,0.009595252573490143,-0.22376522421836853,0.14400076866149902,10.108272552490234
14.64,0.014088028110563755,-0.004603195935487747,0.03356614708900452,-0.4272644519805908,0.07103876769542694,9.807985305786133
14.66,0.00766563368961215,-0.026672452688217163,0.03688264265656471,-0.5317400693893433,0.2529204785823822,9.782243728637695
14.68,-0.009265436790883541,-0.011560357175767422,0.011163061484694481,-0.4820519983768463,0.5223010182380676,9.887240409851074
14.7,-0.04329480603337288,0.04762980341911316,-0.009126768447458744,-0.23030886054039001,0.22739197313785553,9.70345687866211
14.719999999999999,-0.0018473990494385362,0.009090514853596687,-0.03652722388505936,0.6365376114845276,-0.03321848809719086,9.499628067016602
14.739999999999998,-0.008638503029942513,-0.02723878063261509,-0.03206755965948105,0.7925558686256409,-0.26863595843315125,9.732502937316895
14.76,-0.004605186637490988,0.006283424329012632,-0.00320735527202487,0.3908516764640808,-0.4467003643512726,10.419835090637207
14.78,0.037529803812503815,0.04063494876027107,0.01094261184334755,0.22662468254566193,-0.06929461658000946,9.939595222473145
14.8,0.02089623734354973,0.00956223625689745,0.02406667359173298,0.13993142545223236,0.21111175417900085,9.179743766784668
14.82,0.011724486947059631,0.009090929292142391,0.010395960882306099,-0.1844511777162552,0.6810123920440674,9.538219451904297
14.84,-0.011415636166930199,0.05688231438398361,0.004466531332582235,-0.25351452827453613,0.6257401704788208,10.34731388092041
14.86,-0.02389255352318287,0.043754614889621735,-0.0245711300522089,-0.18810638785362244,-0.073908232152462,10.23669147491455
14.879999999999999,0.038015998899936676,0.0024319381918758154,-0.026067474856972694,-0.1991780698299408,-0.29576510190963745,9.679743766784668
14.899999999999999,-0.0011474622879177332,0.035582203418016434,-0.013446660712361336,-0.1496664136648178,-0.46350526809692383,9.424668312072754
14.92,0.04804869368672371,0.036494966596364975,0.02129632607102394,0.0038846374955028296,0.13535456359386444,9.85775375366211
14.94,0.025585152208805084,-0.003788818372413516,0.030449483543634415,-0.05985601618885994,0.40066275000572205,10.300960540771484
14.96,0.011157264932990074,-0.02144877426326275,-0.00275826477445662,-0.12482196092605591,0.8419654369354248,10.166152000427246
14.98,-0.014387616887688637,0.013539775274693966,-0.015913814306259155,-0.0886954739689827,0.45221397280693054,9.614740371704102
15.0,-0.044631872326135635,0.003073068568482995,-0.037425696849823,-0.012954485602676868,-0.05173574760556221,8.952706336975098
15.02,-0.044175464659929276,-0.061487600207328796,-0.021804647520184517,-0.07937191426753998,-0.03473908081650734,9.264430046081543
15.04,-0.02766367606818676,-0.04449649900197983,0.009381752461194992,-0.31014347076416016,-0.4215807318687439,10.102725982666016
15.059999999999999,-0.028623031452298164,0.002692077774554491,0.04206259176135063,-0.3729870617389679,-0.17963454127311707,10.899454116821289
15.08,-0.029113875702023506,-0.012922707013785839,0.03128920495510101,-0.17990170419216156,0.15148282051086426,10.205196380615234
15.1,0.02923932857811451,-0.03912991285324097,0.009268556721508503,-0.02303771674633026,0.2295687049627304,9.345056533813477
15.120000000000001,0.013355168513953686,0.01428457722067833,-0.028379973024129868,0.27281689643859863,0.23846150934696198,8.909693717956543
15.14,0.009207738563418388,0.03726629540324211,-0.047986939549446106,0.5598115921020508,0.015937641263008118,9.11583423614502
15.16,0.039813436567783356,0.01978181302547455,-0.024778621271252632,0.4685041010379791,-0.22793206572532654,9.59927749633789
15.18,0.03353014215826988,0.00021415302762761712,0.0032885295804589987,0.2260822057723999,-0.06884804368019104,10.166220664978027
15.2,0.06728263199329376,0.03705139085650444,0.029606586322188377,-0.22431562840938568,0.021231096237897873,10.631512641906738
15.219999999999999,0.026831965893507004,0.06667446345090866,0.03363325446844101,-0.2388293445110321,0.36188647150993347,10.283408164978027
15.239999999999998,0.03367764502763748,0.0039441827684640884,0.012171906419098377,0.059862446039915085,0.39593881368637085,9.269943237304688
15.26,-0.010448256507515907,-0.005174032878130674,-0.004619462415575981,0.12976449728012085,0.2541627585887909,8.812774658203125
15.28,0.018217239528894424,0.007977907545864582,-0.02527240477502346,0.10060398280620575,0.3173082768917084,9.535860061645508
15.3,-0.0001607564918231219,0.015286139212548733,-0.038044609129428864,-0.06690269708633423,0.19964393973350525,9.974137306213379
15.32,-0.0035408632829785347,-0.030045855790376663,-0.030744293704628944,-0.01809423789381981,0.2723870873451233,10.273043632507324
15.34,0.01741097681224346,-0.05897319316864014,-0.010508597828447819,-0.21988104283809662,0.23225554823875427,10.54102897644043
15.36,-0.03893760219216347,-0.035126909613609314,0.0198780819773674,-0.7791140675544739,0.11843699961900711,10.303181648254395
15.379999999999999,-0.010587318800389767,-0.005800225771963596,0.027839088812470436,-0.795671820640564,0.1942269206047058,9.052143096923828
15.399999999999999,-0.021923363208770752,-0.0189666785299778,0.0015079010045155883,-0.6292241811752319,-0.05237402021884918,8.986381530761719
15.42,-0.051370978355407715,0.002383764134719968,-0.00751933827996254,-0.42256805300712585,0.27656880021095276,9.732487678527832
15.44,-0.006851562764495611,0.017226330935955048,-0.01569238305091858,-0.36891746520996094,0.09910981357097626,10.265299797058105
15.46,0.0069862911477684975,0.0039006827864795923,-0.009921533986926079,-0.2545020580291748,-0.11079799383878708,10.031251907348633
15.48,-0.0003531093243509531,-0.0027656606398522854,-0.003119244473055005,-0.19414907693862915,-0.11868555843830109,9.705109596252441
15.5,-0.02099793218076229,0.010854588821530342,-0.005784353706985712,0.5265865325927734,0.12255015224218369,9.713139533996582
15.52,-0.014975217171013355,-0.004569654352962971,0.01130640134215355,0.9370745420455933,0.1313929408788681,9.468737602233887
15.54,-0.011623891070485115,-0.03079507313668728,0.013596128672361374,0.8790928721427917,0.21110185980796814,9.665684700012207
15.559999999999999,-0.0092076500877738,0.00457956874743104,0.006762704811990261,0.3635334074497223,0.3119599223136902,10.069367408752441
15.58,-0.024226993322372437,0.04539938643574715,0.006873585283756256,-0.1850736141204834,0.35093796253204346,10.270696640014648
15.6,-0.0005344185046851635,0.0382634736597538,-0.006642454769462347,-0.30339664220809937,-0.02025076188147068,9.659750938415527
15.620000000000001,-0.010955322533845901,-0.03147907182574272,-0.01284385658800602,-0.32902225852012634,-0.15855661034584045,9.098246574401855
15.64,0.03557203710079193,0.008326353505253792,-0.00789069663733244,-0.4637761116027832,-0.00934620015323162,9.749798774719238
15.66,-0.02855382114648819,0.08833429962396622,-0.0021879179403185844,-0.24541616439819336,-0.03975639492273331,10.401436805725098
15.68,0.03609863296151161,0.054893769323825836,0.013253306970000267,0.22695928812026978,0.09486927092075348,10.336986541748047
15.7,-0.019990647211670876,-0.0019197771325707436,0.01020135823637247,0.23594684898853302,0.2506559491157532,9.837263107299805
15.719999999999999,-0.019106019288301468,0.04833164066076279,0.003275115741416812,0.14387625455856323,0.47261932492256165,9.31734561920166
15.739999999999998,-0.005784740671515465,0.0659310445189476,-0.010511074215173721,0.2903228998184204,0.09863434731960297,9.05471420288086
15.76,-0.007382837124168873,0.018104204908013344,-0.012882865034043789,0.1325012892484665,-0.2399192452430725,9.316729545593262
15.78,0.0021328837610781193,-0.02934822253882885,0.004643081687390804,-0.16848528385162354,-0.18987701833248138,10.418161392211914
15.8,-0.005580515135079622,-0.0007760468288324773,0.01527208648622036,-0.31452852487564087,0.08313872665166855,10.849000930786133
15.82,0.016270434483885765,0.00811794400215149,0.0033484341111034155,-0.3006129264831543,0.14761753380298615,10.248836517333984
15.84,0.0026432035956531763,-0.03452008217573166,-0.0009066633647307754,-0.21244601905345917,0.13709528744220734,9.097832679748535
15.86,0.0005239411839284003,-0.02403009682893753,-0.0009333788766525686,-0.26598674058914185,0.3484048843383789,8.739851951599121
15.879999999999999,-0.01222675759345293,0.0001560273376526311,0.005809234455227852,-0.4131867587566376,0.1234520897269249,9.656445503234863
15.899999999999999,-0.0048568169586360455,0.0054191602393984795,-6.781475531170145e-05,-0.4196147918701172,0.09046600013971329,10.684646606445312
15.92,0.023221293464303017,-0.03339109569787979,-0.0070418622344732285,-0.3671513497829437,0.04028763994574547,10.545136451721191
15.94,-0.013770487159490585,0.001230674679391086,0.0030215904116630554,-0.33077719807624817,-0.19678008556365967,9.813036918640137
15.96,-0.036986127495765686,-0.0035236412659287453,-0.005035626236349344,-0.20976948738098145,0.041976604610681534,9.197072982788086
15.98,-0.018608951941132545,-0.04360251873731613,-0.005070494022220373,-0.19001099467277527,0.1489214450120926,9.240615844726562
16.0,-0.02352413535118103,-0.005280239973217249,-0.01187132392078638,-0.2646063566207886,0.31711751222610474,9.704608917236328
16.02,0.02070455625653267,0.04079403355717659,-0.00961463525891304,-0.2504672706127167,0.33910661935806274,10.31532096862793
16.04,-0.027430973947048187,0.017546944320201874,0.015397564508020878,0.2831181287765503,0.06691110879182816,10.299227714538574
16.06,0.017603054642677307,-0.030690709128975868,0.023504413664340973,0.48194196820259094,-0.05242854729294777,9.788358688354492
16.08,0.0035251008812338114,0.02269766479730606,0.019252289086580276,0.35661354660987854,-0.44537997245788574,9.591833114624023
16.1,0.0223641786724329,0.07066908478736877,0.01676413230597973,0.4293556213378906,-0.12100421637296677,9.628522872924805
16.12,0.01661485806107521,0.007155349478125572,0.00035312442923896015,0.2319943904876709,-0.0371493436396122,9.894706726074219
16.14,0.00044610557961277664,-0.016638141125440598,-0.013350806199014187,-0.25144070386886597,0.30963918566703796,9.860464096069336
16.16,0.00810040533542633,0.04659847542643547,-0.004787574056535959,-0.3431134521961212,0.5092551708221436,9.348226547241211
16.18,0.036593902856111526,0.04768509417772293,-0.005992260295897722,-0.09294439107179642,0.42600488662719727,9.586553573608398
16.2,0.03314002603292465,0.0015876488760113716,0.006167008075863123,-0.012533318251371384,-0.4525364935398102,10.002032279968262
16.22,-0.011914826929569244,-0.009055797941982746,0.0013639486860483885,0.014842959120869637,-0.2954156696796417,10.274696350097656
16.240000000000002,0.026486007496714592,0.03136352449655533,0.012583106756210327,-0.0823095515370369,-0.2934737205505371,9.781028747558594
16.259999999999998,0.025265732780098915,0.0029643401503562927,0.009587801061570644,-0.23072117567062378,0.07842043042182922,9.286026000976562
16.28,0.029245490208268166,-0.05916495993733406,0.0010939734056591988,-0.07943757623434067,0.37681707739830017,9.700867652893066
16.3,0.02110661193728447,-0.06871282309293747,0.013451071456074715,-0.22875024378299713,0.5937311053276062,10.326752662658691
16.32,0.049923691898584366,-0.015774104744195938,0.014344500377774239,-0.4717954099178314,0.22433599829673767,10.409582138061523
16.34,0.02613234519958496,-0.02592250518500805,0.004361436702311039,-0.4713762402534485,-0.3483971953392029,9.640826225280762
16.36,0.05041968822479248,-0.06176970899105072,-0.027460357174277306,-0.37295863032341003,-0.1112935021519661,8.977898597717285
16.38,0.017504936084151268,-0.014092639088630676,-0.024371908977627754,-0.35835811495780945,-0.08841495960950851,9.138140678405762
16.4,0.01964510977268219,0.02249153144657612,-0.011154319159686565,-0.4888569414615631,0.20443017780780792,9.810161590576172
16.42,0.01822292059659958,0.022523874416947365,-0.015110231935977936,-0.5889438390731812,0.43754446506500244,10.582297325134277
16.44,-0.036511391401290894,0.004592815414071083,-0.0013866358203813434,-0.28104496002197266,0.8320598602294922,10.594579696655273
16.46,0.011479043401777744,0.017846878618001938,-0.015208681114017963,0.7036167979240417,0.573384702205658,9.753449440002441
16.48,-0.03397249057888985,0.014150748029351234,-0.01516033336520195,1.2232800722122192,0.02936747297644615,8.887560844421387
16.5,-0.06529581546783447,-0.005863168742507696,-0.01940217614173889,1.0637156963348389,-0.14482919871807098,9.192134857177734
16.52,-0.02876022458076477,0.006595148704946041,-0.013139241375029087,0.2838382124900818,0.20630685985088348,9.953146934509277
16.54,-0.012315599247813225,0.023561304435133934,0.0014486410655081272,-0.3588736057281494,0.1789848953485489,10.479159355163574
16.56,-0.06896194070577621,-0.0005052393535152078,0.019242938607931137,-0.41599714756011963,0.4139294922351837,9.942922592163086
16.58,-0.09053932875394821,-0.03918033093214035,0.028959864750504494,-0.2477167248725891,0.49661654233932495,9.667170524597168
16.6,-0.015239800326526165,0.02356344647705555,0.02266198769211769,-0.1851196438074112,0.27471408247947693,9.847285270690918
16.62,-0.028936879709362984,0.04892296344041824,-0.0015949789667502046,-0.26182878017425537,-0.3672195374965668,9.754764556884766
16.64,-0.017413171008229256,-0.01010403223335743,-0.014816999435424805,-0.16935843229293823,-0.45849207043647766,9.395254135131836
16.66,0.003114621387794614,-0.05778740346431732,-0.011800096370279789,-0.10652787983417511,-0.29726192355155945,9.752676963806152
16.68,-0.01938893087208271,-0.01548475120216608,-0.007282929494976997,-0.2008943110704422,-0.06920605152845383,10.296991348266602
16.7,0.017535559833049774,0.003120258217677474,0.02418731153011322,-0.28057119250297546,0.0055869449861347675,9.990278244018555
16.72,0.02129649743437767,-0.04436251148581505,0.01272611040621996,-0.15909667313098907,0.022341564297676086,9.404516220092773
16.74,0.014002196490764618,-0.05046963319182396,0.006403724662959576,-0.34384092688560486,0.24329505860805511,9.861343383789062
16.759999999999998,-0.008336753584444523,-0.029665684327483177,-0.009016398340463638,-0.586945652961731,0.5667222142219543,10.25963306427002
16.78,-0.012501147575676441,-0.02657914161682129,-0.02032855711877346,-0.5140624046325684,0.43804115056991577,9.768058776855469
16.8,0.02694357931613922,-0.05969356372952461,-0.01875527761876583,-0.4343882203102112,-0.05439573898911476,9.38660717010498
16.82,0.012637537904083729,-0.037316642701625824,0.008619009517133236,-0.6511343121528625,-0.20869271457195282,9.593338966369629
16.84,0.02406030334532261,0.009387248195707798,0.02853071317076683,-0.652493417263031,-0.1281731128692627,9.826226234436035
16.86,0.03658680245280266,-0.008138859644532204,0.044474225491285324,0.2856007516384125,0.3457624018192291,9.496955871582031
16.88,-0.009682109579443932,-0.0716930404305458,0.052793439477682114,1.092198133468628,0.5454709529876709,10.047121047973633
16.9,-0.05646856129169464,-0.029453789815306664,0.019034869968891144,1.205662488937378,0.5854612588882446,10.870925903320312
16.92,-0.03195499628782272,-0.00244444003328681,-0.024465644732117653,1.0507521629333496,0.09017088264226913,10.243654251098633
16.94,-0.006618598476052284,-0.009303898550570011,-0.03813972324132919,0.48535481095314026,-0.24920296669006348,8.884716033935547
16.96,-0.03458963334560394,-0.019450055435299873,-0.023373236879706383,-0.3450112044811249,-0.5286378860473633,8.976737022399902
16.98,-0.006601294036954641,0.025286950170993805,0.021075544878840446,-0.6594118475914001,-0.3632443845272064,9.637163162231445
17.0,0.03028629906475544,0.03415335342288017,0.04474082589149475,-0.46841031312942505,-0.17359821498394012,10.155274391174316
17.02,0.018098728731274605,-0.002621081657707691,0.0278876181691885,0.022408416494727135,0.15040740370750427,10.16480827331543
17.04,0.0470079705119133,7.527364505222067e-05,-0.0055471924133598804,0.14992572367191315,0.4244588315486908,10.177505493164062
17.06,0.0041174134239554405,0.048958342522382736,-0.050904013216495514,0.22922250628471375,0.5883010029792786,10.09650993347168
17.08,0.054619479924440384,0.0159460436552763,-0.056848280131816864,0.3133329451084137,0.2214958667755127,9.189842224121094
17.1,-0.04235242307186127,-0.03596140071749687,-0.02617613971233368,0.08492905646562576,-0.29046693444252014,9.249093055725098
17.12,-0.006671567913144827,-0.01523614302277565,-0.0038542388938367367,-0.17843620479106903,-0.0002253423590445891,9.987131118774414
17.14,0.018713392317295074,0.008469986729323864,0.03488713502883911,-0.3045912981033325,-0.056872446089982986,10.069598197937012
17.16,-0.019794654101133347,-0.019653722643852234,0.04552232101559639,-0.240224689245224,0.3464437425136566,9.561261177062988
17.18,0.0035147094167768955,-0.04715053364634514,0.04324769973754883,-0.2874506413936615,0.579977810382843,9.659353256225586
17.2,-0.03627122566103935,-0.013572508469223976,0.020557325333356857,-0.5117027759552002,0.5449399352073669,10.299722671508789
17.22,0.014972814358770847,0.009035341441631317,-0.018696246668696404,-0.34736254811286926,0.06337079405784607,9.829900741577148
17.24,0.0033674335572868586,-0.02049911580979824,-0.04474753886461258,-0.09201614558696747,-0.5074179768562317,9.201006889343262
17.259999999999998,0.011924313381314278,-0.024087751284241676,-0.053668536245822906,0.019615821540355682,-0.35508623719215393,9.771716117858887
17.28,-0.008515558205544949,0.016432449221611023,-0.02576567232608795,0.35192012786865234,-0.18397332727909088,10.393274307250977
17.3,0.030243588611483574,0.0018386119045317173,0.01958025060594082,0.757921040058136,-0.08771997690200806,9.956242561340332
17.32,0.023740477859973907,-0.03424443304538727,0.03596649691462517,0.7746289968490601,-0.03470095247030258,9.354889869689941
17.34,0.0563773512840271,-0.01915873773396015,0.01227811723947525,0.289035439491272,0.32593199610710144,9.505054473876953
17.36,-0.023310907185077667,0.01086693536490202,-0.012540833093225956,-0.20329931378364563,0.5486761927604675,9.972624778747559
17.38,0.04116545617580414,0.015319102443754673,-0.01569659262895584,-0.45369797945022583,0.2552349865436554,10.162396430969238
17.4,0.06419169157743454,0.005850201938301325,-0.008363889530301094,-0.4417561888694763,-0.39013469219207764,9.875350952148438
17.42,0.012507420033216476,0.007120747584849596,0.00875275582075119,-0.4195539355278015,-0.3609355092048645,9.508803367614746
17.44,0.023231593891978264,0.012639116495847702,0.021088864654302597,-0.024510815739631653,0.19905169308185577,9.436676025390625
17.46,0.03803824260830879,0.0014013827312737703,-0.00584853021427989,0.29935789108276367,0.3589240610599518,9.72152328491211
17.48,0.0158391036093235,0.010139232501387596,-0.011088536120951176,0.40972837805747986,0.8157224655151367,10.044317245483398
17.5,-0.03990914300084114,0.03359273821115494,-0.02443806268274784,0.41234466433525085,0.8073599934577942,9.632472038269043
17.52,-0.03733203560113907,0.027423134073615074,-0.017715295776724815,0.23796400427818298,0.1497047245502472,9.44779109954834
17.54,-0.05686229467391968,-0.009645155631005764,-0.009696833789348602,-0.014738883823156357,-0.07561326026916504,9.803499221801758
17.56,-0.025769518688321114,-0.014018178917467594,0.002878958359360695,-0.07961120456457138,-0.018834594637155533,10.103060722351074
17.58,-0.03261592239141464,0.03574906662106514,0.023951400071382523,-0.30342045426368713,-0.10798516124486923,10.144421577453613
17.6,0.017594823613762856,0.03325788676738739,0.03851376473903656,-0.34770575165748596,-0.15260973572731018,9.687777519226074
17.62,-0.021998247131705284,-0.02910679206252098,0.03988112881779671,-0.14567162096500397,-0.06660136580467224,9.704680442810059
17.64,-0.039870087057352066,-0.0008259906317107379,0.009353140369057655,-0.13885484635829926,0.31578654050827026,9.52307415008545
17.66,-0.030053654685616493,0.048414506018161774,-0.02982381545007229,-0.1550440937280655,0.3513422906398773,9.669486045837402
17.68,0.020858880132436752,0.021990349516272545,-0.05335303768515587,0.011625198647379875,-0.04771127924323082,9.552102088928223
17.7,0.011323031038045883,0.010897611267864704,-0.0390191450715065,0.08555083721876144,-0.24505887925624847,10.082035064697266
17.72,0.03899693116545677,0.033341940492391586,0.004317783750593662,0.1213560476899147,-0.46237269043922424,10.318012237548828
17.74,0.04059762507677078,0.01949147693812847,0.026979975402355194,0.0900527760386467,-0.2051997035741806,9.930769920349121
17.759999999999998,0.0203917995095253,-0.052300576120615005,0.02395191229879856,0.012095111422240734,0.3270503580570221,9.712340354919434
17.78,-0.03535047918558121,-0.010074389167129993,0.008951988071203232,-0.29755204916000366,0.8112430572509766,10.0947904586792
17.8,-0.015540565364062786,0.06822126358747482,-0.03204704821109772,-0.5732077360153198,0.7840091586112976,10.228655815124512
17.82,-0.03326677158474922,0.043070122599601746,-0.05673518404364586,-0.1533173769712448,0.3882715106010437,9.479565620422363
17.84,-0.04743046686053276,-0.030331261456012726,-0.04077766090631485,0.10866216570138931,-0.1832631677389145,9.1405611038208
17.86,-0.0582972951233387,0.005967278964817524,0.008770315907895565,0.09571180492639542,-0.3947466015815735,9.737359046936035
17.88,0.0014054948696866632,0.021918686106801033,0.042217917740345,0.30235567688941956,-0.30857527256011963,10.360589981079102
17.9,-0.019849317148327827,-0.011430324986577034,0.041880007833242416,0.5422764420509338,-0.05958462879061699,10.240263938903809
17.92,-0.015026861801743507,-0.020027542486786842,0.01823222078382969,0.27106717228889465,0.7087904214859009,9.526257514953613
17.94,-0.05141529440879822,-0.004808829631656408,0.006964961066842079,0.11335194855928421,0.6162769794464111,9.109423637390137
17.96,-0.013087794184684753,0.0056759063154459,-0.0024966869968920946,0.027668563649058342,0.011519498191773891,8.997200965881348
17.98,0.015497121028602123,0.014236083254218102,-0.010412375442683697,-0.05768658593297005,-0.3787863850593567,9.546517372131348
18.0,0.02292238175868988,0.020916426554322243,0.007952922023832798,-0.334772527217865,-0.4975108504295349,10.48667049407959
18.02,0.06916456669569016,-0.0012572330888360739,0.03845042362809181,-0.3015486001968384,-0.35787710547447205,10.632922172546387
18.04,0.010502740740776062,-0.04288966953754425,0.038103777915239334,-0.10375763475894928,-0.26364120841026306,9.607939720153809
18.06,0.03605164214968681,-0.012252489104866982,-0.004934961441904306,-0.24449245631694794,0.29495206475257874,9.138378143310547
18.08,0.01947229728102684,0.04136520251631737,-0.030855724588036537,-0.2608650028705597,0.5539717078208923,9.555221557617188
18.1,0.036585450172424316,0.02174641378223896,-0.03980601578950882,-0.22246192395687103,0.09671055525541306,9.744307518005371
18.12,0.045683689415454865,0.0050109438598155975,-0.023366661742329597,-0.45158863067626953,0.008804277516901493,10.278253555297852
18.14,0.05002307519316673,0.018316157162189484,0.005597325507551432,-0.6592315435409546,-0.1543671190738678,10.55176067352295
18.16,-0.0021740077063441277,0.04165021702647209,-0.0034369283821433783,-0.7042217254638672,0.04210121929645538,10.269020080566406
18.18,0.02992638386785984,0.0073728421702980995,0.013566010631620884,-0.5176395773887634,0.4825266897678375,9.605753898620605
18.2,-0.03470845893025398,-0.015578380785882473,0.01170928031206131,-0.05437927320599556,0.42790383100509644,9.457245826721191
18.22,0.04372886195778847,-0.044218070805072784,-0.008801250718533993,0.6249881982803345,0.35812991857528687,9.623594284057617
18.24,0.023378973826766014,-0.02788601815700531,-0.017351292073726654,0.717361330986023,0.34178876876831055,9.717601776123047
18.259999999999998,-0.03704294189810753,-0.022096265107393265,-0.004261844325810671,0.6569479703903198,0.020641334354877472,9.488932609558105
18.28,-0.036533404141664505,-0.03654399886727333,0.009847601875662804,0.31081584095954895,0.12319778650999069,9.839942932128906
18.3,-0.0694575384259224,-0.03888066112995148,0.01276718731969595,-0.21372193098068237,0.14347943663597107,10.260485649108887
18.32,-0.03134482353925705,-0.017707040533423424,0.020290279760956764,-0.5424903035163879,0.15767918527126312,9.924897193908691
18.34,0.015033320523798466,-0.02212836965918541,0.030984027311205864,-0.4503509998321533,-0.26129359006881714,9.499606132507324
18.36,-0.006651679985225201,-0.002278104890137911,0.027738405391573906,-0.18271639943122864,-0.496135413646698,9.288188934326172
18.38,-0.005585182458162308,0.003415896790102124,0.0009735968196764588,0.11609973013401031,-0.035762153565883636,9.657500267028809
18.4,0.03266380727291107,0.02883538044989109,-0.029929647222161293,0.43429890275001526,0.1585027277469635,9.966599464416504
18.42,0.021332120522856712,0.0010828920640051365,-0.03122568689286709,0.5257090926170349,0.1503559798002243,10.138258934020996
18.44,0.02623714692890644,0.01662418060004711,-0.02004934474825859,0.1994444727897644,-0.021921899169683456,10.16650390625
18.46,0.04419233277440071,0.06797651946544647,0.009685576893389225,0.0018207065295428038,-0.18622739613056183,9.515114784240723
18.48,0.06618440896272659,0.036118462681770325,0.024276871234178543,0.058967474848032,-0.12388746440410614,8.81356143951416
18.5,0.023346545174717903,-0.026084262877702713,0.04002895578742027,0.049572136253118515,0.25296103954315186,9.207082748413086
18.52,0.02437995746731758,0.0033683474175632,0.03437856212258339,-0.050531744956970215,0.628981351852417,10.56848430633545
18.54,0.028875619173049927,0.02307405136525631,-0.0001966918644029647,-0.29869017004966736,0.8158816695213318,10.991602897644043
