time,gyrX,gyrY,gyrZ,accX,accY,accZ
0.0,0.05547567084431648,0.05377993360161781,0.05783408135175705,1.3831967115402222,-0.22709162533283234,9.335870742797852
0.02,0.017977433279156685,0.04750081151723862,0.05225670710206032,0.5631464123725891,0.3259275555610657,10.135980606079102
0.04,0.02759275957942009,0.04318000003695488,0.04774006828665733,0.212616428732872,1.071412444114685,10.633774757385254
0.06,0.0070397136732935905,0.019741686061024666,0.039313316345214844,-0.12911954522132874,0.6908986568450928,9.408342361450195
0.08,-0.0029149192851036787,-0.035925205796957016,-0.014979656785726547,-0.5034512877464294,0.5385499000549316,8.838990211486816
0.1,0.0375029481947422,-0.03594642132520676,-0.02423572726547718,-1.0157043933868408,0.34342002868652344,9.289739608764648
0.12,0.005577330943197012,-0.05454292148351669,-0.032916679978370667,-0.7596555948257446,0.342823326587677,9.933738708496094
0.14,-0.09218961745500565,-0.051143161952495575,-0.019529560580849648,-1.0001938343048096,0.6807436943054199,10.397614479064941
0.16,-0.00969772133976221,-0.02621532417833805,0.003989248536527157,-1.1867406368255615,0.8490296006202698,10.216496467590332
0.18,0.06022299453616142,-0.008303418755531311,0.023359915241599083,-1.3242276906967163,-0.07966411113739014,10.190703392028809
0.2,0.03146304190158844,0.006345719564706087,0.05368592217564583,-0.8849643468856812,-0.32494667172431946,9.72222900390625
0.22,-0.025889074429869652,-0.026686079800128937,0.07233058661222458,-0.5833248496055603,0.2968255877494812,9.26008415222168
0.24,-0.05361856520175934,-0.011017875745892525,0.06760648638010025,-0.40115922689437866,0.6982308626174927,9.544717788696289
0.26,-0.05165746435523033,0.007059010677039623,0.03828076645731926,-0.1396234780550003,1.0946643352508545,10.35932445526123
0.28,-0.030500896275043488,0.03827884420752525,0.003133693477138877,0.13503777980804443,1.0964477062225342,10.130331993103027
0.3,-0.01632653921842575,0.02173633687198162,-0.01960035040974617,0.2548157572746277,0.6164228320121765,9.433867454528809
0.32,-0.010919691063463688,-0.032221656292676926,-0.022270802408456802,0.7273073196411133,0.04476098343729973,9.079054832458496
0.34,0.011967457830905914,-0.06224088743329048,-0.012738369405269623,0.8782786130905151,-0.21903349459171295,9.283658027648926
0.36,0.02405041642487049,-0.028663624078035355,0.026307091116905212,0.659600019454956,-0.180268794298172,10.12389850616455
0.38,-0.008712183684110641,0.014987870119512081,0.024339552968740463,0.22046726942062378,0.09165985137224197,10.146225929260254
0.4,0.016017666086554527,0.019338225945830345,0.0006570558762177825,-0.10785901546478271,0.5690314173698425,10.005952835083008
0.42,0.001146648428402841,0.03123069554567337,-0.04007243737578392,-0.34259557723999023,0.7708578109741211,9.988249778747559
0.44,0.015434256754815578,0.024968788027763367,-0.05013030022382736,-0.4001995921134949,0.8320448994636536,10.45504379272461
0.46,0.01770889386534691,0.03852611407637596,-0.02240743488073349,-0.07219867408275604,0.33387792110443115,9.959967613220215
0.48,0.024952221661806107,0.044075898826122284,0.006462289486080408,0.5075957775115967,-0.11388340592384338,8.838289260864258
0.5,-0.0036302865482866764,0.06280862540006638,0.020855125039815903,0.9941604733467102,-0.1936924159526825,8.467087745666504
0.52,0.010785959661006927,0.06693751364946365,0.0030088855419307947,0.7285643815994263,0.23299609124660492,9.886858940124512
0.54,-0.03647356107831001,0.08067311346530914,-0.0358598567545414,0.3476862907409668,0.9713678359985352,11.438499450683594
0.56,-0.029012350365519524,0.04513413831591606,-0.07390868663787842,-0.34370532631874084,1.253965973854065,11.039398193359375
0.58,-0.009190908633172512,0.038942284882068634,-0.05800081416964531,-0.6415719389915466,0.8796396851539612,8.959745407104492
0.6,0.0025310146156698465,0.03727751225233078,-0.032388679683208466,-0.4012022614479065,0.19842758774757385,8.37398624420166
0.62,-0.004686812404543161,0.017028018832206726,-0.021075719967484474,-0.23924405872821808,0.14065460860729218,9.130152702331543
0.64,-0.01130636315792799,-0.008583172224462032,0.007556162774562836,-0.11180044710636139,-0.19789715111255646,10.123973846435547
0.66,-0.0334966816008091,-0.006377458572387695,0.020317262038588524,-0.01612561009824276,-0.012156631797552109,10.65308666229248
0.68,0.005420132074505091,-0.06466872990131378,0.025267723947763443,0.008177386596798897,0.2369227111339569,10.52043628692627
0.7000000000000001,-0.04807133972644806,-0.09352266043424606,0.017710518091917038,0.31075042486190796,0.15851998329162598,8.815868377685547
0.72,-0.009125206619501114,-0.07622279226779938,0.013876055367290974,0.10155325382947922,0.6754311919212341,8.06729507446289
0.74,0.07342632114887238,-0.046906787902116776,-0.0009316655341535807,-0.15812861919403076,0.4734293520450592,9.177738189697266
0.76,0.07475711405277252,-0.022240640595555305,-0.019356830045580864,-0.42258384823799133,-0.03734663873910904,10.943109512329102
0.78,0.025606250390410423,-0.029310911893844604,-0.02255854569375515,-0.35460013151168823,0.12497656047344208,11.139336585998535
0.8,0.07446704804897308,-0.030340779572725296,-0.011450224556028843,-0.5640708804130554,0.29026418924331665,10.005491256713867
0.8200000000000001,0.045093949884176254,0.006308654323220253,0.026460925117135048,-0.692833662033081,0.3060518205165863,9.391891479492188
0.84,0.07953476160764694,0.043257102370262146,0.0456266775727272,-0.7912713289260864,0.4471522271633148,9.881807327270508
0.86,0.13579997420310974,0.029586030170321465,0.047792769968509674,-0.3468553423881531,0.2761840224266052,9.919892311096191
0.88,0.04531635344028473,-0.008769016712903976,-0.00808639731258154,0.736620306968689,0.5902251601219177,9.799589157104492
0.9,0.04056106507778168,-0.001714134938083589,-0.053666047751903534,1.150268793106079,0.9303900599479675,9.645681381225586
0.92,0.025189818814396858,0.009733747690916061,-0.07048028707504272,1.1130363941192627,0.7423986196517944,9.606729507446289
0.9400000000000001,0.011518238112330437,0.0018965491326525807,-0.05953185260295868,0.7852080464363098,0.4448544383049011,9.700023651123047
0.96,-0.06997638195753098,-0.021099833771586418,-0.009022017940878868,-0.11411119252443314,0.6675288677215576,9.748246192932129
0.98,0.00740781519562006,1.8135031496058218e-05,0.037407465279102325,-0.5298745632171631,0.5376338362693787,10.054986000061035
1.0,-0.03758120536804199,-0.0033764734398573637,0.059679124504327774,-0.5586203932762146,0.4321231544017792,9.881754875183105
1.02,-0.0011758387554436922,-0.008300389163196087,0.05719902366399765,-0.5185168981552124,0.6796820759773254,9.730144500732422
1.04,-0.04299395903944969,-0.014547565020620823,0.03847967088222504,-0.4660786986351013,0.4625639319419861,9.890445709228516
1.06,-0.005165865179151297,-0.01238330453634262,-0.02055789716541767,-0.33410781621932983,0.31023406982421875,9.963909149169922
1.08,-0.053532227873802185,-0.03235803171992302,-0.06126748397946358,-0.20887970924377441,0.2664908468723297,9.853404998779297
1.1,0.004976853262633085,-0.04648759961128235,-0.0695585086941719,-0.03528253361582756,0.30825430154800415,9.745051383972168
1.12,-0.002179092960432172,-0.02343892492353916,-0.030070066452026367,0.15025697648525238,0.31846505403518677,9.654212951660156
1.1400000000000001,0.027468375861644745,-0.02286439947783947,0.01880675181746483,0.36586064100265503,0.29224613308906555,9.8001708984375
1.16,-0.0033638214226812124,-0.05998673290014267,0.0459856316447258,0.2694397568702698,0.1387886106967926,10.013708114624023
1.18,0.06683804839849472,-0.05957357585430145,0.02437000907957554,0.009623389691114426,0.43259575963020325,9.774515151977539
1.2,0.058795325458049774,-0.024699881672859192,-0.008697719313204288,-0.15591870248317719,0.44715818762779236,9.300771713256836
1.22,0.041807834059000015,0.032300494611263275,-0.034597139805555344,-0.0642017051577568,0.20778708159923553,9.397872924804688
1.24,-0.020013509318232536,0.019316919147968292,-0.04139862209558487,0.250357061624527,0.3623427748680115,9.858260154724121
1.26,0.0025947014801204205,-0.011854325421154499,-0.024081602692604065,0.24114400148391724,0.4446522891521454,10.491488456726074
1.28,-0.014998579397797585,-0.0036013838835060596,-0.003783295163884759,0.0657009407877922,0.7639130353927612,10.650228500366211
1.3,-5.883314224774949e-05,0.056689828634262085,0.0010957365157082677,0.26277729868888855,1.1050149202346802,9.635503768920898
1.32,0.004178839735686779,0.055903512984514236,-0.01207685749977827,0.6826863884925842,0.679693341255188,8.622797966003418
1.34,-0.030551789328455925,0.047076210379600525,-0.0227928776293993,0.812997043132782,0.5179872512817383,8.534538269042969
1.36,-0.00631371047347784,0.08090846240520477,0.000513757870066911,0.4609816372394562,0.4951431453227997,9.433603286743164
1.3800000000000001,-0.017465701326727867,0.09471963346004486,0.016379574313759804,0.014887269586324692,0.40983957052230835,10.643738746643066
1.4000000000000001,-0.0292523056268692,0.022111626341938972,0.04276564344763756,-0.1083756685256958,0.17074072360992432,10.972430229187012
1.42,-0.054651301354169846,-0.04328156262636185,0.052370380610227585,0.23143203556537628,0.44071218371391296,9.85296630859375
1.44,0.027773192152380943,-0.037273336201906204,0.03384041786193848,0.09243723750114441,0.6012200117111206,9.071955680847168
1.46,0.02741122804582119,0.01214313693344593,0.006084912922233343,-0.4440205693244934,0.29857340455055237,9.202744483947754
1.48,0.0020847979467362165,0.011346329003572464,-0.019690170884132385,-0.9017814993858337,0.12114795297384262,9.975512504577637
1.5,0.03779582306742668,-0.012725260108709335,-0.018866801634430885,-1.0174448490142822,0.03515725955367088,10.68808650970459
1.52,0.042770445346832275,-0.024244748055934906,-0.012377499602735043,-0.9629684686660767,0.24321605265140533,10.578930854797363
1.54,0.031052611768245697,-0.014150614850223064,-0.00735124945640564,-0.6916728615760803,0.4011387825012207,9.18330192565918
1.56,0.016494952142238617,0.010930144228041172,0.003696608589962125,-0.344595342874527,0.5717039704322815,8.807036399841309
1.58,0.02937057614326477,-0.01944282092154026,0.0067469095811247826,-0.17771928012371063,0.5788007974624634,9.377523422241211
1.6,0.03944861516356468,-0.0463174544274807,0.005027817562222481,-0.43434375524520874,0.5531076192855835,10.950294494628906
1.62,0.03171222284436226,-0.030609220266342163,0.002182476921007037,-0.43140342831611633,0.7085076570510864,11.334979057312012
1.6400000000000001,0.017602650448679924,-0.039870813488960266,-0.013669682666659355,0.03367867320775986,0.7729305624961853,10.139665603637695
1.6600000000000001,-0.018757808953523636,-0.04440469667315483,-0.02852315455675125,0.5074527859687805,0.604742169380188,8.459157943725586
1.68,-0.08299070596694946,-0.08357664942741394,-0.029266024008393288,0.8361078500747681,0.44027096033096313,8.655831336975098
1.7,-0.0926058366894722,-0.10210278630256653,-0.019512785598635674,0.7840412855148315,0.6407089233398438,10.043050765991211
1.72,-0.03452960029244423,-0.051062412559986115,0.007668179459869862,0.4937019348144531,0.5551862716674805,10.747543334960938
1.74,-0.07900919020175934,0.00023903600231278688,0.039580702781677246,0.5956700444221497,0.5232080817222595,9.659660339355469
1.76,-0.04601803421974182,-0.013002144172787666,0.04343240335583687,0.49549028277397156,0.7440664768218994,8.650374412536621
1.78,-0.0034629886504262686,-0.029880087822675705,0.03556845709681511,0.13630874454975128,0.05549994483590126,8.561043739318848
1.8,-0.014349201694130898,0.007124153431504965,0.027590563520789146,0.026931263506412506,-0.35435542464256287,9.232748985290527
1.82,0.031220568343997,0.06443269550800323,0.0035353240091353655,-0.1777813881635666,-0.11987216025590897,10.914026260375977
1.84,-0.0030835045035928488,0.0949387177824974,-0.018159974366426468,-0.00984035711735487,0.09392432868480682,11.519292831420898
1.86,0.027193263173103333,0.04796081408858299,-0.01751762628555298,0.3260633945465088,0.3819540739059448,10.631994247436523
1.8800000000000001,0.06499288231134415,0.02452850341796875,-0.008952982723712921,0.2565959095954895,0.24209490418434143,8.789799690246582
1.9000000000000001,0.08682487159967422,0.07443515956401825,0.022705694660544395,0.24756114184856415,0.43116694688796997,8.579482078552246
1.92,0.1658123880624771,0.06397447735071182,0.042264051735401154,0.2688186466693878,0.21222296357154846,9.295744895935059
1.94,0.11330320686101913,-0.01839786022901535,0.02981552667915821,0.41962772607803345,0.11358557641506195,10.202005386352539
1.96,0.004257963038980961,-0.06370667368173599,0.00011515933874761686,0.39308226108551025,0.6476062536239624,10.654399871826172
1.98,-0.017706461250782013,-0.044966187328100204,-0.041030533611774445,-0.3683183491230011,1.1957885026931763,10.176533699035645
2.0,0.017624791711568832,0.005523477680981159,-0.04558417573571205,-1.1082212924957275,1.1251240968704224,9.447922706604004
2.02,0.0255832988768816,0.008523756638169289,-0.030596742406487465,-1.1282237768173218,0.5300281047821045,9.117477416992188
2.04,-0.023536883294582367,-0.05117730423808098,0.0020924049895256758,-0.8888630270957947,0.6329182982444763,9.710136413574219
2.06,-0.008778965100646019,-0.05144665017724037,0.02358357608318329,-0.7263233661651611,0.5109967589378357,10.365856170654297
2.08,0.02100500650703907,0.008424061350524426,-0.001980583183467388,-0.6169077157974243,0.41586601734161377,10.719788551330566
2.1,-0.03726544231176376,0.06472445279359818,-0.022502977401018143,-0.7146669030189514,0.4121558368206024,9.950815200805664
2.12,-0.013915982097387314,0.029662961140275,-0.02058723382651806,0.08548862487077713,0.19413453340530396,8.9300537109375
2.14,-0.023373909294605255,-0.012000034563243389,0.001209064619615674,0.7346422672271729,0.6233420968055725,9.450543403625488
2.16,-0.032614633440971375,0.017271719872951508,0.01433004904538393,1.2401268482208252,0.6690618395805359,10.068634033203125
2.18,-0.04375607520341873,0.05371227487921715,0.009796740487217903,1.6049271821975708,0.5136071443557739,9.888492584228516
2.2,-0.0820930153131485,0.0360531322658062,-0.00221471325494349,1.3767740726470947,0.495069295167923,9.311023712158203
2.22,-0.01140898559242487,0.013983620330691338,0.00482913525775075,0.31928884983062744,0.36085328459739685,9.416704177856445
2.24,0.019748345017433167,0.005498673766851425,0.019044628366827965,-0.29138731956481934,0.08031430095434189,9.966504096984863
2.2600000000000002,0.08924531936645508,0.01697857491672039,0.03762631118297577,-0.44999340176582336,-0.1884448528289795,9.936766624450684
2.2800000000000002,-0.029329169541597366,0.03212114796042442,0.03356004133820534,-0.4047437012195587,0.02750096283853054,9.578600883483887
2.3000000000000003,0.03709137812256813,0.015025870874524117,0.009874735958874226,-0.273612916469574,0.4548865258693695,9.828821182250977
2.32,0.06784628331661224,0.000680568628013134,-0.017656488344073296,-0.06452126801013947,0.6477714776992798,9.989367485046387
2.34,0.03316865488886833,0.012068277224898338,-0.018589774146676064,-0.0073099276050925255,0.7255880832672119,9.460683822631836
2.36,-0.01103007048368454,0.010166808031499386,-0.010887653566896915,-0.007306859828531742,0.6400647163391113,9.963578224182129
2.38,0.07207895070314407,-0.004583342932164669,0.0002892223128583282,-0.24459752440452576,0.20674914121627808,10.15756607055664
2.4,0.012687618844211102,-0.05478055402636528,0.006603864952921867,-0.33738240599632263,0.12949340045452118,9.892643928527832
2.42,0.07802021503448486,-0.039180997759103775,0.022634390741586685,-0.47430115938186646,0.49994605779647827,9.565325736999512
2.44,0.04502520337700844,-0.019790392369031906,0.019272208213806152,-0.7124345898628235,0.7288152575492859,10.229775428771973
2.46,-0.0012495635310187936,-0.039393991231918335,-0.0038585469592362642,-0.777551531791687,0.9369378685951233,9.976683616638184
2.48,0.027295824140310287,-0.04268746078014374,-0.0008489793981425464,-0.6412792205810547,0.9782044291496277,9.210857391357422
2.5,0.05332105979323387,-0.036095909774303436,-0.021623073145747185,-0.5258591175079346,0.5751084685325623,9.317195892333984
2.52,-0.002373555675148964,-0.008544760756194592,-0.022880619391798973,-0.03947946056723595,0.3420778214931488,9.48481559753418
2.54,0.008978613652288914,-0.034544140100479126,0.0007139446097426116,0.9154784679412842,0.5135260820388794,9.739076614379883
2.56,-0.022975947707891464,-0.048603445291519165,0.02286580391228199,1.256224274635315,0.3137543797492981,10.232992172241211
2.58,-0.06982381641864777,-0.009270853362977505,0.018904656171798706,1.0855110883712769,0.5493198037147522,10.142535209655762
2.6,-0.055316533893346786,-0.013317156583070755,0.022196941077709198,0.5937322378158569,0.5258631110191345,9.763809204101562
2.62,-0.014836755581200123,-0.0213235504925251,0.012853152118623257,-0.2519705593585968,0.5801571011543274,9.906533241271973
2.64,0.0029048772994428873,-0.01974966563284397,0.021680481731891632,-0.6519098281860352,0.6616981029510498,9.982678413391113
2.66,-0.03418617695569992,-0.023207249119877815,0.01267109252512455,-0.5803915858268738,0.5840958952903748,10.350863456726074
2.68,0.0015554054407402873,0.02550412341952324,-0.00796821340918541,-0.2673727571964264,0.5597983598709106,10.019660949707031
2.7,-0.03023756854236126,0.008481405675411224,-0.018176792189478874,0.37416112422943115,0.22857218980789185,9.322515487670898
2.72,-0.010258722119033337,-0.005893779452890158,-0.003423533868044615,0.6470563411712646,0.04919777438044548,8.757926940917969
2.74,0.002095599425956607,0.003145794849842787,0.01023456733673811,0.6338827610015869,0.4241544306278229,9.030844688415527
2.7600000000000002,-0.014498411677777767,0.016097113490104675,0.017758794128894806,0.29171594977378845,0.5675097107887268,9.76701831817627
2.7800000000000002,0.01653580367565155,0.03442372754216194,0.0058811018243432045,-0.12546326220035553,0.8770126104354858,10.254762649536133
2.8000000000000003,0.0103885093703866,0.033198241144418716,-0.007711338810622692,-0.22237205505371094,0.8506079316139221,10.435647010803223
2.82,0.021535666659474373,0.006425640545785427,-0.02748371846973896,-0.2639213800430298,0.505562424659729,10.582935333251953
2.84,-0.017491187900304794,0.028041793033480644,-0.015399041585624218,-0.19308969378471375,0.22203350067138672,9.607584953308105
2.86,-0.014743524603545666,0.05033399909734726,-0.0009212573640979826,0.18357820808887482,-0.11797042936086655,8.667143821716309
2.88,0.02533525601029396,0.07935845851898193,0.01318445149809122,0.43222516775131226,0.2019386738538742,9.077584266662598
2.9,0.021097782999277115,0.042205553501844406,0.020861510187387466,0.44658562541007996,0.7501570582389832,9.635436058044434
2.92,-0.002937239594757557,0.03546667471528053,0.019149256870150566,0.170087993144989,1.0264662504196167,10.233418464660645
2.94,-0.04680966958403587,0.02296404168009758,-0.002095945877954364,-0.20692642033100128,0.8700710535049438,10.510680198669434
2.96,-0.10417599231004715,0.03513050451874733,-0.02451402321457863,-0.33747008442878723,0.7572187781333923,10.413790702819824
2.98,-0.004046259913593531,0.023879986256361008,-0.030413972213864326,-0.2705574333667755,0.35392555594444275,10.300958633422852
3.0,0.007784530520439148,0.012295183725655079,-0.0043614753521978855,-0.14701271057128906,-0.2187911421060562,9.355538368225098
3.02,-0.029611550271511078,-0.018608564510941505,0.018076743930578232,-0.11061806231737137,0.13969258964061737,8.989425659179688
3.04,-0.035006601363420486,-0.0459243468940258,0.029064062982797623,-0.2116762399673462,0.283202588558197,9.319964408874512
3.06,-0.014369050972163677,-0.04842299222946167,0.023967435583472252,-0.22535207867622375,0.7250255346298218,9.985109329223633
3.08,-0.017629945650696754,-0.03336720168590546,0.0017269912641495466,-0.13719485700130463,0.671657383441925,10.13711929321289
3.1,-0.02875761315226555,-0.00893667433410883,-0.0065537141636013985,-0.12685056030750275,0.7558314800262451,9.840381622314453
3.12,-0.010018369182944298,-0.018846876919269562,-0.008876142092049122,-0.1934601068496704,0.4433537721633911,9.878716468811035
3.14,-0.004148978739976883,-0.02918989025056362,-0.012402718886733055,-0.37773340940475464,-0.07523095607757568,9.68730640411377
3.16,0.030678188428282738,-0.014583241194486618,0.0003252023598179221,-0.566010594367981,0.08078929036855698,9.441987037658691
3.18,0.050909511744976044,0.020693177357316017,0.010442415252327919,-0.5188871026039124,0.3695434331893921,9.619826316833496
3.2,0.031771086156368256,0.015785500407218933,0.013011534698307514,0.24332520365715027,0.5677515864372253,9.94596004486084
3.22,-0.009892734698951244,-0.03050132468342781,0.010493089444935322,0.861324667930603,1.142109990119934,10.258402824401855
3.24,0.002303129993379116,-0.04486231133341789,0.004078656900674105,0.924822986125946,0.906694233417511,10.05613899230957
3.2600000000000002,-0.0020710572134703398,-0.016231432557106018,-0.0016065010568127036,0.541644811630249,0.46753832697868347,9.563801765441895
3.2800000000000002,-0.0717272087931633,0.008409331552684307,-0.019216489046812057,0.05179962143301964,0.530503511428833,9.654155731201172
3.3000000000000003,-0.0038904037792235613,0.005720272660255432,-0.01851506717503071,-0.26601073145866394,0.36210858821868896,9.786349296569824
3.3200000000000003,-0.018782902508974075,0.009712264873087406,-0.014321384020149708,-0.42363306879997253,0.3822309076786041,9.749874114990234
3.34,-0.04118073359131813,0.03088531270623207,0.02384081669151783,-0.40464043617248535,0.5170276165008545,9.549854278564453
3.36,-0.002170329447835684,0.0198080912232399,0.0421738363802433,0.010214906185865402,0.4760235548019409,9.87784481048584
3.38,0.05936342105269432,-0.01573038473725319,0.0346120186150074,0.4077926278114319,0.31200045347213745,10.152297019958496
3.4,0.020529258996248245,-0.012714547105133533,0.013920559547841549,0.35395878553390503,0.30607709288597107,10.20355224609375
3.42,0.060871001332998276,-0.006446021609008312,-0.014529134146869183,0.007826151326298714,0.4662005305290222,9.853598594665527
3.44,0.047117773443460464,-0.004981957841664553,-0.013646166771650314,-0.2861447334289551,0.21908068656921387,9.269906997680664
3.46,0.021518368273973465,-0.0010901967762038112,-0.010186433792114258,-0.43066084384918213,0.2986297309398651,9.555233001708984
3.48,0.02854066714644432,0.03483370319008827,-0.00794242974370718,-1.143527626991272,0.6625437140464783,9.7451171875
3.5,0.05499862879514694,0.05575236305594444,0.0015400697011500597,-1.1574598550796509,0.7673996686935425,9.926863670349121
3.52,0.012257706373929977,0.03339408338069916,3.242985621909611e-05,-0.888809084892273,0.8060038089752197,9.754328727722168
3.54,-0.006982647348195314,0.01552010327577591,0.006416045594960451,-0.8033734560012817,0.8529607057571411,9.568402290344238
3.56,0.0004998284275643528,0.03512122482061386,-0.001548632513731718,-1.2005535364151,0.5661288499832153,9.87313461303711
3.58,-0.0033607983496040106,0.07468700408935547,-0.0054364330135285854,-3.4591164588928223,0.12867490947246552,10.259092330932617
3.6,-0.00987842958420515,0.12562213838100433,0.0013891237322241068,-4.6766462326049805,0.03300600126385689,9.932583808898926
3.62,-0.03274381905794144,0.1291133314371109,0.0007895693415775895,-4.566415786743164,0.6963067650794983,9.855912208557129
3.64,-0.03590300306677818,0.070362389087677,0.009724503383040428,-3.2345287799835205,1.2738405466079712,9.656533241271973
3.66,-0.04936576262116432,0.04368452727794647,0.014257063157856464,-2.546771764755249,1.304542064666748,9.424259185791016
3.68,-0.03792339563369751,0.029162660241127014,0.0014182423474267125,-1.2675786018371582,0.811630129814148,9.460661888122559
3.7,-0.027438754215836525,-0.04545818269252777,-0.029534583911299706,-0.28575536608695984,0.23153866827487946,9.208062171936035
3.72,-0.014677593484520912,-0.1115957722067833,-0.05402961000800133,-0.05120568722486496,0.1046026274561882,9.10642147064209
3.74,0.008602273650467396,-0.17082053422927856,-0.04417994245886803,0.23785708844661713,0.1548752635717392,9.274574279785156
3.7600000000000002,-0.0007525843102484941,-0.19875824451446533,-0.02095809392631054,0.13451047241687775,0.14096549153327942,9.988554954528809
3.7800000000000002,0.030623378232121468,-0.14044710993766785,-0.00029862785595469177,-0.16853253543376923,0.1580522656440735,10.937868118286133
3.8000000000000003,0.029291797429323196,-0.0700967088341713,0.0115340081974864,-0.18202747404575348,-0.02525254152715206,10.758594512939453
3.8200000000000003,0.02687602862715721,-0.05308494344353676,0.010787837207317352,-0.5124736428260803,0.4844909608364105,9.750821113586426
3.84,0.03818390890955925,-0.10580470412969589,-0.010920533910393715,0.41598352789878845,0.5776485204696655,9.264555931091309
3.86,0.014677855186164379,-0.16867172718048096,-0.07610683888196945,4.106718063354492,0.3853625953197479,9.819328308105469
3.88,-0.010468762367963791,-0.11108846217393875,-0.19420890510082245,5.4572906494140625,-0.05923881009221077,10.004368782043457
3.9,0.0022573114838451147,-0.025998439639806747,-0.27682164311408997,5.4282097816467285,-0.3984259068965912,9.778800964355469
3.92,0.03878471627831459,-0.04943115636706352,-0.25139641761779785,5.155640125274658,-0.6866379380226135,9.415047645568848
3.94,-0.03547212481498718,-0.042482469230890274,-0.189711332321167,3.454355478286743,-0.7520759701728821,9.616533279418945
3.96,-0.0024370888713747263,0.003588145598769188,-0.136893630027771,2.084202527999878,0.736040472984314,10.118308067321777
3.98,0.06743136048316956,0.10051529854536057,-0.11945217847824097,1.363444209098816,1.9019044637680054,10.282139778137207
4.0,-0.033969003707170486,0.1313280314207077,-0.08778490126132965,0.8447690606117249,2.377318859100342,9.558172225952148
4.0200000000000005,-5.892306944588199e-05,0.15165527164936066,0.006433348171412945,0.8894986510276794,1.9314255714416504,9.147480964660645
4.04,0.024065185338258743,0.17200224101543427,0.09062808007001877,0.5971843600273132,0.2581106126308441,9.243009567260742
4.0600000000000005,-0.1003355085849762,0.13956858217716217,0.10527606308460236,0.2809058725833893,-0.44843679666519165,10.437944412231445
4.08,-0.022060709074139595,0.14648036658763885,0.09441787004470825,0.47437283396720886,0.541297972202301,10.662059783935547
4.1,0.001704104244709015,0.1261368840932846,0.02137633040547371,0.19040782749652863,0.8266579508781433,9.668246269226074
4.12,0.004460548982024193,0.008524478413164616,-0.01836954988539219,0.2765269875526428,0.7441409230232239,9.689836502075195
4.14,-0.02419661171734333,-0.07912948727607727,-0.04249962791800499,-0.051654428243637085,0.8111329674720764,9.502612113952637
4.16,0.015970120206475258,-0.12353197485208511,-0.06657907366752625,-0.20983801782131195,0.5308001637458801,9.154184341430664
4.18,-0.0316590741276741,-0.13356082141399384,-0.052323117852211,-0.3940846920013428,0.5476366281509399,9.372940063476562
4.2,-0.040644388645887375,-0.1263115108013153,-0.006145128048956394,-1.5885035991668701,0.7909584641456604,9.803237915039062
4.22,0.012955169193446636,-0.08061517775058746,0.08253798633813858,-2.393230438232422,0.7227996587753296,10.740632057189941
4.24,0.04160405695438385,-0.038192085921764374,0.11076868325471878,-2.469691514968872,-0.02718854881823063,10.357305526733398
4.26,-0.015946095809340477,-0.06424686312675476,0.04410509392619133,-1.2358558177947998,-0.09787678718566895,9.102465629577637
4.28,0.002989046275615692,-0.10107669979333878,-0.03547454997897148,-0.14746029675006866,0.3362663686275482,8.56057357788086
4.3,0.03460225835442543,-0.03051191195845604,-0.0802893117070198,-0.3165600895881653,0.5201049447059631,9.59622573852539
4.32,-0.05455978214740753,0.060926176607608795,-0.0675506666302681,-0.004618024919182062,0.5767306089401245,10.492191314697266
4.34,-0.0002272783895023167,0.0622398741543293,-0.04504244774580002,-0.01272998470813036,0.7207996249198914,10.592673301696777
4.36,0.03673411160707474,0.014382091350853443,-0.0031130320858210325,0.05226881429553032,0.6501598358154297,9.776983261108398
4.38,-0.005831572227180004,0.020694760605692863,0.02004862204194069,0.10728294402360916,0.3943803608417511,9.70127010345459
4.4,-0.02079503796994686,0.05844539776444435,0.051242753863334656,0.285762220621109,0.5583611130714417,9.78909969329834
4.42,0.019558705389499664,0.050429318100214005,0.03490263223648071,0.8326985836029053,0.5649200081825256,9.623805046081543
4.44,-0.029041839763522148,-0.02498384565114975,-0.008748160675168037,1.6671959161758423,0.5625584721565247,9.410285949707031
4.46,-0.031056076288223267,-0.06144963577389717,-0.05319182574748993,1.591675877571106,0.664455771446228,9.755542755126953
4.48,-0.03722858056426048,-0.04353206977248192,-0.05695623904466629,0.9214286804199219,0.840232789516449,9.710933685302734
4.5,-0.022634688764810562,-0.03769468143582344,-0.009111743420362473,-0.19138777256011963,0.2749462127685547,9.721795082092285
4.5200000000000005,-0.03522592782974243,-0.017238816246390343,0.03672676905989647,-0.771287202835083,0.3339821398258209,10.511345863342285
4.54,-0.04865000769495964,0.02274273708462715,0.05836426839232445,-0.6506152153015137,0.2307087630033493,10.025792121887207
4.5600000000000005,-0.01962427981197834,0.008097398094832897,0.02871369570493698,-0.09328694641590118,0.4062911868095398,9.305373191833496
4.58,0.014728536829352379,0.009382638148963451,-0.020930279046297073,0.25331780314445496,0.3864969313144684,9.253101348876953
4.6000000000000005,-0.02311592921614647,0.028634363785386086,-0.0468611903488636,0.5580541491508484,0.21447758376598358,9.467275619506836
4.62,0.029668515548110008,0.03555388003587723,-0.04608066752552986,0.7630271315574646,0.44709518551826477,9.616618156433105
4.64,0.019430583342909813,-0.003967071417719126,-0.009710388258099556,0.37467119097709656,0.484890341758728,10.074990272521973
4.66,-0.020712217316031456,0.005317457020282745,0.023058144375681877,-0.2396014779806137,0.6476030945777893,10.644240379333496
4.68,0.05332649126648903,0.05492153763771057,0.020696964114904404,-0.2893655598163605,0.5131390690803528,11.057931900024414
4.7,0.011521264910697937,0.02272571437060833,-0.012289885431528091,-0.10568046569824219,0.7182273864746094,9.723610877990723
4.72,-0.014575849287211895,-0.0488809235394001,-0.023569870740175247,-0.1153016909956932,0.600986123085022,8.554998397827148
4.74,-0.008654003962874413,-0.008962289430201054,-0.0367622971534729,-0.23956307768821716,0.46558496356010437,9.001062393188477
4.76,-0.038496870547533035,0.02385900169610977,-0.013002302497625351,-0.12586209177970886,0.30526989698410034,9.962546348571777
4.78,-0.05667142942547798,-0.004964753985404968,0.008788579143583775,-0.11121862381696701,0.36693960428237915,10.05829906463623
4.8,-0.04517625272274017,0.0027323421090841293,0.026618150994181633,-0.2626761794090271,0.630760908126831,9.616728782653809
4.82,-0.04044704884290695,0.023366792127490044,0.04258488863706589,-0.0548492930829525,0.3672497868537903,10.049324035644531
4.84,-0.03547336161136627,0.008652002550661564,0.028969312086701393,0.49770376086235046,0.6118415594100952,10.484468460083008
4.86,0.0427599735558033,-0.034166038036346436,0.017056820914149284,0.4235366880893707,0.5338352918624878,10.270471572875977
4.88,-0.03327363729476929,-0.022043023258447647,-0.015766987577080727,0.23207266628742218,0.024417808279395103,9.395549774169922
4.9,0.0036468817852437496,-0.01804240606725216,-0.030651643872261047,0.28386789560317993,0.06427675485610962,8.932820320129395
4.92,-0.07151678949594498,-0.0437457412481308,-0.03837967664003372,-0.030539406463503838,0.03703598305583,9.565682411193848
4.94,-0.05533169209957123,-0.024110278114676476,-0.03436173498630524,-0.2583087086677551,0.881108820438385,9.992302894592285
4.96,-0.024014944210648537,0.010396347381174564,0.010584378615021706,-0.49389275908470154,0.8463424444198608,10.14399242401123
4.98,-0.0020087282173335552,0.008882923983037472,0.04604098200798035,-0.30885472893714905,0.5318930149078369,10.265875816345215
5.0,-0.008674073964357376,-0.015832988545298576,0.0512702502310276,0.3182518184185028,0.3318236768245697,9.75495719909668
5.0200000000000005,-0.0038436464965343475,-0.0057762847281992435,0.03278041630983353,0.5840580463409424,0.1923971176147461,9.04165267944336
5.04,-0.0041125440038740635,-0.002804933814331889,-0.008322730660438538,0.5798896551132202,0.027037091553211212,8.927051544189453
5.0600000000000005,-0.0042830160818994045,0.004090399481356144,-0.04031521454453468,0.26693081855773926,0.47334009408950806,10.358403205871582
5.08,0.058197975158691406,-0.010021553374826908,-0.02909480221569538,-0.10564573109149933,0.6047986745834351,11.055501937866211
5.1000000000000005,0.02815832383930683,-0.018430616706609726,-0.0063111684285104275,-0.21139301359653473,0.5024805068969727,9.744485855102539
5.12,0.00043982884380966425,-0.011104553937911987,0.010715770535171032,-0.11518744379281998,0.7118152379989624,8.942987442016602
5.14,-0.012312863022089005,-0.005071100313216448,0.016442134976387024,0.025608161464333534,0.6171232461929321,9.641863822937012
5.16,-0.004524460528045893,-0.027996346354484558,-0.014646507799625397,-0.05118205398321152,0.4092147648334503,10.470474243164062
5.18,0.016214195638895035,-0.00246024620719254,-0.024191536009311676,-0.26828309893608093,0.25741949677467346,10.355484008789062
5.2,-0.009933913126587868,0.016911063343286514,-0.016330020502209663,-0.10875847935676575,-0.08637440204620361,9.645201683044434
5.22,-0.0016683439025655389,0.009344261139631271,0.004339547362178564,0.1786026954650879,0.07081043720245361,9.309770584106445
5.24,-0.014531120657920837,-0.015853436663746834,0.015108003281056881,0.25117698311805725,0.6823076605796814,9.491083145141602
5.26,0.008049996569752693,0.01695350371301174,0.026313506066799164,0.21499572694301605,0.9759662747383118,10.055026054382324
5.28,0.013963663019239902,0.04302928224205971,0.024685032665729523,0.46626046299934387,0.917303204536438,9.824666023254395
5.3,0.021482883021235466,0.02123114839196205,0.011307801119983196,0.6395139098167419,0.35956647992134094,9.006219863891602
5.32,-0.008871597237884998,0.015202460810542107,-0.011147510260343552,0.4352004826068878,0.06991788744926453,9.136591911315918
5.34,0.014935018494725227,0.03220492973923683,-0.020078998059034348,0.10509303212165833,0.013858560472726822,9.85851764678955
5.36,-0.027023829519748688,0.013998191803693771,-0.007278864737600088,-0.016007157042622566,0.12656095623970032,9.997014999389648
5.38,0.021733690053224564,-0.020259669050574303,0.01068485714495182,0.12271727621555328,0.6096155643463135,10.16557502746582
5.4,0.009152132086455822,-0.0008487389422953129,0.01563512533903122,0.23095910251140594,0.4581774175167084,9.70349407196045
5.42,0.05226168408989906,0.030664704740047455,0.005436210427433252,0.1960664987564087,0.4853905141353607,10.181451797485352
5.44,0.01017626840621233,-0.013583271764218807,-0.009105313569307327,-0.2222796380519867,0.5188970565795898,10.497650146484375
5.46,0.0048803468234837055,-0.06594300270080566,-0.02619747258722782,-0.5839893817901611,0.6104012727737427,9.568318367004395
5.48,0.0082277562469244,-0.05419299378991127,-0.02931191213428974,-0.6688798666000366,0.505836009979248,8.675293922424316
5.5,0.010101979598402977,-0.005792936775833368,-0.036521345376968384,-0.6413012146949768,0.20535169541835785,9.13101863861084
5.5200000000000005,-0.020372724160552025,0.016075370833277702,-0.019729450345039368,-0.39871498942375183,0.13458041846752167,10.44430923461914
5.54,0.014708519913256168,0.018579714000225067,0.005431510973721743,-0.5049397945404053,0.6555874943733215,10.553955078125
5.5600000000000005,-0.04356023669242859,-0.012877806089818478,0.014438345097005367,-0.6064444184303284,0.8796260952949524,9.950377464294434
5.58,-0.00890234112739563,0.02722376026213169,0.0225178524851799,-0.4251963794231415,0.8202540874481201,10.047456741333008
5.6000000000000005,-0.03196841850876808,0.03677524998784065,-0.008693218231201172,0.5455799102783203,0.7138899564743042,9.755258560180664
5.62,-0.03837908059358597,-0.005675612483173609,-0.04725520312786102,1.2815378904342651,0.40219253301620483,8.66127872467041
5.64,-0.018578587099909782,-0.03790310025215149,-0.0651518702507019,1.1983448266983032,0.20642223954200745,9.314695358276367
5.66,-0.02441062219440937,-0.02535882592201233,-0.062196243554353714,0.6140230894088745,-0.2823182940483093,10.762639045715332
5.68,-0.023212913423776627,-0.0007840143516659737,-0.018895907327532768,0.04572663828730583,-0.02008361555635929,11.304109573364258
5.7,0.003447221824899316,-0.0016692657954990864,0.039828475564718246,-0.37459662556648254,0.591714084148407,10.037540435791016
5.72,-0.05600680410861969,-0.007932840846478939,0.043304819613695145,-0.5500613451004028,0.724115252494812,8.523707389831543
5.74,0.007946462370455265,-0.0029403655789792538,0.009562741033732891,-0.3977978527545929,0.5547578930854797,8.665777206420898
5.76,-0.008517105132341385,-0.0075805699452757835,-0.03614652529358864,0.16892623901367188,0.2100052833557129,9.487344741821289
5.78,-0.0058420393615961075,-0.018673157319426537,-0.061625316739082336,0.6444133520126343,0.1294393539428711,10.394116401672363
5.8,-0.012492042034864426,-0.047753963619470596,-0.0348694808781147,0.4384344518184662,0.24117980897426605,10.564244270324707
5.82,-0.0005151574150659144,-0.03538215905427933,-0.025051908567547798,0.11231008917093277,0.3130491375923157,10.313104629516602
5.84,0.03312517702579498,-0.037176139652729034,-0.011781697161495686,-0.05182913690805435,0.4354768395423889,9.128252029418945
5.86,0.01768345758318901,-0.03837187960743904,0.004647770896553993,-0.19069980084896088,0.8697236180305481,9.061101913452148
5.88,-0.020045312121510506,0.016550689935684204,0.024340905249118805,-0.5576056241989136,0.7421799898147583,10.267291069030762
5.9,-0.10177060961723328,0.025093955919146538,0.01996801048517227,-0.660508930683136,0.855495035648346,10.984323501586914
5.92,-0.002745923586189747,-0.0395413339138031,0.012750119902193546,-0.09661994129419327,0.3274156451225281,9.949481964111328
5.94,-0.07098284363746643,-0.058038052171468735,-0.0018194324802607298,0.5707168579101562,-0.15725843608379364,8.846522331237793
5.96,0.011072671040892601,-0.0016579098301008344,-0.007678308989852667,0.8575069904327393,-0.07710978388786316,8.955862045288086
5.98,-0.004368361085653305,0.02822166495025158,-0.010159049183130264,1.0585787296295166,-0.10031907260417938,9.50888442993164
6.0,0.00736994156613946,0.014278150163590908,-0.015972580760717392,0.6852291226387024,0.40106141567230225,10.115317344665527
6.0200000000000005,-0.010806892067193985,0.017215939238667488,0.007871083915233612,-0.00015557024744339287,0.5956659317016602,9.689969062805176
6.04,-0.030546758323907852,0.06415126472711563,0.012514938600361347,-0.27630189061164856,0.8997868895530701,10.14001178741455
6.0600000000000005,0.023387528955936432,0.03619736060500145,-0.015864703804254532,-0.37830716371536255,0.5625834465026855,10.473980903625488
6.08,0.029211468994617462,0.0006562365451827645,-0.0036126787308603525,-0.2757328450679779,0.06501039862632751,10.218256950378418
6.1000000000000005,0.09488599747419357,0.03511448949575424,0.018885156139731407,-0.1505538523197174,-0.41584232449531555,10.182397842407227
6.12,0.06624138355255127,0.0388476587831974,0.015780119225382805,0.2989739775657654,-0.5707345008850098,9.458157539367676
6.140000000000001,0.02606334164738655,-0.006661130581051111,-0.02284914255142212,0.31942570209503174,0.37023791670799255,8.830443382263184
6.16,0.047901056706905365,-0.006413166411221027,-0.04278448596596718,-0.02728314697742462,1.0894958972930908,9.100881576538086
6.18,0.01621588133275509,0.01995626464486122,-0.031440768390893936,-0.0777558907866478,1.4078772068023682,10.43265151977539
6.2,-0.0157022662460804,0.00580715062096715,-0.012483901344239712,0.004214371554553509,1.1885051727294922,10.948403358459473
6.22,-0.06320708245038986,-0.008666826412081718,0.008050120435655117,-0.09252212941646576,0.4230266511440277,9.41858959197998
6.24,-0.04549630358815193,0.001117587205953896,0.020737923681735992,-0.1294110268354416,-0.12457354366779327,8.65792465209961
6.26,-0.03899655491113663,0.009972375817596912,0.0066573405638337135,-0.01887258142232895,-0.16574248671531677,9.353581428527832
6.28,-0.013394403271377087,0.007726658135652542,0.0020481436513364315,0.1279318779706955,0.18004846572875977,10.120931625366211
6.3,-0.005111639853566885,0.0042706867679953575,-0.01838844083249569,0.07559047639369965,0.8650197386741638,10.015926361083984
6.32,-0.012167609296739101,0.015279878862202168,0.0015090650413185358,0.15478092432022095,0.9852776527404785,9.991827964782715
6.34,-0.04097707197070122,0.02077075093984604,-0.010720747523009777,0.2811257839202881,0.6451458930969238,9.813985824584961
6.36,-0.03497100621461868,0.021014971658587456,-0.009962634183466434,0.2057497799396515,0.29517289996147156,9.627318382263184
6.38,-0.028968648985028267,0.022991400212049484,0.005941211711615324,0.13286373019218445,0.08758722990751266,9.532286643981934
6.4,-0.06458061933517456,0.030218474566936493,0.024855533614754677,0.11504466831684113,-0.1973758190870285,9.813436508178711
6.42,0.006468228995800018,0.024360423907637596,0.03731078654527664,-0.07064130902290344,0.04253625124692917,10.181121826171875
6.44,0.10759143531322479,0.025223998352885246,0.028423888608813286,-0.29705458879470825,0.19922687113285065,10.064615249633789
6.46,0.07737261801958084,-0.005204352550208569,0.02259213663637638,-0.2573462128639221,0.3554779291152954,9.551724433898926
6.48,-0.023188462480902672,-0.028073130175471306,-0.017601843923330307,-0.3265255391597748,0.5749505758285522,10.189251899719238
6.5,0.03237389028072357,-0.09040213376283646,-0.04519553482532501,-0.32396405935287476,0.9700554609298706,10.833293914794922
6.5200000000000005,0.03581665828824043,-0.062264665961265564,-0.07051502168178558,-0.44366052746772766,0.48584261536598206,10.097015380859375
6.54,-0.004610801115632057,0.006467432249337435,-0.047162823379039764,-0.05225656181573868,0.29403364658355713,8.93077278137207
6.5600000000000005,-0.03078744187951088,-0.05287858098745346,-0.011101125739514828,0.3761630058288574,0.052881382405757904,8.247823715209961
6.58,-0.015309411101043224,-0.11722636222839355,0.02487579919397831,0.47103291749954224,0.41391411423683167,8.810687065124512
6.6000000000000005,0.022181883454322815,-0.07255741208791733,0.02866307832300663,0.27545472979545593,0.9511536955833435,10.18934440612793
6.62,-0.03424433246254921,0.0030868444591760635,0.020244041457772255,0.25913384556770325,0.9967406988143921,11.064126968383789
6.640000000000001,-0.0013587235007435083,0.01988637074828148,-0.0074456376023590565,0.3356039226055145,0.6632229089736938,10.503826141357422
6.66,-0.05563516914844513,-0.007410974707454443,-0.01871578022837639,0.09407421946525574,0.22340230643749237,9.194330215454102
6.68,0.03812342882156372,0.014234119094908237,-0.013112037442624569,-0.04872733727097511,-0.007604490965604782,8.65185260772705
6.7,-0.011986673809587955,0.04253231734037399,0.005612947512418032,0.07141570001840591,-0.3230820596218109,9.373931884765625
6.72,0.0149521604180336,0.07801666855812073,0.006273081060498953,0.4018435776233673,0.18354512751102448,10.681753158569336
6.74,-0.03180437162518501,0.06325633823871613,0.012466787360608578,0.6366785168647766,0.5627396702766418,10.85444450378418
6.76,0.005949084181338549,0.042307570576667786,-0.00721665658056736,0.6162108778953552,0.6363925933837891,10.38815975189209
6.78,-0.04450882226228714,0.013549945317208767,-0.01323656365275383,0.39277929067611694,0.33764636516571045,9.98429012298584
6.8,0.022699017077684402,0.024262137711048126,-0.022011106833815575,0.159370556473732,0.47149544954299927,9.31619644165039
6.82,-0.040254924446344376,0.008895080536603928,-0.015209502540528774,0.276513010263443,0.20635876059532166,8.999489784240723
6.84,-0.06785478442907333,-0.038216084241867065,-0.015247534960508347,0.16020528972148895,0.12216849625110626,9.265836715698242
6.86,-0.031991664320230484,-0.038268543779850006,-0.0038010196294635534,-0.48851874470710754,0.4969961941242218,9.35740852355957
6.88,-0.05299753695726395,0.008642859756946564,-0.008600057102739811,-1.1281794309616089,0.7713514566421509,9.986947059631348
6.9,-0.07291083037853241,0.023643581196665764,0.004093626514077187,-1.213879108428955,0.9279115200042725,11.012117385864258
6.92,-0.05641447752714157,-0.02714824117720127,0.010468033142387867,-0.9065356850624084,0.6539134383201599,10.57803726196289
6.94,-0.015178167261183262,-0.017224706709384918,0.005680880043655634,-0.6060739159584045,-0.11158889532089233,9.317169189453125
6.96,-0.02101525105535984,0.02594510279595852,0.008762417361140251,-0.2977561056613922,-0.16906557977199554,8.379257202148438
6.98,-0.033898256719112396,0.006809362675994635,0.007177216000854969,0.5733804106712341,-0.08580692857503891,8.903587341308594
7.0,0.00039399435627274215,-0.06257311999797821,0.018332812935113907,1.3131779432296753,0.2760898172855377,9.84526538848877
7.0200000000000005,-0.034431349486112595,-0.05962071567773819,0.021512800827622414,0.9791792631149292,0.581368088722229,10.591357231140137
7.04,-0.00313026225194335,0.008036792278289795,-0.004186027217656374,0.26640620827674866,0.4940733313560486,10.629607200622559
7.0600000000000005,0.016053752973675728,0.017629243433475494,-0.008028746582567692,0.125313863158226,0.28061169385910034,10.362053871154785
7.08,-0.0002657079603523016,-0.03182113543152809,-0.013810605742037296,-0.18032275140285492,0.1802120953798294,9.92600154876709
7.1000000000000005,0.02403945103287697,-0.027981644496321678,-0.00896134227514267,-0.4342510402202606,-0.0631626769900322,8.97009563446045
7.12,0.017919743433594704,0.024177024140954018,0.007047445513308048,-0.2502704858779907,-0.15378360450267792,8.99411392211914
7.140000000000001,0.06251728534698486,0.03985018655657768,0.019868746399879456,0.199428528547287,-0.04168329015374184,10.137343406677246
7.16,0.007368137594312429,-0.00897904485464096,0.017222557216882706,0.5439973473548889,0.4853174090385437,10.474510192871094
7.18,0.078605055809021,-0.03437938913702965,0.006377946585416794,0.5877687335014343,0.7394458055496216,9.75594711303711
7.2,0.011228173039853573,-0.018637845292687416,-0.007157421670854092,0.46432194113731384,0.8435090780258179,9.317673683166504
7.22,-0.06179080903530121,0.02891637198626995,-0.01900823414325714,0.15952885150909424,0.9387049674987793,9.293939590454102
7.24,0.028952592983841896,0.040274478495121,-0.0140763521194458,-0.08901601284742355,0.475686639547348,9.691106796264648
7.26,-0.03355778753757477,0.015133270062506199,-0.011926012113690376,-0.2630872130393982,-0.14047284424304962,10.078105926513672
7.28,-0.07348888367414474,-0.018048686906695366,-0.004130733199417591,-0.20145010948181152,-0.1271510273218155,10.447090148925781
7.3,-0.011087726801633835,-0.0066828117705881596,0.009280668571591377,-0.20856094360351562,0.3778543770313263,9.983745574951172
7.32,-0.04998920485377312,0.016866479068994522,-0.005702892318367958,-0.15198355913162231,0.41773858666419983,9.21857738494873
7.34,-0.04481738805770874,-0.011540784500539303,-0.015693284571170807,-0.09529426693916321,0.5995192527770996,9.404943466186523
7.36,0.002215237822383642,-0.0643942803144455,-0.02204820327460766,-0.183244526386261,0.39857327938079834,10.381649017333984
7.38,0.006552091799676418,-0.0234637763351202,-0.020509615540504456,-0.19770045578479767,0.02608109451830387,10.315967559814453
7.4,-0.030980965122580528,0.009154217317700386,0.003866220824420452,0.10711676627397537,-0.0298144668340683,9.45062255859375
7.42,0.014209086075425148,-0.026794439181685448,0.01698761060833931,0.27544301748275757,-0.01348844077438116,8.95290756225586
7.44,-0.003222981933504343,-0.05860329419374466,0.034474920481443405,0.11384887993335724,0.09949927031993866,9.868949890136719
7.46,0.07685984671115875,-0.038411084562540054,0.013864735141396523,0.08310927450656891,0.47148028016090393,10.626014709472656
7.48,0.005597217939794064,-0.03958931192755699,-0.002372217131778598,0.23818086087703705,0.3258943259716034,10.186588287353516
7.5,0.05233345180749893,-0.06768050044775009,-0.0010600881651043892,0.18315935134887695,0.23807045817375183,8.959692001342773
7.5200000000000005,0.07615429908037186,-0.059279683977365494,0.014656290411949158,-0.1399555802345276,0.11721312999725342,8.98578929901123
7.54,0.07584832608699799,0.002335163066163659,0.009316708892583847,-0.06424285471439362,-0.12999896705150604,9.752690315246582
7.5600000000000005,-0.01469736360013485,0.03841907158493996,-0.010468036867678165,0.2637150287628174,0.16459305584430695,10.852023124694824
7.58,-0.01663157530128956,0.025982700288295746,-0.04324060305953026,0.49222204089164734,1.04300856590271,10.60892391204834
7.6000000000000005,0.0114374328404665,-0.018147703260183334,-0.029125170782208443,0.5017699003219604,0.6702852845191956,9.714669227600098
7.62,-0.002637041499838233,0.03752537816762924,-0.0004541976668406278,0.5022406578063965,0.1660669445991516,9.054195404052734
7.640000000000001,0.05470007658004761,0.05219564959406853,0.022446734830737114,0.7038877606391907,0.17456065118312836,8.47976016998291
7.66,0.025930361822247505,0.03197679668664932,0.03059094212949276,0.5540328621864319,0.2217351496219635,9.22547435760498
7.68,-0.04658203944563866,0.00250990386120975,-0.009556427597999573,-0.015208523720502853,0.7073488831520081,10.278879165649414
7.7,-0.0678313598036766,0.04229214787483215,-0.04085831716656685,-0.29528284072875977,0.9737653732299805,10.996105194091797
7.72,-0.09572777152061462,0.04698610678315163,-0.05458606407046318,-0.36498087644577026,0.744805097579956,10.331546783447266
7.74,-0.05292050540447235,0.058220479637384415,-0.03726153075695038,-0.28363803029060364,0.5264549255371094,9.471912384033203
7.76,-0.02985386550426483,0.0530262365937233,-0.0005030506872572005,-0.2462826669216156,0.038597848266363144,9.240948677062988
7.78,-0.0700310543179512,0.01983444020152092,0.01753404177725315,-0.05920598655939102,-0.0343150794506073,9.62621021270752
7.8,-0.11975055932998657,-0.021169284358620644,0.03875453397631645,-0.18968921899795532,0.6107151508331299,10.279026985168457
7.82,-0.02006743848323822,-0.008593491278588772,0.007821319624781609,0.0014112602220848203,0.3703690767288208,10.429020881652832
7.84,-0.04113387688994408,0.011889123357832432,-0.015774469822645187,0.10353049635887146,0.10135494917631149,10.033126831054688
7.86,-0.01867234893143177,0.015508322045207024,-0.03989766910672188,0.11295770853757858,-0.09346533566713333,8.944770812988281
7.88,0.007444760296493769,-0.019746266305446625,-0.00635729543864727,0.07257688790559769,-0.45043736696243286,8.642570495605469
7.9,-0.019582293927669525,-0.05361061915755272,-0.015295568853616714,-0.15998336672782898,-0.5258753299713135,9.962961196899414
7.92,0.00397092429921031,-0.06030910834670067,-0.01825128123164177,-0.24451853334903717,0.22846241295337677,10.748490333557129
7.94,-0.010011857375502586,-0.042131368070840836,-0.029909245669841766,-0.2152661830186844,0.47900131344795227,10.558706283569336
7.96,-0.015790924429893494,-0.029672907665371895,-0.026530368253588676,0.010981322266161442,0.6270664930343628,10.200730323791504
7.98,0.01486153807491064,-0.01760995388031006,-0.023340201005339622,0.2879812717437744,0.009818321093916893,9.375090599060059
8.0,-0.010395873337984085,-0.08155748248100281,-0.027444249019026756,0.7048389315605164,-0.0552942119538784,9.009137153625488
8.02,0.028856661170721054,-0.09630440920591354,-0.006228105165064335,0.5577644109725952,0.1275796741247177,9.154519081115723
8.040000000000001,0.026230668649077415,-0.05199769139289856,0.013818137347698212,0.09681233018636703,0.19663800299167633,10.051891326904297
8.06,0.02249050885438919,0.004373807925730944,0.013298405334353447,-0.17285946011543274,0.6705532670021057,10.052157402038574
8.08,0.031626150012016296,0.032145582139492035,0.008562025614082813,-0.0958976075053215,1.0180552005767822,9.576963424682617
8.1,0.03228123113512993,0.03248244524002075,0.013136840425431728,0.03386400267481804,0.4429597854614258,9.295601844787598
8.120000000000001,-0.0231162142008543,0.03550930321216583,-0.0036521516740322113,0.228163942694664,-0.30702221393585205,9.993050575256348
8.14,0.017955360934138298,0.038354434072971344,-0.011715655215084553,0.7192853093147278,-0.33925458788871765,10.249495506286621
8.16,0.020655957981944084,0.04471280798316002,-0.0015833312645554543,0.9398961663246155,-0.1111643835902214,9.659948348999023
8.18,0.03253289684653282,0.03692377358675003,0.008754485286772251,0.6373631954193115,0.05593639239668846,9.663665771484375
8.2,0.010942415334284306,0.059048354625701904,0.01199362426996231,0.15861155092716217,0.40929079055786133,9.589933395385742
8.22,-0.004948162008076906,0.09636890888214111,-0.010689769871532917,-0.111301951110363,0.6361739039421082,9.84224796295166
8.24,-0.013969331979751587,0.09953175485134125,-0.03045431338250637,-0.21951405704021454,0.7778217196464539,9.997823715209961
8.26,0.05330819636583328,0.04582464322447777,-0.04013681411743164,-0.32794713973999023,0.44510477781295776,10.431001663208008
8.28,-0.0801476538181305,-0.00454032002016902,-0.03132064267992973,-0.32160723209381104,-0.09528183192014694,10.399274826049805
8.3,0.02401672676205635,0.03473886474967003,0.012082742527127266,-0.19267594814300537,0.04680737480521202,9.722617149353027
8.32,-0.01883481815457344,0.04432906210422516,0.034121040254831314,-0.23181292414665222,-0.0010670933406800032,9.085009574890137
8.34,-0.009074985980987549,-0.003948893863707781,0.028530143201351166,-0.32168349623680115,0.26051902770996094,9.072423934936523
8.36,-0.018155120313167572,-0.062451500445604324,0.014033799059689045,-0.3192352056503296,0.7481850385665894,9.988391876220703
8.38,-0.010905912145972252,-0.02092639170587063,0.012302704155445099,-0.47137489914894104,0.7176368236541748,10.957602500915527
8.4,-0.025226930156350136,0.015073671005666256,-0.01629665493965149,-0.23889997601509094,0.17516887187957764,10.249242782592773
8.42,-0.009528190828859806,-0.026730593293905258,-0.030239736661314964,0.2510301172733307,-0.37817686796188354,8.884417533874512
8.44,-0.016005370765924454,-0.07091454416513443,-0.006535752210766077,0.4991179406642914,-0.34432554244995117,8.5322265625
8.46,0.03546759486198425,-0.02521500550210476,0.025759749114513397,0.30396515130996704,-0.26169970631599426,9.468798637390137
8.48,0.06749556958675385,0.03216828405857086,0.04464470222592354,0.22249126434326172,-0.10030201822519302,10.141772270202637
8.5,0.017703095450997353,0.05400525778532028,0.025622950866818428,0.1790829747915268,0.27982234954833984,11.052390098571777
8.52,0.010104252956807613,0.039360225200653076,-0.0021469551138579845,0.25406453013420105,0.9670082330703735,10.386303901672363
8.540000000000001,0.06390375643968582,0.021251719444990158,-0.022901026532053947,0.3385739028453827,0.4315802752971649,9.214973449707031
8.56,0.017337659373879433,0.03158969804644585,-0.029510334134101868,0.3176422417163849,-0.09345773607492447,8.81332778930664
8.58,-0.03399408608675003,0.0804104134440422,-0.002900816034525633,0.44347724318504333,0.3092253804206848,9.237502098083496
8.6,0.025512605905532837,0.10050397366285324,0.018977241590619087,0.5378154516220093,0.2175264060497284,10.21463394165039
8.620000000000001,-0.03020373359322548,0.08964752405881882,0.008138442412018776,0.37575531005859375,0.3411087393760681,10.370753288269043
8.64,-0.048709429800510406,0.09461227059364319,0.0032725005876272917,0.009579312056303024,0.7599454522132874,9.6154146194458
8.66,-0.030767377465963364,0.11269932240247726,0.003553447313606739,0.0034491815604269505,0.4559818506240845,8.957029342651367
8.68,-0.10867235064506531,0.06033356860280037,0.0013399302260950208,0.2016015648841858,0.5110927820205688,8.882139205932617
8.700000000000001,-0.006726900581270456,0.012806840240955353,0.010087979026138783,0.27757444977760315,0.7045702338218689,10.121529579162598
8.72,-0.06064096838235855,0.026938937604427338,-0.012529824860394001,-0.3410274088382721,0.06451214104890823,11.351845741271973
8.74,-0.06881523132324219,0.02965237759053707,-0.030479930341243744,-0.7512037754058838,-0.20273157954216003,10.944845199584961
8.76,-0.10326488316059113,-0.005326500628143549,-0.021743526682257652,-0.7122889161109924,0.2531680762767792,8.694509506225586
8.78,-0.02910885028541088,-0.001905012410134077,0.006790103856474161,-0.876650333404541,0.21845507621765137,8.392882347106934
8.8,-0.005152817349880934,0.04602948948740959,0.035059764981269836,-0.8889620304107666,-0.035793203860521317,10.035270690917969
8.82,-0.009981715120375156,0.0379444882273674,0.04071939364075661,-0.8538252711296082,-0.20205338299274445,11.711894989013672
8.84,0.04018943011760712,-0.058489490300416946,0.029383989050984383,-0.6397826075553894,-0.019763771444559097,11.366898536682129
8.86,0.02531743422150612,-0.04238471761345863,0.005529208108782768,-0.3574463427066803,-0.22117701172828674,9.105427742004395
8.88,0.05639864131808281,-0.02146073244512081,-0.01391899585723877,-0.3670378029346466,0.011350764892995358,8.037672996520996
8.9,0.04350348189473152,-0.007956039160490036,-0.01092540379613638,-0.44026124477386475,-0.15892262756824493,8.69631290435791
8.92,0.03903232887387276,-0.03723718225955963,-0.014084188267588615,0.17756474018096924,0.17477548122406006,10.071375846862793
8.94,-0.011832156218588352,-0.06730657815933228,-0.003978687804192305,0.4481664001941681,0.636273980140686,10.538861274719238
8.96,-0.02078801952302456,-0.02649003081023693,0.005588584579527378,0.24930496513843536,0.8289734125137329,10.754079818725586
8.98,0.07660294324159622,-0.012406446039676666,-0.00637543061748147,0.37523066997528076,0.3499765992164612,9.681144714355469
9.0,-0.0057398672215640545,-0.07672829926013947,-0.007828623056411743,0.5283680558204651,-0.146736279129982,8.712920188903809
9.02,-0.050051815807819366,-0.07037089020013809,-0.0008345914538949728,-0.013132920488715172,0.06808654218912125,9.278310775756836
9.040000000000001,-0.02344944328069687,0.017549406737089157,0.01241153571754694,-0.34098464250564575,-0.10089915245771408,10.654521942138672
9.06,-0.02125285007059574,0.03816725313663483,0.0026786134112626314,-0.17517592012882233,0.45936793088912964,10.643199920654297
9.08,-0.0321330651640892,0.03342084214091301,0.024073822423815727,0.0715777650475502,0.6231333613395691,9.95717716217041
9.1,-0.009452473372220993,0.06546106189489365,0.019641157239675522,0.39515817165374756,0.6226869225502014,9.179492950439453
9.120000000000001,-0.052946556359529495,0.07552505284547806,0.019169732928276062,0.8036046028137207,0.3531593680381775,9.296271324157715
9.14,0.017859170213341713,0.0998799055814743,-0.0037825682666152716,0.850287914276123,0.10334891080856323,9.570476531982422
9.16,0.017536677420139313,0.10131008177995682,-0.010270324535667896,0.49711737036705017,-0.3459700644016266,9.532268524169922
9.18,-0.020906252786517143,0.10805396735668182,-0.023344969376921654,0.13710805773735046,-0.3423449695110321,9.524345397949219
9.200000000000001,-0.042215846478939056,0.08774910867214203,-0.004665885586291552,-0.18438930809497833,-0.10161542892456055,10.322896957397461
9.22,-0.011707990430295467,0.035730257630348206,-0.0010242370190098882,-0.19592729210853577,0.5673000812530518,10.227472305297852
9.24,-0.03787287697196007,0.020675167441368103,-0.0032240343280136585,-0.01294320821762085,0.5419104695320129,9.446249008178711
9.26,-0.07016672194004059,0.052721526473760605,-0.006161738187074661,-0.1455884426832199,0.4438377022743225,9.05807876586914
9.28,-0.05713760480284691,0.016704095527529716,-0.010642047971487045,-0.4829014241695404,0.3955624997615814,9.814845085144043
9.3,-0.016219697892665863,-0.02540546841919422,-0.03603962063789368,-0.69109708070755,0.14524415135383606,10.551753997802734
9.32,-0.03191906958818436,-0.029845332726836205,-0.027888691052794456,-0.838222086429596,-0.2101120948791504,9.883413314819336
9.34,-0.07534077763557434,0.04144302383065224,-0.005222046747803688,-1.2226784229278564,-0.1905621439218521,9.486893653869629
9.36,-0.020806999877095222,0.061446648091077805,0.021300330758094788,-1.250626564025879,-0.13854433596134186,9.371886253356934
9.38,-0.0745195671916008,0.05986876040697098,0.039227139204740524,-0.979156494140625,-0.04765503481030464,9.957494735717773
9.4,-0.003475687699392438,0.0822281539440155,0.05100715160369873,-0.9833860993385315,0.2375004142522812,10.575878143310547
9.42,-0.0537901297211647,0.08209452778100967,0.03343109041452408,-0.6437285542488098,0.3127041757106781,10.708303451538086
9.44,0.012740728445351124,0.08845288306474686,0.005651003681123257,-0.16162315011024475,0.33043500781059265,9.877137184143066
9.46,-0.0022418538574129343,0.07534326612949371,-0.021460605785250664,0.6328656673431396,-0.06581325829029083,8.601731300354004
9.48,0.05353376269340515,0.026195717975497246,-0.047686029225587845,1.2606397867202759,-0.3702961206436157,8.665992736816406
9.5,0.047398053109645844,-0.042260926216840744,-0.06975534558296204,1.0351243019104004,-0.5401819348335266,9.748147010803223
9.52,0.06165677309036255,-0.07975642383098602,-0.03753357008099556,0.06042982637882233,-0.33611205220222473,10.710148811340332
9.540000000000001,0.06992959976196289,-0.0611756257712841,-0.003023435827344656,-0.16562023758888245,-0.0202759001404047,10.454073905944824
9.56,0.06281039118766785,-0.0622544102370739,0.029204851016402245,-0.3741527199745178,0.4157372713088989,9.552038192749023
9.58,-0.009575863368809223,-0.08094291388988495,0.04213406518101692,-0.6691770553588867,0.3518911898136139,8.99603271484375
9.6,0.024478506296873093,-0.0717480480670929,0.0027398497331887484,-1.2086598873138428,0.45959827303886414,9.504364013671875
9.620000000000001,-0.004007895942777395,-0.05385464429855347,-0.027137408033013344,-1.0483185052871704,0.3413349390029907,10.394096374511719
9.64,-0.06747496128082275,-0.055878642946481705,-0.04316595569252968,-0.662300169467926,0.28000831604003906,10.134586334228516
9.66,0.07936903834342957,-0.07480811327695847,-0.014583297073841095,-0.2724047899246216,-0.1671072393655777,9.735078811645508
9.68,0.03151048347353935,-0.07248393446207047,-0.013139227405190468,-0.16187797486782074,-0.5765340924263,9.472883224487305
9.700000000000001,-0.006914743222296238,-0.056163061410188675,-0.02696758508682251,-0.1198771744966507,0.13008512556552887,9.054716110229492
9.72,0.015352732501924038,-0.04928043484687805,-0.04383227974176407,-0.07618438452482224,0.45060956478118896,9.051557540893555
9.74,-0.09012617915868759,-0.022458180785179138,-0.06698726862668991,-0.2796747386455536,0.7874115109443665,10.756468772888184
9.76,-0.04238877445459366,0.015074487775564194,-0.054237883538007736,-0.30526572465896606,1.121654987335205,11.449586868286133
9.78,-0.042359042912721634,-0.017656978219747543,-0.02121252380311489,-0.030980123206973076,0.3777012228965759,9.760228157043457
9.8,-0.07171055674552917,-0.016313614323735237,0.05000108852982521,0.26828163862228394,-0.3701322674751282,8.23680591583252
9.82,-0.060033638030290604,0.006666568107903004,0.07438962906599045,0.49789148569107056,-0.7062116265296936,8.88944149017334
9.84,-0.09320135414600372,0.029132436960935593,0.033300939947366714,0.531797468662262,-0.4484376907348633,11.122056007385254
9.86,-0.014079257845878601,0.021066853776574135,-0.00952477939426899,0.39358964562416077,0.7231813073158264,12.432266235351562
9.88,0.0462542362511158,0.02732503041625023,-0.016660187393426895,0.31033822894096375,0.4843575358390808,10.335704803466797
9.9,0.011353281326591969,0.0593530535697937,-0.013367087580263615,0.28687071800231934,-0.0006675120675936341,7.5483717918396
9.92,0.0025990731082856655,0.06572559475898743,-0.035817403346300125,0.249490886926651,-0.47228583693504333,7.2394185066223145
9.94,0.017077764496207237,0.048757344484329224,-0.033479008823633194,-0.08787474036216736,-0.53702712059021,9.017402648925781
9.96,0.030462410300970078,0.08394382148981094,-0.004758013878017664,-0.43691420555114746,-0.0926470011472702,11.826746940612793
9.98,-0.030885331332683563,0.09453070908784866,0.034492529928684235,-0.42586949467658997,0.5538392066955566,11.830127716064453
10.0,0.06869341433048248,0.09902384877204895,0.04089934751391411,-0.21583367884159088,0.5581139922142029,9.857806205749512
10.02,0.05489928647875786,0.07346293330192566,0.016135798767209053,-0.17789031565189362,-0.09813499450683594,8.21570110321045
10.040000000000001,0.02976311184465885,0.03676304966211319,-0.036686018109321594,-0.10117221623659134,-0.16607706248760223,8.460982322692871
10.06,0.009142517112195492,-0.01821080967783928,-0.07020208984613419,-0.14323364198207855,0.058975815773010254,9.888238906860352
10.08,-0.014496532268822193,-0.05449671670794487,-0.07083402574062347,-0.2155480980873108,0.30531761050224304,11.478140830993652
10.1,-0.013569431379437447,-0.05849391594529152,-0.02170371636748314,-0.4199542701244354,0.364911824464798,10.85226821899414
10.120000000000001,0.0018798800883814692,-0.005103739909827709,0.0076603759080171585,-0.7690673470497131,0.21963801980018616,9.07707691192627
10.14,0.02349180541932583,0.003022195305675268,0.02176632545888424,-0.894805908203125,0.04729941859841347,8.332673072814941
10.16,-0.05948524922132492,-0.03787350654602051,0.010410633869469166,-1.0815157890319824,0.23413780331611633,9.431173324584961
10.18,-0.03893519192934036,-0.04300781711935997,0.009347887709736824,-1.017352819442749,0.7751238942146301,10.960783004760742
10.200000000000001,-0.011559889651834965,-0.024970270693302155,0.006858755834400654,-0.6125653386116028,0.041767656803131104,11.004037857055664
10.22,-0.05467444658279419,-0.034772101789712906,0.003201521933078766,-0.28198087215423584,-0.24995838105678558,9.447644233703613
10.24,-0.022142114117741585,-0.04122498258948326,-0.02126269042491913,-0.21985864639282227,-0.4553842842578888,8.325387001037598
10.26,-0.022915082052350044,-0.06439346075057983,-0.02009102888405323,-0.12669414281845093,-0.14653803408145905,9.185919761657715
10.28,-0.017356468364596367,-0.049233920872211456,-0.006991656497120857,-0.16330692172050476,0.3477391004562378,10.587421417236328
10.3,-0.027717381715774536,-0.05812090262770653,0.0017135108355432749,0.2588109076023102,0.4608934819698334,10.944912910461426
10.32,-0.040191400796175,-0.06603717058897018,0.0030138068832457066,0.04057047888636589,0.08256460726261139,10.226949691772461
10.34,-0.08914236724376678,-0.04621543362736702,0.0029147155582904816,-0.04658558964729309,-0.2522951066493988,9.649209022521973
10.36,-0.06475865095853806,-0.027083739638328552,-0.02336813509464264,-0.009808553382754326,0.06584806740283966,9.269532203674316
10.38,-0.03908820077776909,-0.040643468499183655,-0.005695515777915716,0.15627773106098175,-0.04197041690349579,9.399520874023438
10.4,-0.046142760664224625,-0.05420166626572609,-0.012826967984437943,0.2832803726196289,0.01650935225188732,9.695917129516602
10.42,-0.06949734687805176,-0.04086289927363396,-0.0027670813724398613,0.3444887101650238,0.1466641128063202,9.715686798095703
10.44,0.019423436373472214,-0.005809492897242308,-0.00411852216348052,0.31041815876960754,-0.04659368470311165,9.861663818359375
10.46,-0.0137455640360713,-0.026822760701179504,-0.01829436607658863,0.08436748385429382,-0.2950677275657654,9.843399047851562
10.48,-0.007430176250636578,-0.060102157294750214,-0.0012744265841320157,-0.13743454217910767,-0.07304023951292038,9.883065223693848
10.5,-0.013325192965567112,-0.036115050315856934,0.00487951235845685,-0.07103286683559418,-0.009506143629550934,9.391222953796387
10.52,0.021460363641381264,-0.01862245425581932,0.014374347403645515,-0.20148129761219025,-0.07492246478796005,9.916764259338379
10.540000000000001,-0.02864382602274418,0.004190429113805294,0.02874731458723545,-0.4874548316001892,-0.4814743101596832,10.442143440246582
10.56,0.02840123511850834,-0.053742390125989914,0.01822129264473915,-0.3867216110229492,-0.14013613760471344,10.356931686401367
10.58,0.027769427746534348,-0.05772252008318901,0.019553836435079575,-0.3299628496170044,-0.047640424221754074,9.797557830810547
10.6,0.041198454797267914,-0.03540373221039772,0.012019365094602108,-0.5114026665687561,0.14939278364181519,9.20560073852539
10.620000000000001,0.050101593136787415,-0.006986727472394705,-0.004537312313914299,-0.7015902996063232,-0.12237723916769028,9.568806648254395
10.64,0.02105586975812912,-0.008190570399165154,-0.0295292716473341,-0.684796929359436,-0.1198248565196991,10.120285034179688
10.66,0.04794442653656006,-0.028720838949084282,-0.03998551517724991,0.0028622914105653763,0.04771004617214203,10.16357135772705
10.68,0.012745182029902935,-0.08763951063156128,-0.033414326608181,0.6916112303733826,0.32255738973617554,9.62287425994873
10.700000000000001,-0.037761278450489044,-0.08769015222787857,-0.0014850590378046036,0.7774147391319275,0.10112415999174118,9.61732006072998
10.72,-0.00914735533297062,-0.004268301650881767,0.021394839510321617,0.5789268612861633,0.022736530750989914,9.745163917541504
10.74,-0.011363632045686245,0.02216712385416031,0.03013514168560505,0.48351144790649414,0.00021557917352765799,9.540255546569824
10.76,0.008862731046974659,-0.005291257984936237,0.03294803947210312,0.22832311689853668,-0.008434298448264599,9.292974472045898
10.78,-0.046664997935295105,-0.012956411577761173,0.016764670610427856,-0.4900723695755005,0.36886104941368103,10.083389282226562
10.8,-0.05323367193341255,0.06075165048241615,-0.017068028450012207,-0.3896060883998871,0.5183290243148804,10.783000946044922
10.82,-0.05488777533173561,0.09479027986526489,-0.030318593606352806,0.3218413293361664,0.14259546995162964,9.791311264038086
10.84,-0.07721538841724396,0.038813527673482895,-0.04129486158490181,0.828305721282959,-0.1924758404493332,8.613617897033691
10.86,-0.023190271109342575,0.009321472607553005,-0.019601628184318542,0.5099189281463623,-0.41906997561454773,8.410353660583496
10.88,-0.011784007772803307,0.04800622910261154,0.01629946194589138,0.06880711764097214,-0.5285683274269104,9.458990097045898
10.9,0.018950864672660828,0.10264932364225388,0.05705982446670532,-0.12448810786008835,-0.3515157401561737,11.558775901794434
10.92,-0.022831406444311142,0.05710173770785332,0.04173562303185463,-0.2928794026374817,0.00934605672955513,11.420841217041016
10.94,-0.012770315632224083,0.0016393718542531133,-0.01073632761836052,-0.08644182980060577,0.2775743305683136,9.942214012145996
10.96,0.009334869682788849,-0.006139244884252548,-0.03524923697113991,0.17774316668510437,0.13103532791137695,8.133453369140625
10.98,0.023917794227600098,-0.005464265588670969,-0.054920293390750885,0.14592106640338898,-0.20309384167194366,7.9634175300598145
11.0,0.04086776450276375,-0.03167194128036499,-0.031249158084392548,-0.29249346256256104,-0.9133107662200928,9.733702659606934
11.02,0.06309077143669128,-0.04218943789601326,0.009861202910542488,-0.6003955602645874,-0.8536118268966675,11.074287414550781
11.040000000000001,0.04283980652689934,-0.06770544499158859,0.04615768790245056,-0.7525150775909424,-0.17182055115699768,11.267556190490723
11.06,0.08462510257959366,-0.045683279633522034,0.05663834139704704,-0.7546635270118713,0.8173291683197021,10.02928638458252
11.08,0.01798158697783947,-0.021948061883449554,0.023889616131782532,-0.7074357271194458,0.5568468570709229,8.674765586853027
11.1,-0.06039757281541824,-0.006568621378391981,-0.02357291430234909,-0.5041229724884033,0.12950637936592102,9.256402015686035
11.120000000000001,0.0016677984967827797,-0.014472836628556252,-0.04523128643631935,-0.5220425128936768,0.21737205982208252,10.624403953552246
11.14,-0.014401854947209358,-0.024980446323752403,-0.04587099701166153,-0.41007065773010254,-0.06580537557601929,10.546241760253906
11.16,-0.036951612681150436,-0.012819664552807808,-0.012770432978868484,0.048857107758522034,-0.24738530814647675,9.584822654724121
11.18,0.002367235254496336,-0.015103555284440517,0.027767647057771683,0.6179301738739014,-0.023788921535015106,9.182839393615723
11.200000000000001,0.004703987389802933,-0.03753708302974701,0.032452505081892014,0.619079053401947,0.27602893114089966,9.593090057373047
11.22,-0.037484150379896164,-0.06328344345092773,0.016966896131634712,0.5654536485671997,0.5117289423942566,10.038431167602539
11.24,0.007722676731646061,-0.030812500044703484,0.011003767140209675,0.3394365906715393,0.21883398294448853,9.962080001831055
11.26,-0.040195953100919724,-0.03402412682771683,-0.006945949513465166,0.10295559465885162,-0.13925720751285553,9.864554405212402
11.28,-0.04862271994352341,-0.050934478640556335,-0.011812045238912106,-0.20209087431430817,-0.5780591368675232,10.058736801147461
11.3,-0.03775642439723015,-0.03152662515640259,0.002873396733775735,-0.28709104657173157,-0.513245701789856,10.214083671569824
11.32,-0.05194664001464844,-0.0036563153844326735,0.021621735766530037,-0.07986468821763992,-0.11216259747743607,9.932373046875
11.34,-0.017290987074375153,-0.01292423252016306,0.002633210737258196,0.12930794060230255,0.47236695885658264,9.941617965698242
11.36,-0.024223672226071358,0.002266816096380353,-0.014496097341179848,0.15301260352134705,0.2875361144542694,9.362273216247559
11.38,-0.005827973131090403,0.021957624703645706,-0.02241492085158825,0.21811392903327942,0.005574134178459644,9.153229713439941
11.4,-0.05046007037162781,0.022313853725790977,-0.038984742015600204,0.24432004988193512,-0.4050537049770355,9.40351390838623
11.42,-0.04300303012132645,0.006516864988952875,-0.03325314819812775,0.27912965416908264,-0.48387449979782104,10.079479217529297
11.44,-0.049803707748651505,0.032561127096414566,0.011236118152737617,0.330844908952713,-0.2655261754989624,10.22952938079834
11.46,-0.02357698604464531,0.059994105249643326,0.053101807832717896,0.4121391177177429,-0.17855572700500488,9.64323902130127
11.48,-0.05872228369116783,0.02989044412970543,0.04123438894748688,0.06288302689790726,0.5496228337287903,9.837969779968262
11.5,0.02586495503783226,0.027001595124602318,0.006037342362105846,-0.17553086578845978,0.3609297275543213,9.749337196350098
11.52,-0.019011447206139565,0.05057891830801964,-0.02984422817826271,-0.3996010422706604,-0.1768205314874649,10.073943138122559
11.540000000000001,-0.011668344028294086,0.1102290153503418,-0.026073874905705452,-0.08847250044345856,-0.64405357837677,9.860684394836426
11.56,0.04007337614893913,0.07469440996646881,-0.014517007395625114,0.2633976638317108,-0.8470772504806519,9.361552238464355
11.58,0.07711244374513626,0.026772968471050262,0.021453971043229103,0.2860141694545746,-0.626321017742157,8.940421104431152
11.6,0.04737876355648041,0.02630956470966339,0.03870496526360512,0.08302056789398193,0.029033925384283066,9.481367111206055
11.620000000000001,0.03161369264125824,0.023997215554118156,0.032455697655677795,-0.01869187317788601,0.15263906121253967,10.542969703674316
11.64,-0.029299238696694374,-0.02149929851293564,-0.01474815048277378,-0.32467734813690186,0.8751617670059204,11.181424140930176
11.66,0.007246640510857105,-0.057307954877614975,-0.04564940184354782,-0.21563605964183807,0.30921125411987305,10.46331787109375
11.68,0.01741536147892475,-0.04263145104050636,-0.046542078256607056,-0.14110662043094635,-0.4424067735671997,9.194766998291016
11.700000000000001,0.00669400580227375,-0.018668679520487785,-0.03313552588224411,-0.4467964172363281,-0.8687506318092346,9.234447479248047
11.72,0.011851882562041283,-0.04319894686341286,-0.01726357452571392,-0.6712663769721985,-0.4448051154613495,9.411567687988281
11.74,0.017267495393753052,-0.07631877809762955,0.01208619587123394,-0.6693646907806396,0.11333513259887695,9.62668514251709
11.76,-0.018803762272000313,-0.04456697776913643,0.03444515913724899,-0.5378349423408508,0.5518553256988525,9.906194686889648
11.78,-0.06119969114661217,0.011327523738145828,0.033102285116910934,-0.5514278411865234,0.7516278624534607,9.842334747314453
11.8,-0.04378044605255127,0.00307479384355247,0.016654616221785545,-0.44456520676612854,0.3273821771144867,9.516341209411621
11.82,-0.014001123607158661,-0.0067498828284442425,-0.02329661324620247,0.1744680255651474,-0.4313788414001465,9.535385131835938
11.84,-0.023603135719895363,-0.039819639176130295,-0.04419045150279999,0.6967592239379883,-0.829639732837677,10.233563423156738
11.86,-0.01240667887032032,0.017004700377583504,-0.01383289135992527,0.9793632626533508,-0.8993381857872009,10.663900375366211
11.88,-0.009301308542490005,0.04121113196015358,0.030344827100634575,1.229006052017212,-0.6749670505523682,9.6452054977417
11.9,0.023248538374900818,-0.04448744282126427,0.037462443113327026,0.8482693433761597,-0.09279337525367737,8.568618774414062
11.92,0.004507998935878277,-0.07015626132488251,0.02702760510146618,0.1595952808856964,0.4019966423511505,8.827742576599121
11.94,0.04291955381631851,-0.03579959645867348,0.009814256802201271,-0.18709918856620789,0.34313732385635376,10.098190307617188
11.96,0.047127462923526764,-0.0021235907915979624,0.02664658986032009,-0.5123598575592041,0.030761590227484703,11.530282020568848
11.98,0.10829422622919083,-0.04274500161409378,0.022382793948054314,-0.558652400970459,-0.7011863589286804,10.71512222290039
12.0,0.011749562807381153,-0.048107702285051346,-0.006618429906666279,-0.3731197118759155,-0.7218790650367737,9.083398818969727
12.02,0.07816365361213684,-0.04123837873339653,-0.03566083312034607,-0.3600462079048157,-0.30583852529525757,8.681938171386719
12.040000000000001,0.06294625997543335,-0.06340772658586502,-0.04170722886919975,-0.05123698338866234,-0.21752314269542694,9.288265228271484
12.06,0.0029339087195694447,-0.09663312882184982,-0.035886310040950775,0.07834300398826599,0.40992289781570435,10.009713172912598
12.08,0.040517713874578476,-0.07139695435762405,-0.019132602959871292,-0.3772187829017639,0.5863791108131409,11.02275562286377
12.1,0.00833025760948658,-0.031657543033361435,-0.016960881650447845,-0.6526930928230286,0.5702694654464722,11.079782485961914
12.120000000000001,0.015539562329649925,-0.045235615223646164,-0.004604687448590994,-0.7100516557693481,0.21859870851039886,9.746438980102539
12.14,0.00706356018781662,-0.029657868668437004,0.0215570367872715,-0.6778144240379333,-0.6262351870536804,8.600611686706543
12.16,0.00526380306109786,0.0315670482814312,0.06206635385751724,0.21298104524612427,-0.6563274264335632,8.859417915344238
12.18,0.045400992035865784,0.00011471811012597755,0.04529629647731781,1.2749791145324707,-0.41376209259033203,9.539063453674316
12.200000000000001,0.012198994867503643,-0.03435599058866501,0.01371271163225174,1.6662975549697876,0.048917729407548904,10.06510066986084
12.22,0.006573655176907778,0.008637435734272003,-0.022715819999575615,1.381403923034668,0.5263216495513916,10.473104476928711
12.24,0.08192002028226852,0.010931962169706821,-0.026567108929157257,0.7264917492866516,0.3306911885738373,10.086518287658691
12.26,0.00015570949472021312,-0.022779125720262527,-0.01108806673437357,-0.11962364614009857,-0.044855937361717224,9.728473663330078
12.280000000000001,0.04543492570519447,0.0036603249609470367,0.004171059466898441,-0.3337807357311249,-0.11146105825901031,9.430624961853027
12.3,0.05569027364253998,0.054649438709020615,0.021314598619937897,-0.10388650745153427,-0.45897966623306274,9.369292259216309
12.32,0.030597014352679253,0.054632995277643204,0.006569608114659786,-0.0810285359621048,-0.3891679346561432,9.891016006469727
12.34,-0.012556200847029686,0.030148940160870552,-0.003601562697440386,-0.3595733642578125,0.11416996270418167,10.275985717773438
12.36,0.0295474324375391,0.05592914670705795,-0.021583784371614456,-0.44881004095077515,0.506200909614563,10.116552352905273
12.38,0.046273961663246155,0.06817535310983658,-0.052769944071769714,-0.08523460477590561,0.2829563021659851,9.864206314086914
12.4,-0.02992187812924385,0.01642116904258728,-0.016442375257611275,0.13075095415115356,0.21690623462200165,9.918606758117676
12.42,-0.007174293044954538,-0.01584053412079811,0.019386468455195427,0.10808774083852768,-0.00870633777230978,10.157756805419922
12.44,0.015567834489047527,0.023708097636699677,0.03032725676894188,0.14305666089057922,-0.29636460542678833,9.90922737121582
12.46,-0.08003151416778564,-0.0013822548789903522,0.024292312562465668,0.19385254383087158,-0.2996909022331238,9.315375328063965
12.48,-0.04671620950102806,-0.04483636096119881,0.01126287505030632,0.14144736528396606,0.3431553244590759,8.904206275939941
12.5,-0.08373460918664932,-0.0841268002986908,-0.004881173837929964,0.16020576655864716,0.33577781915664673,9.162355422973633
12.52,-0.06935536116361618,-0.08453457057476044,0.0023859189823269844,0.04410553351044655,0.009537888690829277,10.094806671142578
12.540000000000001,-0.05330701172351837,-0.06515317410230637,-0.010977068915963173,0.0008682942134328187,-0.2567821741104126,10.522746086120605
12.56,-0.05262092873454094,-0.04997381940484047,-0.004279046319425106,-0.04100441560149193,-0.40456923842430115,9.689543724060059
12.58,0.01110126543790102,-0.0515577495098114,0.0008964886073954403,-0.092291921377182,-0.34155404567718506,8.938666343688965
12.6,-0.00329641648568213,-0.026154588907957077,0.008455434814095497,-0.33046287298202515,-0.2797040343284607,8.956165313720703
12.620000000000001,0.04699425771832466,0.04968878626823425,0.02545551024377346,-0.3481414020061493,-0.24188955128192902,9.7947416305542
12.64,0.04129618778824806,0.04762997850775719,0.02469225972890854,-0.1239108145236969,-0.4376554489135742,10.870658874511719
12.66,0.09533710777759552,0.022281335666775703,0.012662176042795181,0.33829501271247864,-0.036506474018096924,10.889175415039062
12.68,0.028657136484980583,-0.009984543547034264,-0.007792117074131966,0.7594273686408997,0.0830792784690857,9.97209644317627
12.700000000000001,-0.00813782587647438,0.026542404666543007,-0.007821330800652504,0.6923657655715942,0.34089386463165283,9.428912162780762
12.72,0.010134291835129261,0.08780763298273087,-0.013621434569358826,0.45358189940452576,0.24660038948059082,9.324392318725586
12.74,0.0014991805655881763,0.0810820460319519,-0.029078485444188118,0.3014446794986725,-0.25355300307273865,9.825660705566406
12.76,0.033751729875802994,0.07159934937953949,-0.025012541562318802,0.21406543254852295,-0.3140985071659088,10.011119842529297
12.780000000000001,-0.08139626681804657,0.07933878153562546,-0.026604197919368744,0.11910789459943771,0.24384264647960663,9.485454559326172
12.8,-0.08879578113555908,0.0810585618019104,-0.0022558101918548346,0.08290208876132965,0.41320839524269104,9.267334938049316
12.82,-0.0459129773080349,0.03843158483505249,0.011580857448279858,-0.018910972401499748,0.3781673312187195,9.518001556396484
12.84,0.009816877543926239,0.04298143461346626,0.02657630853354931,-0.31059688329696655,-0.043374110013246536,9.993074417114258
12.86,-0.014377796091139317,0.06483539938926697,0.02381240762770176,-0.002080405130982399,-0.22785331308841705,10.337936401367188
12.88,-0.0640028640627861,0.04102202132344246,0.0024507143534719944,0.19003351032733917,-0.3742068409919739,10.024872779846191
12.9,-0.00026671236264519393,0.027505237609148026,-0.010583327151834965,0.2310125231742859,-0.19697844982147217,9.460540771484375
12.92,-0.04201837256550789,0.06400033831596375,-0.017717961221933365,-0.019730189815163612,0.03978739306330681,8.874404907226562
12.94,0.015636872500181198,0.06445597857236862,0.010072244331240654,-0.3393271565437317,-0.3754018247127533,9.42916202545166
12.96,0.031040744855999947,0.035916488617658615,0.033160217106342316,-0.30099722743034363,-0.5955706238746643,10.87446117401123
12.98,0.008035903796553612,0.006471766624599695,0.03328688442707062,-0.47420546412467957,-0.4688427448272705,10.967781066894531
13.0,-0.002903744112700224,0.03736807033419609,0.012313230894505978,-0.733360767364502,0.04373081400990486,10.340937614440918
13.02,0.04188516363501549,0.0196908600628376,0.0018830726621672511,-0.7359517812728882,0.06346823275089264,9.870963096618652
13.040000000000001,0.0003757498343475163,0.021465614438056946,-0.013602866791188717,-0.6161792278289795,-0.24309954047203064,9.417672157287598
13.06,0.04939912259578705,0.031920310109853745,-0.0018378968816250563,-0.4543367326259613,-0.015253279358148575,9.723311424255371
13.08,0.004012406338006258,0.014639729633927345,-0.00773958396166563,-0.0927475169301033,-0.1287204623222351,9.933785438537598
13.1,-0.008071329444646835,-0.02982495166361332,0.0026594502851366997,0.5776227116584778,0.21239174902439117,9.437817573547363
13.120000000000001,0.01432784367352724,-0.04575673118233681,0.014755599200725555,0.5527210235595703,0.4028873145580292,9.358572959899902
13.14,0.000916557852178812,-0.04298051819205284,0.026598449796438217,0.24321012198925018,0.1995258927345276,9.364880561828613
13.16,0.034702569246292114,-0.03672755882143974,0.0077078151516616344,-0.19047722220420837,-0.19202128052711487,9.634796142578125
13.18,-0.03030034713447094,-0.001050024526193738,-0.005562825594097376,-0.3576171398162842,-0.15093830227851868,10.05659294128418
13.200000000000001,-0.03400687873363495,0.011522796005010605,-0.014190535061061382,-0.14283619821071625,-0.14265750348567963,9.773240089416504
13.22,0.014308169484138489,0.016451889649033546,-0.011012449860572815,0.2085386961698532,-0.239370197057724,9.537487030029297
13.24,-0.02654143236577511,0.02553478628396988,0.013263106346130371,0.3404232859611511,-0.10752412676811218,9.637712478637695
13.26,0.0003432533994782716,0.07313047349452972,0.013523855246603489,0.2082718312740326,0.15897902846336365,9.67956829071045
13.280000000000001,0.048872001469135284,0.10628810524940491,0.01676316000521183,0.17615678906440735,-0.14877386391162872,10.141866683959961
13.3,0.03560936078429222,0.05877787619829178,0.0012982551706954837,0.17617586255073547,-0.5444129109382629,9.957886695861816
13.32,-0.0027712511364370584,0.03564947843551636,-0.017627913504838943,-0.0005699039320461452,0.01649261638522148,10.123087882995605
13.34,0.07243339717388153,0.0827811136841774,-0.021713625639677048,0.02549576386809349,-0.15219195187091827,9.96451187133789
13.36,-0.010576913133263588,0.0951097160577774,-0.013351759873330593,0.05016113817691803,-0.23145464062690735,9.614420890808105
13.38,0.015456651337444782,0.025680899620056152,-0.009755109436810017,0.03186839446425438,0.2440834939479828,9.38909912109375
13.4,-0.025839054957032204,-0.05008680373430252,-0.021709490567445755,-0.15238870680332184,0.44142645597457886,9.941272735595703
13.42,-0.014569849707186222,-0.047863468527793884,-0.030859483405947685,-0.431393563747406,0.34218737483024597,10.40933609008789
13.44,-0.012145999819040298,-0.0013125722762197256,-0.04036768153309822,-0.9848342537879944,-0.3958534896373749,9.47751522064209
13.46,-0.05591651424765587,-0.0007232284406200051,-0.035076458007097244,-1.075219988822937,-0.45173269510269165,8.938773155212402
13.48,-0.01083284243941307,-0.002168209059163928,-0.009788318537175655,-1.1978875398635864,-0.10950254648923874,9.848922729492188
13.5,-0.001736505888402462,0.015031027607619762,0.01780378445982933,-1.169694423675537,-0.08053562790155411,11.073856353759766
13.52,-0.04422513395547867,0.044781140983104706,0.03782361373305321,-1.0402649641036987,0.5037461519241333,11.045537948608398
13.540000000000001,-0.036252211779356,0.052682824432849884,0.021798474714159966,-0.24106132984161377,0.719428539276123,9.548271179199219
13.56,-0.018263064324855804,0.0117759695276618,-0.003569437423720956,1.0397405624389648,-0.09225359559059143,8.280752182006836
13.58,-0.06737185269594193,-0.0029858332127332687,-0.03428684547543526,1.6458210945129395,-0.459026038646698,8.491593360900879
13.6,0.027039475739002228,0.020293090492486954,-0.02458111010491848,1.2476361989974976,-0.377329021692276,9.345890998840332
13.620000000000001,0.05295254662632942,-0.003587509971112013,-0.008641147054731846,0.6000308990478516,-0.5700246691703796,10.330499649047852
13.64,-7.390767859760672e-05,-0.03619156405329704,0.01783822663128376,-0.12202117592096329,-0.5586543083190918,10.489798545837402
13.66,0.02152792364358902,-0.05518161877989769,0.024700041860342026,-0.33187761902809143,-0.03303227573633194,10.012162208557129
13.68,0.02424473874270916,0.02442440576851368,0.025408823043107986,-0.6017166376113892,0.25625845789909363,9.289451599121094
13.700000000000001,0.06734376400709152,0.051122598350048065,0.008587234653532505,-0.7433096170425415,0.5143409371376038,9.297093391418457
13.72,0.027839532122015953,0.04565678536891937,0.003680034540593624,-0.8222169280052185,-0.0015398496761918068,9.789502143859863
13.74,0.04048405960202217,0.001458082813769579,-0.0036189148668199778,-0.7618114948272705,-0.5051026344299316,10.370436668395996
13.76,0.02228437550365925,5.397280983743258e-05,-0.00421750545501709,-0.6110442876815796,-0.5980527400970459,10.653593063354492
13.780000000000001,-0.004181165713816881,0.011327182874083519,-0.006920147221535444,-0.22637499868869781,-0.22891005873680115,10.13848876953125
13.8,0.04107152298092842,-0.008740710094571114,-0.010808300226926804,-0.04491901770234108,0.27548855543136597,9.435919761657715
13.82,-0.012816514819860458,-0.038900863379240036,-0.019317463040351868,-0.01398543268442154,0.6270700097084045,9.301730155944824
13.84,0.01348793413490057,-0.0784742459654808,-0.00700742844492197,-0.05869371071457863,0.7427985072135925,9.680305480957031
13.86,0.0051179127767682076,-0.08621033281087875,0.000776993460021913,-0.23504970967769623,0.07781319320201874,9.710033416748047
13.88,-0.011072312481701374,-0.10927020013332367,-0.0015348149463534355,-0.3310896158218384,-0.28261372447013855,9.367048263549805
13.9,-0.003452048171311617,-0.09193874150514603,-0.007022925652563572,-0.6250143051147461,-0.3270616829395294,9.659455299377441
13.92,-0.04715168848633766,-0.03936125710606575,-0.006755783222615719,-0.7356535196304321,-0.2943042516708374,10.193808555603027
13.94,-0.0013869779650121927,-0.02223801426589489,0.005173582583665848,-0.5759718418121338,-0.1432846337556839,10.195894241333008
13.96,0.0022502548526972532,-0.013884287327528,0.021011702716350555,-0.7113255262374878,-0.05767173692584038,9.792370796203613
13.98,0.029674695804715157,-0.0175553560256958,0.026158584281802177,-0.663286566734314,-0.10057969391345978,9.329557418823242
14.0,-0.04088548570871353,-0.015469690784811974,0.02476455084979534,0.06291718780994415,-0.14272958040237427,9.860940933227539
14.02,-0.018699703738093376,-0.011854669079184532,-0.012446482665836811,0.9248058199882507,-0.06531752645969391,10.51574420928955
14.040000000000001,-0.011821242980659008,0.028779473155736923,-0.04086245596408844,1.3905420303344727,-0.19321534037590027,11.052489280700684
14.06,-0.01045998465269804,0.05857345461845398,-0.03926435485482216,1.2199664115905762,-0.10874465852975845,10.281205177307129
14.08,-0.021869424730539322,0.052241548895835876,-0.013634814880788326,0.7476968765258789,-0.3221343159675598,8.942502975463867
14.1,-0.031297195702791214,0.006047002971172333,0.007239609491080046,-0.13141165673732758,-0.11632593721151352,8.444150924682617
14.120000000000001,-0.024526121094822884,0.03206605464220047,0.025379668921232224,-0.592959463596344,0.3791344463825226,9.236183166503906
14.14,0.031024441123008728,0.07233273237943649,0.02962690219283104,-0.7344321012496948,0.5282434821128845,10.529537200927734
14.16,0.02240106463432312,0.09399454295635223,-0.00026142571005038917,-0.33265596628189087,0.2700301706790924,10.754846572875977
14.18,0.002251722849905491,0.05409426614642143,-0.010607002303004265,0.04613969475030899,-0.18532809615135193,9.550491333007812
14.200000000000001,0.018144739791750908,0.006226656958460808,-0.02635275200009346,0.10004816949367523,-0.4880710542201996,8.466336250305176
14.22,0.04094810411334038,0.022636983543634415,-0.026789439842104912,0.0918475016951561,-0.412209153175354,9.451292037963867
14.24,-0.02938796579837799,0.01911187171936035,-0.015447580255568027,0.0008149418281391263,-0.28959888219833374,10.71767807006836
14.26,-0.026342755183577538,-0.021297380328178406,0.0008739159093238413,0.04215110465884209,0.3340916335582733,10.282459259033203
14.280000000000001,0.008185681886970997,-0.07072460651397705,0.014246182516217232,0.022041041404008865,0.3049389719963074,9.519940376281738
14.3,-0.027754036709666252,-0.08931051194667816,0.02208445779979229,-0.5571272373199463,0.08119809627532959,9.618142127990723
14.32,0.01373373344540596,-0.10255792737007141,0.018861116841435432,-0.7896251678466797,-0.16699793934822083,10.026899337768555
14.34,0.04915248602628708,-0.09246621280908585,0.007540305145084858,-0.8560867309570312,-0.5799954533576965,9.631523132324219
14.36,0.016977818682789803,-0.06733052432537079,0.019992318004369736,-1.0437670946121216,-0.6399164795875549,9.796802520751953
14.38,-0.03856412693858147,-0.03679884970188141,-0.005460978019982576,-0.9865697622299194,-0.12100779265165329,10.035107612609863
14.4,0.023217612877488136,-0.03289526328444481,-0.012225283309817314,-0.8635473251342773,0.3186064064502716,10.015397071838379
14.42,0.08689706772565842,0.005612129345536232,-0.005443428177386522,-1.0113190412521362,0.22718669474124908,9.938019752502441
14.44,0.028561608865857124,-0.033644624054431915,0.009606270119547844,-0.17579872906208038,0.1185879334807396,9.948751449584961
14.46,-0.012501568533480167,-0.06117512285709381,0.019478192552924156,0.43032407760620117,0.022849682718515396,9.813638687133789
14.48,0.0018053678795695305,-0.037874072790145874,-0.00449804263189435,1.4097263813018799,0.027478668838739395,9.635368347167969
14.5,0.016906190663576126,0.010769705288112164,-0.01933865249156952,1.7139956951141357,-0.14430393278598785,9.32878303527832
14.52,0.004740740638226271,-0.0024150372482836246,-0.038350336253643036,1.2117550373077393,-0.043709646910429,9.499871253967285
14.540000000000001,0.020606929436326027,-0.010253896936774254,-0.005707649048417807,0.22016383707523346,0.06159854680299759,9.909259796142578
14.56,-0.04676603153347969,0.0064455424435436726,0.025227762758731842,-0.4846939444541931,0.24978137016296387,9.86573314666748
14.58,-0.023884182795882225,0.027323011308908463,0.036597635596990585,-0.7961995601654053,0.13785547018051147,9.94074821472168
14.6,-0.04612075909972191,0.037131085991859436,0.013234678655862808,-0.6835108399391174,0.04298225790262222,10.019675254821777
14.620000000000001,-0.05575055629014969,0.02728814072906971,-0.010604903101921082,-0.1364724189043045,-0.12363573908805847,9.963221549987793
14.64,-0.05416017398238182,0.010865372605621815,-0.03457935154438019,0.3373434841632843,-0.29399198293685913,9.60440444946289
14.66,0.0006870073266327381,0.01943345181643963,-0.023252230137586594,0.5137770175933838,-0.47948822379112244,9.416731834411621
14.68,0.018290409818291664,0.029084090143442154,0.010075263679027557,0.4028248190879822,-0.20199260115623474,9.393254280090332
14.700000000000001,-0.007150932680815458,0.0016634904313832521,0.02829091064631939,0.11019768565893173,-0.1644553393125534,9.82718276977539
14.72,-0.0024162952322512865,-0.05488073453307152,0.03011082112789154,-0.14435145258903503,0.2084430605173111,10.204248428344727
14.74,-0.025122974067926407,-0.07138436287641525,0.008368080481886864,-0.09681977331638336,0.40266934037208557,9.814556121826172
14.76,0.004640840459614992,-0.06348870694637299,-0.005480803549289703,-0.09186717122793198,0.0047936527989804745,9.788080215454102
14.780000000000001,-0.027691734954714775,-0.10359381139278412,-0.024657489731907845,-0.36197134852409363,-0.27482110261917114,9.988317489624023
14.8,-0.026508091017603874,-0.08871377259492874,-0.02901649847626686,-0.7795219421386719,-0.6273269057273865,9.740656852722168
14.82,-0.0342230424284935,-0.02432485856115818,-0.015724454075098038,-0.8522424697875977,-0.5616205930709839,9.138967514038086
14.84,0.012590384110808372,-0.0067709083668887615,0.016055645421147346,-0.7127562761306763,-0.29923582077026367,9.450279235839844
14.86,0.029644841328263283,0.019322283565998077,0.02907428704202175,-0.6664136648178101,0.0466495081782341,10.154037475585938
14.88,-0.024870019406080246,0.053814150393009186,0.03924932703375816,-0.6248632669448853,0.5514726638793945,10.680129051208496
14.9,0.03837871924042702,0.023253917694091797,0.019721021875739098,0.5978662371635437,0.486335426568985,10.353166580200195
14.92,0.03416741266846657,-0.03317110985517502,-0.005946981720626354,1.3710662126541138,-0.25425249338150024,9.334979057312012
14.94,-0.014377744868397713,-0.0015258478233590722,-0.02978942170739174,1.4871675968170166,-0.3222099840641022,8.781583786010742
14.96,-0.012717511504888535,0.04149264097213745,-0.02940933220088482,1.1849243640899658,-0.32581228017807007,9.05444622039795
14.98,0.002500791335478425,0.012647675350308418,-0.004434681031852961,0.5488781929016113,-0.3348258137702942,10.050633430480957
15.0,-0.01839280128479004,0.0011687533697113395,0.017529940232634544,-0.12498831748962402,-0.006611923687160015,10.519078254699707
15.02,0.02143673226237297,0.03173254057765007,0.02299986407160759,-0.5233442187309265,0.4431537389755249,10.67719841003418
15.040000000000001,0.06189943850040436,0.01634250581264496,0.02627125196158886,-0.5561778545379639,0.24292072653770447,9.662810325622559
15.06,0.05432483181357384,-0.005934678018093109,0.02188577689230442,-0.5397146344184875,-0.04377046599984169,9.4960355758667
15.08,0.03801603242754936,-0.013200199231505394,-0.00033740175422281027,-0.4280920624732971,-0.5041478872299194,9.629714012145996
15.1,0.032300062477588654,0.0011697678128257394,-0.024886537343263626,-0.38332992792129517,-0.47752493619918823,10.089235305786133
15.120000000000001,-0.030510276556015015,0.05679037421941757,-0.03711714968085289,-0.4103882610797882,-0.3276224136352539,10.119682312011719
15.14,0.056141436100006104,0.07227306813001633,-0.032064035534858704,-0.351711630821228,0.18452002108097076,9.552205085754395
15.16,-0.015258723869919777,0.02005702070891857,-0.015883760526776314,0.028506316244602203,0.37979137897491455,9.178866386413574
15.18,0.04206416755914688,-0.05517423525452614,0.038834355771541595,0.1902211755514145,0.22719299793243408,9.16220474243164
15.200000000000001,0.058861590921878815,-0.03373057395219803,0.059882160276174545,0.19355502724647522,-0.36803990602493286,10.059874534606934
15.22,0.027806980535387993,-0.016847949475049973,0.022380733862519264,0.17223981022834778,-0.41176629066467285,10.806514739990234
15.24,0.015061254613101482,-0.027046214789152145,-0.021737616509199142,0.07668006420135498,-0.16232837736606598,10.304636001586914
15.26,0.005068727303296328,-0.0661507248878479,-0.029589349403977394,-0.3591203987598419,0.20607323944568634,9.08586311340332
15.280000000000001,-0.014385952614247799,-0.0636831596493721,-0.011407462880015373,-0.44854599237442017,0.2772670388221741,9.120161056518555
15.3,0.013756039552390575,-0.023585285991430283,0.013315386138856411,-0.3615448772907257,0.19919657707214355,9.876795768737793
15.32,0.00987628661096096,0.03407740965485573,0.007525054272264242,0.14085806906223297,0.20619137585163116,10.372846603393555
15.34,0.015724141150712967,0.0018419426633045077,-0.002677672542631626,0.7454268932342529,0.073603555560112,10.15158748626709
15.36,0.035898350179195404,-0.07088266313076019,-0.010971973650157452,0.690390944480896,0.0646267831325531,9.677129745483398
15.38,-0.036157671362161636,-0.0263829305768013,-0.012001742608845234,0.12749922275543213,0.22084523737430573,9.579516410827637
15.4,-0.03896500915288925,0.052803460508584976,-0.008917947299778461,0.019430553540587425,-0.03994704410433769,9.546298027038574
15.42,-0.07487621903419495,0.0626806989312172,0.013259410858154297,0.1370587795972824,-0.48949500918388367,9.503713607788086
15.44,-0.023244405165314674,0.025115130469202995,0.028513245284557343,-0.006933592725545168,-0.01722332462668419,9.88045597076416
15.46,-0.01900407485663891,0.04657438397407532,0.026758948341012,-0.13193506002426147,0.20138053596019745,10.286402702331543
15.48,-0.055593091994524,0.05345035344362259,0.02145053818821907,-0.007999304682016373,0.37590324878692627,10.5446138381958
15.5,-0.06334346532821655,0.031177440658211708,-0.001169479452073574,0.07657873630523682,0.2006361037492752,10.005337715148926
15.52,0.032058726996183395,-0.008316506631672382,-0.03813084959983826,0.001828256412409246,-0.4304400086402893,8.804618835449219
15.540000000000001,-0.0028208233416080475,-0.006082738284021616,-0.027706991881132126,0.08306191861629486,-0.8227527141571045,8.768219947814941
15.56,-0.019452976062893867,0.02365928515791893,-0.009908249601721764,0.06818603724241257,-0.6406846642494202,9.782508850097656
15.58,-0.014202604070305824,0.02090623416006565,0.003246727865189314,-0.10415029525756836,-0.13355198502540588,10.532108306884766
15.6,0.03481544554233551,0.009147023782134056,0.018727445974946022,-0.332858681678772,0.45123329758644104,10.34080982208252
15.620000000000001,-0.0011998146073892713,0.014677545055747032,0.015558657236397266,-0.4737895131111145,0.46493685245513916,9.553730010986328
15.64,0.05381728336215019,0.04118018597364426,0.01378823071718216,-0.42149144411087036,0.11458121240139008,9.279827117919922
15.66,-0.010816164314746857,0.010084952227771282,-0.00479467399418354,-0.28201887011528015,-0.5172545313835144,9.48778247833252
15.68,-0.0038769186940044165,0.007495997007936239,-0.005847536027431488,-0.31270599365234375,-0.46641993522644043,10.120332717895508
15.700000000000001,0.030985139310359955,0.04473933205008507,0.0026426739059388638,-0.1631460338830948,-0.34823155403137207,10.120887756347656
15.72,0.016856633126735687,0.04320560023188591,0.008153029717504978,0.4074680209159851,0.021520664915442467,9.597618103027344
15.74,0.039445336908102036,0.042243070900440216,-0.0059662782587111,0.6429860591888428,0.3552682399749756,9.543289184570312
15.76,0.026102673262357712,0.028137102723121643,-0.02148445136845112,0.4381180703639984,0.4067765474319458,10.06427001953125
15.780000000000001,0.028937168419361115,0.006554636638611555,-0.00959661416709423,-0.16240832209587097,0.21810519695281982,10.384986877441406
15.8,-0.017507078126072884,-0.01771862804889679,0.0023116744123399258,-0.5274575352668762,-0.2733726501464844,10.440546035766602
15.82,0.022936325520277023,-0.039501819759607315,0.0031252861954271793,-0.544647753238678,-0.3502054512500763,9.828024864196777
15.84,0.03480272740125656,-0.014850130304694176,0.00698178680613637,-0.433165967464447,-0.37258878350257874,9.089091300964355
15.86,0.02074957825243473,-0.031074650585651398,-0.001623207819648087,-0.28573957085609436,-0.017747826874256134,9.176582336425781
15.88,-0.02172735705971718,-0.06352423876523972,-0.013108347542583942,-0.07842530310153961,0.3195522725582123,9.82476806640625
15.9,-0.03766177222132683,-0.05521976947784424,-0.027865177020430565,0.01240522786974907,0.5708086490631104,10.185603141784668
15.92,-0.0073945485055446625,-0.020148899406194687,-0.021206514909863472,0.22767244279384613,0.30536794662475586,9.424949645996094
15.94,-0.024952886626124382,-0.009802959859371185,0.003859773511067033,0.18892045319080353,-0.08358326554298401,8.894854545593262
15.96,-0.004378331825137138,-0.004648854490369558,0.017083680257201195,-0.06470191478729248,-0.2773064970970154,9.664397239685059
15.98,0.0037127751857042313,-0.005219362210482359,0.01572592556476593,-0.21716053783893585,-0.2805202603340149,10.407327651977539
16.0,-0.003806865541264415,0.007914124988019466,0.01749248430132866,-0.2707529664039612,-0.047160759568214417,10.21060848236084
16.02,-0.027717171236872673,0.03245386481285095,0.0018473310628905892,-0.048927851021289825,-0.27565231919288635,9.629476547241211
16.04,-0.01852905936539173,0.024423852562904358,-0.0007395874708890915,0.44165652990341187,-0.18441063165664673,9.797472953796387
16.060000000000002,-0.010695298202335835,0.043979428708553314,0.0014795017195865512,0.5678451657295227,0.030123578384518623,9.98494815826416
16.08,0.007707247510552406,0.0487898513674736,-0.007924958132207394,0.33005258440971375,0.006393049377948046,10.40161418914795
16.1,0.06633902341127396,0.03655049204826355,-0.01229709479957819,0.01855602115392685,-0.148382306098938,10.109960556030273
16.12,-0.008395751006901264,0.024110086262226105,-0.02237844094634056,-0.16130967438220978,-0.20010027289390564,9.32122802734375
16.14,-0.028738178312778473,0.02969726361334324,-0.014907563105225563,-0.14516106247901917,-0.2854229509830475,9.380104064941406
16.16,-0.007544126361608505,0.002213909290730953,-0.013748030178248882,-0.2627807557582855,-0.048289865255355835,9.774312019348145
16.18,-0.003539907280355692,-0.03325171396136284,-0.006556308828294277,-0.42431560158729553,-0.042860325425863266,10.044258117675781
16.200000000000003,-0.02035501040518284,-0.04206886887550354,-0.0026803198270499706,-0.4854860305786133,0.09793376922607422,9.990530014038086
16.22,0.07122750580310822,-0.048316825181245804,-0.0028705820441246033,-0.35360172390937805,-0.0004603920388035476,9.909171104431152
16.240000000000002,0.03666873648762703,-0.03537173196673393,-0.021781474351882935,-0.462334543466568,-0.1572159379720688,9.797002792358398
16.259999999999998,-0.017165083438158035,-0.012061496265232563,-0.02819807454943657,-0.526244580745697,-0.14396466314792633,9.609338760375977
16.28,-0.019559495151042938,0.018444040790200233,-0.02001057006418705,-0.3463583290576935,0.17501434683799744,9.487196922302246
16.3,0.007242727093398571,0.004971757996827364,0.014707300812005997,-0.08097139000892639,0.054409924894571304,9.476736068725586
16.32,-0.013806355185806751,-0.03693201020359993,0.023753441870212555,0.22677376866340637,-0.040455546230077744,9.699471473693848
16.34,0.009071809239685535,-0.0062018223106861115,0.04452909901738167,0.42793741822242737,0.018820904195308685,9.909159660339355
16.36,-0.011310910806059837,0.013258791528642178,0.01266110222786665,0.5249423980712891,0.08127019554376602,10.065983772277832
16.380000000000003,-0.004272403661161661,-0.008023099973797798,-0.03366685286164284,0.48027634620666504,0.08646746724843979,10.257511138916016
16.4,-0.02570285275578499,-0.006836717948317528,-0.04818026348948479,0.11256008595228195,-0.18307536840438843,9.974980354309082
16.42,-0.08797493577003479,0.06437500566244125,-0.0303892083466053,-0.04338884726166725,-0.25751835107803345,9.164039611816406
16.439999999999998,-0.047379329800605774,0.0609268881380558,-0.0071206777356565,0.04286901280283928,-0.006197627168148756,9.15239429473877
16.46,0.0014472886687144637,-0.00104924151673913,0.016423070803284645,-0.047013550996780396,-0.05263742059469223,10.041807174682617
16.48,-0.07025989145040512,-0.018193522468209267,0.024212464690208435,-0.3401641249656677,0.20759913325309753,10.677742958068848
16.5,-0.024366101250052452,0.0032829982228577137,0.041020769625902176,-0.38745275139808655,0.4535944163799286,11.061604499816895
16.52,-0.036691874265670776,0.040067460387945175,0.012166510336101055,-0.6252257823944092,-0.24397550523281097,10.355332374572754
16.54,-0.0403670035302639,0.014584675431251526,-0.0456991009414196,-0.39842838048934937,-0.5704399943351746,8.916733741760254
16.560000000000002,-0.06129976734519005,-0.023833120241761208,-0.05954489856958389,-0.006870574783533812,-0.050965264439582825,8.57364273071289
16.58,0.013719199225306511,-0.034367743879556656,-0.019429128617048264,0.21995437145233154,-0.08617829531431198,9.421567916870117
16.6,0.014570978470146656,-0.040539517998695374,0.032095372676849365,0.2861672639846802,-0.48552560806274414,9.928938865661621
16.62,0.027024736627936363,-0.0256955549120903,0.03238051012158394,0.1304192692041397,-0.5643529295921326,9.7487211227417
16.64,0.07725093513727188,-0.027931218966841698,0.0060067009180784225,0.021318838000297546,-0.23615264892578125,9.217543601989746
16.66,0.06042555347084999,-0.05416961759328842,-0.00755285145714879,-0.05949361249804497,-0.007344165351241827,9.442251205444336
16.68,0.08414445072412491,-0.03641059994697571,-0.00979626178741455,-0.23905378580093384,-0.02896607667207718,10.351320266723633
16.700000000000003,0.08336248248815536,0.008741138502955437,-0.0039720614440739155,-0.37167245149612427,-0.21418894827365875,10.367161750793457
16.72,0.052277639508247375,0.008259439840912819,0.006038811523467302,-0.2816673815250397,-0.31935638189315796,9.574272155761719
16.740000000000002,-0.0029193132650107145,-0.009110895916819572,0.010773145593702793,-0.17819806933403015,-0.26324066519737244,9.28695011138916
16.759999999999998,0.0055957878939807415,0.017642583698034286,0.000786679913289845,-0.045073896646499634,0.23821717500686646,9.837693214416504
16.78,0.02190687693655491,0.018181059509515762,-0.02455797977745533,0.08458933234214783,0.46018221974372864,10.063448905944824
16.8,0.004417811054736376,-0.012928937561810017,-0.03295440226793289,0.23407430946826935,0.30728879570961,9.921469688415527
16.82,-0.015322664752602577,-0.033798668533563614,-0.0154423788189888,-0.03409406170248985,0.26819857954978943,10.281233787536621
16.84,-0.03720341622829437,-0.011312278918921947,-0.009138432331383228,-0.4434261918067932,-0.012578378431499004,9.973708152770996
16.86,-0.07356499880552292,0.025852076709270477,-0.017491640523076057,-0.2730492055416107,-0.11878855526447296,9.661916732788086
16.880000000000003,-0.08693429082632065,0.007375080604106188,-0.023912742733955383,0.052779052406549454,0.19319239258766174,9.893044471740723
16.9,-0.06355157494544983,-0.02592858485877514,-0.002637745812535286,0.14480893313884735,0.18059198558330536,10.164159774780273
16.92,-0.05445877090096474,-0.024146948009729385,0.008590595796704292,0.22003839910030365,-0.004089502617716789,9.96430492401123
16.939999999999998,-0.01832069642841816,0.01618107035756111,0.013975081034004688,0.280611515045166,-0.16629287600517273,9.299160957336426
16.96,-0.026883874088525772,0.035658448934555054,0.0006206707912497222,0.20151545107364655,-0.3329675793647766,9.254504203796387
16.98,-0.027685783803462982,0.011439531110227108,0.0004257812397554517,0.0962846502661705,-0.39279958605766296,9.760834693908691
17.0,0.02167920023202896,-0.028697209432721138,-0.0014120772248134017,-0.00198977068066597,-0.16126936674118042,10.075434684753418
17.02,-0.034329358488321304,-0.013312764465808868,-0.012045160867273808,-0.12438785284757614,-0.33758604526519775,9.730984687805176
17.04,0.0101833650842309,0.03993817791342735,0.0063714925199747086,-0.08156618475914001,-0.42831170558929443,9.585330963134766
17.060000000000002,0.03583269566297531,0.049007218331098557,0.02614661306142807,-0.037162769585847855,-0.41787195205688477,9.091134071350098
17.08,0.05370570719242096,0.010461333207786083,0.04352666810154915,-0.05344434082508087,-0.2718234062194824,9.677255630493164
17.1,0.004105537198483944,-0.013833665288984776,0.040205731987953186,-0.22988761961460114,-0.17063845694065094,10.296900749206543
17.12,0.0688188299536705,0.020680824294686317,0.02377721294760704,-0.2501196563243866,0.197745680809021,10.785133361816406
17.14,0.020326057448983192,0.024258755147457123,-0.009877978824079037,-0.24570859968662262,0.18534724414348602,9.909467697143555
17.16,-0.03822115808725357,-0.015889333561062813,-0.05786417797207832,-0.33989349007606506,0.1181567907333374,9.584763526916504
17.18,-0.01770900934934616,-0.0012753646587952971,-0.05521714687347412,-0.3990286886692047,0.03481138125061989,9.739242553710938
17.200000000000003,0.005835905205458403,0.025044826790690422,-0.024139229208230972,-0.10388872027397156,-0.2056322544813156,9.576543807983398
17.22,0.029118914157152176,0.023541035130620003,0.020457834005355835,0.009496185928583145,-0.12811221182346344,9.650239944458008
17.240000000000002,0.05224050581455231,0.01396229024976492,0.06810227781534195,0.06430364400148392,-0.04528065770864487,9.90815258026123
17.259999999999998,0.021671030670404434,0.01193688903003931,0.051483213901519775,0.22739996016025543,0.13464677333831787,10.074058532714844
17.28,-0.0010038854088634253,0.035278335213661194,0.014683174900710583,0.18827754259109497,0.1230274885892868,9.8780517578125
17.3,-0.035640496760606766,0.025609761476516724,-0.02845670096576214,0.17678850889205933,0.0916510671377182,9.013608932495117
17.32,0.005718633998185396,0.026493150740861893,-0.05233454704284668,0.05901138111948967,-0.1569109857082367,8.750446319580078
17.34,0.017572449520230293,0.029586639255285263,-0.025372667238116264,-0.15965436398983002,-0.441710501909256,9.933692932128906
17.36,-0.05426308885216713,0.040636736899614334,0.0022605769336223602,-0.16973495483398438,-0.49367254972457886,11.20323657989502
17.380000000000003,-0.013896120712161064,0.04173755273222923,0.01609169691801071,-0.023195970803499222,-0.26320990920066833,10.5986328125
17.4,0.0304613895714283,0.03455949202179909,0.021619809791445732,0.045608699321746826,0.2691625952720642,8.857987403869629
17.42,0.009055156260728836,0.034124795347452164,0.0018368284218013287,-0.0030966231133788824,0.36671900749206543,8.693328857421875
17.439999999999998,-0.006730965804308653,-0.0007053157896734774,-0.04015789180994034,-0.1356969177722931,0.06474849581718445,10.15097427368164
17.46,-0.0067159151658415794,-0.02742367424070835,-0.05814444273710251,-0.28246909379959106,-0.13488098978996277,10.692468643188477
17.48,-0.04390063136816025,-0.03884914144873619,-0.0424690805375576,-0.4502025544643402,-0.08039422333240509,9.880125045776367
17.5,-0.07187671214342117,-0.010402727872133255,0.00862464215606451,-0.6504419445991516,-0.17757508158683777,9.422179222106934
17.52,-0.013848435133695602,-0.015119245275855064,0.041315872222185135,-0.7469713091850281,-0.117342509329319,9.767660140991211
17.54,-0.030648037791252136,-0.006886036600917578,0.06103704869747162,-0.6797202825546265,0.15714392066001892,10.2483549118042
17.560000000000002,0.004720930475741625,0.020493168383836746,0.05005909502506256,-0.7299632430076599,0.4020424485206604,10.347412109375
17.58,-0.018997684121131897,0.013492514379322529,0.02428114041686058,-0.5930514335632324,-0.18844112753868103,10.0494966506958
17.6,-0.01192531082779169,-0.009685385040938854,-0.0015721714589744806,-0.29646366834640503,-0.6802844405174255,9.309471130371094
17.62,0.02773241326212883,0.0034416138660162687,-0.027558550238609314,0.3330264687538147,-0.827256977558136,8.88302230834961
17.64,0.03158627450466156,0.045473311096429825,-0.013461303897202015,0.7880260348320007,-0.6489194631576538,9.169290542602539
17.66,0.0922698825597763,0.04954773560166359,-0.0029666093178093433,1.0394766330718994,-0.2813313603401184,9.96530532836914
17.68,0.043378520756959915,0.029229508712887764,0.005028459243476391,0.7653172612190247,0.21873410046100616,10.50915813446045
17.700000000000003,0.014171909540891647,0.027940640226006508,0.009410709142684937,0.03372909873723984,0.4168689250946045,9.744280815124512
17.72,0.02000304125249386,0.05416744202375412,0.005128925666213036,-0.38560763001441956,0.31220895051956177,9.475651741027832
17.740000000000002,0.04032879322767258,0.04280230030417442,-0.004308492876589298,-0.2711856961250305,-0.022784683853387833,9.352442741394043
17.759999999999998,0.048072200268507004,0.0021550871897488832,0.00402339082211256,-0.0282109547406435,-0.43258610367774963,9.513797760009766
17.78,0.06757912039756775,-0.011273196898400784,0.018764551728963852,-0.06425685435533524,-0.4891495704650879,10.314939498901367
17.8,0.03987664729356766,-0.02467951737344265,0.03363264724612236,-0.11638657003641129,-0.10002931952476501,10.712594985961914
17.82,0.014123275876045227,-0.0131017891690135,0.00010875219595618546,-0.6286746859550476,0.4030818045139313,9.957891464233398
17.84,-0.015122647397220135,0.029171893373131752,-0.03209862858057022,-0.8882175087928772,0.7713772058486938,8.980016708374023
17.86,0.02157004177570343,0.009971982799470425,-0.02548864856362343,-0.9144571423530579,0.7682803869247437,9.20865249633789
17.880000000000003,-0.01488738227635622,-0.03139321506023407,-0.010602930560708046,-0.774904191493988,0.2700311839580536,10.063019752502441
17.9,-0.019723016768693924,-0.01785576157271862,0.02490866556763649,-0.6009031534194946,-0.32937783002853394,10.520344734191895
17.92,-0.029047606512904167,-0.0014869082951918244,0.029014304280281067,-0.43366551399230957,-0.7917640805244446,9.93362045288086
17.939999999999998,-0.037459250539541245,0.010700378566980362,0.02482057549059391,-0.3552679419517517,-0.4956628680229187,9.310829162597656
17.96,-0.013200085610151291,-0.019719621166586876,0.02031640149652958,-0.3886711001396179,0.002107904525473714,9.378421783447266
17.98,0.019397001713514328,0.004369284491986036,-0.0017252163961529732,-0.4036719799041748,0.3120354413986206,9.890401840209961
18.0,-0.001276703318580985,0.017451800405979156,-0.004270488861948252,0.11438718438148499,0.4362724721431732,9.984761238098145
18.02,-0.0094237569719553,-0.009314463473856449,-0.02041039615869522,0.5439552664756775,-0.0857870951294899,10.145729064941406
18.04,0.023146022111177444,-0.03302379325032234,-0.024630697444081306,0.46939411759376526,-0.571502685546875,10.32257080078125
18.060000000000002,0.05765492841601372,-0.011311769485473633,-0.003727031173184514,0.2742263972759247,-0.5892336964607239,9.674100875854492
18.08,0.05251292139291763,0.007924262434244156,0.02034132368862629,0.1509692668914795,-0.3144509494304657,9.219806671142578
18.1,-0.010563910938799381,0.003163048066198826,0.03736281767487526,-0.07785142958164215,-0.01406044140458107,9.442151069641113
18.12,-0.0023911218158900738,0.005527753848582506,0.02528502233326435,-0.25259214639663696,0.5547295212745667,9.939757347106934
18.14,0.004660219885408878,0.02927280403673649,-0.019664190709590912,-0.3638381361961365,0.5053791403770447,9.708810806274414
18.16,-0.017465030774474144,0.03576013073325157,-0.03983396291732788,-0.28665754199028015,0.18716685473918915,9.965609550476074
18.18,0.004572931677103043,0.016152625903487206,-0.029262222349643707,-0.1752554029226303,-0.2064874917268753,10.329862594604492
18.200000000000003,0.01101820357143879,0.019282327964901924,-0.0034244328271597624,-0.1526191234588623,-0.48900461196899414,9.998437881469727
18.22,0.014755007810890675,0.02697410061955452,0.024773703888058662,-0.24589809775352478,-0.3214128911495209,9.340067863464355
18.240000000000002,-0.016193771734833717,0.0027342422399669886,0.02505411207675934,-0.3516722321510315,-0.04123742878437042,9.277959823608398
18.259999999999998,-0.03539365157485008,-0.019216414541006088,0.029573047533631325,-0.26260605454444885,0.5067285299301147,9.701404571533203
18.28,-0.018116075545549393,-0.02195369265973568,0.01953854225575924,-0.18085399270057678,0.5057383179664612,10.194211959838867
18.3,-0.03577883169054985,-0.012328870594501495,-0.0013589273439720273,-0.13492901623249054,0.4151313602924347,10.355354309082031
18.32,-0.015070258639752865,-0.029619859531521797,0.0030915546230971813,-0.19002513587474823,-0.04816267266869545,9.614712715148926
18.34,0.024933388456702232,-0.06057869642972946,-0.0036669836845248938,-0.10221639275550842,-0.6664255857467651,9.065359115600586
18.36,0.003808059962466359,-0.05752589553594589,0.017627406865358353,-0.29475700855255127,-0.7451208829879761,9.439332008361816
18.380000000000003,-0.010326679795980453,-0.045127395540475845,0.023708011955022812,-0.3430015742778778,-0.23822909593582153,10.253929138183594
18.4,-0.048872582614421844,-0.03292830288410187,0.01749102585017681,-0.5040020942687988,0.1610991656780243,10.373383522033691
18.42,0.023607736453413963,-0.0278305746614933,0.013170930556952953,-0.6015920639038086,0.4677729308605194,9.790411949157715
18.439999999999998,-0.0006575709558092058,0.0012958056759089231,-0.01032959297299385,-0.6702706813812256,0.2812306582927704,9.598320007324219
18.46,-0.0446542352437973,-0.016540145501494408,-0.028176795691251755,-0.3135278522968292,-0.14595627784729004,9.614914894104004
18.48,0.007807492278516293,-0.041160471737384796,-0.02666621468961239,0.01751096360385418,-0.2690809369087219,9.586736679077148
18.5,0.03299286589026451,-0.022674519568681717,-0.023639550432562828,0.3967812657356262,-0.47335684299468994,9.78257942199707
18.52,0.05859833210706711,-0.009286495856940746,0.0003291192406322807,0.4699607491493225,-0.539364218711853,10.548971176147461
18.54,0.032872866839170456,0.004242878407239914,0.022880995646119118,0.34790822863578796,-0.20737920701503754,10.421785354614258
18.560000000000002,0.03580032289028168,-0.008341053500771523,0.008585906587541103,0.12178845703601837,0.3452661633491516,9.51915454864502
18.58,0.06395349651575089,-0.01023823767900467,-0.011252718977630138,-0.13681752979755402,0.6548454761505127,8.920498847961426
18.6,0.013590220361948013,-0.006953676696866751,-0.03310248628258705,-0.34413090348243713,0.3748341500759125,9.225167274475098
18.62,-0.03288624808192253,6.970504182390869e-05,-0.046110328286886215,-0.40815430879592896,0.011546320281922817,10.495551109313965
