time,wx,wy,wz,ax,ay,az
0.0,0.002280854620039463,-0.09522909671068192,-0.04187500849366188,-0.1735037863254547,-0.15964685380458832,9.722428321838379
0.02,0.035739436745643616,-0.040837328881025314,-0.007274355739355087,-0.162416011095047,-0.37426432967185974,9.907453536987305
0.04,0.06891877204179764,-0.002816053805872798,0.032272689044475555,-0.0013896526070311666,-0.57178795337677,10.000642776489258
0.06,0.08495360612869263,-0.049825798720121384,0.033819831907749176,0.2599586248397827,-0.3818075954914093,9.9338960647583
0.08,0.06798423081636429,-0.09348189830780029,0.024013329297304153,0.0643315315246582,0.01989169791340828,10.37516975402832
0.1,0.07119916379451752,-0.04520639404654503,0.0010312232188880444,-0.13573245704174042,0.30077075958251953,10.230360984802246
0.12,0.06054937466979027,0.00855580810457468,-0.03548998385667801,-0.1587294489145279,0.23296326398849487,9.482433319091797
0.14,0.037172961980104446,0.018396012485027313,-0.06513417512178421,-0.255893349647522,0.12272321432828903,9.027613639831543
0.16,-0.03769731894135475,-0.004054033197462559,-0.09288319945335388,-0.08833575248718262,-0.16201157867908478,9.483224868774414
0.18,-0.05948074907064438,-0.00417045084759593,-0.08316589891910553,0.11381697654724121,0.057016290724277496,10.811384201049805
0.2,0.027014024555683136,-0.013348288834095001,-0.04270785674452782,0.6064563393592834,0.056914158165454865,10.45944881439209
0.22,0.013984082266688347,0.0026161379646509886,0.006996748968958855,0.7044495940208435,0.3766704201698303,9.367949485778809
0.24,0.038692377507686615,0.06825805455446243,0.016876863315701485,0.5341307520866394,0.5160183906555176,8.260795593261719
0.26,-0.016238633543252945,0.05627996847033501,0.01994863525032997,0.48258087038993835,0.02857281267642975,9.570399284362793
0.28,-0.0356961265206337,-0.010004308074712753,0.025563722476363182,0.3071916997432709,-0.19690130650997162,10.631365776062012
0.3,-0.007802620995789766,-0.02232058346271515,0.02237406186759472,-0.017196981236338615,-0.3296118974685669,11.108148574829102
0.32,0.018761510029435158,0.04115689545869827,0.032544948160648346,0.20400282740592957,-0.48351767659187317,10.139912605285645
0.34,0.02526690624654293,0.020427636802196503,0.022568946704268456,0.24737699329853058,-0.3639301657676697,8.838838577270508
0.36,0.03614875674247742,-0.009733103215694427,0.013724490068852901,0.07632535696029663,-0.14843103289604187,8.59600830078125
0.38,0.07427677512168884,0.017911391332745552,0.0028255516663193703,-0.08218606561422348,0.03785357624292374,9.014395713806152
0.4,0.059210825711488724,-0.01180981658399105,0.008069992065429688,-0.1282995194196701,0.24448546767234802,10.438117027282715
0.42,0.11006542295217514,-0.015304910019040108,0.01049479003995657,-0.6286410093307495,0.1436103880405426,10.9671049118042
0.44,0.050628483295440674,0.017797555774450302,0.009975300170481205,-0.33716315031051636,-0.04876626655459404,10.160595893859863
0.46,0.05863562598824501,0.03513024002313614,-0.00931717362254858,-0.41405433416366577,-0.3562917113304138,9.522869110107422
0.48,0.03774765878915787,-0.03634992614388466,-0.03676324710249901,-0.46475669741630554,-0.42590755224227905,9.55722427368164
0.5,0.04184700548648834,-0.08730561286211014,-0.026221096515655518,-0.587483286857605,-0.12507900595664978,10.221699714660645
0.52,0.07591354846954346,-0.05724623054265976,0.009668317623436451,-0.5285971164703369,0.060813385993242264,10.658332824707031
0.54,0.09997814148664474,-0.039063967764377594,0.018969817087054253,-0.4368498921394348,-0.024134526029229164,10.330028533935547
0.56,0.1295272558927536,-0.023596931248903275,0.03211282938718796,-0.2938862442970276,0.16883864998817444,9.903834342956543
0.58,0.01703498139977455,-0.024130484089255333,0.05351576209068298,-0.14918209612369537,0.32974064350128174,9.397391319274902
0.6,0.02386420965194702,-0.07549877464771271,0.08517349511384964,0.1807449460029602,0.37405502796173096,9.334033966064453
0.62,0.028796549886465073,-0.11044513434171677,0.07503370940685272,0.46071991324424744,0.09164486825466156,9.652555465698242
0.64,0.02196619100868702,-0.06323270499706268,0.03510912507772446,0.394799143075943,-0.17167241871356964,10.053410530090332
0.66,0.05335414409637451,-0.019025878980755806,-0.033237285912036896,0.5181092023849487,0.09226592630147934,9.829566955566406
0.68,0.048672568053007126,-0.029611745849251747,-0.07736963033676147,0.3509277403354645,0.034419648349285126,9.422447204589844
0.7000000000000001,0.02432856149971485,-0.0393456295132637,-0.08946818858385086,0.37238794565200806,0.10073234885931015,9.597548484802246
0.72,-0.010440048761665821,-0.011908942833542824,-0.11642640829086304,0.48100003600120544,0.26566892862319946,10.035414695739746
0.74,-0.06403934210538864,-0.0035076667554676533,-0.09301086515188217,0.584951639175415,0.2009662389755249,9.528697967529297
0.76,0.010253949090838432,0.0222419872879982,-0.06494557112455368,0.7592377662658691,0.1093655675649643,8.883251190185547
0.78,0.06051364913582802,-0.0039709629490971565,-0.021308468654751778,0.5942468047142029,0.19299349188804626,8.243123054504395
0.8,-0.03771938011050224,-0.019457444548606873,0.03634855896234512,0.33842211961746216,0.41099661588668823,9.762271881103516
0.8200000000000001,-0.03750428184866905,0.020342402160167694,0.057707976549863815,0.3055262267589569,0.5670565366744995,10.836568832397461
0.84,-0.03393653780221939,0.07277488708496094,0.052786361426115036,0.06733063608407974,0.18144072592258453,11.163424491882324
0.86,-0.09835155308246613,0.08452291041612625,0.018043480813503265,0.19178946316242218,0.2533600628376007,10.304707527160645
0.88,-0.08099435269832611,0.02676633931696415,0.02184855006635189,0.2735194265842438,0.2828996181488037,9.21163558959961
0.9,-0.04516987502574921,-0.023931624367833138,0.04454444348812103,0.3854736089706421,-0.08497511595487595,8.324646949768066
0.92,-0.03580545634031296,-0.041303910315036774,0.06179089471697807,0.3587588667869568,-0.24640755355358124,8.78065299987793
0.9400000000000001,0.01979997381567955,-0.02790229208767414,0.05045706778764725,0.09475754201412201,-0.7563101053237915,10.208891868591309
0.96,-0.10531885176897049,-0.008110279217362404,0.002770747058093548,-0.2465771734714508,-0.4069516062736511,11.189898490905762
0.98,-0.011302345432341099,-0.03336852043867111,-0.029963450506329536,-0.261059433221817,0.20603223145008087,10.390368461608887
1.0,-0.023587066680192947,-0.06318098306655884,-0.025130247697234154,-0.11939430981874466,0.4764390289783478,8.91652774810791
1.02,-0.0008532626670785248,-0.05653945356607437,-0.017526907846331596,-0.2657591700553894,0.46740561723709106,8.712480545043945
1.04,-0.015999961644411087,0.011760183610022068,0.01631990633904934,-0.5455716848373413,-0.0192037932574749,9.877532005310059
1.06,0.06558112800121307,0.06077692285180092,0.03419305384159088,-0.5513533353805542,-0.7361955046653748,10.594788551330566
1.08,0.07047653943300247,0.05297676846385002,0.06325297057628632,-0.48878857493400574,-0.8321580290794373,10.799808502197266
1.1,0.07189994305372238,-0.009769979864358902,0.0648852214217186,0.08171898126602173,-0.26512688398361206,10.039365768432617
1.12,0.09836247563362122,-0.032693225890398026,0.03184353932738304,0.5513995885848999,-0.13838648796081543,9.57906723022461
1.1400000000000001,0.018900757655501366,0.02006397768855095,-0.003752934979274869,0.7385788559913635,0.22181566059589386,9.638772010803223
1.16,0.02109774388372898,0.07935144752264023,-0.03280417621135712,0.7478209733963013,0.42065027356147766,9.592962265014648
1.18,0.04632479324936867,0.07872577011585236,-0.04003703221678734,0.5355827212333679,0.17158262431621552,10.285188674926758
1.2,-0.014492728747427464,-0.00027146952925249934,-0.03138328343629837,0.4196469783782959,0.2569501996040344,10.101044654846191
1.22,0.07003182172775269,-0.041812267154455185,0.01635194942355156,0.24151858687400818,0.29929614067077637,9.724133491516113
1.24,0.10092286020517349,-0.027862919494509697,0.04871706664562225,0.17623820900917053,0.13974197208881378,9.650593757629395
1.26,0.060741376131772995,-0.025935515761375427,0.08058466762304306,0.1568288952112198,-0.004312863107770681,9.284260749816895
1.28,0.09579004347324371,-0.061353910714387894,0.08398512750864029,0.07504359632730484,-0.3639163672924042,9.354884147644043
1.3,0.026110559701919556,-0.08602619916200638,0.05130298435688019,-0.07409272342920303,0.09208711236715317,10.15374755859375
1.32,0.04865003004670143,-0.06743256002664566,0.014680007472634315,-0.20759841799736023,0.47477492690086365,10.420201301574707
1.34,0.019854335114359856,-0.04545382410287857,-0.015718502923846245,-0.10420108586549759,0.6197938919067383,9.58382797241211
1.36,0.10237159579992294,-0.053640201687812805,-0.017839107662439346,0.002857013139873743,0.1403290033340454,8.857708930969238
1.3800000000000001,-0.004346571862697601,-0.06848486512899399,-0.02758720889687538,-0.0030791698954999447,-0.25217896699905396,8.678986549377441
1.4000000000000001,-0.03361544385552406,-0.048591528087854385,-0.042038172483444214,-0.2678344249725342,-0.2837925851345062,9.83825397491455
1.42,0.0022361392620950937,-0.041660912334918976,-0.04068327322602272,-0.07161035388708115,-0.38517123460769653,10.448240280151367
1.44,-0.06608952581882477,-0.06401429325342178,-0.02959282137453556,0.11787956207990646,-0.021234070882201195,10.594182968139648
1.46,-0.057194020599126816,-0.09067535400390625,-0.007417752873152494,0.3423371911048889,0.3631347417831421,9.790069580078125
1.48,-0.035162732005119324,-0.08652780950069427,0.033165428787469864,0.501303493976593,0.4883261024951935,9.847579956054688
1.5,0.04191265627741814,-0.07224893569946289,0.05701456591486931,0.5129261612892151,0.41273483633995056,9.710175514221191
1.52,0.017439670860767365,-0.0884607806801796,0.07145338505506516,0.5560011267662048,0.47421711683273315,9.440023422241211
1.54,-0.012158638797700405,-0.07636682689189911,0.07089541107416153,0.35159972310066223,0.349628746509552,9.920295715332031
1.56,0.05033470690250397,-0.019475791603326797,0.04815100505948067,0.14448635280132294,0.34338846802711487,10.34199333190918
1.58,0.057834915816783905,0.007977516390383244,0.013675646856427193,-0.09467349946498871,-0.2873453199863434,9.809743881225586
1.6,0.03640299290418625,-0.02103961817920208,-0.03482717648148537,-0.005409483797848225,-0.818903386592865,9.046289443969727
1.62,0.014607231132686138,-0.03427755832672119,-0.03879774734377861,0.01662347838282585,-0.3626936674118042,9.930343627929688
1.6400000000000001,0.0928882509469986,0.032367415726184845,0.0035502330865710974,0.46741700172424316,-0.24570950865745544,10.452014923095703
1.6600000000000001,0.11407840996980667,0.05129461735486984,0.0530516542494297,0.9552057981491089,-0.26620450615882874,10.766587257385254
1.68,0.10436935722827911,0.01782081089913845,0.06659240275621414,0.9028623104095459,-0.40062615275382996,10.192695617675781
1.7,0.043254826217889786,-0.023789964616298676,0.03308235481381416,0.8391159772872925,0.2372877597808838,10.61217212677002
1.72,0.09137286245822906,-0.004588986746966839,0.0001331216626567766,0.7975819706916809,0.6336047053337097,9.832831382751465
1.74,0.042126692831516266,0.029424777254462242,-0.02550787478685379,0.640407383441925,0.7105567455291748,8.345929145812988
1.76,0.048026006668806076,0.018115613609552383,-0.04417797923088074,0.2880118191242218,0.6680251955986023,7.927171230316162
1.78,0.0030282356310635805,-0.009336540475487709,-0.05024101957678795,-0.12000402063131332,0.4482704699039459,9.713545799255371
1.8,-0.017184332013130188,0.02358284220099449,-0.04868206009268761,-0.5232337713241577,0.6886812448501587,11.237452507019043
1.82,-0.03944292291998863,0.012600541114807129,-0.028187723830342293,-0.23514044284820557,0.5392356514930725,10.586894035339355
1.84,-0.08782339096069336,-0.05029955878853798,0.0004660238919313997,0.32244282960891724,0.5295776128768921,9.305734634399414
1.86,-0.05411999300122261,-0.05784901976585388,0.010364566929638386,0.2782387137413025,0.5782473683357239,8.899971961975098
1.8800000000000001,-0.029851695522665977,-0.000384840794140473,0.021012578159570694,0.2579408288002014,0.3194750249385834,9.329511642456055
1.9000000000000001,-0.09720014780759811,0.0043823011219501495,0.009572227485477924,0.3867610692977905,0.18829870223999023,9.60059642791748
1.92,-0.10024205595254898,-0.043778784573078156,-0.0040030889213085175,0.3572327494621277,0.24295568466186523,10.219858169555664
1.94,-0.08602235466241837,-0.06531953811645508,8.318531763507053e-05,0.2457054853439331,0.6655977964401245,10.977267265319824
1.96,-0.07683926075696945,-0.01366447377949953,0.03443837910890579,0.3464718163013458,0.27099087834358215,10.054553031921387
1.98,-0.05541735887527466,0.01482801791280508,0.025168687105178833,0.6163887977600098,-0.006666187196969986,9.058266639709473
2.0,-0.05138766020536423,-0.0029967573937028646,-0.013557174243032932,0.6173582673072815,-0.5020962953567505,8.231621742248535
2.02,-0.04504646733403206,-0.032343968749046326,-0.037746842950582504,0.26816368103027344,-0.32408905029296875,10.224781036376953
2.04,-0.04837260767817497,-0.04404401406645775,-0.020411033183336258,0.10324331372976303,-0.04114314541220665,10.842315673828125
2.06,-0.009829427115619183,-0.029641568660736084,0.004918448161333799,0.41052642464637756,-0.06970155239105225,9.966511726379395
2.08,-0.03787378594279289,-0.016455724835395813,0.045461900532245636,0.6283971667289734,-0.27109336853027344,8.782878875732422
2.1,0.0352247916162014,-0.04146963357925415,0.049238186329603195,0.6405726671218872,-0.23457416892051697,9.120523452758789
2.12,-0.01776893436908722,-0.05314002186059952,0.02025468833744526,0.4316587448120117,-0.3785035014152527,10.083944320678711
2.14,-0.05991172790527344,-0.06243840977549553,-0.002645833883434534,0.1946924328804016,0.4285626709461212,10.225976943969727
2.16,-0.019468557089567184,-0.06870368868112564,-0.03365764394402504,0.06432455778121948,0.6860886812210083,9.576595306396484
2.18,-0.02032925933599472,-0.10265243798494339,-0.020090539008378983,0.03536552935838699,0.6754616498947144,9.473958969116211
2.2,0.007493318058550358,-0.10489128530025482,-0.022746851667761803,-0.10740771144628525,0.21456526219844818,10.035151481628418
2.22,-0.018072407692670822,-0.021963300183415413,-0.031001988798379898,-0.254800021648407,0.027529027312994003,10.103700637817383
2.24,0.025299329310655594,0.027304796501994133,-0.02072312869131565,0.28484639525413513,-0.2899247109889984,9.487548828125
2.2600000000000002,-0.03121473267674446,0.0029244020115584135,0.04010994732379913,0.7113069295883179,-0.2315373569726944,9.51343059539795
2.2800000000000002,0.004578194115310907,-0.007064634468406439,0.057342350482940674,0.9925623536109924,0.3475441336631775,9.617815971374512
2.3000000000000003,0.03104321099817753,0.03865315765142441,0.06960175186395645,1.091350793838501,0.49210256338119507,10.432917594909668
2.32,0.055673375725746155,0.08401734381914139,0.05157918855547905,1.1855542659759521,0.5906133651733398,10.202935218811035
2.34,-0.0034480791073292494,0.10672210156917572,0.029469506815075874,1.0223877429962158,0.20376676321029663,9.278425216674805
2.36,0.038829125463962555,0.1257282793521881,0.024285225197672844,0.7686527371406555,-0.21775446832180023,9.285308837890625
2.38,-0.007650864776223898,0.12421761453151703,0.010667645372450352,0.5336406230926514,-0.49393796920776367,10.056777954101562
2.4,-0.025767363607883453,0.17004631459712982,-0.003949903417378664,0.8046819567680359,-0.3683696389198303,9.48159408569336
2.42,-0.028815479949116707,0.1584729552268982,-0.051265422254800797,0.9137531518936157,-0.018500125035643578,9.246216773986816
2.44,5.770666030002758e-05,0.16943493485450745,-0.04880940541625023,0.636314332485199,0.26438915729522705,9.223043441772461
2.46,-0.006342447828501463,0.17927595973014832,-0.04664706811308861,0.41845235228538513,0.2480107843875885,10.047839164733887
2.48,-0.023218704387545586,0.15530088543891907,-0.040807075798511505,0.08398255705833435,0.2528010308742523,10.589324951171875
2.5,-0.014998954720795155,0.10868304967880249,-0.014453844167292118,-0.09341572970151901,0.016581086441874504,10.372468948364258
2.52,-0.0009057815186679363,0.07753629982471466,0.014401121996343136,0.06496396660804749,-0.19177377223968506,9.855454444885254
2.54,-0.033734098076820374,0.07751616090536118,0.040031127631664276,0.15791603922843933,-0.04371734708547592,9.169090270996094
2.56,-0.0077604916878044605,0.13898178935050964,0.06830479204654694,-0.41222432255744934,0.10589843988418579,9.110856056213379
2.58,-0.010944894514977932,0.10694311559200287,0.056519050151109695,-0.7786080241203308,0.20595742762088776,9.856124877929688
2.6,-0.07099777460098267,0.02468021959066391,0.03731287643313408,-1.153576135635376,0.5673835277557373,10.750551223754883
2.62,-0.0028799776919186115,-0.004195654299110174,0.027711771428585052,-1.1224523782730103,0.3574608564376831,10.842144012451172
2.64,-0.04521932825446129,0.036464206874370575,0.008949941024184227,-0.7493217587471008,-0.1541164517402649,10.044894218444824
2.66,-0.07383468002080917,0.05294802784919739,-0.043383773416280746,-0.4115847945213318,-0.2548619508743286,9.354533195495605
2.68,-0.04834030941128731,0.036263953894376755,-0.0851130485534668,0.20067203044891357,-0.3849887549877167,9.318652153015137
2.7,-0.0665021762251854,-0.007462629117071629,-0.0675198957324028,0.7241098284721375,-0.21990954875946045,9.24899673461914
2.72,-0.07427626848220825,-0.005832571070641279,-0.03832222893834114,0.7926005125045776,0.17677515745162964,9.346858024597168
2.74,-0.041966598480939865,0.023976899683475494,0.007155585568398237,0.6998544335365295,0.4306250214576721,9.723718643188477
2.7600000000000002,0.03744443878531456,0.0582241527736187,0.04022173583507538,0.518737256526947,0.46579575538635254,10.135135650634766
2.7800000000000002,0.02213866077363491,0.03879128396511078,0.04030933603644371,0.349881649017334,0.04224050045013428,9.59419059753418
2.8000000000000003,-0.010723965242505074,0.004946162458509207,0.010885789059102535,0.10094500333070755,-0.4686426520347595,9.83684253692627
2.82,0.0026719304732978344,0.020003044977784157,-0.005995193496346474,-0.07912630587816238,-0.8042568564414978,10.376385688781738
2.84,-0.03438078984618187,0.08940280228853226,-0.0006901657907292247,-0.10318036377429962,-0.7443132400512695,9.893317222595215
2.86,-0.10507506877183914,0.1107727438211441,0.005038723815232515,-0.12455973774194717,-0.35268303751945496,9.633529663085938
2.88,-0.03837210685014725,0.11101188510656357,0.020407607778906822,-0.26915431022644043,-0.04076828062534332,9.484896659851074
2.9,-0.045631278306245804,0.07914111018180847,0.0034050734248012304,-0.4041256904602051,0.1648213416337967,9.975915908813477
2.92,0.011993092484772205,0.09285707026720047,-0.021640688180923462,-0.3167586028575897,0.18979547917842865,9.66173267364502
2.94,-0.007710132747888565,0.15105940401554108,-0.016998767852783203,-0.07262768596410751,0.0570138581097126,9.085317611694336
2.96,-0.030004549771547318,0.14190851151943207,-0.002999091288074851,0.16972790658473969,-0.23648785054683685,9.141473770141602
2.98,0.015728315338492393,0.14718374609947205,-0.005230729002505541,0.26055818796157837,-0.31684228777885437,9.236780166625977
3.0,-0.013268443755805492,0.1373182088136673,0.0010448191314935684,0.2620397210121155,-0.20283320546150208,9.999505043029785
3.02,-0.036512553691864014,0.15938623249530792,0.004174648784101009,-0.038851331919431686,0.2429286241531372,10.660421371459961
3.04,-0.06949245929718018,0.15587197244167328,-0.008794820867478848,-0.05576128512620926,0.2874860167503357,10.85053539276123
3.06,-0.08567044138908386,0.1409056931734085,-0.02272403985261917,-0.24806787073612213,0.18427938222885132,9.966869354248047
3.08,-0.05785215273499489,0.14759455621242523,-0.053055278956890106,-0.5600084066390991,-0.07877539843320847,8.684464454650879
3.1,-0.11144907772541046,0.17159174382686615,-0.07434231042861938,-0.7218115329742432,-0.7913340926170349,8.729098320007324
3.12,-0.13291342556476593,0.19473367929458618,-0.09357284009456635,-0.8027255535125732,-0.6075021028518677,9.905694007873535
3.14,-0.11182955652475357,0.18441498279571533,-0.06981121748685837,-0.41930317878723145,-0.08587922900915146,10.380045890808105
3.16,-0.11206476390361786,0.12364307045936584,-0.016661575064063072,-0.12211547046899796,0.02809693105518818,10.548599243164062
3.18,-0.17709508538246155,0.12259621173143387,0.028123710304498672,-0.2088150978088379,0.5058159232139587,10.690975189208984
3.2,-0.10838727653026581,0.12911002337932587,0.03563889488577843,-0.11995813250541687,0.4311304986476898,9.654052734375
3.22,-0.07863937318325043,0.14610378444194794,0.034091122448444366,-0.23016275465488434,0.03763144463300705,8.681559562683105
3.24,-0.052624043077230453,0.16225509345531464,0.031693726778030396,-0.4816507399082184,-0.433878093957901,8.808450698852539
3.2600000000000002,-0.04255010932683945,0.14220966398715973,0.012444516643881798,-0.3005681037902832,-0.9552233219146729,9.146134376525879
3.2800000000000002,-0.01619231142103672,0.08395375311374664,0.027788974344730377,-0.0821903869509697,-1.3600345849990845,9.66452693939209
3.3000000000000003,0.0023726578801870346,0.036020677536726,0.03647666424512863,-0.32388919591903687,-1.44954514503479,9.925823211669922
3.3200000000000003,0.05593597888946533,0.03380841761827469,0.0290455874055624,-0.6416173577308655,-1.0250749588012695,10.189118385314941
3.34,0.07567714154720306,0.05472000315785408,-0.00030000106198713183,-0.580615758895874,-0.4929378032684326,9.800986289978027
3.36,0.028908610343933105,0.0482160858809948,0.0049237157218158245,-0.6338322162628174,-0.30900663137435913,9.148910522460938
3.38,0.04210227355360985,-0.003379618749022484,-0.0009320434764958918,-0.7879098057746887,-0.17556066811084747,9.32118034362793
3.4,0.058188296854496,-0.06510263681411743,0.03043529950082302,-0.7867518663406372,-0.6631700396537781,9.438640594482422
3.42,0.05149432644248009,-0.059094466269016266,0.03902940824627876,-0.6739841103553772,-0.48825809359550476,9.853242874145508
3.44,0.03771490231156349,-0.03513801097869873,0.0443040207028389,-1.1973416805267334,-0.5138770937919617,10.256657600402832
3.46,0.0675673708319664,-0.039115868508815765,0.05564025416970253,-1.720213532447815,0.24861721694469452,10.296186447143555
3.48,0.019926786422729492,-0.027222178876399994,0.0535397045314312,-1.8441563844680786,0.650709867477417,10.200860023498535
3.5,0.06930719316005707,-0.011455708183348179,0.03127320855855942,-1.6302125453948975,0.3416369557380676,9.918883323669434
3.52,0.04409928619861603,-0.0049608186818659306,0.021238749846816063,-1.084995150566101,-0.2545158863067627,9.45704460144043
3.54,0.001855412614531815,0.0081288181245327,0.007304986473172903,-0.7392891645431519,-0.6043692827224731,9.246772766113281
3.56,-0.003189827548339963,0.023121720179915428,-0.004017362371087074,-0.6857407689094543,-0.5931708216667175,9.670111656188965
3.58,-0.0035335919819772243,0.053305868059396744,-0.022793766111135483,-0.18391714990139008,-0.48958635330200195,9.971321105957031
3.6,-0.0015907216584309936,0.06500084698200226,-0.02387109398841858,0.14773407578468323,-0.4183274805545807,9.879190444946289
3.62,0.0018228748813271523,0.041671257466077805,-0.017223820090293884,0.011654479429125786,-0.10895778983831406,9.986564636230469
3.64,0.012239592149853706,0.011796753853559494,-0.013503863476216793,0.03538276627659798,-0.05885250121355057,10.174335479736328
3.66,0.04359913989901543,-0.011358078569173813,-0.0006928754155524075,0.02549714408814907,-0.11685997992753983,9.691805839538574
3.68,0.06006545200943947,-0.010244101285934448,0.011629229411482811,-0.030619163066148758,-0.3672296702861786,9.410470008850098
3.7,-0.0067141675390303135,-0.007450627163052559,-0.010984777472913265,-0.17129769921302795,-0.44399309158325195,9.151270866394043
3.72,-0.014595751650631428,-0.020973609760403633,-0.04174298048019409,-0.19217252731323242,-0.31264376640319824,9.033860206604004
3.74,-0.013977784663438797,-0.015842722728848457,-0.06766243278980255,-0.17920319736003876,-0.2073773592710495,9.378045082092285
3.7600000000000002,-0.038517434149980545,0.031883545219898224,-0.05657825618982315,-0.7710772752761841,-0.06975968182086945,10.530421257019043
3.7800000000000002,-0.061425574123859406,0.01117704901844263,-0.01149861328303814,-1.1140830516815186,-0.10988345742225647,10.775081634521484
3.8000000000000003,-0.07161933183670044,-0.04314485937356949,0.021982485428452492,-0.9763565063476562,-0.36842310428619385,10.487878799438477
3.8200000000000003,-0.08676229417324066,-0.03256045654416084,0.03349146991968155,-0.9583253264427185,-0.6246398091316223,9.701528549194336
3.84,-0.09396005421876907,0.045720405876636505,0.03558376431465149,-0.8509432673454285,-0.5862962603569031,9.413305282592773
3.86,-0.07330773025751114,0.08175197243690491,0.022314580157399178,-0.687102735042572,-0.33289554715156555,8.987685203552246
3.88,-0.03721832484006882,0.01657971367239952,-0.0064996168948709965,-0.3193550407886505,-0.059021834284067154,8.893827438354492
3.9,-0.06540852785110474,-0.01949327625334263,-0.00871514342725277,-0.4641355872154236,0.2495451420545578,9.713212013244629
3.92,-0.05898721516132355,0.041269075125455856,-0.00796466413885355,-0.924205482006073,-0.08628243952989578,11.09096908569336
3.94,-0.018806884065270424,0.10868661105632782,-0.016758324578404427,-1.0370954275131226,-0.44593560695648193,10.410371780395508
3.96,0.037017855793237686,0.08306878060102463,-0.02562219649553299,-0.9033136367797852,-0.34614476561546326,8.943660736083984
3.98,0.06791339069604874,0.04858794063329697,-0.026303933933377266,-0.9974421262741089,-0.2717476487159729,8.963977813720703
4.0,0.010379772633314133,0.061003636568784714,-0.008821134455502033,-0.9275554418563843,-0.4997146427631378,9.844746589660645
4.0200000000000005,0.06777066737413406,0.06497329473495483,-0.006940493825823069,-0.7573665976524353,-0.9703410863876343,10.739791870117188
4.04,0.11257486790418625,0.053741928189992905,0.0053657349199056625,-0.3023086190223694,-1.2988967895507812,10.458938598632812
4.0600000000000005,0.08260799199342728,0.036936305463314056,0.015946874395012856,-0.18303075432777405,-1.3307313919067383,9.867523193359375
4.08,0.046036865562200546,0.010755611583590508,0.00478933472186327,-0.27551090717315674,-0.8692665100097656,9.37657642364502
4.1,0.06144939735531807,0.014263125136494637,-0.026327496394515038,-0.7370064854621887,-0.2980796992778778,9.437417030334473
4.12,0.048331715166568756,0.032395139336586,-0.025632472708821297,-0.98721843957901,0.32945120334625244,9.477553367614746
4.14,0.06483137607574463,0.05549917742609978,-0.010393252596259117,-1.204896092414856,0.36936670541763306,9.871647834777832
4.16,-0.0066419802606105804,0.04683322086930275,-0.004671819042414427,-1.1580605506896973,0.2674909830093384,10.258054733276367
4.18,0.0321933813393116,0.026784133166074753,-0.007096163462847471,-1.0337533950805664,0.15214867889881134,10.213708877563477
4.2,0.030160898342728615,0.06265326589345932,-0.01254190132021904,-0.7817071676254272,-0.0539744608104229,9.854744911193848
4.22,0.027233589440584183,0.06865648180246353,0.002294173464179039,-0.5970335006713867,-0.16029033064842224,8.983443260192871
4.24,0.02922116406261921,0.05312192440032959,0.006297572515904903,-0.5660151839256287,-0.12303212285041809,9.25151252746582
4.26,0.05721823126077652,0.0021217435132712126,0.028189335018396378,-0.6389949917793274,-0.1901025027036667,9.621748924255371
4.28,-0.013257555663585663,0.023501388728618622,0.013403221033513546,-0.7634319067001343,0.018610630184412003,10.067790031433105
4.3,0.010739106684923172,0.03432168439030647,0.021491870284080505,-0.8012925386428833,-0.09409379214048386,10.359823226928711
4.32,0.08400294184684753,0.00960985291749239,0.02476477064192295,-0.9335653185844421,-0.692464292049408,10.70604419708252
4.34,0.044356055557727814,-0.03702368959784508,0.022478658705949783,-0.8840399980545044,-0.8910680413246155,10.334632873535156
4.36,0.035337138921022415,-0.06812819093465805,0.023419491946697235,-0.9826121926307678,-0.6621270775794983,8.985793113708496
4.38,0.030378524214029312,-0.06712967902421951,0.029937487095594406,-1.163429856300354,-0.23570950329303741,8.91733169555664
4.4,0.009292014874517918,-0.07964396476745605,0.019176464527845383,-1.2456010580062866,-0.09812094271183014,9.471485137939453
4.42,0.018356239423155785,-0.1200205385684967,0.0025281759444624186,-1.3420146703720093,-0.01781531609594822,10.178592681884766
4.44,-0.01327231153845787,-0.12264372408390045,0.005411995109170675,-1.397037386894226,0.023710055276751518,10.591129302978516
4.46,-0.051677145063877106,-0.08974356204271317,-0.017437398433685303,-1.1486191749572754,0.23796546459197998,10.514657020568848
4.48,-0.00942972395569086,-0.049130506813526154,-0.017084594815969467,-0.7059866786003113,0.38203349709510803,9.195590019226074
4.5,-0.04550038278102875,-0.045504625886678696,-0.0034376271069049835,-0.6030826568603516,0.28829944133758545,8.629610061645508
4.5200000000000005,-0.08020395785570145,-0.0726122334599495,0.013529621064662933,-0.4553217887878418,0.08608081936836243,8.506731986999512
4.54,-0.05735563486814499,-0.13553713262081146,0.014583850279450417,-0.17243313789367676,0.07963389158248901,9.746124267578125
4.5600000000000005,-0.02987760864198208,-0.14976578950881958,0.00624430738389492,-0.42631974816322327,-0.19828838109970093,10.926194190979004
4.58,-0.069768987596035,-0.11194387078285217,0.0061601498164236546,-0.21654467284679413,-0.42776939272880554,11.112289428710938
4.6000000000000005,-0.13834117352962494,-0.08510591834783554,-0.011763155460357666,-0.16974347829818726,-0.6093552112579346,9.84370231628418
4.62,-0.13404524326324463,-0.11466626077890396,-0.01153586432337761,-0.1909419149160385,-0.6100900173187256,8.593104362487793
4.64,-0.1434279978275299,-0.19143803417682648,-0.014846554957330227,-0.22101490199565887,-0.31415650248527527,8.751800537109375
4.66,-0.1184268668293953,-0.19150903820991516,-0.013315369375050068,-0.011847416870296001,-0.09859868884086609,9.611655235290527
4.68,-0.09635663032531738,-0.16661188006401062,-0.013950384221971035,-0.21454018354415894,0.09717274457216263,10.731096267700195
4.7,-0.037200916558504105,-0.13420221209526062,0.0054251705296337605,-0.8269332647323608,-0.07943476736545563,11.342866897583008
4.72,-0.022407660260796547,-0.1579785943031311,0.03237497806549072,-1.0781739950180054,-0.8600353002548218,10.488069534301758
4.74,-0.0376211516559124,-0.16207700967788696,0.052678246051073074,-1.0701268911361694,-1.0620949268341064,8.978833198547363
4.76,-0.019452285021543503,-0.13265517354011536,0.042994771152734756,-0.9842637777328491,-0.9343190789222717,8.361868858337402
4.78,0.005681536626070738,-0.06485703587532043,0.0431022085249424,-1.0547314882278442,-0.8079889416694641,9.041550636291504
4.8,0.07059215754270554,0.00041736767161637545,0.05453937500715256,-1.069577693939209,-0.6360589861869812,10.115561485290527
4.82,0.09757102280855179,0.00775603111833334,0.0395292304456234,-0.367923766374588,-0.43457475304603577,10.322242736816406
4.84,0.14226152002811432,-0.04154738411307335,0.04510434716939926,-0.0046204798854887486,-0.44738730788230896,10.207355499267578
4.86,0.1466798186302185,-0.0024516682606190443,0.027820371091365814,0.5627076625823975,-0.7652260065078735,9.991458892822266
4.88,0.17718124389648438,0.04889553412795067,-0.007181583438068628,0.9117810726165771,-0.7298159599304199,9.230810165405273
4.9,0.1538858711719513,0.005945371929556131,-0.045818813145160675,0.7691495418548584,-0.5081158876419067,8.440178871154785
4.92,0.08517060428857803,-0.008015929721295834,-0.051164232194423676,0.5224528908729553,-0.4032192826271057,9.62271499633789
4.94,0.13142907619476318,-0.032944273203611374,0.005859595723450184,0.13094820082187653,-0.22109998762607574,11.016057968139648
4.96,0.17768560349941254,-0.025274835526943207,0.04154335707426071,-0.1803789585828781,-0.03924749791622162,10.859590530395508
4.98,0.10022912174463272,-0.028246745467185974,0.07333891838788986,-0.5865639448165894,-0.1862347275018692,9.97547721862793
5.0,0.012718572281301022,-0.056711357086896896,0.0561881884932518,-0.8717270493507385,-0.2658208906650543,9.393342971801758
5.0200000000000005,0.021101975813508034,-0.09988483786582947,0.013065739534795284,-0.7432160377502441,0.27168887853622437,9.506102561950684
5.04,0.0025102735962718725,-0.10799513757228851,-0.0047576939687132835,-0.3690478503704071,0.4363856613636017,10.036468505859375
5.0600000000000005,0.05095374956727028,-0.11125625669956207,0.0037815410178154707,-0.28634244203567505,0.2627597749233246,10.290807723999023
5.08,0.030410658568143845,-0.12096627056598663,0.019215906038880348,-0.200508251786232,-0.11206366121768951,9.549127578735352
5.1000000000000005,0.018083825707435608,-0.1666724532842636,0.029265359044075012,-0.32439982891082764,-0.08131876587867737,8.773036003112793
5.12,-0.019208643585443497,-0.14846457540988922,0.030791981145739555,-0.5520419478416443,0.04745893180370331,8.447901725769043
5.14,-0.053362924605607986,-0.08870474994182587,0.037537869065999985,-0.4872647523880005,0.491054505109787,9.451942443847656
5.16,0.05681713670492172,-0.062053948640823364,0.050958652049303055,-0.6204874515533447,0.3128635585308075,10.808279037475586
5.18,0.05686375871300697,-0.04020734876394272,0.058439310640096664,-0.5072160959243774,-0.5862752199172974,10.935417175292969
5.2,0.03284358233213425,-0.02474929206073284,0.04997331276535988,-0.5311003923416138,-0.914242684841156,10.289565086364746
5.22,0.06336439400911331,-0.01671520248055458,0.014596679247915745,-0.567819356918335,-0.9334741830825806,9.273242950439453
5.24,0.009771320968866348,-0.003845196682959795,-0.06926233321428299,-0.20376411080360413,-0.12889441847801208,9.288445472717285
5.26,-0.0014166062464937568,-0.0038581942208111286,-0.11513260751962662,0.6793716549873352,0.6210536360740662,9.791610717773438
5.28,-0.01897934451699257,0.0010589832672849298,-0.11053108423948288,1.3671749830245972,0.8618616461753845,10.089973449707031
5.3,0.038152433931827545,-0.032356422394514084,-0.02601892501115799,1.4237309694290161,0.22464841604232788,10.558065414428711
5.32,0.04569857567548752,-0.061909593641757965,0.0397833026945591,0.8998764753341675,-0.9271386861801147,9.859969139099121
5.34,0.018174607306718826,-0.09224479645490646,0.06358493864536285,0.4304145872592926,-0.7670681476593018,9.258886337280273
5.36,0.02924545481801033,-0.14356745779514313,0.05380070582032204,0.19426676630973816,0.03287677466869354,9.369738578796387
5.38,0.035025808960199356,-0.12562093138694763,0.022187547758221626,0.17445030808448792,0.5642477869987488,9.225069999694824
5.4,-0.0444895476102829,-0.08553746342658997,0.03131789341568947,-0.7213037014007568,0.8751457333564758,9.87337875366211
5.42,-0.05256661772727966,-0.04818238690495491,0.013200899586081505,-1.5737725496292114,0.267886757850647,11.183652877807617
5.44,-0.03172106668353081,0.01101878471672535,-0.04584415256977081,-1.9833691120147705,-0.17790937423706055,11.391536712646484
5.46,-0.02517746388912201,0.0529547818005085,-0.08626453578472137,-1.724193811416626,-0.46685096621513367,10.091304779052734
5.48,-0.019006088376045227,0.04226863384246826,-0.07532725483179092,-1.0576142072677612,-0.643859326839447,9.137593269348145
5.5,-0.03420386463403702,-0.0032651934307068586,-0.029551170766353607,-0.22114969789981842,-0.33920231461524963,9.03281021118164
5.5200000000000005,-0.0016296722460538149,0.062350478023290634,0.04107923433184624,0.49359890818595886,-0.16522733867168427,9.913915634155273
5.54,0.006290636956691742,0.0924445316195488,0.05138590931892395,1.3693418502807617,-0.1439812183380127,9.846080780029297
5.5600000000000005,-0.017799247056245804,0.014847956597805023,0.008468913845717907,1.5430936813354492,-0.26189517974853516,9.595494270324707
5.58,0.021983904764056206,-0.08174280822277069,-0.021752266213297844,1.4663136005401611,-0.0673488974571228,9.510393142700195
5.6000000000000005,0.012279918417334557,-0.06976868957281113,-0.024590136483311653,0.8662427067756653,0.2737874686717987,9.59601879119873
5.62,0.04161066934466362,-0.004446228034794331,-0.031024063006043434,0.3231915831565857,0.1988009363412857,9.176705360412598
5.64,0.05296090617775917,0.019071796908974648,-0.0400521457195282,-0.3336668312549591,-0.23445254564285278,9.056540489196777
5.66,0.02319897711277008,0.05235510692000389,-0.04245833307504654,-1.1200621128082275,-0.44116342067718506,10.71839714050293
5.68,0.07744856178760529,0.07407749444246292,-0.03273414447903633,-1.458113670349121,-0.4917309582233429,11.137099266052246
5.7,0.0458948127925396,0.11159089207649231,-0.03808271512389183,-0.9353379607200623,-0.35049304366111755,10.600059509277344
5.72,0.006278031971305609,0.14034594595432281,-0.06569288671016693,-0.2918616235256195,0.002849783981218934,9.33487606048584
5.74,0.07359185069799423,0.15686312317848206,-0.08157297223806381,0.6653233170509338,0.20430776476860046,8.609808921813965
5.76,0.07371890544891357,0.1615697294473648,-0.0793425664305687,1.141956090927124,0.31042027473449707,9.289111137390137
5.78,0.09598555415868759,0.14016950130462646,-0.02959023229777813,1.4569902420043945,0.17180036008358002,10.316028594970703
5.8,-0.00024972172104753554,0.07441777735948563,0.02460365742444992,1.2815707921981812,-0.06403861194849014,11.471546173095703
5.82,0.030986813828349113,-0.009845152497291565,0.05115291848778725,0.7056145071983337,-0.14641399681568146,11.183319091796875
5.84,-0.007055359426885843,0.020038284361362457,0.06368754804134369,-0.0247622262686491,-0.30524346232414246,9.497971534729004
5.86,-0.007068837992846966,0.08573500066995621,0.05061924457550049,-0.6050041317939758,0.17671503126621246,8.323736190795898
5.88,0.07339932769536972,0.023460617288947105,0.044736407697200775,-0.5133278965950012,0.2944469153881073,8.08464241027832
5.9,0.020395435392856598,-0.06798423081636429,0.05179939419031143,-0.21040579676628113,0.08030213415622711,9.037288665771484
5.92,-0.005878396797925234,-0.11695322394371033,0.02557128667831421,-0.3513197600841522,0.12440183013677597,9.987212181091309
5.94,0.07157178223133087,-0.07149676233530045,0.011888634413480759,-0.9884536266326904,-0.1703878790140152,10.292665481567383
5.96,0.07352558523416519,-0.0020145548041909933,-0.03746926039457321,-0.9507734179496765,-0.540053129196167,10.074641227722168
5.98,0.032095856964588165,-0.012396329082548618,-0.054864853620529175,-1.015799641609192,-0.398823618888855,9.491284370422363
6.0,0.022645236924290657,-0.04522152245044708,-0.029956091195344925,-1.0602370500564575,0.4254709482192993,9.268471717834473
6.0200000000000005,0.023126374930143356,-0.0497409962117672,0.004410124383866787,-1.3044325113296509,0.7060489058494568,10.278904914855957
6.04,0.029109202325344086,0.004870407283306122,0.017095135524868965,-1.2411831617355347,0.5206125378608704,10.923571586608887
6.0600000000000005,-0.0036537523847073317,0.05674088001251221,0.009728466160595417,-1.4256560802459717,0.20696380734443665,10.93812084197998
6.08,0.067613385617733,0.05232624709606171,-0.0026091523468494415,-1.0657131671905518,-0.1974465548992157,10.044134140014648
6.1000000000000005,0.011491830460727215,0.022679846733808517,0.0030565315391868353,-0.30530643463134766,-0.44330456852912903,8.98024845123291
6.12,-0.005475890822708607,0.057821549475193024,0.010444422252476215,0.12690690159797668,-0.2836415767669678,8.991793632507324
6.140000000000001,0.003981816116720438,0.03744211792945862,0.008740243501961231,0.8646310567855835,-0.012262677773833275,9.202584266662598
6.16,0.0356777161359787,-0.002455698559060693,0.025532981380820274,1.5467798709869385,0.12031964957714081,9.46553897857666
6.18,-0.06924796849489212,-0.04534940421581268,0.026554202660918236,1.8412408828735352,0.47765737771987915,10.22982120513916
6.2,-0.04270065948367119,-0.09580004960298538,0.04759673774242401,1.6306500434875488,0.9006041884422302,10.162480354309082
6.22,0.029934175312519073,-0.09926297515630722,0.06401152908802032,1.072838306427002,0.5588685870170593,9.997501373291016
6.24,-0.006801914423704147,-0.1009078100323677,0.03825448825955391,0.16812704503536224,0.17438556253910065,9.70574951171875
6.26,-0.02082824893295765,-0.13891205191612244,-0.002651289338245988,-0.45180636644363403,0.021466590464115143,9.64892578125
6.28,-0.1255449801683426,-0.18308047950267792,-0.026482880115509033,-0.8491494655609131,-0.15470381081104279,10.057564735412598
6.3,-0.16319479048252106,-0.1437200903892517,-0.04711476340889931,-1.4488240480422974,0.298146516084671,9.955551147460938
6.32,-0.05826057121157646,-0.08280445635318756,-0.027537230402231216,-1.4181827306747437,0.32169878482818604,9.974398612976074
6.34,-0.0463675819337368,-0.06481626629829407,-0.040845807641744614,-1.0460608005523682,-0.05519092082977295,9.791462898254395
6.36,-0.03062565065920353,-0.07704529911279678,-0.02214769646525383,-0.6533523797988892,-0.009010706096887589,9.55318546295166
6.38,6.038594074198045e-05,-0.07862918078899384,-0.014556142501533031,-0.6455714106559753,-0.21453672647476196,9.324814796447754
6.4,-0.06846535205841064,-0.019549882039427757,0.0010166700230911374,-0.48855677247047424,-0.35486292839050293,9.679426193237305
6.42,0.06428824365139008,0.019669750705361366,0.018003016710281372,-0.09188646823167801,-0.2803414762020111,9.902660369873047
6.44,0.014337609522044659,0.04342521354556084,0.024134092032909393,-0.06744243204593658,-0.28666868805885315,10.191216468811035
6.46,0.0917322188615799,0.028166459873318672,0.011474568396806717,0.7802181839942932,-0.3019059896469116,10.270181655883789
6.48,0.05006296932697296,0.010413463227450848,-0.0024157946463674307,1.2520664930343628,-0.41485583782196045,10.053933143615723
6.5,0.06952974200248718,-0.008743277750909328,-0.030768007040023804,1.5110191106796265,-0.3246411979198456,9.579378128051758
6.5200000000000005,0.012954522855579853,0.014443163760006428,-0.029224369674921036,1.2855108976364136,-0.10884756594896317,8.872377395629883
6.54,0.07835690677165985,0.05888551101088524,-0.028369031846523285,0.6881774663925171,0.21332977712154388,8.630889892578125
6.5600000000000005,0.1147197037935257,0.060030799359083176,-0.022727953270077705,-0.008577532134950161,0.15058143436908722,9.846673965454102
6.58,0.032482098788022995,0.05905508995056152,-0.007609946187585592,-0.18767280876636505,0.13288097083568573,10.41672420501709
6.6000000000000005,-0.031583573669195175,0.04518599435687065,0.016142431646585464,-0.045780327171087265,0.3931860327720642,10.269988059997559
6.62,0.09729980677366257,0.06551647186279297,0.04084881767630577,0.13842865824699402,0.5247066020965576,9.856188774108887
6.640000000000001,0.09349667280912399,0.09135809540748596,0.07507942616939545,0.31998321413993835,0.44208523631095886,9.856815338134766
6.66,0.12825137376785278,0.08676808327436447,0.08467549085617065,0.18902501463890076,0.14981818199157715,10.487274169921875
6.68,0.15814617276191711,0.030407648533582687,0.08562440425157547,0.07902893424034119,-0.03653367608785629,10.28130054473877
6.7,0.09988398104906082,0.002210259437561035,0.07052388042211533,0.11007825285196304,-0.0001287873601540923,8.93911075592041
6.72,0.08870874345302582,-0.0010590694146230817,0.056866902858018875,0.00694730831310153,0.038381386548280716,8.07148551940918
6.74,0.10672717541456223,-0.021032974123954773,0.018062056973576546,-0.485716849565506,-0.016533037647604942,8.420562744140625
6.76,0.03634227439761162,-0.014300727285444736,0.004344546236097813,-0.7650346755981445,0.48939329385757446,9.88313102722168
6.78,0.004707199055701494,-0.04337838292121887,0.006780302617698908,-0.5590527653694153,0.8722172379493713,10.506219863891602
6.8,0.004224797710776329,-0.03907371684908867,0.002820342080667615,-0.7043035626411438,0.7277008891105652,10.877927780151367
6.82,0.003934420645236969,-0.017781244590878487,-0.0005044448189437389,-0.8216328024864197,0.4052185118198395,11.556976318359375
6.84,0.04327275604009628,-0.04702865332365036,-0.01947658695280552,-0.7152160406112671,0.04286015406250954,10.594212532043457
6.86,0.005692988634109497,-0.054493967443704605,-0.0312202125787735,-0.7428187727928162,-0.1610158085823059,9.34626293182373
6.88,-0.007206066511571407,-0.004131765570491552,-0.023895444348454475,-0.6138046979904175,0.4891033172607422,8.410929679870605
6.9,-0.018325284123420715,-0.00994157325476408,-0.02379843220114708,-0.4453088641166687,0.8334317207336426,8.612313270568848
6.92,-0.039973340928554535,-0.022725090384483337,-0.014121265150606632,-0.13323944807052612,0.8043844103813171,9.477849960327148
6.94,-0.1330231875181198,-0.0470377653837204,0.004937112797051668,0.241672083735466,0.978593647480011,10.818552017211914
6.96,-0.06302821636199951,-0.04762667790055275,0.019907919690012932,0.15467451512813568,0.47585129737854004,11.299126625061035
6.98,-0.016345558688044548,0.005083043128252029,0.022094042971730232,0.22566410899162292,-0.2011307030916214,9.728437423706055
7.0,-0.057555098086595535,0.025487525388598442,0.012747401371598244,0.39578336477279663,-0.21503815054893494,8.833661079406738
7.0200000000000005,-0.07087119668722153,-0.04306870698928833,0.0002803907555062324,0.2390396147966385,-0.2800474464893341,9.445900917053223
7.04,-0.0497983917593956,-0.05256069079041481,-0.028772534802556038,0.11292317509651184,0.0801246166229248,10.6662015914917
7.0600000000000005,-0.09715229272842407,-0.011000900529325008,-0.02815552055835724,0.1198185458779335,0.6196428537368774,10.296162605285645
7.08,-0.032183997333049774,0.027335017919540405,0.0005922725540585816,0.2872483730316162,0.6151908040046692,9.380558013916016
7.1000000000000005,-0.016783013939857483,-0.016978921368718147,0.044063255190849304,0.40614083409309387,0.18797653913497925,9.272709846496582
7.12,-0.021865224465727806,-0.050964049994945526,0.042324863374233246,0.25702565908432007,-0.11913749575614929,9.648032188415527
7.140000000000001,-0.010204404592514038,-0.06058720126748085,0.025437984615564346,0.06881698220968246,-0.17788101732730865,9.805635452270508
7.16,-0.012060655280947685,-0.0019236602820456028,-0.011444750241935253,-0.16179513931274414,-0.11606837809085846,10.067914962768555
7.18,-0.05274416506290436,0.031124548986554146,-0.04963900148868561,-0.22603484988212585,0.35920870304107666,10.089071273803711
7.2,-0.04052560031414032,-0.006108823698014021,-0.051133494824171066,-0.1535467654466629,0.7303911447525024,9.716104507446289
7.22,-0.04116704687476158,-0.04883205145597458,-0.012713945470750332,-0.16467081010341644,0.6189313530921936,9.752585411071777
7.24,-0.04932906851172447,-0.045350294560194016,0.022506162524223328,-0.19463752210140228,0.23777906596660614,9.896239280700684
7.26,-0.028944427147507668,-0.0019499326590448618,0.047230761498212814,-0.19354300200939178,-0.17226915061473846,10.04443645477295
7.28,-0.058704935014247894,0.008351230062544346,0.031792666763067245,-0.3384688198566437,-0.0014681249158456922,10.193629264831543
7.3,-0.033968135714530945,-0.032350119203329086,-0.0004687668406404555,-0.2882477045059204,0.2253238409757614,10.091063499450684
7.32,-0.048285890370607376,-0.03918660804629326,-0.020306669175624847,0.09090204536914825,0.46748673915863037,9.729429244995117
7.34,-0.043046239763498306,-0.053266674280166626,-0.023889565840363503,0.23518502712249756,0.5336212515830994,9.950929641723633
7.36,-0.03262947499752045,-0.027481654658913612,-9.902925376081839e-05,0.3731915354728699,-0.052007392048835754,9.950926780700684
7.38,0.010323976166546345,-0.026997819542884827,0.03490760549902916,0.5504910349845886,-0.2570851147174835,9.100395202636719
7.4,-0.03328802064061165,-0.020418012514710426,0.04064735770225525,0.39135465025901794,-0.23984380066394806,8.46914005279541
7.42,0.04047543182969093,-0.002959728706628084,0.049310777336359024,0.33018288016319275,-0.05898425728082657,8.337627410888672
7.44,0.054377779364585876,-0.01411100011318922,0.040261369198560715,0.3399657905101776,-0.06627710908651352,9.222586631774902
7.46,0.10028313100337982,0.03034900315105915,0.04356733709573746,0.14387592673301697,-0.039813194423913956,10.414569854736328
7.48,0.11815062910318375,0.08189169317483902,0.054131098091602325,0.04592198133468628,-0.3180589973926544,10.080495834350586
7.5,0.11366836726665497,0.09710096567869186,0.03942037373781204,-0.23178371787071228,-0.3572849929332733,10.117733001708984
7.52,0.11012101173400879,0.10551915317773819,0.0015429648337885737,-0.40667903423309326,-0.015297056175768375,10.777190208435059
7.54,0.09948039799928665,0.10610319674015045,-0.029703358188271523,0.22600018978118896,0.24883100390434265,10.767400741577148
7.56,0.10311535000801086,0.09936392307281494,-0.03012511320412159,0.7269663214683533,0.3007573187351227,9.486947059631348
7.58,0.06497985124588013,0.08577684313058853,0.0002660252503119409,0.41580429673194885,0.1746969223022461,9.114144325256348
7.6,0.08397499471902847,0.045853354036808014,0.003306357655674219,-0.04775027185678482,0.3150368630886078,9.762711524963379
7.62,0.005602930672466755,0.025594865903258324,0.002652482595294714,-0.5459944009780884,0.43446117639541626,10.657820701599121
7.64,0.03970528766512871,0.0015304352855309844,0.0023098448291420937,-0.7584019899368286,0.938177764415741,10.57632827758789
7.66,-0.02637597732245922,-0.04644821584224701,0.014392751269042492,-0.629673957824707,0.9389874339103699,9.182599067687988
7.68,-0.034093547612428665,-0.07721449434757233,0.05328703671693802,-0.4080750048160553,0.4050658047199249,8.058975219726562
7.7,0.008141806349158287,-0.079534150660038,0.07477585971355438,-0.38186880946159363,0.24780254065990448,8.631299018859863
7.72,-0.06796421110630035,-0.0711074024438858,0.046699296683073044,-0.5960131287574768,1.03839111328125,10.332197189331055
7.74,-0.07666352391242981,-0.0650697574019432,0.0004539235378615558,-0.5642262101173401,1.0573979616165161,11.300312995910645
7.76,-0.043333571404218674,-0.04330208897590637,-0.03012511506676674,-0.2722242474555969,0.3587457835674286,10.987030982971191
7.78,-0.03506454452872276,-0.04631689190864563,0.014302032999694347,-0.0018067887285724282,-0.002839867025613785,10.055994033813477
7.8,0.05030404031276703,-0.025158148258924484,0.06032642349600792,0.16110438108444214,-0.28216275572776794,8.660374641418457
7.82,0.12162992358207703,-0.0007769007352180779,0.08094440400600433,0.8153460025787354,-0.4502110779285431,8.463138580322266
7.84,0.10683652013540268,0.00518395658582449,0.051598258316516876,1.2025315761566162,-0.5854249000549316,9.016252517700195
7.86,0.15728454291820526,0.013889674097299576,-0.0127671854570508,1.2495242357254028,-0.11864635348320007,9.938948631286621
7.88,0.10150568932294846,0.02913942001760006,-0.06196651607751846,0.8578693270683289,0.34623631834983826,10.969761848449707
7.9,0.103297159075737,0.04190290346741676,-0.08420990407466888,0.5076594352722168,0.7566369771957397,10.617549896240234
7.92,0.08812083303928375,0.004735910799354315,-0.07417582720518112,-0.06611877679824829,0.9769906401634216,10.12881088256836
7.94,0.023760894313454628,0.052831463515758514,-0.015151812694966793,-0.3248017132282257,0.8445523977279663,9.79361343383789
7.96,0.06225244328379631,0.10627301782369614,0.0013034394942224026,-0.023131361231207848,0.2853652834892273,9.333984375
7.98,0.0041340128518640995,0.05657517910003662,0.0017862290842458606,0.05553972348570824,-0.03981596976518631,8.545520782470703
8.0,-0.07695604860782623,0.010326527990400791,-0.005357568617910147,-0.10553906857967377,0.2763073146343231,8.953604698181152
8.02,-0.12180031836032867,0.042416762560606,-0.03818792104721069,-0.6336503028869629,1.131258487701416,9.849051475524902
8.04,-0.09266924858093262,0.06784047186374664,-0.061000850051641464,-0.8755022883415222,2.0301895141601562,11.401763916015625
8.059999999999999,-0.11165081709623337,0.04356247931718826,-0.03488978371024132,-0.8794105648994446,1.6282340288162231,11.354680061340332
8.08,-0.1201472282409668,0.01637071929872036,0.016575345769524574,-0.7055279612541199,0.6563273072242737,9.339338302612305
8.1,-0.11931081861257553,0.026685219258069992,0.04062724485993385,-0.5232025980949402,-0.38097408413887024,8.670113563537598
8.120000000000001,-0.16651210188865662,0.014930669218301773,0.040047358721494675,-0.44277119636535645,-0.2030206322669983,8.847365379333496
8.14,-0.1085226833820343,0.007919560186564922,0.04643404483795166,-0.3078492283821106,0.23417171835899353,10.579584121704102
8.16,-0.05706346407532692,0.015325916931033134,0.02537444606423378,0.10499132424592972,-0.0976577177643776,11.396729469299316
8.18,-0.07855856418609619,-0.015193690545856953,0.014240723103284836,0.5851483345031738,-0.6260835528373718,10.541789054870605
8.2,-0.009728225879371166,-0.06362203508615494,-0.0042163413017988205,0.78751540184021,-0.6575376987457275,9.000123977661133
8.219999999999999,-0.027900371700525284,-0.044814836233854294,-0.03513401001691818,0.5685549974441528,-0.42013898491859436,7.926837921142578
8.24,0.011565228924155235,0.012363464571535587,-0.02243887446820736,-0.0786849856376648,0.22634872794151306,8.738274574279785
8.26,0.0819190964102745,0.035660818219184875,0.012898930348455906,-0.658557116985321,0.43895915150642395,10.755513191223145
8.280000000000001,0.02814391627907753,0.03483098745346069,0.03146124258637428,-0.7966342568397522,0.18851783871650696,12.068572044372559
8.3,0.06613326072692871,0.02833680249750614,0.0331585630774498,-0.35976189374923706,0.08200892806053162,10.404851913452148
8.32,0.05640965700149536,0.04775635525584221,-0.006685317028313875,0.3230974078178406,0.240188866853714,8.68044662475586
8.34,0.06951209902763367,0.058798205107450485,-0.023301467299461365,0.6423627734184265,0.06981495767831802,8.48036003112793
8.36,-0.017931975424289703,0.09189252555370331,-0.055301349610090256,0.8731449842453003,0.4410872161388397,9.357986450195312
8.379999999999999,0.01821937970817089,0.07049554586410522,-0.053111862391233444,0.7590463161468506,1.0057165622711182,10.213081359863281
8.4,-0.015035850927233696,0.04186537489295006,-0.05089372768998146,0.16592396795749664,1.2068465948104858,10.250845909118652
8.42,-0.07554730027914047,0.07426491379737854,-0.041259828954935074,-0.5018686652183533,0.7596563696861267,9.7086763381958
8.440000000000001,-0.034136220812797546,0.06874494254589081,-0.031093815341591835,-0.4355928301811218,0.02546832524240017,9.59301471710205
8.46,-0.1066824421286583,0.015328638255596161,-0.001498171011917293,-0.26934418082237244,0.08260653913021088,9.649932861328125
8.48,-0.08458095788955688,-0.04193827882409096,0.02694152481853962,0.0016085676616057754,0.1343449503183365,9.372674942016602
8.5,-0.08078687638044357,-0.04457546025514603,0.05045690760016441,-0.1123306080698967,0.1525631546974182,9.116501808166504
8.52,-0.051190078258514404,-0.03713947534561157,0.0565568171441555,-0.8021195530891418,0.1924431174993515,10.26512336730957
8.54,0.10011584311723709,0.0009695275221019983,0.05052581802010536,-1.3201298713684082,-0.12722428143024445,11.227871894836426
8.559999999999999,0.05707785487174988,-0.03010542504489422,0.052938420325517654,-1.1677355766296387,-0.2795267403125763,10.583065032958984
8.58,0.07174034416675568,-0.04564148560166359,0.04190288484096527,-1.1086974143981934,-0.35380491614341736,9.43941879272461
8.6,0.02174602635204792,0.02273312397301197,-0.0016433713026344776,-1.0932457447052002,-0.41354167461395264,8.94952392578125
8.620000000000001,0.0770108550786972,0.03577212616801262,-0.035458117723464966,-0.9326353669166565,0.034965090453624725,8.989117622375488
8.64,0.07140329480171204,-0.010395818389952183,-0.04282553121447563,0.33088237047195435,0.04253735765814781,9.449536323547363
8.66,0.046754106879234314,-0.04110446944832802,-0.014885623008012772,0.76931232213974,0.19843266904354095,10.284664154052734
8.68,0.04630451276898384,-0.01688738353550434,0.03300773352384567,0.8746165633201599,0.3207685947418213,10.742324829101562
8.7,0.06133763864636421,0.014506902545690536,0.06603550165891647,0.9780759811401367,0.2912878394126892,10.524954795837402
8.719999999999999,0.06329331547021866,-0.030388429760932922,0.060977183282375336,0.8512146472930908,0.43977802991867065,9.467157363891602
8.74,0.010953272692859173,-0.046986497938632965,0.03198869898915291,0.45457860827445984,0.8255754709243774,8.613861083984375
8.76,-0.05034666508436203,-0.017766471952199936,-0.0067866952158510685,-0.1271638572216034,1.1037181615829468,8.404919624328613
8.780000000000001,-0.04612181708216667,-0.037417180836200714,-0.04021287336945534,-0.33973515033721924,1.31907320022583,9.459002494812012
8.8,-0.07781682163476944,-0.05774465203285217,-0.05880960822105408,-0.30152344703674316,0.9938892722129822,10.685844421386719
8.82,-0.08762577176094055,-0.02675437740981579,-0.065858855843544,-0.21297580003738403,0.12686212360858917,10.522951126098633
8.84,-0.09465162456035614,0.02625364065170288,-0.04753449931740761,-0.4225553870201111,-0.47496774792671204,9.642663955688477
8.86,-0.06572983413934708,0.02584260329604149,-0.011942577548325062,-0.3920266330242157,-0.14444759488105774,9.194475173950195
8.879999999999999,-0.029193926602602005,-0.03287040814757347,0.039953943341970444,-0.18694525957107544,0.21362735331058502,9.709542274475098
8.9,-0.06555157899856567,-0.021972326561808586,0.0816037505865097,-0.23812730610370636,0.42062780261039734,10.504022598266602
8.92,-0.06766703724861145,0.004098325967788696,0.08216897398233414,-0.761339008808136,0.41014161705970764,11.405279159545898
8.940000000000001,-0.04957140237092972,0.053347524255514145,0.031742654740810394,-1.2076361179351807,0.2155570387840271,10.435221672058105
8.96,-0.04902280122041702,0.06340698152780533,-0.038834597915410995,-0.8222614526748657,0.08739011734724045,9.277801513671875
8.98,-0.053163427859544754,-0.010278003290295601,-0.07217728346586227,0.27651578187942505,0.312669038772583,8.806950569152832
9.0,0.05062074214220047,-0.049084484577178955,-0.07049744576215744,0.6523543000221252,-6.613227014895529e-05,8.905938148498535
9.02,0.03232060745358467,-0.05100639909505844,-0.0645349845290184,0.7829068303108215,-0.5868090987205505,9.299454689025879
9.04,0.06216740235686302,-0.043096959590911865,-0.044235751032829285,0.9009273052215576,-0.6280616521835327,9.529158592224121
9.059999999999999,0.010672890581190586,-0.09592735767364502,-0.051596689969301224,0.9482306241989136,-0.26730644702911377,10.055428504943848
9.08,0.0017185191391035914,-0.11662266403436661,-0.036676473915576935,0.3194572329521179,0.5259848833084106,10.652156829833984
9.1,0.035500023514032364,-0.03147141635417938,-0.011795605532824993,-0.6680014729499817,0.8096367120742798,9.786653518676758
9.120000000000001,0.03825671970844269,-0.010279468260705471,0.03779206797480583,-1.0107111930847168,0.1938629150390625,9.162280082702637
9.14,-0.017929499968886375,-0.03734140843153,0.05122574791312218,-1.0795706510543823,-0.29291653633117676,9.98328685760498
9.16,0.006336356047540903,-0.019873501732945442,0.04186756908893585,-1.0306273698806763,-0.14838182926177979,10.776140213012695
9.18,-0.014123779721558094,0.027048557996749878,0.008851434104144573,-0.623038113117218,0.3357636630535126,10.570582389831543
9.2,0.008437343873083591,0.03318621218204498,0.0028254971839487553,0.10627000778913498,0.7466766238212585,9.253523826599121
9.219999999999999,-0.023875512182712555,-0.006641570013016462,0.03454352170228958,0.6926795244216919,0.6541690230369568,8.760251998901367
9.24,-0.009442293085157871,-0.044896360486745834,0.04026145488023758,0.7696396708488464,0.646902322769165,9.58814811706543
9.26,-0.044533226639032364,-0.014954594895243645,0.044266846030950546,0.39005935192108154,0.2864149212837219,10.238414764404297
9.280000000000001,-0.03977370634675026,0.031797438859939575,0.033266328275203705,0.0014395867474377155,-0.22205372154712677,10.227372169494629
9.3,-0.02867441065609455,0.025614511221647263,0.020222702994942665,-0.2004932314157486,0.003235874930396676,10.023320198059082
9.32,-0.05728761479258537,0.00667727692052722,0.015268655493855476,-0.23440587520599365,0.5527902841567993,9.822186470031738
9.34,-0.020665425807237625,-0.038453955203294754,0.0255746990442276,-0.300285279750824,0.6084720492362976,9.878984451293945
9.36,-0.004852650687098503,-0.009715021587908268,0.030316470190882683,-0.19595672190189362,0.3021887540817261,9.8285551071167
9.379999999999999,-0.015209238044917583,0.028458181768655777,0.0006133834249339998,0.36547061800956726,0.23442085087299347,9.18755054473877
9.4,-0.02069963701069355,0.043582577258348465,-0.02257717400789261,0.6481353044509888,0.2036009430885315,9.466386795043945
9.42,-0.02380247786641121,0.03275355324149132,0.00025153293972834945,0.4494662284851074,0.166235089302063,9.693833351135254
9.440000000000001,0.018160855397582054,0.017695508897304535,0.024719063192605972,0.06300731748342514,-0.03493950515985489,9.686298370361328
9.46,-0.019021065905690193,-0.024426952004432678,0.027916690334677696,-0.1286270022392273,-0.08511382341384888,9.569578170776367
9.48,-0.003464555600658059,-0.03460271283984184,0.014722585678100586,0.048703812062740326,-0.02563224360346794,9.720192909240723
9.5,-0.08761068433523178,-0.053434617817401886,-0.015826625749468803,0.21534942090511322,0.4623393416404724,9.88249397277832
9.52,-0.09607232362031937,-0.030408121645450592,-0.03181502968072891,-0.10758286714553833,0.7227038741111755,9.913698196411133
9.54,-0.06764017790555954,-0.023222237825393677,-0.042984481900930405,-0.5737107396125793,0.6983667016029358,9.856477737426758
9.559999999999999,-0.03493911772966385,-0.015412213280797005,-0.03540671989321709,-1.078041672706604,0.06187766045331955,9.936779022216797
9.58,-0.04570019617676735,-0.016152117401361465,-0.005825138185173273,-0.9667555093765259,-0.33654364943504333,10.248068809509277
9.6,-0.005287960171699524,-0.01362565066665411,0.0297295693308115,-0.745653510093689,-0.3734707832336426,10.374591827392578
9.620000000000001,0.029855189844965935,0.012838805094361305,0.03772925212979317,-0.678005039691925,-0.43958351016044617,10.088578224182129
9.64,-0.038118887692689896,0.0129609489813447,0.03405376523733139,-0.5399747490882874,0.011929311789572239,9.578130722045898
9.66,-0.003222458763048053,-0.023087453097105026,0.013065804727375507,0.664903998374939,0.601949155330658,9.130524635314941
9.68,-0.03712012991309166,-0.031833089888095856,0.007631361484527588,1.2078227996826172,0.6189516186714172,9.2449951171875
9.7,0.005027840845286846,0.004641143139451742,0.0001055761385941878,1.1148779392242432,0.323473185300827,10.083733558654785
9.719999999999999,0.02602315880358219,0.009079794399440289,-0.020416174083948135,0.6994895935058594,0.043560415506362915,10.134148597717285
9.74,0.03859559819102287,-0.011834148317575455,-0.028013573959469795,0.09343332052230835,-0.13483589887619019,9.953539848327637
9.76,0.024884676560759544,-0.05098632723093033,-0.015185972675681114,-0.6021817922592163,-0.4105052947998047,10.007144927978516
9.780000000000001,0.0823553130030632,-0.00480625219643116,0.025181422010064125,-0.7306271195411682,-0.4009567201137543,9.66775894165039
9.8,0.05214261636137962,-0.005022517871111631,0.049100361764431,-0.26674649119377136,-0.31700223684310913,8.84634017944336
9.82,0.007269782014191151,-0.02693113498389721,0.019590318202972412,-0.13508392870426178,0.3204706311225891,9.155241012573242
9.84,0.004208672326058149,0.011471157893538475,-0.024988532066345215,-0.1790672242641449,1.0769926309585571,10.495179176330566
9.86,0.0017293334240093827,0.02331402152776718,-0.04865128919482231,0.39870914816856384,1.1664429903030396,10.79008674621582
9.879999999999999,-0.014224532060325146,0.015507145784795284,-0.04564819484949112,0.8182646036148071,0.3722439706325531,9.797196388244629
9.9,-0.009475110098719597,0.0074125113897025585,-0.0026898761279881,0.7668907046318054,-0.32217663526535034,8.917912483215332
9.92,-0.05623801052570343,0.0018466954352334142,0.031422968953847885,0.4000309705734253,-0.34179145097732544,9.293758392333984
9.940000000000001,-0.038297802209854126,-0.0018002690048888326,0.03197983652353287,-0.07071292400360107,0.24447564780712128,10.299960136413574
9.96,-0.035226479172706604,-0.02919517457485199,0.007350792642682791,-0.20701421797275543,0.4988822042942047,10.527851104736328
9.98,-0.09716985374689102,-0.047638773918151855,0.020121948793530464,-0.1865537315607071,0.6556432843208313,9.435124397277832
10.0,0.031436048448085785,-0.017472045496106148,0.04006749019026756,-0.5557166934013367,0.32806652784347534,8.9124116897583
10.02,0.035762056708335876,0.08278053253889084,0.05351513624191284,-1.1099543571472168,-0.2868936359882355,10.050593376159668
10.04,-0.03037349507212639,0.14344999194145203,0.06911451369524002,-1.007881999015808,-0.5589308738708496,10.83890438079834
10.059999999999999,-0.019672811031341553,0.08010710030794144,0.045365311205387115,-0.3718020021915436,-0.2124207615852356,10.743156433105469
10.08,0.015174518339335918,-0.015547607094049454,0.013338034972548485,0.4693465232849121,0.18510624766349792,9.163137435913086
10.1,0.026756854727864265,0.019035041332244873,-0.01135753933340311,1.0019092559814453,0.4582350254058838,8.330703735351562
10.120000000000001,0.05215366184711456,0.057873986661434174,-0.004271468613296747,1.3260353803634644,0.2718876004219055,8.922247886657715
10.14,0.077827587723732,0.01738203875720501,-0.013169635087251663,0.860880970954895,-0.3246437907218933,10.43451976776123
10.16,0.033252108842134476,-0.03950408101081848,-0.019468232989311218,-0.1860784888267517,0.1308269202709198,10.675029754638672
10.18,-0.0021540008019655943,-0.03185167908668518,-0.01398272905498743,-0.38176438212394714,0.1000678539276123,10.62122631072998
10.2,-0.00885091908276081,-0.002218862995505333,0.001018929178826511,-0.5071239471435547,0.15044592320919037,9.791515350341797
10.219999999999999,0.02181318961083889,0.005228924565017223,0.009040978737175465,-0.4700888395309448,0.5696300864219666,8.915721893310547
10.24,0.025385212153196335,0.014961381442844868,0.02457270212471485,-0.6779559850692749,0.45622414350509644,9.511059761047363
10.26,0.01923203654587269,0.0018089080695062876,0.004512153100222349,-0.7635324597358704,0.2849951386451721,10.476624488830566
10.280000000000001,-0.019288502633571625,-0.012781020253896713,-0.013289614580571651,-0.6615533232688904,0.5373215675354004,10.143986701965332
10.3,0.022410891950130463,0.023307019844651222,-0.026057951152324677,-0.5883535742759705,0.519584596157074,9.479318618774414
10.32,-0.044053979218006134,0.04727794602513313,-0.022738004103302956,-0.4131285846233368,-0.177057147026062,9.628711700439453
10.34,0.018052300438284874,0.005651125684380531,-0.002241540467366576,0.08676658570766449,-0.25400450825691223,9.972668647766113
10.36,-0.06223200261592865,-0.03256428241729736,0.031337227672338486,0.29574137926101685,0.23708634078502655,10.142234802246094
10.379999999999999,-0.0030812774784862995,-0.0002837807114701718,0.009800281375646591,0.6347283720970154,0.2546830475330353,9.737414360046387
10.4,-0.039796579629182816,0.00020315128494985402,-0.01668432727456093,0.8350765109062195,0.4427456855773926,9.142117500305176
10.42,-0.07939654588699341,-0.015205773524940014,-0.04196508973836899,0.423270046710968,0.6140093803405762,9.284271240234375
10.440000000000001,-0.032310668379068375,0.009770686738193035,-0.013783089816570282,-0.12645713984966278,0.21623539924621582,9.91524600982666
10.46,0.03287401795387268,0.03399428352713585,0.028812579810619354,-0.2974376380443573,-0.4931488633155823,10.54915714263916
10.48,0.021659810096025467,-0.001916751149110496,0.05908394232392311,-0.23028482496738434,-0.7105593681335449,10.152241706848145
10.5,-0.009085724130272865,-0.03032114915549755,0.07090078294277191,-0.24326103925704956,-0.2738135755062103,9.760028839111328
10.52,0.1122012808918953,-0.010414534248411655,0.05286528915166855,-0.2899838089942932,0.06675589829683304,9.796147346496582
10.54,0.0578119121491909,0.013585157692432404,0.016933301463723183,-0.03342469409108162,0.34277093410491943,9.410057067871094
10.56,0.08121811598539352,0.002637795638293028,-0.0314282551407814,0.09039964526891708,0.566040575504303,9.319034576416016
10.58,-0.01045137643814087,-0.008552477695047855,-0.04799523949623108,-0.16822369396686554,0.5913755297660828,9.789841651916504
10.6,-0.043547503650188446,-0.019579920917749405,-0.05470193549990654,-0.2401995211839676,0.6781803965568542,10.51754093170166
10.620000000000001,0.001362376962788403,-0.021218515932559967,-0.01657412387430668,-0.03372218832373619,0.20181860029697418,10.293355941772461
10.64,-0.0074313934892416,-0.07505892962217331,0.013538763858377934,0.12769387662410736,-0.10714493691921234,9.776508331298828
10.66,0.01837959513068199,-0.10721176117658615,0.016754139214754105,0.08823593705892563,-0.12157981097698212,9.419414520263672
10.68,0.020387930795550346,-0.10716798156499863,0.016170240938663483,0.11075881868600845,0.16380760073661804,9.138010025024414
10.7,-0.0290948748588562,-0.08591187745332718,-0.008873993530869484,-0.019397549331188202,0.29950037598609924,9.444457054138184
10.72,-0.08126582205295563,-0.019921062514185905,-0.033449020236730576,-0.2927394211292267,0.5321949124336243,9.994558334350586
10.74,-0.10681819915771484,0.0017899925587698817,-0.021344944834709167,-0.36861222982406616,0.8038343191146851,10.075020790100098
10.76,-0.020488103851675987,0.013509788550436497,-0.009271599352359772,-0.2871663272380829,0.5922492742538452,10.288671493530273
10.780000000000001,-0.01705462858080864,0.0007497275364585221,0.05174186825752258,-0.32288578152656555,-0.22002476453781128,9.672443389892578
10.8,0.021649351343512535,0.018383216112852097,0.07784612476825714,-0.29343751072883606,-0.682306170463562,9.360079765319824
10.82,-0.03766072168946266,0.06177598237991333,0.050720516592264175,0.17700302600860596,-0.5057014226913452,10.029770851135254
10.84,0.0033377117943018675,0.08045085519552231,0.014057096093893051,0.5250999927520752,-0.18567997217178345,10.183125495910645
10.86,0.010403075255453587,0.07236148416996002,-0.0028420963790267706,0.6727283000946045,0.055746328085660934,9.684475898742676
10.879999999999999,0.08968706429004669,0.029740268364548683,-0.004796577151864767,0.6623249053955078,0.09625201672315598,8.9240083694458
10.9,0.04111575335264206,0.012917793355882168,0.002197964582592249,0.44967788457870483,-0.017922446131706238,9.224372863769531
10.92,0.07609980553388596,-0.0030424606520682573,0.028386205434799194,0.13205675780773163,-0.10057701915502548,10.627754211425781
10.94,0.04059486463665962,-0.025211431086063385,0.02951800264418125,-0.12364234030246735,0.3535538613796234,11.012547492980957
10.96,0.047558948397636414,-0.056676317006349564,0.04660985246300697,-0.08932840079069138,0.39534056186676025,10.483182907104492
10.98,0.024706218391656876,-0.06805840879678726,0.02904079109430313,0.07686792314052582,0.07015608996152878,9.274807929992676
11.0,0.0013861518818885088,-0.11042790114879608,0.008496816270053387,0.10893090069293976,0.18884313106536865,7.784980773925781
11.02,-0.00535806268453598,-0.09044327586889267,-0.010093003511428833,-0.20532923936843872,0.5574443340301514,7.821419715881348
11.04,-0.010647880844771862,-0.0678519755601883,-0.014621200039982796,-0.6284942030906677,0.9258253574371338,9.287805557250977
11.06,-0.03716820105910301,-0.03606291860342026,-0.015534386970102787,-0.7937347292900085,1.19320809841156,10.998452186584473
11.08,-0.05275214836001396,0.007206218782812357,-0.018554415553808212,-0.6882653832435608,0.947500467300415,11.735267639160156
11.1,0.019480859860777855,0.00859137810766697,-0.006883217487484217,-0.4343130588531494,0.01057501696050167,10.788091659545898
11.120000000000001,-0.04124683141708374,-0.01219270285218954,0.012082586996257305,-0.3111656606197357,-0.6611766219139099,9.494462966918945
11.14,-0.01687905564904213,0.009258641861379147,0.017912298440933228,-0.12424242496490479,-0.6172632575035095,8.741744995117188
11.16,-0.011334416456520557,0.07372280210256577,0.025220315903425217,0.3698195219039917,0.0118325250223279,9.009642601013184
11.18,-0.005819152574986219,0.07046709954738617,0.0017519312677904963,1.1972037553787231,0.5049859881401062,9.89638900756836
11.2,-0.053355686366558075,0.02112927846610546,-0.01017171610146761,1.2979724407196045,0.8602907657623291,10.160942077636719
11.22,-0.010471750050783157,0.002259050263091922,-0.024015352129936218,0.9217669367790222,0.6712177395820618,10.117101669311523
11.24,-0.011544883251190186,0.02293788641691208,-0.0024553232360631227,0.3080683946609497,-0.2261437475681305,10.393256187438965
11.26,-0.00971237849444151,0.003256272990256548,0.04132062569260597,-0.05913215130567551,-0.9809774160385132,10.255577087402344
11.280000000000001,-0.002861146815121174,-0.03259451314806938,0.050559382885694504,-0.42619818449020386,-0.3664140999317169,9.579591751098633
11.3,0.018253402784466743,-0.03906392306089401,0.03772273287177086,-0.42104512453079224,-0.0621415339410305,9.103693962097168
11.32,0.029185136780142784,0.012346633709967136,0.03460117429494858,-0.4309310019016266,0.38004839420318604,9.626194953918457
11.34,0.041432660073041916,0.03521234542131424,-0.0012309345183894038,-0.474423348903656,0.830807089805603,9.777377128601074
11.36,0.07066840678453445,0.019500020891427994,-0.005499052815139294,-0.4991198480129242,0.6795610785484314,9.760306358337402
11.379999999999999,0.041068896651268005,-0.007172692101448774,-0.008646879345178604,-0.2800709903240204,0.24240347743034363,9.983290672302246
11.4,-0.0132988216355443,-0.04623161628842354,-0.02594509720802307,-0.25238168239593506,0.05523242428898811,10.137948036193848
11.42,0.04976022616028786,-0.03938741981983185,-0.02770783193409443,0.015743838623166084,0.19303695857524872,9.979208946228027
11.44,0.03229032829403877,-0.06173016130924225,-0.012308718636631966,0.34906694293022156,0.08365627378225327,9.451087951660156
11.46,0.022195536643266678,-0.07450515776872635,-0.00031905696960166097,0.32273992896080017,0.18622875213623047,9.372515678405762
11.48,-0.031863659620285034,-0.031157996505498886,0.0080018425360322,-0.01992962136864662,0.18020960688591003,10.545735359191895
11.5,-0.01706760935485363,-0.006293880753219128,0.012077334336936474,0.17619164288043976,0.24987170100212097,10.589115142822266
11.52,-0.0038543373811990023,-0.055901557207107544,0.013501493260264397,0.3940400183200836,0.5031940340995789,9.66612434387207
11.54,-0.01143931970000267,-0.06037827953696251,0.017086181789636612,0.37147223949432373,0.36999571323394775,9.031042098999023
11.56,0.01323604304343462,-0.007785516325384378,0.007884582504630089,0.26125937700271606,-0.0905781090259552,8.855072021484375
11.58,0.0656525194644928,0.06242972984910011,-0.010249592363834381,0.2518734037876129,-0.311354398727417,9.11046028137207
11.6,0.006346126552671194,0.09035806357860565,-0.028952106833457947,0.07951607555150986,0.05769528076052666,9.893872261047363
11.620000000000001,-0.0390816368162632,0.08986265957355499,-0.0406363420188427,-0.12320725619792938,0.6561577916145325,10.824395179748535
11.64,-0.012828180566430092,0.07158084213733673,-0.04487478360533714,-0.08618522435426712,0.7139289379119873,11.236464500427246
11.66,-0.012848427519202232,0.08225669711828232,-0.014560824260115623,0.42216479778289795,0.38318338990211487,10.089864730834961
11.68,0.03870825842022896,0.12337090075016022,0.011772697791457176,0.6713572144508362,-0.4265936017036438,9.138221740722656
11.7,0.058663275092840195,0.13804250955581665,0.026030810549855232,0.560408890247345,-0.5824567675590515,9.082045555114746
11.72,0.025925690308213234,0.08286524564027786,0.024654466658830643,0.2202264666557312,-0.1371697336435318,9.533504486083984
11.74,0.04413946717977524,0.01665310002863407,0.013687413185834885,-0.10953328013420105,0.6644052267074585,10.763328552246094
11.76,0.01680934615433216,-0.010749634355306625,-0.005090643651783466,-0.25789639353752136,1.2760565280914307,10.387383460998535
11.780000000000001,0.07963263243436813,-0.0016433880664408207,-0.0019504636293277144,0.006699339486658573,1.0103737115859985,9.291516304016113
11.8,0.02001762203872204,-0.025072438642382622,-0.03517334163188934,-0.04745164513587952,0.00030984473414719105,8.006523132324219
11.82,-0.06876137852668762,-0.07285360246896744,-0.07448574900627136,-0.45191577076911926,-0.10514359176158905,8.748880386352539
11.84,0.013997511938214302,-0.050886232405900955,-0.06931253522634506,-0.9553530216217041,0.12970127165317535,10.990626335144043
11.86,0.01648702844977379,0.0009090128005482256,-0.027929656207561493,-1.1782405376434326,-0.22194229066371918,11.265357971191406
11.879999999999999,-0.0021491015795618296,-0.01131576206535101,0.007249611429870129,-0.7594165205955505,0.3891257047653198,9.958090782165527
11.9,0.057131584733724594,-0.02777070552110672,0.03695327416062355,-0.49522584676742554,0.44925618171691895,8.939395904541016
11.92,-0.03625481575727463,0.011390100233256817,0.024696042761206627,-0.5967724323272705,0.38556990027427673,9.09492301940918
11.94,-0.037652138620615005,0.0992247611284256,-0.008159869350492954,-0.5622273087501526,0.6220470666885376,9.950241088867188
11.96,-0.05169793218374252,0.03807976096868515,-0.054610367864370346,0.33851197361946106,0.4192323386669159,10.180931091308594
11.98,-0.014583351090550423,-0.040469225496053696,-0.0518193244934082,1.0250961780548096,0.38265809416770935,10.436980247497559
12.0,-0.032317277044057846,0.021464135497808456,-0.014458036050200462,1.2374327182769775,0.1978408247232437,10.449877738952637
12.02,-0.019236337393522263,0.05645441636443138,0.00275070546194911,1.2039227485656738,0.00031921881600283086,10.165664672851562
12.04,0.00024422231945209205,0.019165469333529472,0.016025803983211517,0.6580233573913574,0.2755606174468994,9.11868953704834
12.06,-0.009916342794895172,-0.009539333172142506,0.028742045164108276,-0.028918948024511337,0.36786407232284546,8.758756637573242
12.08,-0.010915691033005714,-0.04502646252512932,0.03565565124154091,-0.4523811340332031,0.39915192127227783,9.624884605407715
12.1,0.030573148280382156,-0.016727054491639137,0.038392700254917145,-0.18930648267269135,0.14452926814556122,9.819613456726074
12.120000000000001,0.047530192881822586,-0.007957770489156246,0.026720885187387466,-0.015060867182910442,-0.4865012466907501,9.501102447509766
12.14,0.0016523144440725446,-0.05453900247812271,-0.020374303683638573,0.09206291288137436,-0.5442773699760437,9.306246757507324
12.16,0.036774616688489914,-0.09292034804821014,-0.04409952461719513,-0.12120043486356735,0.2413185089826584,9.541963577270508
12.18,0.01810505799949169,-0.027094729244709015,-0.07091624289751053,-0.5003964900970459,0.7866611480712891,10.320457458496094
12.2,0.005040612071752548,0.0013571465387940407,-0.05159442499279976,-0.6694075465202332,0.8820794820785522,10.407649993896484
12.22,0.023326043039560318,-0.01910714991390705,-0.028210490942001343,-0.7687550187110901,0.37907570600509644,10.134029388427734
12.24,-0.024834251031279564,-0.048934206366539,0.014637088403105736,-0.48504137992858887,0.09693402051925659,9.906112670898438
12.26,-0.030179385095834732,-0.04638281092047691,0.04256461560726166,-0.2926734685897827,0.06611737608909607,9.682085990905762
12.280000000000001,-0.03004402481019497,-0.022918691858649254,0.029611431062221527,-0.3047513961791992,0.25343212485313416,9.129020690917969
12.3,-0.028453262522816658,-0.018586888909339905,0.0035028320271521807,-0.4548242688179016,0.3220602869987488,9.750089645385742
12.32,-0.05228418856859207,-0.04785866662859917,-0.013186478056013584,-0.5431126356124878,0.5639554858207703,10.6256685256958
12.34,-0.026936355978250504,-0.030342360958456993,-0.01940321922302246,-0.01758847013115883,0.5231133699417114,10.333355903625488
12.36,-0.021976903080940247,0.007386025972664356,0.002563929883763194,0.42650991678237915,0.3296911418437958,9.303047180175781
12.379999999999999,0.013909822329878807,-0.004313749726861715,0.028795786201953888,0.7523541450500488,0.02274482324719429,9.198156356811523
12.4,0.006039970088750124,-0.035929083824157715,0.03847026824951172,0.9679333567619324,-0.01581716723740101,9.868375778198242
12.42,-0.025337178260087967,-0.06245387718081474,0.0382198840379715,0.9657358527183533,-0.1098862960934639,10.01888370513916
12.44,0.03283194079995155,-0.04376306012272835,0.020335596054792404,0.44807153940200806,-0.22199559211730957,9.972853660583496
12.46,0.06115957349538803,0.025060975924134254,0.017679903656244278,-0.097429059445858,-0.08953660726547241,10.188392639160156
12.48,0.041326455771923065,0.03738896921277046,0.01396902184933424,-0.1016852930188179,0.21148957312107086,10.013084411621094
12.5,0.06879779696464539,0.02066774107515812,-0.004656407982110977,-0.0365603044629097,0.19725900888442993,9.462657928466797
12.52,0.022514445707201958,0.018890665844082832,-0.0025220783427357674,0.02930579148232937,0.17509868741035461,9.1326322555542
12.54,0.034481730312108994,0.04469664394855499,0.01540274079889059,0.3758476674556732,0.378773957490921,9.258909225463867
12.56,0.009192648343741894,0.03664416819810867,0.035599954426288605,0.4842376708984375,0.3776847720146179,9.912731170654297
12.58,-0.030042478814721107,0.05378235876560211,0.04703046754002571,0.1620793640613556,0.2602561414241791,10.454221725463867
12.6,-0.08368033915758133,0.0489005409181118,0.016682669520378113,0.007198638748377562,0.5884783267974854,10.371166229248047
12.620000000000001,-0.0005655406275764108,0.013383635319769382,0.007682884112000465,0.02034592255949974,0.5025560259819031,9.71988296508789
12.64,0.01868864893913269,-0.043440770357847214,0.023917993530631065,-0.19979414343833923,0.32668861746788025,9.474595069885254
12.66,-0.014951217919588089,-0.07967891544103622,0.019033826887607574,-0.08724309504032135,0.2690397799015045,9.362300872802734
12.68,0.0010972252348437905,-0.08478454500436783,-0.015085546299815178,0.005278171971440315,0.3436700105667114,9.468903541564941
12.7,-0.03494868054986,-0.10132052004337311,-0.06716454774141312,-0.0993567407131195,0.5292861461639404,10.118026733398438
12.72,-0.04656411334872246,-0.06948830187320709,-0.07890041172504425,-0.6044716238975525,0.4547479450702667,10.154728889465332
12.74,0.0072081428952515125,0.012847309932112694,-0.041366737335920334,-1.0210994482040405,0.26729828119277954,9.766818046569824
12.76,-0.0037544947117567062,0.04693344235420227,0.022062206640839577,-0.9342248439788818,-0.07451161742210388,9.299180030822754
12.78,0.00772217707708478,0.018099576234817505,0.05953386053442955,-0.8931251168251038,-0.015909753739833832,9.552071571350098
12.8,0.0035212095826864243,-0.018660588189959526,0.06877728551626205,-0.21472859382629395,-0.024534927681088448,9.906181335449219
12.82,-0.016925688832998276,-2.1776720586785814e-06,0.041828304529190063,0.8824077248573303,0.16853678226470947,10.856337547302246
12.84,0.007321268320083618,0.008682869374752045,0.008821331895887852,1.674913763999939,0.3976653218269348,10.718188285827637
12.86,-0.03528871759772301,0.006054798141121864,-0.016360240057110786,1.8628712892532349,0.4444233179092407,8.96790885925293
12.88,0.0001195130025735125,0.0007587049040012062,-0.007881063036620617,1.2429533004760742,0.1244821697473526,7.879189491271973
12.9,0.031101595610380173,-0.003827056149020791,0.013628268614411354,0.4153924584388733,-0.12829595804214478,8.282233238220215
12.92,-0.04874442517757416,0.014301484450697899,0.00488449027761817,-0.21353259682655334,0.43505531549453735,10.326462745666504
12.94,0.04061723127961159,0.020119696855545044,0.003868872532621026,-0.29411572217941284,0.9844420552253723,11.175765991210938
12.96,-0.01923130638897419,0.02170611172914505,-0.0010072060395032167,-0.41441354155540466,0.8500041365623474,10.329608917236328
12.98,0.014971091412007809,0.021937213838100433,0.010229081846773624,-0.41693007946014404,0.2079247534275055,9.824079513549805
13.0,0.05355781689286232,0.028927577659487724,0.010003253817558289,-0.6730208992958069,-0.7130873799324036,9.82552433013916
13.02,0.06540784984827042,0.041128262877464294,0.013186625204980373,-0.45034903287887573,-0.7457727193832397,10.143560409545898
13.04,0.019548077136278152,0.0066444952972233295,0.007761748041957617,-0.14289498329162598,-0.22558462619781494,9.925329208374023
13.06,0.07318466156721115,-0.020008742809295654,0.008067413233220577,-0.010500653646886349,0.596453845500946,9.343705177307129
13.08,0.037000250071287155,-0.0024769094306975603,0.003424242604523897,-0.07516145706176758,0.73516845703125,9.329408645629883
13.1,0.035380732268095016,0.038401566445827484,-0.0014532423811033368,-0.3103080987930298,0.9084620475769043,10.101204872131348
13.120000000000001,0.06729888170957565,0.030394095927476883,-0.006747567094862461,-0.4489900469779968,0.36773020029067993,10.310629844665527
13.14,0.04198122397065163,0.003613560926169157,-0.0054802377708256245,-0.2816280722618103,-0.04264388233423233,10.048571586608887
13.16,-0.0006617981125600636,-0.04086733236908913,0.012426961213350296,0.28598132729530334,0.14682626724243164,9.469725608825684
13.18,0.01300065778195858,-0.06021648272871971,0.03300800174474716,0.6416329145431519,0.26333364844322205,9.280349731445312
13.2,-0.031204603612422943,-0.038956720381975174,0.007424462120980024,0.6779258847236633,0.3436505198478699,9.424378395080566
13.22,-0.02674718201160431,-0.02430829592049122,-0.038296572864055634,0.47012466192245483,0.7954832315444946,9.43836498260498
13.24,-0.0495920330286026,-0.026124227792024612,-0.053515177220106125,0.14959295094013214,0.9174081683158875,10.122992515563965
13.26,-0.03408928960561752,-0.054587725549936295,-0.046035684645175934,0.08384457975625992,0.49737733602523804,10.40224838256836
13.28,-0.06198800355195999,-0.025667058303952217,-0.008686515502631664,-0.01394074596464634,0.4205872416496277,10.314922332763672
13.3,0.008464640006422997,0.024564484134316444,0.032091304659843445,-0.28292638063430786,0.0830216035246849,9.647592544555664
13.32,-0.060712262988090515,0.03728240728378296,0.06049420312047005,-0.35542458295822144,-0.13463298976421356,9.216090202331543
13.34,-0.009742283262312412,0.024799175560474396,0.07408846169710159,-0.29143351316452026,0.2279685139656067,9.189529418945312
13.36,-0.00616535684093833,0.009609797969460487,0.04972998797893524,0.24670040607452393,0.40379464626312256,9.5324125289917
13.38,-0.010926957242190838,0.003965539857745171,-0.006553875748068094,0.620266318321228,0.3628320097923279,9.941450119018555
13.4,0.03917720168828964,0.04946635663509369,-0.035464201122522354,0.5509403944015503,0.13141769170761108,10.174139976501465
13.42,0.09002864360809326,0.0710095539689064,-0.045864321291446686,0.5054508447647095,-0.20015504956245422,10.196998596191406
13.44,0.04689069092273712,0.02360215224325657,-0.01806027628481388,0.22894889116287231,-0.2888130843639374,10.13170051574707
13.46,0.04508843645453453,-0.008748576045036316,0.025205133482813835,-0.2785932123661041,0.10583224892616272,9.463104248046875
13.48,0.07194747030735016,0.026848137378692627,0.02420276217162609,-0.3706488609313965,0.4381945729255676,9.210808753967285
13.5,0.07591499388217926,0.03966126963496208,0.020948998630046844,-0.3656691908836365,0.4429967701435089,9.855649948120117
13.52,-0.01225528959184885,0.029731720685958862,-0.01026078686118126,-0.41750428080558777,0.80128413438797,10.488560676574707
13.54,0.00978640466928482,0.043395016342401505,-0.023679103702306747,-0.41862455010414124,1.040528655052185,10.70323657989502
13.56,0.03015119768679142,0.025557896122336388,-0.030729003250598907,-0.1301335245370865,0.3213362395763397,9.486391067504883
13.58,0.0044104414992034435,-0.017303001135587692,-0.008097912184894085,0.27354109287261963,-0.15374143421649933,8.920355796813965
13.6,0.006272206548601389,-0.01884154975414276,0.015490645542740822,0.4781394600868225,0.20252905786037445,9.260858535766602
13.620000000000001,-0.09623896330595016,-0.06008099019527435,0.027886660769581795,0.3828975260257721,0.589405357837677,9.786938667297363
13.64,-0.06454294174909592,-0.06343208998441696,0.014057429507374763,-0.013225680217146873,0.9397428631782532,10.007246017456055
13.66,-0.08719965070486069,-0.03950788825750351,0.012049497105181217,-0.24520757794380188,0.9791584610939026,10.214885711669922
13.68,0.012028717435896397,0.005390423350036144,0.01578754559159279,-0.42508071660995483,0.45382776856422424,10.168499946594238
13.7,-0.021760016679763794,0.006004785653203726,0.01404561661183834,-0.38803091645240784,-0.11147413402795792,9.63036823272705
13.72,-0.02246282249689102,-0.0047831544652581215,0.014911740086972713,-0.3956005871295929,-0.42038509249687195,9.153398513793945
13.74,-0.0040756287053227425,0.0037596651818603277,-0.002852092031389475,-0.29711055755615234,-0.37732723355293274,10.08462142944336
13.76,0.025634394958615303,0.059701867401599884,-0.009702898561954498,0.3263882100582123,-0.10264865309000015,10.757405281066895
13.78,0.032794639468193054,0.027011407539248466,-0.004506825469434261,0.924266517162323,0.5576011538505554,10.583324432373047
13.8,0.07237572222948074,-0.0030289606656879187,0.008429642766714096,0.9484403133392334,0.45274171233177185,9.593263626098633
13.82,0.07297644764184952,-0.00440165214240551,0.011250908486545086,0.6119000911712646,0.41556116938591003,8.285811424255371
13.84,0.0994872897863388,-0.0007186068105511367,0.0348176546394825,0.36109673976898193,0.17860667407512665,8.386709213256836
13.86,0.09775736927986145,-0.009295531548559666,0.04057773947715759,0.19189634919166565,-0.20529736578464508,9.705078125
13.88,0.011592088267207146,-0.010958818718791008,0.036359649151563644,-0.2434965968132019,0.4149966835975647,11.127150535583496
13.9,0.004101933911442757,-0.016847090795636177,0.007837390527129173,-0.8608119487762451,0.8668883442878723,10.802074432373047
13.92,-0.03157828003168106,-0.01157366018742323,-0.026102418079972267,-0.7526324391365051,0.8056814670562744,9.493896484375
13.94,-0.012723150663077831,-0.0013615782372653484,-0.0344046987593174,-0.5652675628662109,0.7241197824478149,8.958300590515137
13.96,-0.0006243850220926106,-0.03733839467167854,-0.045528002083301544,-0.397746741771698,0.7159265279769897,9.556224822998047
13.98,-0.04617705196142197,-0.03433491662144661,-0.019167117774486542,-0.30299532413482666,0.6439061164855957,10.248806953430176
14.0,-0.0697653740644455,-0.01641613431274891,0.017994193360209465,-0.11188210546970367,0.353136271238327,10.510564804077148
14.02,-0.0570702999830246,0.003935467917472124,0.04631806164979935,0.1032029539346695,0.13589851558208466,9.655187606811523
14.040000000000001,-0.02153615839779377,-0.015165512450039387,0.0539952889084816,0.46296218037605286,0.23157191276550293,8.63552474975586
14.06,-0.05711812153458595,-0.06509043276309967,0.031506117433309555,0.5410011410713196,0.2706077992916107,9.125812530517578
14.08,0.03318048268556595,-0.08461547642946243,-0.0078042191453278065,0.13662026822566986,0.15098588168621063,10.981446266174316
14.1,-0.03369692713022232,-0.022168943658471107,-0.018870066851377487,-0.12269245088100433,-0.18057139217853546,10.943809509277344
14.120000000000001,-0.04214322194457054,0.027846919372677803,-0.024081159383058548,-0.6632881760597229,0.03435080125927925,10.036789894104004
14.14,0.021727873012423515,0.05122806876897812,-0.022075364366173744,-0.6613531708717346,0.16500191390514374,8.75831413269043
14.16,0.0703168511390686,0.041799161583185196,-0.004335553850978613,-0.45646777749061584,0.08236439526081085,8.537568092346191
14.18,0.08496324717998505,0.033475954085588455,0.04337729513645172,-0.5131007432937622,-0.08906859159469604,8.891345977783203
14.2,0.08693662285804749,0.07781617343425751,0.06953536719083786,-0.742633581161499,0.0021648353431373835,10.139715194702148
14.22,0.07065257430076599,0.10968316346406937,0.04543451964855194,-0.34076204895973206,0.5282256603240967,10.92642593383789
14.24,0.05066552385687828,0.08540946245193481,-0.011731265112757683,-0.38494643568992615,0.7848736047744751,10.287198066711426
14.26,0.05532015860080719,0.07129489630460739,-0.025617513805627823,-1.5665942430496216,0.7016463875770569,9.366167068481445
14.28,0.011425827629864216,0.11002626270055771,-0.03065728023648262,-3.4555156230926514,0.3846680223941803,9.37868595123291
14.3,0.04071557894349098,0.1520715057849884,-0.07454880326986313,-4.558135509490967,0.774700939655304,10.846193313598633
14.32,0.04712720587849617,0.156534343957901,-0.08099734783172607,-4.96455192565918,0.9017860293388367,10.86854076385498
14.34,0.02760096825659275,0.13161388039588928,-0.042475830763578415,-4.5939226150512695,1.013485312461853,9.730582237243652
14.36,0.026458758860826492,0.10773858428001404,0.0037895350251346827,-3.7204577922821045,0.5826022624969482,8.847977638244629
14.38,-0.02061994932591915,0.026425451040267944,0.024351922795176506,-1.6814364194869995,-0.025464391335844994,8.648679733276367
14.4,-0.026192637160420418,-0.08941169083118439,0.04563147574663162,0.32335373759269714,-0.20246268808841705,8.413050651550293
14.42,-0.043278709053993225,-0.19684617221355438,0.06421998143196106,0.8961510062217712,-0.2509705126285553,8.727572441101074
14.44,-0.09511969238519669,-0.25413432717323303,0.035307496786117554,0.19963718950748444,0.47918957471847534,9.854604721069336
14.46,-0.03350628539919853,-0.23175334930419922,0.009281777776777744,-0.5272799730300903,1.6100635528564453,12.007015228271484
14.48,-0.014249545522034168,-0.1032194197177887,-0.014625312760472298,-0.5753421187400818,1.0121495723724365,11.468677520751953
14.5,-0.05397240072488785,-0.07045651227235794,-0.017730791121721268,-0.9386674761772156,0.35922104120254517,9.464550018310547
14.52,-0.009766587056219578,-0.1507246345281601,0.0061896853148937225,-1.3486354351043701,-0.3853887915611267,8.839174270629883
14.540000000000001,-0.006440543569624424,-0.1210826113820076,0.017155610024929047,-0.8720183968544006,-0.5008914470672607,9.600602149963379
14.56,0.026908427476882935,0.06430790573358536,0.01585274003446102,-0.3131557106971741,0.157570943236351,10.068367004394531
14.58,0.031418610364198685,0.12830594182014465,0.01602974347770214,-0.15434956550598145,0.46887439489364624,9.367887496948242
14.6,0.00017496013606432825,0.0629383847117424,-0.013736076653003693,1.2361609935760498,0.6434529423713684,10.19250774383545
14.620000000000001,-0.00491618225350976,0.004200056195259094,-0.058878038078546524,2.4373300075531006,0.8685786128044128,10.13036060333252
14.64,0.005487238988280296,0.0547388456761837,-0.06187024340033531,2.752547264099121,0.5236652493476868,9.970877647399902
14.66,0.022427912801504135,0.07093017548322678,0.0025162221863865852,2.1781363487243652,-0.099303238093853,9.390758514404297
