time,gyrX,gyrY,gyrZ,accX,accY,accZ
0.0,0.07088065147399902,-0.04286394268274307,-0.004266392905265093,-0.067703016102314,0.1408362090587616,9.86716365814209
0.02,0.015796232968568802,-0.024171879515051842,0.01335223950445652,-0.08798027038574219,0.26272550225257874,9.754950523376465
0.04,0.04082592576742172,-0.018736733123660088,0.012337288819253445,-0.6016249060630798,0.2595314383506775,10.104670524597168
0.06,0.039614204317331314,-0.015650548040866852,0.01595318131148815,-0.9308124780654907,0.25835639238357544,10.329343795776367
0.08,0.0665147602558136,-0.028360769152641296,0.006319744978100061,-0.8845828771591187,0.32898828387260437,10.390970230102539
0.1,0.07909288257360458,-0.02803884446620941,0.01851418800652027,-0.9156486988067627,0.20613542199134827,10.195562362670898
0.12,0.030556784942746162,-0.01500706747174263,0.024298731237649918,-0.736500084400177,-0.2344597429037094,9.332232475280762
0.14,0.04725869745016098,-0.024801718071103096,0.025617077946662903,0.23239049315452576,-0.476947158575058,9.14098072052002
0.16,0.11686768382787704,-0.07281693071126938,0.009052420035004616,1.055637240409851,-0.32396140694618225,9.58719253540039
0.18,0.09479866176843643,-0.06705395877361298,-0.008363739587366581,1.2363253831863403,-0.29356762766838074,9.788798332214355
0.2,0.13173387944698334,-0.0016830412205308676,-0.03606566786766052,1.0356709957122803,-0.2551271915435791,10.213383674621582
0.22,0.07950510084629059,0.04093405231833458,-0.061902664601802826,1.0265311002731323,0.02522970363497734,10.165444374084473
0.24,0.08023691922426224,0.03288281336426735,-0.07385233044624329,0.9568098783493042,0.40409091114997864,9.179701805114746
0.26,0.011894327588379383,0.025694794952869415,-0.06778273731470108,0.9300351142883301,0.8133034110069275,8.74357795715332
0.28,0.00995827279984951,0.045795220881700516,-0.06595846265554428,0.9250639081001282,1.1010936498641968,8.711856842041016
0.3,0.012164809741079807,0.08915640413761139,-0.007477447856217623,1.0899099111557007,0.9301359057426453,9.327062606811523
0.32,0.036948591470718384,0.08695216476917267,0.04776415601372719,0.950339138507843,0.21727177500724792,9.867995262145996
0.34,0.0017818950582295656,0.0811251625418663,0.050607070326805115,0.6381711363792419,-0.4548511803150177,10.908493995666504
0.36,-0.020975956693291664,0.10039183497428894,0.006125365383923054,0.12953916192054749,-0.30697205662727356,10.790714263916016
0.38,0.020656036213040352,0.09432001411914825,-0.02941753901541233,0.09835310280323029,0.3421146273612976,9.065672874450684
0.4,0.036025095731019974,0.030270187184214592,-0.03511273115873337,0.08665734529495239,0.4641623795032501,8.318177223205566
0.42,-0.05178558826446533,0.004414665047079325,-0.043424494564533234,0.043052852153778076,0.22543570399284363,9.179555892944336
0.44,-0.08095937222242355,0.01416306383907795,-0.04878001660108566,-0.3294086456298828,0.18378721177577972,10.607613563537598
0.46,-0.09905138611793518,0.047023821622133255,-0.044734418392181396,-0.587775707244873,0.5890712141990662,10.927361488342285
0.48,-0.11332454532384872,0.044947389513254166,-0.0301126167178154,-0.6986522078514099,0.8540565967559814,10.563591003417969
0.5,-0.04454014450311661,0.04043612256646156,-0.0015562628395855427,-0.5058718323707581,0.519201397895813,9.95053768157959
0.52,-0.07156055420637131,0.04631970822811127,-0.01191125437617302,-0.2578253746032715,-0.2509050667285919,8.656580924987793
0.54,-0.11879299581050873,0.05853914096951485,-0.006498701870441437,-0.2514175772666931,-0.5448534488677979,9.083287239074707
0.56,-0.022550370544195175,0.07381977140903473,-0.00853880774229765,-0.6113092303276062,-0.5911270380020142,10.684444427490234
0.58,0.015206427313387394,0.05760285258293152,0.0016654209466651082,-0.33905351161956787,-0.5175744891166687,10.993903160095215
0.6,0.03523803502321243,0.06083539500832558,-0.006481500808149576,0.20145441591739655,-0.31838327646255493,10.112874984741211
0.62,-0.02564902789890766,0.09848339855670929,-0.009668036364018917,0.42415642738342285,-0.06971077620983124,9.805641174316406
0.64,0.03320841118693352,0.040185410529375076,0.023429356515407562,0.6087720990180969,0.179539754986763,9.708868980407715
0.66,-4.8961279389914125e-05,0.013782504014670849,0.04564978927373886,0.4276859164237976,0.12573561072349548,9.80966567993164
0.68,-0.028700418770313263,0.014873097650706768,0.013627680949866772,0.16446027159690857,0.3803747594356537,10.025150299072266
0.7000000000000001,-0.021639563143253326,-0.036991048604249954,-0.009841108694672585,0.17144359648227692,0.482953816652298,10.024385452270508
0.72,-0.046198129653930664,-0.11606347560882568,-0.02383417822420597,0.23037120699882507,0.330165833234787,9.354157447814941
0.74,-0.06496383249759674,-0.11877276748418808,-0.00782485119998455,0.16811881959438324,0.0037699672393500805,8.981860160827637
0.76,-0.07185595482587814,-0.09956540167331696,0.022539671510457993,0.00608222559094429,-0.18938039243221283,9.736021995544434
0.78,-0.06104704365134239,-0.10401032865047455,0.038611967116594315,-0.15342529118061066,-0.06171271204948425,10.386608123779297
0.8,-0.08892270922660828,-0.11765341460704803,0.014884843491017818,-0.22307704389095306,0.16702833771705627,10.448725700378418
0.8200000000000001,-0.09747249633073807,-0.09115484356880188,0.008275388740003109,-0.24037253856658936,0.1419101357460022,9.856186866760254
0.84,-0.0622873529791832,-0.08195576816797256,-0.010914442129433155,0.027717366814613342,0.09097225964069366,9.388675689697266
0.86,-0.04149801656603813,-0.0809410810470581,-0.03286697342991829,0.3378274738788605,0.0862196832895279,9.059038162231445
0.88,-0.026347974315285683,-0.1040150597691536,-0.007546117529273033,0.6212437748908997,-0.18316008150577545,9.10048770904541
0.9,-0.014193267561495304,-0.07350312173366547,0.021304989233613014,0.7093734741210938,-0.504809558391571,9.418296813964844
0.92,-0.0048344312235713005,-0.03523721918463707,0.04689661040902138,0.7333553433418274,-0.6703259944915771,10.168228149414062
0.9400000000000001,0.04969676584005356,-0.02410726435482502,0.0611349493265152,0.692995011806488,-0.6191862225532532,10.406818389892578
0.96,0.01554565504193306,-0.028136178851127625,0.07152589410543442,0.6770092248916626,-0.52306067943573,10.118734359741211
0.98,0.10459589958190918,-0.01655816100537777,0.033196091651916504,0.5396686792373657,-0.3072133958339691,9.945411682128906
1.0,0.09022990614175797,0.03970840573310852,-0.0006632325239479542,0.25486743450164795,-0.04659309238195419,9.729869842529297
1.02,0.15236884355545044,0.066053606569767,-0.026274044066667557,0.08386155962944031,0.022158052772283554,9.282617568969727
1.04,0.22189703583717346,0.07274144887924194,-0.015456694178283215,0.08536767214536667,-0.27099609375,9.070478439331055
1.06,0.17770425975322723,0.09406937658786774,0.00895951222628355,0.3897370398044586,-0.513609766960144,9.3982515335083
1.08,0.21333801746368408,0.09549377113580704,0.03434803709387779,0.528667151927948,-0.3511664569377899,9.898909568786621
1.1,0.182045578956604,0.0951526090502739,0.06072075664997101,0.6712064743041992,0.05715380981564522,10.203592300415039
1.12,0.10838004946708679,0.09174524247646332,0.05149533227086067,0.7059815526008606,0.4472164511680603,10.271278381347656
1.1400000000000001,0.1269284337759018,0.06943744421005249,0.027092287316918373,0.5734502673149109,0.698168933391571,10.223675727844238
1.16,0.09077756106853485,0.06730163842439651,-0.02489490993320942,0.30412057042121887,1.0352783203125,9.574353218078613
1.18,0.12427385151386261,0.05866384878754616,-0.04768029600381851,-0.004259887151420116,1.0835785865783691,8.920201301574707
1.2,0.07298652082681656,0.018429001793265343,-0.021603450179100037,-0.005442893598228693,0.5484939813613892,9.407618522644043
1.22,0.06907866895198822,-0.026706432923674583,-0.0016992371529340744,-0.16472937166690826,0.04303223267197609,10.48153305053711
1.24,0.08051032572984695,0.01777656376361847,0.01632631942629814,-0.23304978013038635,-0.254258930683136,10.891986846923828
1.26,0.06478077173233032,0.04857869818806648,0.045210421085357666,-0.40068677067756653,-0.2037787139415741,10.13383674621582
1.28,0.09320779144763947,0.004523194395005703,0.05017305538058281,-0.5409730076789856,0.22930167615413666,8.962271690368652
1.3,0.08908237516880035,-0.04915675148367882,0.04113272577524185,-0.527040958404541,0.6908141374588013,9.079341888427734
1.32,0.07283422350883484,-0.03674422577023506,0.007938926108181477,-0.3849022686481476,0.5819075107574463,9.602909088134766
1.34,0.036393456161022186,-0.016194114461541176,-0.028003953397274017,-0.23203860223293304,0.3039259910583496,9.986414909362793
1.36,0.01417352445423603,-0.04474996030330658,-0.02431737445294857,0.3226189613342285,0.5033788084983826,9.931354522705078
1.3800000000000001,0.025504495948553085,-0.05167115107178688,-0.004936131648719311,0.7289230823516846,0.7120206356048584,9.540603637695312
1.4000000000000001,-0.07429803162813187,-0.04488459229469299,0.004261111840605736,0.6439929604530334,0.7659701704978943,9.769026756286621
1.42,-0.07872318476438522,-0.04350917041301727,-0.001689222059212625,0.3541807234287262,0.6768327355384827,10.0451078414917
1.44,-0.04067321494221687,-0.03964253142476082,-0.0037099462933838367,0.28453460335731506,0.8964288830757141,9.927249908447266
1.46,-0.05206896364688873,-0.04392610862851143,-0.008938176557421684,0.2579793632030487,0.5688226819038391,9.52259349822998
1.48,-0.07652334868907928,-0.034217510372400284,-0.010265360586345196,0.2712121605873108,0.06371785700321198,9.600540161132812
1.5,-0.0749824270606041,-0.039129987359046936,-0.01361525896936655,0.36962756514549255,-0.08202573657035828,9.432814598083496
1.52,-0.11534103751182556,-0.04775814712047577,0.012912671081721783,0.32869482040405273,0.0787976011633873,9.508647918701172
1.54,-0.06598867475986481,-0.01641719602048397,0.014704667031764984,0.1837984174489975,0.2769177556037903,10.002031326293945
1.56,-0.03303255885839462,-0.015347308479249477,0.0053892782889306545,-0.025223052129149437,0.3358567953109741,10.289421081542969
1.58,-0.03736194595694542,-0.042482875287532806,-0.010032755322754383,-0.046902868896722794,0.33400958776474,10.414019584655762
1.6,-0.01998869888484478,-0.05367432162165642,-0.028885427862405777,0.14183245599269867,0.1871894747018814,9.751822471618652
1.62,-0.07440206408500671,-0.06844116002321243,-0.040860459208488464,0.26991111040115356,-0.07976045459508896,8.908941268920898
1.6400000000000001,-0.07072733342647552,-0.06405860930681229,-0.02756747417151928,0.3690679371356964,-0.18111646175384521,8.795583724975586
1.6600000000000001,-0.04091912508010864,-0.015917232260107994,-0.023987751454114914,0.3369583487510681,0.19171416759490967,9.763276100158691
1.68,-0.07203859090805054,0.022359509021043777,-0.003937392961233854,0.27695828676223755,0.6749666929244995,10.587594032287598
1.7,-0.05627141520380974,0.037903279066085815,0.03077121265232563,0.15101376175880432,0.6991750597953796,10.906513214111328
1.72,-0.05862938612699509,0.05696864798665047,0.054236266762018204,0.1269216388463974,0.11774233728647232,10.359437942504883
1.74,0.05247427895665169,0.10618388652801514,0.04891866073012352,0.2949783205986023,-0.5418057441711426,9.408549308776855
1.76,0.03342925384640694,0.11761035770177841,-0.004106010310351849,0.6594576835632324,-0.6696414947509766,8.921380043029785
1.78,0.11226877570152283,0.12484287470579147,-0.014297263696789742,0.9379850029945374,-0.32998892664909363,9.359682083129883
1.8,0.07911982387304306,0.12233884632587433,-0.03842921555042267,0.9873835444450378,-0.01636987179517746,10.115860939025879
1.82,0.08367052674293518,0.08050429075956345,-0.013459013774991035,0.8605281114578247,0.3410332500934601,11.169611930847168
1.84,0.05548302084207535,0.05780905485153198,-0.0006741424440406263,0.13726802170276642,0.5929524302482605,10.572916984558105
1.86,0.017435284331440926,0.08767300844192505,0.0030551848467439413,-0.3759506940841675,0.8928293585777283,9.099543571472168
1.8800000000000001,-0.021365460008382797,0.06426364928483963,-0.00555709982290864,-0.38920941948890686,0.8497388958930969,8.360904693603516
1.9000000000000001,-0.053807344287633896,-0.009872166439890862,0.001558845047838986,-0.33523616194725037,0.9985501766204834,9.395833969116211
1.92,-0.023559758439660072,0.00022219833044800907,0.027771644294261932,-0.45300424098968506,0.8167750239372253,10.955982208251953
1.94,-0.04098852723836899,0.036643724888563156,0.059844009578228,-0.5354735851287842,0.1454610675573349,10.749469757080078
1.96,-0.0009886911138892174,0.028029246255755424,0.05257932469248772,-0.3664049804210663,-0.5389323234558105,10.083573341369629
1.98,0.009547366760671139,-0.036242976784706116,0.007687659468501806,-0.207720085978508,-0.4787980616092682,9.807595252990723
2.0,-0.012023132294416428,-0.0343671515583992,-0.03832145407795906,-0.0679074376821518,-0.14479416608810425,9.411348342895508
2.02,0.014746176078915596,0.011989510618150234,-0.05164843797683716,0.11688232421875,0.15581758320331573,9.23875617980957
2.04,0.06308379769325256,-0.007286201696842909,-0.016451822593808174,0.47201836109161377,0.25732818245887756,9.65378475189209
2.06,0.10011526197195053,-0.04604501277208328,0.026266256347298622,0.6452555656433105,0.14155113697052002,9.939403533935547
2.08,0.13844610750675201,-0.02245320938527584,0.032425567507743835,0.5127912163734436,0.04231935739517212,9.925472259521484
2.1,0.09663371741771698,0.043401088565588,0.013370947912335396,0.23242391645908356,0.03579296916723251,9.675193786621094
2.12,0.08278112858533859,0.06606400012969971,0.015293743461370468,0.20976585149765015,0.426963210105896,9.69458293914795
2.14,0.011201002635061741,0.05041591078042984,0.0014732714043930173,0.31573593616485596,0.7121368050575256,9.699116706848145
2.16,0.007929558865725994,0.04165482148528099,-0.03563268482685089,0.25017672777175903,0.7420632243156433,9.7023286819458
2.18,-0.050888095051050186,0.0237920843064785,-0.055652227252721786,-0.06306002289056778,1.0008128881454468,10.304500579833984
2.2,-0.05306902527809143,0.03629247471690178,-0.0352167971432209,-0.29503610730171204,1.3917503356933594,9.900083541870117
2.22,-0.040018919855356216,0.00835493765771389,0.017759742215275764,-0.2712508738040924,0.8049547672271729,9.291125297546387
2.24,-0.03455740958452225,-0.07987500727176666,0.013204711489379406,-0.32764479517936707,0.14230112731456757,9.374381065368652
2.2600000000000002,-0.034901559352874756,-0.0757826641201973,0.004477296955883503,-0.4871142506599426,-0.31997331976890564,10.10002613067627
2.2800000000000002,-0.07589132338762283,-0.07493124902248383,0.008953027427196503,-0.6408966779708862,-0.44494426250457764,10.700170516967773
2.3000000000000003,0.019505053758621216,-0.10375974327325821,0.02176065742969513,-0.4227817952632904,-0.29084426164627075,9.980508804321289
2.32,0.02851644717156887,-0.09522008150815964,0.024096567183732986,0.03219974413514137,-0.10902413725852966,9.26797103881836
2.34,0.12505687773227692,-0.041942477226257324,0.01463743019849062,0.5018994808197021,-0.06380892544984818,8.96938705444336
2.36,0.11361514776945114,-0.021194644272327423,-0.0014585631433874369,0.9201059341430664,-0.1775425374507904,9.410354614257812
2.38,0.07413622736930847,0.004173217806965113,-0.016997918486595154,1.0988612174987793,-0.11672837287187576,9.917327880859375
2.4,0.1169753447175026,0.023729858919978142,-0.017105072736740112,0.9687770009040833,0.2071121633052826,10.134021759033203
2.42,0.06587156653404236,0.04844174161553383,-0.01738959178328514,0.5537020564079285,0.8046789765357971,9.72642993927002
2.44,-0.0043907007202506065,0.07652588933706284,-0.03126779571175575,0.3711984157562256,1.187453269958496,9.22237491607666
2.46,-0.019533919170498848,0.06644068658351898,-0.021535879001021385,0.1950404793024063,1.2324458360671997,9.29369068145752
2.48,-0.0705462172627449,0.10812970250844955,0.006934973411262035,0.16080565750598907,1.1554341316223145,10.161836624145508
2.5,-0.039719108492136,0.0858122706413269,0.017821887508034706,-0.030330272391438484,0.8530545234680176,10.957596778869629
2.52,-0.049725376069545746,0.004809155594557524,0.016665233299136162,-0.3767094612121582,0.45688194036483765,10.448692321777344
2.54,-0.015642426908016205,-0.031164249405264854,0.011445693671703339,-0.6336359977722168,0.10622944682836533,10.22083568572998
2.56,-0.02228064462542534,-0.06323577463626862,0.009380207397043705,-0.7564061880111694,-0.4676496982574463,9.87470531463623
2.58,-0.009169390425086021,-0.07810438424348831,-0.008517606183886528,-0.6962460279464722,-0.47162961959838867,9.309591293334961
2.6,0.029477156698703766,-0.09882945567369461,-0.005184527020901442,-0.5683040618896484,-0.04347286745905876,9.300686836242676
2.62,0.021512236446142197,-0.11543387919664383,0.0037225820124149323,-0.3679512143135071,0.41529959440231323,9.459382057189941
2.64,0.03952929005026817,-0.10791101306676865,0.01605852320790291,-0.05966920405626297,0.5911628007888794,9.655917167663574
2.66,-0.010780001990497112,-0.09510603547096252,0.00668140547350049,0.530556321144104,0.5482423305511475,9.420828819274902
2.68,-0.009506354108452797,-0.0918872281908989,0.004038041923195124,1.0697294473648071,0.625781774520874,8.969655990600586
2.7,-0.012716948054730892,-0.056509874761104584,0.009913153015077114,1.2648383378982544,0.6980279088020325,8.932744979858398
2.72,-0.07048258185386658,-0.014310430735349655,0.0050355722196400166,1.0952707529067993,0.8246147036552429,10.043718338012695
2.74,-0.047163013368844986,0.026140689849853516,-0.016554279252886772,0.661604106426239,0.7431063055992126,10.408308029174805
2.7600000000000002,-0.03636886551976204,0.039678461849689484,-0.006023472175002098,0.3038976490497589,0.10480522364377975,9.985896110534668
2.7800000000000002,-0.041527166962623596,0.040849100798368454,0.020145650953054428,0.11847014725208282,-0.2972572445869446,9.847187995910645
2.8000000000000003,-0.03564915060997009,0.016476571559906006,0.02188890613615513,-0.012037452310323715,-0.07655390352010727,10.680245399475098
2.82,0.019438745453953743,-0.0028006406500935555,0.01209744717925787,0.0035650974605232477,0.08379636704921722,10.589559555053711
2.84,0.0025473283603787422,0.019500339403748512,0.009202717803418636,-0.02325351908802986,0.26895657181739807,9.555203437805176
2.86,0.028147069737315178,0.03183026611804962,-0.01195522490888834,-0.328311562538147,0.1341220736503601,9.300341606140137
2.88,0.019778408110141754,-0.05200641602277756,-0.029809022322297096,-0.40185776352882385,0.20550957322120667,9.730109214782715
2.9,-0.04978087171912193,-0.10711245238780975,-0.043863777071237564,-0.3302401006221771,0.6418352723121643,10.148755073547363
2.92,-0.08648789674043655,-0.09605845808982849,-0.0292944498360157,-0.14698554575443268,1.1482713222503662,9.775647163391113
2.94,-0.05477820336818695,-0.08037709444761276,-0.010221680626273155,0.15456640720367432,1.022919774055481,9.66303539276123
2.96,-0.09231807291507721,-0.09916600584983826,0.03728146478533745,0.39307913184165955,0.45121437311172485,9.690120697021484
2.98,-0.08123530447483063,-0.10443665832281113,0.033905692398548126,0.44489577412605286,0.08567788451910019,9.64970588684082
3.0,-0.08572237193584442,-0.038523104041814804,0.00561897037550807,0.27079764008522034,0.014602873474359512,10.205520629882812
3.02,-0.06512662768363953,0.0353873036801815,-0.011915860697627068,0.44910871982574463,-0.12094923108816147,9.84757137298584
3.04,0.012855784967541695,0.03142765909433365,0.003960063215345144,0.815696656703949,-0.32347536087036133,9.299864768981934
3.06,0.03321108967065811,0.07616568356752396,0.0032487642019987106,1.099490761756897,-0.5060487985610962,9.400650024414062
3.08,0.012549560517072678,0.11070967465639114,-0.005283475387841463,1.2207179069519043,-0.08051910251379013,10.146050453186035
3.1,0.027119917795062065,0.09086093306541443,-0.013540697284042835,0.9914696216583252,0.5341643691062927,10.450777053833008
3.12,0.026412738487124443,0.0526006855070591,0.013113629072904587,0.46513691544532776,0.726754903793335,9.634195327758789
3.14,0.004902852699160576,0.06390397995710373,0.015922915190458298,0.15242986381053925,0.4521300494670868,8.803348541259766
3.16,-0.022949403151869774,0.02503618597984314,-0.016806412488222122,0.1573001593351364,0.04422231763601303,9.532705307006836
3.18,-0.02207629755139351,-0.023552993312478065,-0.04576326906681061,-0.017859265208244324,0.1357632577419281,10.306050300598145
3.2,-0.061755742877721786,-0.035184260457754135,-0.033197298645973206,-0.5533382892608643,0.5773634910583496,10.860523223876953
3.22,-0.0812905952334404,0.019443653523921967,-0.009568762965500355,-1.068713665008545,0.8369278907775879,10.264752388000488
3.24,-0.04818316921591759,0.047096624970436096,0.005898702889680862,-1.1877859830856323,0.5311781764030457,9.886773109436035
3.2600000000000002,-0.07265476882457733,-0.004642542917281389,0.0021632551215589046,-0.9929759502410889,0.1845047026872635,9.095986366271973
3.2800000000000002,-0.028734901919960976,-0.03564037010073662,0.0023833769373595715,-0.6502274870872498,-0.028729479759931564,9.517951965332031
3.3000000000000003,-0.04986274242401123,-0.05454329028725624,0.032526686787605286,0.36952975392341614,-0.205666646361351,10.574131965637207
3.3200000000000003,-0.026301458477973938,-0.09791139513254166,0.03675822541117668,1.3928003311157227,-0.44996780157089233,10.525472640991211
3.34,0.007113390136510134,-0.12128746509552002,0.02083572931587696,1.4586822986602783,-0.3013867437839508,9.411859512329102
3.36,0.022421201691031456,-0.117466501891613,0.01096777431666851,0.7514545917510986,0.20899322628974915,9.202178001403809
3.38,0.055995143949985504,-0.12277672439813614,0.009074917063117027,-0.13550446927547455,0.5417581796646118,10.065139770507812
3.4,0.06171947345137596,-0.10918141901493073,0.030185874551534653,-0.3869369626045227,0.32877084612846375,10.485859870910645
3.42,0.07962436974048615,-0.10756043344736099,0.0034182346425950527,0.0515984371304512,0.10658235102891922,10.186003684997559
3.44,0.021210478618741035,-0.11984861642122269,-0.015074651688337326,0.5467158555984497,0.04200500622391701,9.22500991821289
3.46,0.060372911393642426,-0.10422565788030624,-0.0036847293376922607,0.6505756378173828,0.21135161817073822,8.84127140045166
3.48,0.050304707139730453,-0.07358813285827637,0.021023008972406387,0.8088891506195068,0.32809093594551086,9.561714172363281
3.5,0.07463044673204422,-0.09533582627773285,0.01996706612408161,0.8495873808860779,0.1741389036178589,10.146039009094238
3.52,0.0782293751835823,-0.12518338859081268,0.006540101952850819,0.4518536925315857,0.19091641902923584,9.813359260559082
3.54,0.06773458421230316,-0.0931825265288353,0.002156471833586693,0.14582471549510956,0.3134031891822815,8.974089622497559
3.56,0.07813866436481476,-0.06716639548540115,0.01761794276535511,0.06308947503566742,0.23428651690483093,9.217260360717773
3.58,0.07315143942832947,-0.007377613801509142,0.018984515219926834,0.3154444396495819,0.3057868480682373,10.444305419921875
3.6,0.028832057490944862,0.05265709385275841,0.005018537864089012,0.7709386944770813,0.5396133065223694,10.789618492126465
3.62,-0.01926194131374359,0.036114033311605453,-0.010171269997954369,1.1807355880737305,0.6569120287895203,9.893529891967773
3.64,0.047861963510513306,0.04365098848938942,-0.0028630660381168127,1.1104930639266968,0.5095410943031311,9.102095603942871
3.66,0.031123097985982895,0.1106041893362999,-0.0055934470146894455,1.128542184829712,0.26840198040008545,9.22230052947998
3.68,0.05086103081703186,0.10348562896251678,0.0013108219718560576,1.140726923942566,0.1928933709859848,9.615324020385742
3.7,0.041165243834257126,0.05693279951810837,0.003822530386969447,0.6175565719604492,0.16712160408496857,9.824039459228516
3.72,0.033206354826688766,0.06866466999053955,-0.015460580587387085,0.07802160829305649,0.4207823872566223,9.874924659729004
3.74,0.03835051879286766,0.0565672367811203,-0.0043437606655061245,-0.021083850413560867,0.40618303418159485,10.013998031616211
3.7600000000000002,0.04500260949134827,0.015248063951730728,-0.019432349130511284,0.15231308341026306,0.5324575304985046,9.59239673614502
3.7800000000000002,-0.009626147337257862,0.017479311674833298,-0.012207872234284878,0.13121642172336578,0.7016708254814148,9.364429473876953
3.8000000000000003,0.06953517347574234,0.07738132774829865,0.0007799355080351233,-0.09395449608564377,0.5283252000808716,9.48153018951416
3.8200000000000003,0.06529837846755981,0.08122692257165909,0.03550751507282257,-0.04317772388458252,0.04935764521360397,9.954900741577148
3.84,0.06467211246490479,-0.0027558989822864532,0.04433535411953926,0.028295690193772316,-0.34657734632492065,10.066052436828613
3.86,0.039279669523239136,-0.01338291633874178,0.021843768656253815,0.11917777359485626,-0.0783948078751564,9.679057121276855
3.88,0.05795438960194588,0.06767010688781738,-0.01802355796098709,0.030400102958083153,0.6329267024993896,10.122419357299805
3.9,0.064419224858284,0.08990760892629623,-0.04283997416496277,0.2184547483921051,1.1792364120483398,10.270974159240723
3.92,0.0028742814902216196,0.06631072610616684,-0.04676559567451477,0.17435985803604126,1.0220537185668945,9.69494915008545
3.94,0.0065890951082110405,0.06162324175238609,-0.035289421677589417,0.33579328656196594,0.602689266204834,9.698464393615723
3.96,-0.03767026960849762,0.009795590303838253,-0.03288313373923302,0.599564790725708,0.688719630241394,9.425680160522461
3.98,-0.09299999475479126,-0.028433015570044518,0.008317509666085243,0.5902497172355652,0.9541589021682739,9.203106880187988
4.0,-0.08219330757856369,-0.022842684760689735,0.04599235951900482,0.46035236120224,0.7873287200927734,9.494327545166016
4.0200000000000005,-0.1080908477306366,-0.04839927330613136,0.051401957869529724,0.31623080372810364,0.3612717092037201,10.192957878112793
4.04,-0.06733924895524979,-0.07449804246425629,0.04444240778684616,0.10297901183366776,0.260150283575058,10.491338729858398
4.0600000000000005,-0.10312337428331375,-0.07786940038204193,0.01108867209404707,-0.15868206322193146,0.3703896105289459,10.910967826843262
4.08,-0.13402147591114044,-0.03324711695313454,-0.012035416439175606,-0.16163621842861176,0.49900510907173157,10.275391578674316
4.1,-0.012171400710940361,-0.019235340878367424,-0.01209595613181591,-0.0620458610355854,0.19847995042800903,8.67315673828125
4.12,-0.06690124422311783,-0.04069182276725769,-0.025757618248462677,0.1550586223602295,-0.19325894117355347,8.21501636505127
4.14,-0.08622763305902481,-0.05962078273296356,-0.014800830744206905,0.400770366191864,-0.08932068943977356,9.314562797546387
4.16,-0.025725753977894783,-0.039905253797769547,-0.009884679690003395,0.6120066046714783,0.19367775321006775,10.772058486938477
4.18,0.018951334059238434,-0.028297433629631996,0.014602851122617722,0.6623863577842712,0.29896676540374756,11.263519287109375
4.2,0.03705396130681038,-0.036875925958156586,0.03199691325426102,0.5225192308425903,0.27748438715934753,10.115849494934082
4.22,-0.005626469384878874,-0.021545615047216415,0.010914172045886517,0.3144369125366211,0.205123633146286,8.844574928283691
4.24,-0.01590746082365513,0.005621249321848154,-0.014712771400809288,0.38585805892944336,0.1649254709482193,8.975419044494629
4.26,-0.04136652871966362,-0.0002589027862995863,-0.04010509327054024,0.4917547106742859,0.39508435130119324,9.544663429260254
4.28,0.010304699651896954,0.007402638904750347,-0.04137532413005829,0.45829200744628906,0.3658554255962372,10.426931381225586
4.3,-0.009181689471006393,0.06294547766447067,-0.03602062165737152,0.5225082039833069,0.291460245847702,10.619579315185547
4.32,-0.006406550761312246,0.0817703828215599,-0.024917948991060257,0.6916126608848572,0.4527004361152649,10.132550239562988
4.34,0.034562453627586365,0.051642272621393204,0.016421400010585785,0.836173415184021,0.5005946159362793,9.241314888000488
4.36,-0.01490540336817503,0.05760609358549118,0.03457748889923096,0.5968160629272461,0.28713977336883545,9.439614295959473
4.38,0.036942608654499054,0.08160661906003952,0.004072797484695911,0.2956595718860626,0.010971782729029655,9.751871109008789
4.4,0.020190587267279625,0.11215079575777054,-0.03339342027902603,-0.11370736360549927,0.06535439193248749,10.103100776672363
4.42,0.0019581615924835205,0.05804605409502983,-0.04745791107416153,-0.41556549072265625,0.5038118958473206,10.767568588256836
4.44,0.017134003341197968,0.04421578720211983,-0.037895265966653824,-0.2881639301776886,0.9558433890342712,10.72990894317627
4.46,0.022715002298355103,0.03978339955210686,-0.013272903859615326,0.18215693533420563,0.7554559111595154,9.872367858886719
4.48,0.039128176867961884,0.05942009389400482,0.025499442592263222,0.44577088952064514,0.3155863583087921,9.090866088867188
4.5,0.051564767956733704,0.05897446349263191,0.028613999485969543,0.5595096945762634,-0.1012389212846756,9.149654388427734
4.5200000000000005,0.049860432744026184,0.041123274713754654,0.014358014799654484,0.38003766536712646,-0.24149632453918457,9.365894317626953
4.54,0.03439997136592865,0.08602059632539749,-0.020546529442071915,0.3414106070995331,0.06814204156398773,9.987972259521484
4.5600000000000005,0.012722743675112724,0.08915406465530396,-0.03985649719834328,0.4305543303489685,0.38797080516815186,10.148857116699219
4.58,0.07636033743619919,0.10486584901809692,-0.0371151901781559,0.6921420693397522,0.4378107786178589,9.52039623260498
4.6000000000000005,0.0736568346619606,0.09711284935474396,0.006031752564013004,1.005723476409912,0.295836865901947,8.926753997802734
4.62,0.08015529811382294,0.05543847009539604,0.05075690150260925,0.880691409111023,0.021475775167346,9.021371841430664
4.64,0.11007039994001389,0.05051049217581749,0.057897768914699554,0.4557636082172394,0.12287356704473495,9.72707462310791
4.66,0.08821747452020645,-0.014749251306056976,0.0386667363345623,0.219435915350914,0.6602841019630432,9.915291786193848
4.68,0.06716496497392654,-0.07146719098091125,0.022585727274417877,0.10394646972417831,0.9510098099708557,9.961943626403809
4.7,0.01605738326907158,-0.06582408398389816,-0.026758693158626556,-0.37856537103652954,1.0540657043457031,9.965332984924316
4.72,0.0025361143052577972,-0.02222229167819023,-0.023866722360253334,-0.9643169045448303,1.1218385696411133,9.992663383483887
4.74,0.03882725536823273,-0.033318739384412766,0.0017417066264897585,-0.9348087906837463,0.6515794992446899,9.2868070602417
4.76,0.03348430618643761,-0.0860220193862915,0.012068716809153557,-0.8250167369842529,0.12504035234451294,8.984282493591309
4.78,0.0194928590208292,-0.029999766498804092,0.029196148738265038,-0.5634676814079285,0.13347524404525757,10.323212623596191
4.8,0.07286419719457626,-0.001570404157973826,0.02731872722506523,-0.2193150520324707,0.3889240324497223,10.836685180664062
4.82,0.0405024029314518,0.01316952146589756,0.04372456297278404,-0.2696819007396698,0.39806225895881653,9.593805313110352
4.84,0.10143397748470306,0.004794517997652292,0.0212238896638155,0.013202284462749958,0.3477199375629425,9.039155006408691
4.86,0.021019794046878815,-0.05671634152531624,-0.01353464461863041,0.5722116231918335,0.5654457211494446,9.819010734558105
4.88,0.06136256456375122,-0.07858295738697052,-0.02503223903477192,0.9074800610542297,0.9235475063323975,10.15203857421875
4.9,0.02796303667128086,-0.03229968249797821,-0.024231458082795143,0.8855980634689331,0.9420995712280273,9.896269798278809
4.92,0.01520288921892643,-0.028809962794184685,-0.0078170420601964,0.8244709968566895,0.6654263138771057,9.631802558898926
4.94,-0.044976118952035904,-0.04046833515167236,0.004692527931183577,0.5322484970092773,0.5761783719062805,9.48843765258789
4.96,-0.0472014956176281,-0.02103937603533268,-0.007789279334247112,0.3037932813167572,0.735109806060791,9.35010051727295
4.98,-0.028296802192926407,0.02040529064834118,-0.023011278361082077,0.33990466594696045,0.9530254602432251,9.453046798706055
5.0,-0.02509557269513607,0.0037738378159701824,0.0037723658606410027,0.2773245573043823,0.8444993495941162,10.121847152709961
5.0200000000000005,-0.05197770148515701,0.013858676888048649,0.014796117320656776,0.20869116485118866,0.2220117300748825,10.543539047241211
5.04,-0.025932541117072105,0.009580316953361034,0.012979429215192795,0.14276324212551117,0.08108630776405334,10.348363876342773
5.0600000000000005,-0.05177838355302811,0.009746703319251537,-0.02352330833673477,0.06351981312036514,0.24504919350147247,9.590349197387695
5.08,-0.044268906116485596,0.015612867660820484,-0.01987008936703205,0.08893383294343948,0.5620176792144775,9.459514617919922
5.1000000000000005,-0.04219860956072807,-0.0399673655629158,-0.013433788903057575,0.05242553725838661,0.4939252436161041,9.77962875366211
5.12,-0.05554670840501785,-0.07952563464641571,-0.014095542021095753,-0.14489513635635376,0.42795729637145996,10.090860366821289
5.14,-0.04324996843934059,-0.03331870585680008,-0.015609887428581715,-0.3344779908657074,0.47380682826042175,10.029143333435059
5.16,-0.026181764900684357,-0.010393957607448101,-0.004557905253022909,-0.13721050322055817,0.6567991971969604,9.768899917602539
5.18,0.004390177316963673,-0.05278143659234047,0.0034996233880519867,0.2104913294315338,0.5778190493583679,9.530644416809082
5.2,-0.03918416425585747,-0.05438904091715813,-0.0023209918290376663,0.5461879968643188,0.2772271931171417,9.594422340393066
5.22,-0.036755893379449844,-0.024848338216543198,-0.02798490785062313,0.7624567747116089,0.10810033231973648,10.207761764526367
5.24,-0.006215600296854973,-0.0405043326318264,-0.021863820031285286,0.7151803970336914,0.2898542284965515,10.230669021606445
5.26,-0.009770923294126987,-0.03704552352428436,-0.005732507910579443,0.41263648867607117,0.3986409306526184,9.378973007202148
5.28,-0.007166160736232996,0.021520907059311867,0.0015071544330567122,0.3684343099594116,0.30383503437042236,8.881593704223633
5.3,0.018734101206064224,0.03402240201830864,0.005136406980454922,0.439275860786438,0.2657683491706848,9.140273094177246
5.32,0.0030134092085063457,0.006825415883213282,-0.0008326208335347474,0.4810601472854614,0.5434746146202087,9.881787300109863
5.34,0.03930423781275749,0.008768720552325249,0.01839759759604931,0.3041737377643585,0.7787767648696899,10.674233436584473
5.36,0.022558121010661125,0.04124918207526207,0.028461720794439316,-0.008876828476786613,0.40817689895629883,10.614124298095703
5.38,-0.0014337067259475589,0.03080626204609871,0.0041563729755580425,0.13336578011512756,0.05131789296865463,10.153510093688965
5.4,-0.005674377083778381,-0.00015132779662963003,-0.020802786573767662,0.02622581087052822,0.2218540757894516,9.769723892211914
5.42,0.010494066402316093,-0.0033641948830336332,-0.028530515730381012,-0.18092751502990723,0.7202178835868835,9.690361022949219
5.44,-0.02108183689415455,0.03855869546532631,-0.03562569618225098,-0.10552000999450684,0.71159827709198,9.54072380065918
5.46,0.03569302707910538,0.040214162319898605,-0.042631447315216064,0.3322518765926361,0.6796947121620178,9.169943809509277
5.48,0.019419224932789803,0.02577073872089386,-0.030825112015008926,0.7116734385490417,0.5784957408905029,8.640350341796875
5.5,0.03534356877207756,0.05200251191854477,-0.006879738066345453,0.8802050948143005,0.4878280758857727,9.561698913574219
5.5200000000000005,0.06465887278318405,0.08275473862886429,0.013697396963834763,0.8190798759460449,0.3005034923553467,10.426082611083984
5.54,0.023317892104387283,0.09419219940900803,0.012973863631486893,0.6873651146888733,0.2624185383319855,10.509742736816406
5.5600000000000005,0.015907047316432,0.07268381118774414,-0.007091277278959751,0.528922438621521,0.3632475733757019,10.113895416259766
5.58,0.03072519041597843,0.05619734525680542,-0.004850858356803656,0.04867475479841232,0.6305148601531982,9.421348571777344
5.6000000000000005,0.04837978258728981,0.050809379667043686,0.01883930340409279,-0.10608433187007904,0.7655553221702576,9.117061614990234
5.62,0.0013645044527947903,0.023360492661595345,0.014823978766798973,-0.19620639085769653,0.4883643388748169,9.774015426635742
5.64,0.00658262288197875,-0.04269421100616455,0.0031432933174073696,-0.18537449836730957,0.303630530834198,10.384130477905273
5.66,-0.012323710136115551,-0.06666558980941772,-0.016244476661086082,-0.2379816472530365,0.6367207169532776,10.446891784667969
5.68,-0.03194551542401314,-0.035384368151426315,-0.030151281505823135,-0.4024279713630676,0.8233486413955688,9.582871437072754
5.7,-0.06896532326936722,-0.05079495906829834,-0.045260507613420486,-0.4461715519428253,0.7203409671783447,8.656622886657715
5.72,-0.06967804580926895,-0.05982838571071625,-0.04361945390701294,-0.34213054180145264,0.7442266345024109,9.044864654541016
5.74,-0.030363034456968307,0.03287709131836891,-0.004391955211758614,-0.5448222756385803,0.5093697309494019,10.667122840881348
5.76,-0.02703430876135826,0.08618804812431335,0.01929968036711216,-0.5489672422409058,0.3221414089202881,10.900291442871094
5.78,0.01633644849061966,0.031293805688619614,0.040952421724796295,0.4176819324493408,0.17361141741275787,9.31314468383789
5.8,0.01262090913951397,0.024597397074103355,0.03787988796830177,1.3831909894943237,0.20769603550434113,8.72313117980957
5.82,0.028365030884742737,0.05127469077706337,0.0181882306933403,1.6107922792434692,0.1338116079568863,10.084120750427246
5.84,-0.06167662888765335,-0.01804136112332344,-0.01282660011202097,1.0193134546279907,0.31384652853012085,10.86141586303711
5.86,-0.013103955425322056,-0.047902464866638184,-0.029628129675984383,0.02785736322402954,0.631943941116333,10.121236801147461
5.88,-0.0018940019654110074,-0.013796089217066765,-0.007576192729175091,-0.5181140899658203,1.0096619129180908,9.168910026550293
5.9,-0.002978782169520855,0.026914047077298164,0.016739077866077423,-0.571235716342926,0.7707619071006775,8.977864265441895
5.92,0.04249673709273338,0.005068604368716478,0.019816488027572632,-0.19742324948310852,0.29722359776496887,9.166966438293457
5.94,0.051963258534669876,0.0027276002801954746,0.028276877477765083,-0.019924426451325417,-0.04903602972626686,9.854065895080566
5.96,0.027915677055716515,0.040367379784584045,0.008917286992073059,0.11345893144607544,-0.04879109188914299,10.89288330078125
5.98,0.014495293609797955,0.016439158469438553,-0.013288239948451519,0.25594305992126465,0.507057249546051,10.168730735778809
6.0,-0.01021509524434805,-0.021591616794466972,-0.027813754975795746,0.34928643703460693,0.7480002641677856,8.703999519348145
6.0200000000000005,-0.019621768966317177,-0.014540757983922958,-0.02632642723619938,0.4845982789993286,0.9793338179588318,8.763076782226562
6.04,-0.012374559417366982,0.003190954914316535,-0.008333015255630016,0.3157753348350525,0.8737869262695312,10.364700317382812
6.0600000000000005,-0.028195329010486603,-0.045660655945539474,-0.0007321401499211788,-0.06810623407363892,0.43918871879577637,11.141112327575684
6.08,-0.005315280053764582,-0.008290470577776432,0.006943691521883011,-0.4192333221435547,0.22994796931743622,10.951826095581055
6.1000000000000005,0.014262109994888306,0.047723401337862015,0.013461336493492126,-0.10888078063726425,0.24683533608913422,9.540335655212402
6.12,-0.03099699318408966,-0.007417375687509775,0.0008172995294444263,0.3678009808063507,0.01990761049091816,8.863784790039062
6.140000000000001,-0.017049575224518776,-0.029089532792568207,-0.011417406611144543,0.5786779522895813,0.15713027119636536,9.065147399902344
6.16,0.030927322804927826,0.017727073282003403,0.005979010369628668,0.6142365336418152,0.6270163059234619,10.165458679199219
6.18,0.05163031071424484,0.0596965067088604,0.004114759154617786,0.613132655620575,0.6172442436218262,10.885673522949219
6.2,0.008637016639113426,0.0347265787422657,0.006153613794595003,0.4843505024909973,0.6476929783821106,10.337252616882324
6.22,-0.011619576252996922,0.0015838416293263435,-0.03022751770913601,0.15124578773975372,0.6935833692550659,8.672865867614746
6.24,-0.034517817199230194,0.07280443608760834,-0.03476763144135475,-0.20174157619476318,0.6741452217102051,8.404839515686035
6.26,-0.039059076458215714,0.12666663527488708,-0.017636893317103386,-0.03438929095864296,0.945398211479187,9.926162719726562
6.28,-0.061291225254535675,0.0721302404999733,0.019391456618905067,0.19316412508487701,0.7549229264259338,10.769174575805664
6.3,-0.06020640954375267,0.05548567324876785,0.016127819195389748,0.13798217475414276,0.16365495324134827,10.2205228805542
6.32,-0.05345778167247772,0.11004659533500671,0.008494780398905277,0.3037205934524536,0.15527495741844177,9.532958984375
6.34,-0.0034422213211655617,0.07853507250547409,-0.0023189405910670757,0.3797050416469574,0.3147590756416321,9.821272850036621
6.36,0.041083503514528275,-0.07378467917442322,0.012086626142263412,0.06312690675258636,0.06987392157316208,9.675424575805664
6.38,0.09561541676521301,-0.09734783321619034,0.03571376949548721,0.07034461945295334,-0.49349990487098694,8.985830307006836
6.4,0.08776926249265671,-0.016421517357230186,0.035555534064769745,-0.18609680235385895,-0.6225383877754211,9.582637786865234
6.42,0.05019774287939072,-0.025167951360344887,0.015870817005634308,-0.5542832612991333,0.17261585593223572,10.353137969970703
6.44,0.03769760951399803,-0.0657954066991806,0.0027311225421726704,-0.7845688462257385,1.1144771575927734,9.64848518371582
6.46,0.029819810763001442,-0.0051468852907419205,-0.01517647597938776,-0.7912555932998657,1.5142335891723633,9.546607971191406
6.48,-0.012355389073491096,0.1082846075296402,-0.022572016343474388,-0.7972619533538818,1.334072232246399,10.008942604064941
6.5,-0.060509033501148224,0.0903613492846489,-0.013895245268940926,-0.35309988260269165,1.263370394706726,9.642780303955078
6.5200000000000005,-0.15030990540981293,0.004440294578671455,-0.014105267822742462,1.185673475265503,1.0151382684707642,9.167872428894043
6.54,-0.05336152762174606,-0.0016591608291491866,-0.010343505069613457,1.6420894861221313,0.8582373261451721,9.959670066833496
6.5600000000000005,-0.03301863372325897,0.02387368306517601,0.00974124763160944,1.1752023696899414,0.25907739996910095,10.528361320495605
6.58,0.014144936576485634,-0.011872428469359875,0.017710473388433456,0.15143999457359314,-0.5681483745574951,10.47254753112793
6.6000000000000005,0.023161575198173523,-0.02439543418586254,0.008523731492459774,-0.575975775718689,-0.9320053458213806,9.892881393432617
6.62,0.036628786474466324,0.0055177705362439156,0.012935356236994267,-0.8015758991241455,-0.425399512052536,9.34676742553711
6.640000000000001,0.06524751335382462,0.003058319678530097,0.009138602763414383,-0.8097236156463623,0.3611867427825928,9.891947746276855
6.66,0.05655580386519432,-0.020589400082826614,-0.031604085117578506,-0.565513551235199,0.8679528832435608,10.118034362792969
6.68,-0.004201238043606281,-0.03179449215531349,-0.08107567578554153,0.39426517486572266,1.283707618713379,10.320698738098145
6.7,-0.03410855680704117,-0.05297336354851723,-0.07193133234977722,0.7262497544288635,1.3689460754394531,10.261313438415527
6.72,-0.06331140547990799,-0.054047841578722,-0.047183409333229065,0.5114105939865112,1.0054491758346558,9.127986907958984
6.74,-0.10819131880998611,-0.02334858849644661,-0.025237074121832848,0.16772687435150146,0.6144814491271973,8.5076322555542
6.76,-0.1352083683013916,0.008173835463821888,0.0008132494403980672,0.09796338528394699,0.8035475611686707,8.968904495239258
6.78,-0.06601852923631668,0.03153553605079651,0.030010031536221504,-0.027233412489295006,0.5937950015068054,9.60013198852539
6.8,-0.07166803628206253,0.06850463896989822,0.04372178018093109,0.11664627492427826,0.12492214143276215,10.0746431350708
6.82,0.020549064502120018,0.06735126674175262,0.022507352754473686,0.46193861961364746,-0.15351732075214386,9.670592308044434
6.84,-0.011409588158130646,0.04549981281161308,0.0185809675604105,0.8100355267524719,-0.14938326179981232,9.254278182983398
6.86,0.06559260934591293,0.037313610315322876,0.018272491171956062,0.502064049243927,-0.28038352727890015,10.179054260253906
6.88,0.07490045577287674,-0.002281596651300788,0.0005093644140288234,-0.19334131479263306,-0.4622240662574768,11.084020614624023
6.9,0.06766636669635773,0.00544005585834384,-0.02765646204352379,-0.6067076325416565,0.14200174808502197,11.166413307189941
6.92,0.0037886518985033035,0.020999589934945107,-0.06423266977071762,-0.6259286403656006,1.0100910663604736,10.037773132324219
6.94,0.0070691294968128204,0.001299377647228539,-0.04337918013334274,-0.6178641319274902,1.4401085376739502,8.611706733703613
6.96,0.043292950838804245,-0.0007172265904955566,-0.0014963105786591768,-0.35265931487083435,0.9966934323310852,8.314684867858887
6.98,-0.04622786492109299,-0.009749949909746647,0.006556874141097069,-0.008235846646130085,0.7069019079208374,9.13427734375
7.0,-0.07192590087652206,-0.012036658823490143,0.007956130430102348,0.3420495390892029,0.716180145740509,10.412214279174805
7.0200000000000005,-0.09892941266298294,-0.006247822195291519,0.00522587588056922,0.3666258454322815,0.44161710143089294,10.90273666381836
7.04,-0.03953465446829796,0.008588545955717564,0.020701035857200623,0.21231086552143097,0.008842317387461662,9.673104286193848
7.0600000000000005,-0.04911889135837555,-0.012933150865137577,0.02071324735879898,-0.016157938167452812,-0.26136651635169983,9.138702392578125
7.08,-5.842268728883937e-05,-0.005869890097528696,0.012394980527460575,-0.13744191825389862,-0.2013881951570511,10.163041114807129
7.1000000000000005,0.016402672976255417,0.020813068374991417,-0.004140960983932018,-0.1744896024465561,0.014163869433104992,10.181110382080078
7.12,0.0721675381064415,0.03214433416724205,0.009096834808588028,-0.10727660357952118,0.31323036551475525,9.846832275390625
7.140000000000001,0.1065795049071312,0.04078616946935654,0.008850102312862873,0.08239605277776718,0.30571824312210083,9.540709495544434
7.16,0.04474702104926109,0.05399193614721298,0.0017204503528773785,0.3428061902523041,0.527684211730957,10.04983139038086
7.18,0.051309678703546524,0.01960855722427368,-0.00518396170809865,0.44731274247169495,0.7513464093208313,10.261434555053711
7.2,0.04503626748919487,0.015758385881781578,0.009650234133005142,0.20009998977184296,0.6700185537338257,9.555992126464844
7.22,0.03978847712278366,0.03417697176337242,0.012176867574453354,0.17486046254634857,0.6065319180488586,9.430880546569824
7.24,0.03357064723968506,-0.019772866740822792,-0.01307430025190115,0.0007640478434041142,0.41447901725769043,9.22216510772705
7.26,-0.012690632604062557,-0.05952204018831253,-0.015581165440380573,-0.14767655730247498,0.39998963475227356,9.33627700805664
7.28,0.01081039011478424,-0.02453639730811119,-0.03263547644019127,-0.23045668005943298,0.5413743853569031,10.450666427612305
7.3,-0.0023162653669714928,0.0035178179387003183,-0.029002677649259567,-0.47975772619247437,0.475358784198761,11.098084449768066
7.32,0.017868313938379288,0.018808456137776375,-0.002752747619524598,-0.4968686103820801,0.2591988444328308,9.363102912902832
7.34,-0.042354878038167953,-0.018992118537425995,0.020356955006718636,-0.33833548426628113,0.29859182238578796,8.657072067260742
7.36,-0.037678010761737823,-0.04256642609834671,0.02496257983148098,-0.05375279486179352,0.5139216780662537,9.574422836303711
7.38,0.02739003859460354,0.003321560565382242,0.02319605089724064,-0.017842207103967667,0.7453662753105164,10.516631126403809
7.4,0.05571524053812027,0.04020470753312111,0.027154332026839256,0.23942023515701294,0.5625802278518677,10.028816223144531
7.42,-0.018521670252084732,-0.0027110350783914328,0.009619900956749916,0.41588717699050903,0.3238487243652344,9.558018684387207
7.44,-0.010469600558280945,0.007264012470841408,-0.020486930385231972,0.23100951313972473,0.19536542892456055,9.192580223083496
7.46,0.0006486267084255815,0.03184236213564873,-0.01564645767211914,0.1972823441028595,0.2817305624485016,9.650501251220703
7.48,-0.035328712314367294,0.02737247571349144,-0.008862676098942757,0.060135241597890854,0.227103590965271,10.341312408447266
7.5,-0.02919534593820572,0.03045845218002796,-0.0020864144898951054,0.18736764788627625,0.32341358065605164,9.969620704650879
7.5200000000000005,-0.04798021540045738,0.02104117162525654,-0.004183037206530571,0.11950647830963135,0.537463903427124,9.42360782623291
7.54,0.00386951700784266,-0.007682435214519501,0.0052165924571454525,-0.07440616190433502,0.7927376627922058,9.420676231384277
7.5600000000000005,-0.006959270220249891,0.007251551374793053,0.04853734374046326,-0.2615624666213989,0.5156230926513672,9.807866096496582
7.58,-0.012801031582057476,0.013534439727663994,0.05830846354365349,-0.06938234716653824,0.28405076265335083,10.404745101928711
7.6000000000000005,0.007811427116394043,0.003272391390055418,0.04187719151377678,0.13075149059295654,0.2569943070411682,10.027451515197754
7.62,-0.017228461802005768,-0.017601212486624718,0.012101229280233383,0.02749561332166195,0.2964089512825012,9.142133712768555
7.640000000000001,0.0194528941065073,-0.0329182967543602,-0.013690860942006111,-0.10373286157846451,0.38934993743896484,9.206499099731445
7.66,-0.012457601726055145,-0.01648234762251377,-0.014453059062361717,-0.25763824582099915,0.5654743313789368,10.218938827514648
7.68,-0.0076627242378890514,0.029359744861721992,-0.007862556725740433,-0.3119937479496002,0.6184214949607849,10.768794059753418
7.7,0.032589975744485855,0.025267068296670914,0.015061329118907452,-0.4380924105644226,0.650829553604126,10.611085891723633
7.72,-0.019817914813756943,0.013387071900069714,0.02345791645348072,-0.361493855714798,0.5109444856643677,9.297639846801758
7.74,-0.037705179303884506,0.03187032788991928,-0.010668114759027958,-0.11129433661699295,0.3848971128463745,8.595891952514648
7.76,0.014270864427089691,0.011570967733860016,-0.04428313300013542,-0.02678338997066021,0.2053026407957077,9.432249069213867
7.78,0.0020493147894740105,-0.027506323531270027,-0.04409124702215195,0.07902559638023376,0.27181389927864075,10.686867713928223
7.8,-0.02370615489780903,0.022593196481466293,-0.008208611980080605,0.16788539290428162,0.35597795248031616,10.566546440124512
7.82,-0.005497128702700138,0.05643628165125847,0.01682678982615471,0.32961803674697876,0.40464261174201965,9.665650367736816
7.84,0.01894315890967846,-0.019247116521000862,0.03199873864650726,0.27662765979766846,0.48780232667922974,9.161460876464844
7.86,0.04773164168000221,-0.015877753496170044,0.01920904777944088,-0.08062747865915298,0.43096429109573364,9.122586250305176
7.88,-0.00752046937122941,0.06737367808818817,0.00509073119610548,-0.13343378901481628,0.18371808528900146,9.865795135498047
7.9,0.016427285969257355,0.044616978615522385,-0.01113882102072239,0.07028671354055405,0.17627833783626556,10.751253128051758
7.92,0.0285883117467165,-0.009765618480741978,-0.012565506622195244,0.11155955493450165,0.36372438073158264,10.037282943725586
7.94,0.00358790997415781,0.0068999663926661015,-0.0017995582893490791,-0.03386509045958519,0.5550719499588013,8.940796852111816
7.96,0.019228793680667877,0.01976834423840046,0.015823347494006157,-0.18445958197116852,0.4604942202568054,9.604809761047363
7.98,0.024403301998972893,-0.07083866000175476,0.029658129438757896,-0.14033092558383942,0.5349695086479187,10.132716178894043
8.0,0.008481025695800781,-0.09637978672981262,0.02153177373111248,-0.06786246597766876,0.40476131439208984,9.746070861816406
8.02,-0.0010922070359811187,7.240366539917886e-05,-0.018137624487280846,-0.20245660841464996,0.5886877179145813,9.55992317199707
8.040000000000001,0.010616597719490528,-0.005445785820484161,-0.03554794192314148,-0.5270212888717651,0.6185685396194458,9.664613723754883
8.06,-0.043762464076280594,-0.04766389727592468,-0.020792411640286446,-0.432908296585083,0.6343762874603271,9.895002365112305
8.08,0.02252674102783203,-0.007921820506453514,0.0023237692657858133,-0.4334653317928314,0.5286650061607361,9.657242774963379
8.1,0.02496275119483471,0.07787659764289856,0.013369129039347172,-0.44798460602760315,0.24089014530181885,10.206748962402344
8.120000000000001,-0.014000562019646168,0.041312120854854584,0.024455342441797256,0.24202685058116913,0.05057600140571594,10.568486213684082
8.14,0.0427413247525692,-0.06509988009929657,0.011698677204549313,0.7595527768135071,0.16407553851604462,9.582317352294922
8.16,0.028344744816422462,-0.023339340463280678,-0.011085405945777893,0.7009329795837402,0.22582568228244781,8.59688663482666
8.18,0.07681514322757721,-0.00010514299356145784,-0.024765804409980774,0.2623431980609894,0.4847543239593506,9.803817749023438
8.2,0.03269355371594429,-0.048380084335803986,-0.0022252416238188744,-0.4687705934047699,0.639981746673584,10.815945625305176
8.22,0.009102893061935902,-0.027004964649677277,0.014571226201951504,-0.6799741387367249,0.8381929397583008,10.615327835083008
8.24,0.05163241922855377,0.023301832377910614,0.00437917048111558,-0.5679678916931152,0.5998486876487732,9.549565315246582
8.26,0.003231592709198594,0.01690717414021492,0.0012149641988798976,-0.07288339734077454,0.461651474237442,9.179282188415527
8.28,0.014270984567701817,-0.01750333234667778,-0.00817055068910122,0.510063886642456,0.4152529835700989,9.249035835266113
8.3,0.026687193661928177,-0.01987205259501934,-0.0066258255392313,0.7661675214767456,0.44920700788497925,9.859786987304688
8.32,0.016922222450375557,0.038136791437864304,-0.02068929374217987,0.48041096329689026,0.5139330625534058,10.267438888549805
8.34,0.0119581064209342,0.04813876748085022,-0.014083621092140675,0.07141245156526566,0.48127514123916626,9.723366737365723
8.36,-0.005518173333257437,0.004736841656267643,-0.015589732676744461,-0.19919726252555847,0.6361279487609863,9.17144775390625
8.38,-0.04537086933851242,0.02627180702984333,-0.010067310184240341,-0.31537002325057983,0.7413265109062195,8.939016342163086
8.4,-0.01850236766040325,0.07366471737623215,-0.015012886375188828,-0.22383372485637665,0.5759591460227966,9.4812593460083
8.42,-0.08639901131391525,0.07376715540885925,-0.018667424097657204,-0.06457861512899399,0.3131343424320221,10.205620765686035
8.44,-0.03275269269943237,0.05102496221661568,-0.014579824171960354,0.15661539137363434,0.43863993883132935,10.044878959655762
8.46,-0.006538836285471916,0.08118604868650436,-0.004287251271307468,0.2552543878555298,0.6230713129043579,9.882471084594727
8.48,-0.04745521768927574,0.04048619046807289,0.012685103341937065,0.04143301770091057,0.420343279838562,10.40578556060791
8.5,-0.035917237401008606,-0.01914491318166256,0.015128931030631065,-0.30275648832321167,0.404949426651001,9.692681312561035
8.52,-0.006955541204661131,-0.03243605047464371,0.016213450580835342,-0.2541196644306183,0.36407753825187683,9.37846851348877
8.540000000000001,-0.02396119199693203,-0.01647428423166275,0.028791720047593117,-0.40009889006614685,0.4518318772315979,10.429823875427246
8.56,0.014897558838129044,-0.04424794018268585,0.025663474574685097,-0.5393935441970825,0.4015442132949829,10.521011352539062
8.58,0.027047213166952133,-0.07325532287359238,0.022713813930749893,-0.5302585959434509,0.13128270208835602,9.449835777282715
8.6,-0.0007061489741317928,-0.03284403681755066,-0.011550059542059898,-0.47424575686454773,0.085268035531044,8.881860733032227
8.620000000000001,0.05059030279517174,0.011402830481529236,-0.026542505249381065,-0.44439104199409485,0.4158230125904083,9.714585304260254
8.64,0.01902712695300579,-0.00030554531258530915,-0.004201688803732395,-0.45190468430519104,0.5034314393997192,10.266968727111816
8.66,0.05494032800197601,-0.0241705309599638,-0.00278913090005517,-0.1918887197971344,0.5366997122764587,10.33132553100586
8.68,0.0015340081881731749,-0.0273436289280653,-0.028975175693631172,-0.012606626376509666,0.7431161403656006,9.737374305725098
8.700000000000001,0.03754739463329315,-0.014211959205567837,-0.05186788737773895,0.2911109924316406,0.7390401363372803,10.097152709960938
8.72,-0.030597597360610962,-0.05143989622592926,-0.03396300598978996,0.5076941251754761,0.6455758213996887,9.903626441955566
8.74,-0.02936439774930477,-0.07339264452457428,-0.018877757713198662,0.40228086709976196,0.48691150546073914,9.383137702941895
8.76,-0.058807551860809326,-0.03234889730811119,-0.009973539970815182,0.08753789961338043,0.46438267827033997,9.424541473388672
8.78,-0.043171290308237076,0.0011973297223448753,0.002100057667121291,-0.05854225531220436,0.5675294995307922,9.757501602172852
8.8,-0.041841596364974976,0.015431290492415428,0.009122743271291256,0.01317907590419054,0.49876055121421814,9.418132781982422
8.82,-0.06315315514802933,0.004558143205940723,0.012232576496899128,0.25290578603744507,0.373517245054245,9.153144836425781
8.84,-0.05344465747475624,0.0468948557972908,-0.01405063085258007,0.26211145520210266,0.2795281708240509,9.884133338928223
8.86,-0.01953529566526413,0.08977039903402328,-0.007876288145780563,0.32951000332832336,0.477836936712265,10.631361961364746
8.88,-0.03614606335759163,0.05438311770558357,0.004960736259818077,0.30014103651046753,0.5159916281700134,10.159553527832031
8.9,-0.0024339461233466864,0.01655212789773941,0.0075143431313335896,-0.08827939629554749,0.5637602210044861,9.363033294677734
8.92,-0.0330013781785965,0.0683455839753151,-0.014701680280268192,-0.2876138687133789,0.31425362825393677,9.432891845703125
8.94,-0.0030375258065760136,0.04667134955525398,-0.009483249858021736,-0.23839890956878662,0.18523263931274414,9.7117338180542
8.96,-0.050761379301548004,-0.010194074362516403,0.0036104971077293158,-0.20065762102603912,0.2594589293003082,9.589895248413086
8.98,0.0036941077560186386,0.04437829926609993,0.0169929638504982,-0.5144349932670593,0.3647555708885193,10.038137435913086
9.0,-0.0328415147960186,0.10127882659435272,0.008316874504089355,-0.6276858448982239,0.42685335874557495,10.737680435180664
9.02,-0.05973103642463684,0.019817451015114784,-0.016666557639837265,-0.41670742630958557,0.6780476570129395,10.116265296936035
9.040000000000001,-0.029548395425081253,-0.033504337072372437,-0.022381288930773735,-0.19037851691246033,0.6426337957382202,8.950489044189453
9.06,0.06475868821144104,0.05062985047698021,-0.0019034803844988346,-0.056752223521471024,0.19680671393871307,9.576393127441406
9.08,-0.006998321041464806,0.01936974562704563,0.012437346391379833,0.242376908659935,-0.22678242623806,10.51482105255127
9.1,0.03184278681874275,-0.10959529876708984,0.025050444528460503,0.1959044486284256,-0.1761254221200943,9.779016494750977
9.120000000000001,0.024113841354846954,-0.08596380054950714,0.02672570012509823,-0.024671630933880806,0.36362767219543457,8.952765464782715
9.14,0.021175473928451538,0.0022759109269827604,0.028060436248779297,-0.3262028694152832,0.8269072771072388,10.028977394104004
9.16,0.019691508263349533,0.000955576600972563,0.013136778958141804,-0.48188477754592896,0.8786417245864868,10.31905460357666
9.18,0.022511351853609085,-0.017251046374440193,-0.010463383048772812,-0.47809678316116333,0.6668151617050171,9.558382034301758
9.200000000000001,0.019986972212791443,0.0447443351149559,-0.013478475622832775,-0.4291393756866455,0.4566498100757599,9.695029258728027
9.22,-0.0282998476177454,0.09207676351070404,-0.030435478314757347,-0.10472708195447922,0.3683796525001526,9.852860450744629
9.24,-0.0327799916267395,0.026338456198573112,-0.03617137297987938,0.5971571207046509,0.3543388247489929,9.31734848022461
9.26,-0.022306149825453758,-0.0037402561865746975,-0.01188844908028841,0.7201323509216309,0.3366764783859253,9.417088508605957
9.28,0.05865546688437462,0.01976415328681469,0.026153773069381714,0.18286095559597015,0.1778898388147354,10.70937728881836
9.3,0.02695026434957981,0.00046486599603667855,0.026426395401358604,-0.47103506326675415,0.1718853861093521,11.43981647491455
9.32,0.029887191951274872,-0.05108685418963432,0.02416047267615795,-0.3886418044567108,0.42070332169532776,9.912012100219727
9.34,0.04932577535510063,-0.029584161937236786,0.020607518032193184,-0.23580217361450195,0.3962831199169159,7.944581031799316
9.36,0.04879959672689438,0.0074948035180568695,-0.016609204933047295,-0.2553172707557678,0.1336032748222351,8.184676170349121
9.38,-0.011335290968418121,-0.032702479511499405,-0.028752848505973816,-0.26797571778297424,0.6744838953018188,9.852287292480469
9.4,-0.027241218835115433,-0.041443657130002975,-0.04184524342417717,-0.08003122359514236,1.1524802446365356,10.282831192016602
9.42,-0.07178794592618942,-0.00032324163476005197,-0.04314861074090004,-0.12361602485179901,1.0193573236465454,9.95975399017334
9.44,-0.11169540137052536,0.010245361365377903,-0.032843656837940216,-0.16477172076702118,0.8196200132369995,9.907817840576172
9.46,-0.07455585896968842,-0.06557779759168625,-0.016784213483333588,-0.016937514767050743,0.8215675354003906,10.060962677001953
9.48,-0.04210904240608215,-0.10473755747079849,0.012523169629275799,0.21887610852718353,0.5186181664466858,9.712836265563965
9.5,-0.06992356479167938,-0.044917840510606766,0.04370500147342682,0.07307344675064087,0.07979732751846313,9.714676856994629
9.52,-0.027045054361224174,0.00035322949406690896,0.04199238121509552,-0.5102593898773193,-0.38770902156829834,10.04360294342041
9.540000000000001,-0.026950575411319733,-0.014660344459116459,0.02285195142030716,-0.8449632525444031,-0.4657750129699707,10.673582077026367
9.56,0.03286220505833626,-0.006600543856620789,0.011226203292608261,-0.8487797379493713,0.12493941187858582,9.978911399841309
9.58,0.039387304335832596,0.028429634869098663,0.0056936428882181644,-0.6973962783813477,0.48414409160614014,9.539945602416992
9.6,0.05361544340848923,0.0039820801466703415,0.006845072377473116,0.19543279707431793,0.06526339799165726,9.886205673217773
9.620000000000001,0.06694221496582031,-0.028043417260050774,0.0017780887428671122,1.0251270532608032,0.14149296283721924,9.778167724609375
9.64,0.05150308459997177,-0.00904145184904337,0.006412546616047621,1.060706377029419,0.5196210741996765,9.716014862060547
9.66,0.022728094831109047,0.024722870439291,-0.0049136425368487835,0.5472263693809509,0.7444190979003906,9.769111633300781
9.68,0.04038984328508377,-0.009435635060071945,-0.023636920377612114,-0.15134064853191376,0.7248817682266235,9.723262786865234
9.700000000000001,-0.0019642033148556948,-0.03369378298521042,-0.02477387897670269,-0.5557301640510559,0.6799168586730957,9.535245895385742
9.72,0.016916703432798386,0.0022331003565341234,-0.0024356243666261435,-0.5991407632827759,0.47045546770095825,10.423319816589355
9.74,0.01499467808753252,0.03641335666179657,0.01584484986960888,-0.11396034061908722,0.4051297903060913,10.556601524353027
9.76,0.019062558189034462,-0.006636097561568022,0.004376403987407684,0.31300097703933716,0.36979973316192627,9.250046730041504
9.78,0.014129109680652618,-0.019082775339484215,0.0073377108201384544,0.4349589943885803,0.42506828904151917,8.200828552246094
9.8,0.026978464797139168,-0.006875638850033283,-0.01085667498409748,0.19775095582008362,0.518066942691803,8.939288139343262
9.82,-0.03149689733982086,-0.02910660021007061,-0.011148577556014061,-0.2003118097782135,0.5383695363998413,10.40616226196289
9.84,-0.03655247017741203,-0.05433562770485878,-0.028008434921503067,-0.4428558945655823,0.5796517133712769,10.344801902770996
9.86,-0.03984446823596954,-0.032225001603364944,-0.02308689057826996,-0.5976279377937317,0.725430965423584,9.94703483581543
9.88,-0.0920901894569397,-0.0005101219867356122,-0.014103234745562077,-0.5874369144439697,0.8413071036338806,10.04007625579834
9.9,-0.06394555419683456,0.01487715169787407,-0.009984285570681095,-0.403245210647583,0.8284573554992676,9.876888275146484
9.92,-0.10246352106332779,0.0073777311481535435,0.007391877472400665,0.13536006212234497,0.6495760083198547,9.377147674560547
9.94,-0.0580635666847229,0.017092501744627953,0.013820085674524307,0.5913203358650208,0.25683853030204773,9.268741607666016
9.96,-0.0863262414932251,0.01472408790141344,-0.0028720989357680082,0.6746218800544739,0.026986246928572655,9.332483291625977
9.98,-0.07947162538766861,0.006583664566278458,-0.006884127389639616,0.47090020775794983,0.05792946740984917,9.574480056762695
10.0,-0.0760621502995491,-0.016255764290690422,-0.002136798109859228,0.13125233352184296,0.12912696599960327,9.821183204650879
10.02,-0.055024050176143646,-0.013255723752081394,0.0012202253565192223,-0.09709621965885162,-0.03144996613264084,10.044679641723633
10.040000000000001,-0.029385151341557503,-0.01846538484096527,0.0019180236849933863,-0.29891547560691833,0.019361544400453568,10.661483764648438
10.06,0.026925016194581985,-0.006820347625762224,0.020320992916822433,-0.3235713839530945,-0.043445710092782974,10.848197937011719
10.08,0.049799490720033646,0.017195841297507286,0.036613062024116516,-0.3414812386035919,-0.02083934098482132,9.732606887817383
10.1,0.014131559990346432,-0.02068474516272545,0.024735858663916588,-0.5101411938667297,-0.09731731563806534,9.03227710723877
10.120000000000001,0.021603107452392578,-0.055819328874349594,0.0015138244489207864,-0.6188867092132568,0.2335517257452011,9.738565444946289
10.14,0.014562305063009262,-0.03483331575989723,-0.016886956989765167,-0.5859504342079163,0.851797342300415,10.39948844909668
10.16,-0.006287995260208845,0.009860430844128132,-0.009579971432685852,-0.6154581904411316,1.1128913164138794,10.413987159729004
10.18,0.022492343559861183,0.04797422140836716,-0.011891509406268597,-0.5364313721656799,0.7711385488510132,9.77258014678955
10.200000000000001,-0.06185209006071091,-0.022297965362668037,-0.03336953744292259,0.2845359146595001,0.3199944496154785,8.978549003601074
10.22,-0.04459873214364052,-0.03806442767381668,-0.031967710703611374,0.9286510944366455,0.19909577071666718,8.476922035217285
10.24,-0.02183527499437332,0.0286865234375,-0.018199952319264412,1.0736318826675415,0.1935870200395584,9.117911338806152
10.26,-0.025408709421753883,0.06269201636314392,0.016635281965136528,0.7925814986228943,0.2940289080142975,10.188084602355957
10.28,-0.05904170498251915,0.05564544349908829,0.026366036385297775,0.3152736723423004,0.22432519495487213,10.61827278137207
10.3,-0.02511441521346569,0.07247304916381836,0.01101426687091589,-0.25036561489105225,0.1809852123260498,10.368071556091309
10.32,-0.05736057460308075,0.09159302711486816,-0.001740634092129767,-0.47258907556533813,0.2576481103897095,9.912891387939453
10.34,-0.039939671754837036,0.09513065963983536,0.00492558628320694,-0.2730986475944519,0.5451027750968933,9.894948959350586
10.36,-0.024883000180125237,0.09448237717151642,0.0057479022070765495,0.05147532746195793,0.5889458060264587,9.652094841003418
10.38,-0.014355061575770378,0.0654156282544136,-0.0001582159020472318,0.25504276156425476,0.23853906989097595,9.582889556884766
10.4,-0.011385293677449226,0.01891712099313736,-0.009935642592608929,0.019421299919486046,-0.05514194443821907,9.177349090576172
10.42,-0.013826440088450909,-0.028188388794660568,-0.01969529502093792,-0.154058039188385,-0.08535569906234741,9.356585502624512
10.44,0.0030871580820530653,-0.07077290117740631,-0.005346119403839111,-0.07617908716201782,0.1371537297964096,10.140632629394531
10.46,0.025016486644744873,-0.11934483796358109,0.01980006694793701,-0.4166800379753113,-0.009705916047096252,10.905708312988281
10.48,0.02408633567392826,-0.0521247573196888,-0.002925827167928219,-1.138517141342163,-0.13227716088294983,10.600001335144043
10.5,0.031217779964208603,0.030299676582217216,-0.03438606113195419,-1.271897792816162,0.20296603441238403,9.844280242919922
10.52,-0.02275444008409977,-0.011905428022146225,-0.04585661739110947,-0.8692143559455872,0.44573819637298584,9.017237663269043
10.540000000000001,0.036550816148519516,-0.06350967288017273,-0.05832727625966072,-0.5978695750236511,0.6634566187858582,8.895916938781738
10.56,-0.04941597208380699,-0.005561161320656538,-0.05488983541727066,-0.3660331070423126,0.8202352523803711,9.367112159729004
10.58,-0.07087153941392899,0.027988824993371964,-0.011284074746072292,0.1961648017168045,0.8997812867164612,10.142316818237305
10.6,-0.011208722367882729,-0.011883432976901531,0.052859995514154434,0.5869178771972656,0.580033004283905,10.420647621154785
10.620000000000001,0.01429758407175541,-0.07078293710947037,0.08730129897594452,0.6904913187026978,0.05154665559530258,10.044084548950195
10.64,0.0058446950279176235,-0.020230932161211967,0.0539490208029747,0.317607581615448,-0.10886699706315994,10.369558334350586
10.66,0.05014422908425331,0.02123672142624855,0.01173784863203764,0.14354585111141205,-0.27268186211586,10.471713066101074
10.68,0.03233626112341881,-0.02841770648956299,-0.04557150602340698,0.1765420287847519,-0.32437705993652344,9.63065242767334
10.700000000000001,0.06434597074985504,-0.03984133526682854,-0.06202106177806854,-0.013454796746373177,-0.26545464992523193,8.733026504516602
10.72,0.008586561307311058,-0.020181767642498016,-0.0653621181845665,-0.03360225260257721,-0.026338594034314156,9.314598083496094
10.74,0.03446871414780617,0.011505207046866417,-0.014928909949958324,-0.10073257982730865,0.4645707607269287,10.414734840393066
10.76,0.016840055584907532,0.001903342898003757,0.029332125559449196,-0.2448190301656723,1.045167088508606,10.902261734008789
10.78,0.042973779141902924,0.019873956218361855,0.05288410186767578,-0.13895052671432495,1.1831204891204834,10.001673698425293
10.8,0.014829382300376892,-0.0037974100559949875,0.03049510531127453,0.012702813372015953,0.8309834599494934,8.834802627563477
10.82,0.0525810644030571,-0.06264588981866837,-0.011359740048646927,0.036033306270837784,0.14209483563899994,8.468274116516113
10.84,0.004023858346045017,-0.05188542976975441,-0.02915783040225506,-0.069892019033432,-0.2683092951774597,9.118719100952148
10.86,-0.06295563280582428,-0.002840152708813548,-0.036224544048309326,-0.05053967982530594,-0.18325583636760712,10.173608779907227
10.88,-0.015737326815724373,0.0010796714341267943,-0.03381669521331787,0.05891051143407822,0.31461140513420105,10.677485466003418
10.9,-0.06473208963871002,-0.014683964662253857,-0.012531876564025879,-0.06371573358774185,0.7885400056838989,10.26362419128418
10.92,-0.04353642091155052,-0.0023108418099582195,0.009448746219277382,-0.0463336706161499,0.9884229898452759,9.276485443115234
10.94,-0.07393458485603333,0.01748206652700901,0.01665205880999565,0.0971997082233429,0.7863664031028748,9.080741882324219
10.96,-0.012012569233775139,-0.016973908990621567,0.004103497136384249,0.24036186933517456,0.20088747143745422,9.581636428833008
10.98,-0.06456460058689117,-0.03963537886738777,-0.011957451701164246,0.12251196056604385,-0.17850741744041443,10.203389167785645
11.0,-0.07326996326446533,-0.043765466660261154,-0.030473733320832253,-0.00023377069737762213,-0.03248782083392143,10.592557907104492
11.02,-0.03448460251092911,-0.07766445726156235,-0.034303463995456696,-0.12386783212423325,0.1226508840918541,10.307827949523926
11.040000000000001,0.040793318301439285,-0.05993420258164406,-0.011086557060480118,-0.29144027829170227,0.05087944492697716,9.627270698547363
11.06,-0.002402686281129718,-0.03890543431043625,0.01688125543296337,-0.6454880833625793,-0.11346171051263809,9.689434051513672
11.08,0.04731278121471405,-0.05153985694050789,0.016359297558665276,-0.6802972555160522,-0.17944534122943878,9.799195289611816
11.1,0.027351289987564087,-0.04238678887486458,0.01689830794930458,-0.5746614933013916,0.14605125784873962,9.64592170715332
11.120000000000001,-0.03169125318527222,0.00827070139348507,0.014305424876511097,-0.4108453094959259,0.5693185329437256,9.858943939208984
11.14,0.06015202775597572,-0.0009142199996858835,0.01628786511719227,0.36369577050209045,0.6210082173347473,9.746213912963867
11.16,0.0023836391046643257,-0.011277751065790653,0.01565876044332981,0.8543773293495178,0.4589499533176422,9.50197982788086
11.18,0.047419898211956024,0.03608482703566551,-0.01314331591129303,0.9668583273887634,0.3376024663448334,9.725850105285645
11.200000000000001,0.001183928456157446,0.020085409283638,-0.04047120735049248,0.7934946417808533,0.2682446837425232,10.29648494720459
11.22,-0.04087931662797928,-0.013341867364943027,-0.03379088640213013,0.513217031955719,0.3742879629135132,10.121874809265137
11.24,-0.00024526563356630504,-0.028174441307783127,-0.014069899916648865,0.22870996594429016,0.484824538230896,9.298530578613281
11.26,-0.031390875577926636,0.003183390712365508,0.013220289722084999,0.18284983932971954,0.3924916386604309,8.550034523010254
11.28,-0.04607454314827919,-0.014449520967900753,0.017662309110164642,0.15261204540729523,0.38369470834732056,9.074825286865234
11.3,-0.08347466588020325,-0.06890053302049637,-0.0048898858949542046,0.12219192087650299,0.3713605999946594,10.171045303344727
11.32,-0.08822134882211685,-0.10207238793373108,-0.024895120412111282,-0.203942209482193,0.4830164313316345,10.248503684997559
11.34,-0.08492004126310349,-0.09646493196487427,0.007464946713298559,-0.7342169284820557,0.3305463194847107,10.279963493347168
11.36,-0.09727558493614197,-0.09316661953926086,0.016281364485621452,-1.1837369203567505,0.22882024943828583,10.538620948791504
11.38,-0.07249684631824493,-0.07909827679395676,0.04170450568199158,-1.106423020362854,0.22388286888599396,10.474535942077637
11.4,-0.008731870912015438,-0.09744955599308014,0.06451147794723511,-0.7806378602981567,-0.06134079396724701,10.21905517578125
11.42,-0.043107710778713226,-0.1263449639081955,0.048961788415908813,-0.49833929538726807,-0.5074321627616882,9.519220352172852
11.44,-0.005508917383849621,-0.08149853348731995,0.02323843352496624,-0.5593357086181641,-0.3979646563529968,8.859545707702637
11.46,0.05557597428560257,-0.01613715849816799,0.007003783248364925,-0.3139256536960602,-0.04840942099690437,9.213016510009766
11.48,0.05264107510447502,-0.01695016399025917,-0.007517128251492977,0.23893125355243683,0.26486265659332275,10.104253768920898
11.5,0.0775923952460289,-0.04334381967782974,-0.013891647569835186,0.9141044616699219,0.27423378825187683,10.595672607421875
11.52,0.025495005771517754,-0.1003432497382164,-0.017781220376491547,1.379429578781128,0.10393967479467392,10.558202743530273
11.540000000000001,0.0417182631790638,-0.1030423492193222,-0.005924926605075598,1.4560792446136475,0.01522265374660492,9.839385986328125
11.56,-0.014321273192763329,-0.07173249870538712,-0.0030443312134593725,1.1804347038269043,0.3340921103954315,9.26330280303955
11.58,-0.024076372385025024,-0.056030530482530594,0.0051211146637797356,0.7324890494346619,0.7241281270980835,8.776891708374023
11.6,-0.07290786504745483,-0.042204804718494415,0.022344300523400307,0.3021693527698517,0.9943480491638184,9.247727394104004
11.620000000000001,-0.07299813628196716,0.017336146906018257,0.023409053683280945,0.19291183352470398,0.9559875130653381,10.103425025939941
11.64,-0.05680282413959503,0.05371926352381706,0.008023238740861416,0.39701712131500244,0.5139929056167603,9.862222671508789
11.66,-0.08583466708660126,0.04436682537198067,0.0030105547048151493,0.5514185428619385,-0.08052975684404373,9.239013671875
11.68,-0.06458961963653564,0.04382510483264923,-0.007666755933314562,0.6429309248924255,-0.30626073479652405,9.378524780273438
11.700000000000001,-0.057525210082530975,0.09480001777410507,-0.012670423835515976,0.4840548634529114,-0.1420307755470276,10.048172950744629
11.72,0.03131842613220215,0.11635790020227432,-0.0018413200741633773,0.41510602831840515,0.03143360838294029,10.50340461730957
11.74,0.03009602054953575,0.10413704067468643,0.009454946964979172,0.15085095167160034,-0.060909539461135864,10.1959867477417
11.76,0.06859190762042999,0.09802201390266418,-0.01729770563542843,-0.031105341389775276,-0.44293496012687683,9.283248901367188
11.78,0.028174743056297302,0.15575550496578217,-0.03450760245323181,-0.14941325783729553,-0.4960992932319641,8.960606575012207
11.8,0.03773624822497368,0.12255886197090149,-0.021179288625717163,-0.07639079540967941,0.11445232480764389,10.322211265563965
11.82,-0.006945562548935413,0.023420697078108788,0.01815425232052803,-0.007846452295780182,0.7244961261749268,10.831037521362305
11.84,-0.0009834495140239596,0.015036010183393955,0.04298277944326401,-0.06174662709236145,0.9048624038696289,10.153385162353516
11.86,0.04308176040649414,0.030689002946019173,0.03850080817937851,-0.05565887689590454,0.6305882930755615,9.387079238891602
11.88,0.035189371556043625,-0.014203010126948357,0.035977914929389954,-0.12332738935947418,0.0451175756752491,9.163418769836426
11.9,-0.009260501712560654,-0.03671637549996376,0.010747220367193222,-0.2677858769893646,-0.20339545607566833,9.411242485046387
11.92,0.02599964663386345,-0.02402098849415779,-0.00962380226701498,-0.497511625289917,-0.12080894410610199,10.194843292236328
11.94,-0.0026705036871135235,-0.000377287418814376,-0.021333295851945877,-0.559890627861023,0.03824257478117943,10.757689476013184
11.96,0.01014808751642704,0.04173589125275612,-0.018584469333291054,-0.4166613817214966,0.32710450887680054,9.741230010986328
11.98,0.015412263572216034,0.0640532597899437,-0.0014800128992646933,0.24365347623825073,0.37717750668525696,8.699657440185547
12.0,0.07760202884674072,0.03162641078233719,0.02624473161995411,0.8290385007858276,0.30975204706192017,9.192200660705566
12.02,-0.04296018183231354,0.0548478402197361,0.02595428004860878,0.9360809922218323,0.34959515929222107,10.805548667907715
12.040000000000001,0.0022674198262393475,0.07354851812124252,0.016362370923161507,0.7402113676071167,0.49556756019592285,10.813854217529297
12.06,0.010649078525602818,0.050103552639484406,0.023343240842223167,0.28136464953422546,0.09257708489894867,9.699335098266602
12.08,0.00960257276892662,0.031257420778274536,0.026190349832177162,-0.31046023964881897,-0.11430415511131287,9.226037979125977
12.1,0.02695424109697342,0.005736127961426973,0.01069624349474907,-0.6252017021179199,-0.026746269315481186,10.174854278564453
12.120000000000001,0.04109674319624901,-0.028852347284555435,-0.0034457058645784855,-0.637546956539154,-0.0019407711224630475,10.395219802856445
12.14,0.06946276873350143,-0.03345465660095215,-0.0005420281668193638,-0.46697482466697693,-0.02747606486082077,9.541516304016113
12.16,0.02665669284760952,-0.02609049342572689,-0.022715546190738678,-0.36941707134246826,-0.08752567321062088,9.617341041564941
12.18,0.034058425575494766,-0.06847184896469116,-0.03721312806010246,-0.19925129413604736,0.2608407139778137,9.91436767578125
12.200000000000001,-0.015419288538396358,-0.11536814272403717,-0.019118864089250565,-0.15880906581878662,0.819974422454834,9.958956718444824
12.22,0.04094540327787399,-0.09542160481214523,0.004487201571464539,0.035640351474285126,1.054498314857483,9.660712242126465
12.24,0.009868285618722439,-0.059181924909353256,0.033930227160453796,0.22569802403450012,0.545520007610321,9.40029525756836
12.26,0.04000239819288254,-0.05576477572321892,0.021604321897029877,0.3781414031982422,-0.08780265599489212,9.1809663772583
12.280000000000001,0.02879619225859642,-0.047250691801309586,-0.00934645626693964,0.4902784824371338,-0.2311326265335083,9.364727020263672
12.3,0.0031263025011867285,0.0086179468780756,-0.030968548730015755,0.6852491497993469,-0.03817332163453102,10.050263404846191
12.32,0.047252755612134933,0.026940802112221718,-0.021660935133695602,0.7348607778549194,0.2045089155435562,10.276885032653809
12.34,0.03073291853070259,0.00091669982066378,-0.004245647229254246,0.5645163655281067,0.17034760117530823,9.711400032043457
12.36,0.02996266819536686,0.01580708473920822,0.010363904759287834,0.21460850536823273,0.27386215329170227,9.3450345993042
12.38,0.04715906083583832,0.05091411992907524,0.006705472245812416,-0.022033531218767166,0.49211061000823975,9.9365873336792
12.4,0.02376684732735157,0.05322788283228874,0.010548369958996773,-0.11733304709196091,0.463172048330307,10.258479118347168
12.42,0.0197981558740139,0.014079497195780277,0.015701912343502045,-0.20998676121234894,0.350970983505249,10.08563232421875
12.44,0.06983768194913864,0.01670927181839943,-0.011268172413110733,-0.2708183228969574,0.1170201450586319,9.495408058166504
12.46,0.028916379436850548,0.03902588039636612,-0.001400784240104258,-0.1873178482055664,0.1180477887392044,9.388092994689941
12.48,0.0470852367579937,0.029328392818570137,-0.0016643223352730274,-0.04186544567346573,0.2982313334941864,9.99061107635498
12.5,0.06537362188100815,0.02860541269183159,0.0038494172040373087,0.07348703593015671,0.6081128716468811,10.395543098449707
12.52,0.04859521985054016,0.03601926937699318,0.013107051141560078,0.002977503463625908,0.6274744272232056,10.11800479888916
12.540000000000001,0.030075911432504654,0.04223975911736488,0.011940214782953262,-0.033969324082136154,0.5381792783737183,9.767424583435059
12.56,0.02736404351890087,0.030990494415163994,-0.0007562095997855067,0.005621387157589197,0.6033804416656494,9.892261505126953
12.58,0.04473619908094406,-0.00434291223064065,0.0019988534040749073,0.14484374225139618,0.403120219707489,10.157233238220215
12.6,-0.038702335208654404,-0.042484089732170105,-0.01834876462817192,0.11127917468547821,0.287374347448349,10.094460487365723
12.620000000000001,-0.05339973419904709,-0.08179659396409988,-0.029220398515462875,0.12046429514884949,0.32376980781555176,9.429426193237305
12.64,-0.02491316944360733,-0.08600272238254547,-0.027264999225735664,-0.14057715237140656,0.4889083504676819,8.813201904296875
12.66,-0.0596131794154644,-0.0686185210943222,-0.018230659887194633,-0.23811888694763184,0.5697040557861328,9.003965377807617
12.68,-0.05857773497700691,-0.08936914801597595,-0.006745796650648117,-0.3771354854106903,0.4425505995750427,10.197755813598633
12.700000000000001,-0.027413148432970047,-0.08553744107484818,-0.01670348271727562,-0.36268946528434753,0.1739525943994522,10.654644966125488
12.72,0.006208972539752722,-0.06422517448663712,-0.012107688933610916,0.09278969466686249,0.08128927648067474,10.297503471374512
12.74,-0.04207678511738777,-0.0869293361902237,-0.01209388766437769,0.5932729244232178,0.16448292136192322,9.653202056884766
12.76,-0.062211379408836365,-0.10055836290121078,-0.008167131803929806,0.7278379797935486,0.30711373686790466,8.946037292480469
12.780000000000001,-0.05264782905578613,-0.0737166777253151,-0.011711573228240013,0.6425830721855164,0.43274232745170593,9.095356941223145
12.8,-0.0687643364071846,-0.07874006778001785,-0.009053712710738182,0.5004830360412598,0.5689955949783325,9.421492576599121
12.82,-0.04610689356923103,-0.08585727214813232,-0.008927377872169018,0.1006324514746666,0.4199642539024353,9.787246704101562
12.84,-0.04369653761386871,-0.020084211602807045,0.002266769064590335,-0.18289273977279663,0.15029039978981018,10.068370819091797
12.86,-0.011538559570908546,0.03537706658244133,0.011334605515003204,0.03937356919050217,-0.09290491789579391,10.07952880859375
12.88,0.02401215210556984,0.04181751608848572,0.020328981801867485,0.5601772665977478,-0.18323390185832977,9.841171264648438
12.9,0.019753649830818176,0.054679084569215775,0.004013927653431892,0.9627884030342102,-0.2596847712993622,9.46216106414795
12.92,0.025544025003910065,0.060374487191438675,-0.00971804279834032,1.103676438331604,-0.09215764701366425,9.631993293762207
12.94,0.04104558750987053,0.0649031400680542,0.0016367746284231544,0.9527977705001831,0.30878493189811707,9.881601333618164
12.96,0.003882454475387931,0.049110058695077896,0.004712461493909359,0.45878317952156067,0.5796278715133667,9.681233406066895
12.98,-0.007357337512075901,0.030982518568634987,-0.0005902663106098771,0.16322846710681915,0.540917694568634,9.369617462158203
13.0,-0.019166115671396255,0.042079996317625046,-0.01158932689577341,0.26240164041519165,0.4593270421028137,9.431882858276367
13.02,-0.028915930539369583,0.028054343536496162,-0.023808158934116364,0.14760944247245789,0.41105541586875916,9.594500541687012
13.040000000000001,-0.042109414935112,0.05194567143917084,-0.02531220205128193,-0.21579468250274658,0.46447789669036865,9.836677551269531
13.06,-0.04914579167962074,0.06660738587379456,-0.020526552572846413,-0.39278262853622437,0.28444039821624756,10.134320259094238
13.08,-0.04510742053389549,0.056979671120643616,-0.01817481219768524,-0.3632981479167938,0.36465200781822205,10.170903205871582
13.1,-0.0436670146882534,0.08150136470794678,-0.006619052495807409,-0.5092819929122925,0.291599303483963,10.055063247680664
13.120000000000001,-0.030379632487893105,0.13513599336147308,-0.0002659305464476347,-0.3200036585330963,0.18044883012771606,10.145801544189453
13.14,-0.011346956714987755,0.12163025885820389,0.0032486259005963802,-0.20658014714717865,-0.07816275954246521,9.798754692077637
13.16,-0.024043995887041092,0.0865740105509758,0.017819790169596672,-0.33443719148635864,-0.01892954856157303,10.197882652282715
13.18,0.022406823933124542,0.058893609791994095,0.019150875508785248,-0.5194056034088135,0.03442670404911041,10.217985153198242
13.200000000000001,0.07253072410821915,0.05650276318192482,0.025536812841892242,-0.3956283926963806,-0.16237956285476685,10.058879852294922
13.22,0.0687660500407219,-0.0003275750204920769,0.01833374984562397,0.03698703646659851,-0.19288159906864166,9.919129371643066
13.24,0.05718645453453064,-0.007297692354768515,-0.00032606537570245564,0.20346695184707642,-0.022127298638224602,10.083629608154297
13.26,0.07085537165403366,0.02536923810839653,-0.001406571245752275,0.29535430669784546,0.424664705991745,10.199204444885254
13.280000000000001,0.02779613807797432,-0.007507019676268101,0.020008673891425133,0.3679009974002838,0.6138287782669067,10.050467491149902
13.3,0.05733400955796242,-0.057313621044158936,0.02530229277908802,0.17979729175567627,0.41951578855514526,9.3309907913208
13.32,0.06402792781591415,-0.03189536929130554,0.011191360652446747,0.051582079380750656,0.0468624047935009,9.22965145111084
13.34,0.07372996211051941,-0.01807297207415104,0.01051907055079937,0.14621827006340027,0.05008012428879738,9.649517059326172
13.36,0.04737763851881027,-0.04607396572828293,0.014775811694562435,0.04816475138068199,0.19996219873428345,10.021381378173828
13.38,0.04276318848133087,-0.1044759526848793,0.007121498696506023,-0.028312016278505325,0.3956853449344635,9.867036819458008
13.4,0.016051659360527992,-0.11910177767276764,-0.013169612735509872,-0.1439819633960724,0.5925384163856506,9.728073120117188
13.42,-0.018006080761551857,-0.0867670476436615,-0.029837006703019142,-0.3647412061691284,0.7570425271987915,10.074467658996582
13.44,-0.012140832841396332,-0.06019551306962967,-0.01822894625365734,-0.27814045548439026,0.8006216287612915,9.70720386505127
13.46,-0.012750781141221523,-0.09408769011497498,0.00672432454302907,0.006145535968244076,0.7298450469970703,8.868096351623535
13.48,-0.07063738256692886,-0.07035152614116669,0.020416561514139175,0.18502971529960632,0.4996865391731262,8.559673309326172
13.5,-0.0012725021224468946,-0.02382250688970089,0.021679461002349854,0.32790789008140564,0.18970611691474915,9.871198654174805
13.52,-0.009084280580282211,0.01371653564274311,0.01354209240525961,0.7306932210922241,-0.29935207962989807,10.795368194580078
13.540000000000001,-0.03490236774086952,0.018639840185642242,0.0007107430719770491,0.9238292574882507,-0.6357958316802979,9.950852394104004
13.56,0.013370664790272713,0.028940701857209206,-0.014139861799776554,0.7919409275054932,-0.44894203543663025,9.32391357421875
13.58,0.05166522413492203,0.049221936613321304,-0.02217153087258339,0.32437965273857117,0.1734669953584671,9.963058471679688
13.6,0.04197483882308006,0.0739087387919426,0.004343066364526749,0.0018024221062660217,0.7373256683349609,10.683182716369629
13.620000000000001,0.03843130171298981,0.06225169077515602,0.004284798167645931,-0.14510074257850647,0.7900305986404419,10.316429138183594
13.64,0.026519188657402992,0.04628384858369827,0.012706825509667397,-0.20306432247161865,0.5274303555488586,9.351799964904785
13.66,-0.03578275069594383,0.07454371452331543,0.00034467203659005463,-0.23697808384895325,0.4959131181240082,9.219930648803711
13.68,-0.04252644255757332,0.07439053803682327,-0.026535257697105408,-0.05004003643989563,0.6075993776321411,9.881650924682617
13.700000000000001,-0.10040783137083054,0.07142215967178345,-0.011182271875441074,0.128596693277359,0.6145712733268738,10.130708694458008
13.72,-0.020100070163607597,0.08349394798278809,0.01407591626048088,0.2007230669260025,0.27158331871032715,9.858827590942383
13.74,-0.047401063144207,0.04691099002957344,0.023922085762023926,0.15283626317977905,0.021362045779824257,9.926871299743652
13.76,-0.008520083501935005,0.012050343677401543,0.01776857115328312,0.11750184744596481,0.0712910071015358,9.946310997009277
13.780000000000001,0.006505830213427544,0.0072102113626897335,0.016634482890367508,0.06141401082277298,0.002420211210846901,9.57125473022461
13.8,0.007811438292264938,0.016852406784892082,0.01314001064747572,-0.0926070362329483,-0.24510028958320618,9.27773380279541
13.82,0.024934781715273857,0.028937645256519318,-0.004364336375147104,-0.2640896141529083,-0.2696676552295685,9.347820281982422
13.84,0.005524293519556522,0.051476314663887024,-0.03691120073199272,-0.21399268507957458,0.24013938009738922,9.856317520141602
13.86,3.5926903365179896e-05,0.041918981820344925,-0.028105683624744415,0.054200638085603714,0.7424678206443787,10.121644973754883
13.88,-0.0010929572163149714,0.015419498085975647,-0.0003710369346663356,0.27794498205184937,0.9578266143798828,9.916604995727539
13.9,0.020406974479556084,0.009078489616513252,0.030664315447211266,0.2807932198047638,0.6977787613868713,9.468961715698242
13.92,-0.009359119459986687,0.02226506918668747,0.04555600509047508,0.21779784560203552,0.1302257478237152,9.014993667602539
13.94,0.029259873554110527,0.0156945139169693,0.024992378428578377,0.12157770246267319,-0.10378534346818924,9.269725799560547
13.96,0.05819498375058174,-0.024339798837900162,0.012735219672322273,0.024151083081960678,-0.22285257279872894,10.049583435058594
13.98,0.01377782691270113,-0.05763816088438034,0.009783289395272732,-0.11917895078659058,-0.2048071175813675,10.271642684936523
14.0,0.03332765772938728,-0.039534587413072586,-0.008339069783687592,-0.24696707725524902,0.11388479173183441,9.71571159362793
14.02,0.02648104727268219,-0.020809249952435493,0.0006724450504407287,-0.2534814476966858,0.539821207523346,10.01865005493164
14.040000000000001,0.04818617179989815,-0.0689118504524231,0.010320421308279037,-0.28101474046707153,0.6084324717521667,10.227028846740723
14.06,0.013820920139551163,-0.07533285766839981,0.008545229211449623,-0.2356068193912506,0.31460684537887573,9.535232543945312
14.08,-0.002678904915228486,-0.061836522072553635,-0.0031404606997966766,-0.25225207209587097,0.30533328652381897,9.28715991973877
14.1,-0.026078833267092705,-0.06444515287876129,-0.017395829781889915,-0.34035757184028625,0.46093031764030457,9.535378456115723
14.120000000000001,-0.003451867261901498,-0.08769290149211884,-0.014300629496574402,-0.2917846739292145,0.5470771789550781,9.392685890197754
14.14,-0.025543900206685066,-0.08842822909355164,-0.012249193154275417,-0.16577450931072235,0.40885746479034424,9.900981903076172
14.16,-0.026166468858718872,-0.09007468819618225,-0.0058419774286448956,0.017114827409386635,0.328620046377182,10.589499473571777
14.18,0.005391971208155155,-0.0896667018532753,0.02323341742157936,0.07797779142856598,0.2455185353755951,10.166688919067383
14.200000000000001,0.007671816740185022,-0.04420667141675949,0.04110771417617798,-0.027032222598791122,0.12751910090446472,9.92151165008545
14.22,0.016987375915050507,-0.021047355607151985,0.030245110392570496,-0.09498238563537598,-0.14482803642749786,9.302291870117188
14.24,0.013681278564035892,-0.027687152847647667,0.001961892005056143,-0.1877400428056717,-0.22972510755062103,8.955947875976562
14.26,0.04522481560707092,0.0024334283079952,-0.02340235933661461,-0.005565232131630182,0.15101046860218048,10.030233383178711
14.280000000000001,-0.03488297015428543,0.011793687008321285,-0.027022304013371468,0.6977123022079468,0.5096228122711182,11.259306907653809
14.3,0.07114055752754211,0.005092340987175703,0.003914560191333294,1.079176664352417,0.45597130060195923,11.06916332244873
14.32,0.03719198703765869,-0.006342686712741852,0.02940213866531849,0.910149335861206,0.2874164283275604,9.561375617980957
14.34,0.0067947255447506905,-0.01289167907088995,0.03579161316156387,0.4476291537284851,0.2643861174583435,9.109018325805664
14.36,0.03095252439379692,0.01825874112546444,0.0148775028064847,-0.052548300474882126,0.3151671588420868,9.663941383361816
14.38,0.03929315134882927,0.0402618944644928,-0.008316132239997387,-0.14773978292942047,0.29673483967781067,10.543099403381348
14.4,0.07316535711288452,0.02131367102265358,-0.03788583353161812,0.13045617938041687,0.042788684368133545,10.510153770446777
14.42,0.036286983639001846,0.009708242490887642,-0.03474634513258934,0.32142338156700134,0.16234439611434937,9.261398315429688
14.44,0.053658097982406616,0.04556357488036156,-0.03232426568865776,0.395018607378006,0.4267348051071167,8.649514198303223
14.46,0.006444858852773905,0.05400066077709198,-0.006242407951503992,0.3260991871356964,0.5885216593742371,9.29231071472168
14.48,-0.044486042112112045,0.0038699063006788492,-0.0013246850576251745,0.1279471218585968,0.8653301000595093,10.42513656616211
14.5,-0.03024916537106037,0.00746436882764101,-0.006843556184321642,-0.15602093935012817,1.0192042589187622,10.565037727355957
14.52,-0.038588300347328186,0.0560729019343853,-0.0005392097518779337,-0.24328061938285828,0.6739500164985657,9.649391174316406
14.540000000000001,-0.05014077201485634,0.026016488671302795,-0.002067606197670102,-0.03748338669538498,0.22385117411613464,9.380049705505371
14.56,-0.06290710717439651,-0.024877237156033516,-0.005769786424934864,0.15521124005317688,0.20721794664859772,9.362658500671387
14.58,-0.030808541923761368,0.0069597442634403706,0.006162519566714764,0.2165193259716034,0.11860889941453934,9.743354797363281
14.6,0.012532534077763557,-0.0007987202261574566,0.031722765415906906,0.22643812000751495,-0.08451757580041885,10.462407112121582
14.620000000000001,0.04695141687989235,-0.03332425653934479,0.02605431340634823,-0.00777857843786478,-0.2789658010005951,10.227893829345703
14.64,0.09178931266069412,-0.04465775564312935,-0.0007454125443473458,-0.20859916508197784,-0.35730117559432983,9.3960599899292
14.66,0.04883156344294548,-0.028876911848783493,-0.03364254906773567,-0.17393597960472107,-0.19862863421440125,9.16710090637207
14.68,0.022142702713608742,-0.07233236730098724,-0.062206968665122986,-0.1669156849384308,0.4050569534301758,9.7046480178833
14.700000000000001,-0.015088589861989021,-0.09223703294992447,-0.04400389641523361,0.03316101059317589,1.1431092023849487,10.033703804016113
14.72,-0.047097671777009964,-0.07649614661931992,-0.015478091314435005,0.16732780635356903,1.4772003889083862,9.518352508544922
14.74,-0.03971850126981735,-0.04271961376070976,0.03683085739612579,0.07658056169748306,1.2071502208709717,9.250200271606445
14.76,-0.0741729587316513,-0.0476437471807003,0.03435097262263298,-0.020997894927859306,0.3381970524787903,10.180137634277344
14.780000000000001,-0.017994049936532974,-0.07200471311807632,0.008935555815696716,0.1370677798986435,-0.012400226667523384,10.771944999694824
14.8,-0.03656565770506859,-0.04770379886031151,-0.010824568569660187,0.370157927274704,-0.36988991498947144,9.858366966247559
14.82,-0.015616083517670631,-0.023265330120921135,-0.024816378951072693,0.5617712736129761,-0.503800094127655,9.314766883850098
14.84,0.06341615319252014,-0.044814128428697586,-0.010739150457084179,0.6337876319885254,-0.5028169751167297,9.355450630187988
14.86,0.023454559966921806,-0.03920940309762955,-0.0031375472899526358,0.5740965604782104,-0.030274689197540283,9.835290908813477
14.88,0.03646994009613991,-0.015250572003424168,0.00022395316045731306,0.3312169909477234,0.5538379549980164,10.019800186157227
14.9,0.024665778502821922,-0.0009975391440093517,0.0033651229459792376,0.12335067242383957,0.9233319163322449,10.312498092651367
14.92,-0.020908942446112633,-0.029357247054576874,-0.010791169479489326,0.07636931538581848,1.1595431566238403,9.645524024963379
14.94,-0.04577553644776344,-0.024501845240592957,-0.018642017617821693,0.1937033087015152,1.093855857849121,8.725545883178711
14.96,-0.05917714908719063,-0.014538799412548542,-0.008702395483851433,0.2226497083902359,0.7254610061645508,9.106575012207031
14.98,-0.07174497842788696,-0.016391398385167122,0.007651601918041706,-0.08688792586326599,0.12448398768901825,10.943253517150879
15.0,-0.038034964352846146,-0.06548398733139038,0.023381229490041733,-0.21533320844173431,-0.4675171673297882,10.803445816040039
15.02,-0.0028007100336253643,-0.0803636983036995,0.019205667078495026,0.007834479212760925,-0.4157404899597168,9.541179656982422
15.040000000000001,0.027099890634417534,-0.04520236328244209,0.013215126469731331,0.3058955669403076,-0.28460851311683655,9.007165908813477
15.06,0.08519171923398972,-0.01846941187977791,-0.023930365219712257,0.45933109521865845,-0.30245441198349,9.424381256103516
15.08,0.06966858357191086,-0.02436858043074608,-0.060673788189888,0.7039371132850647,-0.050979357212781906,10.115534782409668
15.1,0.06333513557910919,-0.03084559552371502,-0.07556679844856262,0.6895740628242493,0.31605881452560425,10.098397254943848
15.120000000000001,0.0640263557434082,0.0014889112208038568,-0.06120869144797325,0.5579036474227905,0.7223001718521118,9.81522274017334
15.14,-0.000589671079069376,0.021355098113417625,-0.023262619972229004,0.5447766780853271,1.0777173042297363,9.311605453491211
15.16,0.05827658250927925,0.05685717612504959,0.011246025562286377,0.5498105883598328,1.0578763484954834,9.234582901000977
15.18,0.03912226855754852,0.09554754942655563,0.022653058171272278,0.45839670300483704,0.579538881778717,9.770965576171875
15.200000000000001,0.022920502349734306,0.10683471709489822,0.00018284376710653305,0.2562706470489502,0.07623431831598282,10.294841766357422
15.22,0.01327627245336771,0.04921439290046692,-0.019797949120402336,0.1341625303030014,0.1664344221353531,10.202253341674805
15.24,0.009084120392799377,0.01998024247586727,-0.017174115404486656,0.05386031046509743,0.4698304533958435,9.53085708618164
15.26,-0.02226119115948677,0.01620507799088955,0.0018495649565011263,-0.003691743826493621,0.30189359188079834,9.825031280517578
15.280000000000001,0.014135617762804031,-0.025055497884750366,0.02019551582634449,-0.03587968647480011,0.04136846587061882,10.540468215942383
15.3,-0.008921892382204533,-0.08414483070373535,0.02332483045756817,-0.10151006281375885,0.1336994171142578,9.977598190307617
15.32,-0.014231895096600056,-0.08957064151763916,0.00888805091381073,-0.20088118314743042,0.5721548199653625,9.318406105041504
15.34,0.034636400640010834,-0.052036937326192856,-0.0051606325432658195,-0.42774033546447754,0.827711820602417,9.379708290100098
15.36,0.029788115993142128,-0.05036080256104469,0.001685332739725709,-0.7004832625389099,0.49533602595329285,9.66532039642334
15.38,0.01955590583384037,-0.06962493062019348,-0.002040579216554761,-0.6186041235923767,0.0474228598177433,10.524860382080078
15.4,0.011048228479921818,-0.028981272131204605,-0.011604486033320427,-0.6822009682655334,0.15628856420516968,11.00948715209961
15.42,-0.002845536917448044,0.005528544541448355,-0.018512018024921417,0.31700992584228516,0.46848902106285095,10.305893898010254
15.44,-0.04105003923177719,-0.040250472724437714,0.0014468651497736573,1.3062098026275635,0.8006539344787598,9.1381196975708
15.46,-0.049073729664087296,-0.07565625011920929,-0.003750135423615575,1.552608847618103,0.8430992960929871,8.541910171508789
15.48,-0.02095331996679306,-0.06398304551839828,0.0006950119859538972,1.2395445108413696,0.5182110071182251,9.18112564086914
15.5,-0.06880269199609756,-0.02725561335682869,-0.007234808523207903,0.7927431464195251,0.12858757376670837,10.361054420471191
15.52,-0.0416078045964241,-0.0030525391921401024,-0.01610310561954975,0.36393964290618896,0.23016516864299774,10.407064437866211
15.540000000000001,-0.08705652505159378,-0.034353941679000854,-0.024311194196343422,0.09245115518569946,0.45973169803619385,10.009900093078613
15.56,-0.1142272800207138,-0.05734903737902641,-0.02713017351925373,0.00253499299287796,0.5536307096481323,9.250570297241211
15.58,-0.0760379359126091,-0.0156683549284935,-0.017558583989739418,0.2187238335609436,0.6043611168861389,9.555495262145996
15.6,-0.0914153978228569,0.0013252947246655822,0.014792202040553093,0.4429338872432709,0.24714507162570953,10.028963088989258
15.620000000000001,-0.019206177443265915,-0.027143077924847603,0.05592457950115204,0.5578261613845825,-0.3121521770954132,9.821760177612305
15.64,0.013072272762656212,-0.0304091889411211,0.036091867834329605,0.17206452786922455,-0.4661807417869568,9.536194801330566
15.66,0.02979590743780136,0.0017596351681277156,0.009561784565448761,-0.07423035800457001,-0.10176162421703339,9.520593643188477
15.68,0.06875830888748169,-0.008981918916106224,0.0005849055596627295,-0.05838283523917198,0.12379470467567444,10.296916007995605
15.700000000000001,0.07546601444482803,-0.0031975717283785343,0.005300960969179869,0.266899973154068,-0.019156258553266525,10.30469799041748
15.72,0.10771440714597702,0.0070372167974710464,-7.686168828513473e-05,0.9445948600769043,-0.16754403710365295,9.59200382232666
15.74,0.0202778410166502,0.0038377316668629646,-0.02532464824616909,0.966029167175293,0.11222393065690994,8.728508949279785
15.76,-0.0464479923248291,0.04938014596700668,-0.012918905355036259,0.8901833295822144,0.9434873461723328,9.619836807250977
15.780000000000001,-0.041563730686903,0.07595324516296387,0.0022172497119754553,0.5901910662651062,1.4309933185577393,10.516114234924316
15.8,-0.012084218673408031,0.10397742688655853,0.017259038984775543,0.4567677080631256,0.9278327226638794,10.340612411499023
15.82,0.019346805289387703,0.051770344376564026,0.018227117136120796,0.2122945636510849,0.32267996668815613,9.822303771972656
15.84,0.018955117091536522,-0.011615988798439503,0.011784965172410011,-0.3189201056957245,-0.13678361475467682,9.744867324829102
15.860000000000001,-0.009625611826777458,0.023679202422499657,0.027114540338516235,-0.49015316367149353,-0.3357301652431488,10.360479354858398
15.88,0.032562945038080215,0.0002398412034381181,0.036617159843444824,-0.14671215415000916,-0.38575470447540283,10.290140151977539
15.9,0.030517004430294037,-0.1056237444281578,0.025022201240062714,0.06348047405481339,-0.3034225106239319,9.38107967376709
15.92,0.07745315134525299,-0.11982327699661255,-0.0026881617959588766,-0.12643638253211975,0.20664480328559875,9.462093353271484
15.94,0.08265973627567291,-0.0731562152504921,-0.006747857667505741,-0.15990954637527466,0.6480792760848999,9.9127836227417
15.96,0.0816037654876709,-0.10867135971784592,-0.01034736167639494,0.026288917288184166,0.6233373880386353,9.545005798339844
15.98,0.07134850323200226,-0.13736166059970856,-0.015387989580631256,0.23966017365455627,0.3458835184574127,8.962921142578125
16.0,-0.0042442744597792625,-0.09185738861560822,-0.037116605788469315,0.3450775146484375,0.4406581521034241,9.827963829040527
16.02,-0.006849813275039196,-0.01671874336898327,-0.05307789146900177,0.7016401290893555,0.818058967590332,10.793458938598633
16.04,-0.01826350763440132,-0.043980520218610764,-0.03526755049824715,0.87783282995224,1.0168907642364502,10.374380111694336
16.06,0.0007792054093442857,-0.05148988217115402,0.0052556912414729595,0.7717370986938477,0.9524860382080078,9.729674339294434
16.080000000000002,0.03653007745742798,-0.00946655124425888,0.03331878408789635,0.8965544700622559,0.4102506637573242,9.267853736877441
16.1,0.037761274725198746,0.005079386755824089,0.03746319189667702,1.1005475521087646,-0.22518879175186157,8.840760231018066
16.12,0.08128681778907776,-0.02829994447529316,0.04370277747511864,1.0306631326675415,-0.5581915974617004,8.84715747833252
16.14,0.051792439073324203,-0.037982746958732605,0.002863246249035001,0.6938685178756714,-0.4817890524864197,10.061259269714355
16.16,0.06974002718925476,-0.02393907681107521,-0.025934336706995964,0.3085831105709076,0.14798282086849213,11.128422737121582
16.18,0.07553909718990326,-0.025845063850283623,-0.03582863509654999,0.29147905111312866,0.751786470413208,10.689994812011719
16.2,0.07190912216901779,-0.0615246444940567,-0.016630351543426514,0.39903366565704346,0.91994309425354,8.551602363586426
16.22,-0.027564767748117447,-0.08869289606809616,-0.011213289573788643,0.37045517563819885,0.7919495701789856,7.711403846740723
16.240000000000002,-0.038136135786771774,-0.12407553941011429,0.007208405993878841,0.4100783169269562,0.8127649426460266,8.659319877624512
16.26,-0.05839705467224121,-0.14816318452358246,0.011524247005581856,0.6056881546974182,1.003481388092041,10.344054222106934
16.28,-0.12190119177103043,-0.12281173467636108,0.018083788454532623,0.5576475262641907,1.0411655902862549,11.198606491088867
16.3,0.000369632471119985,-0.042724817991256714,0.045242901891469955,-0.037448395043611526,0.63721764087677,10.820392608642578
16.32,-0.008487883023917675,-0.004715611692517996,0.05269160121679306,-0.5436813235282898,-0.12767402827739716,9.398090362548828
16.34,-0.03446431830525398,-0.0068216752260923386,0.027822790667414665,-0.489531546831131,-0.4213864505290985,9.179888725280762
16.36,0.028645820915699005,-0.011180701665580273,-0.01723312772810459,0.22182372212409973,-0.4683164060115814,9.896239280700684
16.38,0.07462342828512192,0.006738564930856228,-0.03564350679516792,1.361683964729309,0.06155844405293465,10.373420715332031
16.4,0.08021651208400726,0.004799532704055309,-0.010220893658697605,2.1279733180999756,0.3007715940475464,9.914608001708984
16.42,0.1456613540649414,-0.012397813610732555,0.011292077600955963,2.0792455673217773,0.2747446298599243,9.195059776306152
16.44,0.0973769873380661,-0.0050598192028701305,0.024370310828089714,1.1421740055084229,0.3080534040927887,9.636823654174805
16.46,0.07707714289426804,0.04897511750459671,0.017011703923344612,0.11907817423343658,0.6900390386581421,10.222879409790039
16.48,0.0967206358909607,0.062156058847904205,0.00010070800635730848,-0.497973769903183,0.922069251537323,10.262384414672852
16.5,0.029923830181360245,0.08489181846380234,-0.011536436155438423,-0.48482486605644226,0.7701165080070496,10.281219482421875
16.52,0.11753132194280624,0.0565747395157814,-0.03888149559497833,0.33217042684555054,0.7156515717506409,10.131453514099121
16.54,0.015014620497822762,0.026697659865021706,-0.016140934079885483,0.9267593026161194,0.7445449829101562,9.951730728149414
16.56,0.0016298512928187847,0.014450430870056152,-0.0028461928013712168,0.6797628402709961,0.5025496482849121,9.792701721191406
16.580000000000002,-0.03192630037665367,0.01141318492591381,0.0067825657315552235,0.35962069034576416,0.45305681228637695,10.446005821228027
16.6,-0.009080177173018456,0.0004274564271327108,-0.003655897220596671,0.40769675374031067,0.7727662920951843,10.369138717651367
16.62,-0.04878668859601021,-0.05366678535938263,-0.0313604511320591,0.4280971884727478,1.091465711593628,9.068419456481934
16.64,-0.1315087080001831,-0.08528077602386475,-0.03154714033007622,0.49389129877090454,1.0529460906982422,8.090415954589844
16.66,-0.11805370450019836,-0.10547374933958054,-0.04151799529790878,0.6049969792366028,0.8037536144256592,7.98947286605835
16.68,-0.1778513342142105,-0.07700313627719879,-0.040928907692432404,0.7794927358627319,0.6674131155014038,9.13648796081543
16.7,-0.18999269604682922,-0.03344385698437691,-0.02299908921122551,0.9908869862556458,0.5312179327011108,10.4873685836792
16.72,-0.2189578264951706,0.028260355815291405,-0.012183642014861107,1.1679573059082031,0.4785304367542267,10.736821174621582
16.740000000000002,-0.15520988404750824,0.009936075657606125,0.010423063300549984,1.1516165733337402,0.4188370406627655,9.52270221710205
16.76,-0.09029597789049149,0.013024797663092613,0.02311936765909195,0.7938426733016968,0.166219562292099,8.602208137512207
16.78,-0.03833819180727005,0.08584912866353989,0.04735665023326874,0.6500510573387146,-0.31503739953041077,8.679508209228516
16.8,0.09129879623651505,0.1528671234846115,0.036551035940647125,0.7486540079116821,-0.8297287225723267,9.297404289245605
16.82,0.04436425119638443,0.18560738861560822,0.0138588547706604,0.6911701560020447,-0.9880132675170898,11.30225944519043
16.84,-0.02134835161268711,0.16761937737464905,-0.017161425203084946,0.7644548416137695,-0.31375348567962646,11.872530937194824
16.86,0.036411359906196594,0.11343833059072495,-0.024529200047254562,0.6140007376670837,0.799826979637146,9.641475677490234
16.88,0.056337546557188034,0.10494204610586166,0.0023841033689677715,0.24914298951625824,1.2655816078186035,8.908448219299316
16.9,-0.0013793278485536575,0.09597917646169662,0.018160805106163025,0.009772553108632565,0.930380642414093,10.02567195892334
16.92,-0.0363297201693058,0.06178983300924301,0.0260779932141304,-0.22673818469047546,0.3710981011390686,10.611948013305664
16.94,-0.037957943975925446,0.04703317955136299,0.027679309248924255,-0.5870516896247864,0.02649502456188202,10.4014892578125
16.96,0.014161447063088417,0.05764996260404587,0.01867503859102726,-0.6339777708053589,0.2854827344417572,9.952202796936035
16.98,-0.030538897961378098,0.023529762402176857,0.004697000607848167,-0.14017100632190704,0.43439269065856934,9.6032075881958
17.0,0.05035726726055145,-0.0008629224612377584,-0.005131174344569445,0.47944214940071106,0.1489202231168747,9.200589179992676
17.02,0.03515976667404175,0.05073070153594017,0.0011016118805855513,0.8811932802200317,-0.24243830144405365,9.578970909118652
17.04,0.09985685348510742,0.048403844237327576,0.021606991067528725,1.1455891132354736,-0.4293976426124573,10.3908109664917
17.06,0.06909611076116562,0.01630987599492073,0.03474793955683708,0.9435207843780518,-0.15228334069252014,10.50300121307373
17.080000000000002,0.11587711423635483,0.023066941648721695,0.036727823317050934,0.6812530755996704,0.2642132043838501,9.659446716308594
17.1,0.0731712207198143,0.04525924474000931,0.010010822676122189,0.34756091237068176,0.5829227566719055,8.825011253356934
17.12,0.07455486059188843,0.05762716382741928,-0.008100486360490322,0.1342450976371765,0.645444929599762,8.86559009552002
17.14,0.06759064644575119,0.051685236394405365,-0.008263359777629375,0.03583808243274689,0.6932598352432251,9.511737823486328
17.16,0.04273127764463425,0.07307863980531693,0.00610060291364789,0.017398463562130928,0.7353180050849915,10.36743450164795
17.18,0.0429094061255455,0.0931507870554924,0.022451773285865784,0.2262650579214096,0.771892249584198,10.517919540405273
17.2,0.005747227929532528,0.10051503777503967,0.015462069772183895,0.3770599961280823,0.6656355261802673,9.918716430664062
17.22,0.015386809594929218,0.1164473444223404,0.008043981157243252,0.569951057434082,0.40461215376853943,9.045037269592285
17.240000000000002,-0.029013050720095634,0.12320128083229065,-0.020107772201299667,0.8007408976554871,0.2588147819042206,8.770283699035645
17.26,-0.07008030265569687,0.1266552209854126,-0.02083568088710308,0.6984075307846069,0.464792400598526,9.021566390991211
17.28,-0.10165243595838547,0.11449895054101944,-0.027207400649785995,0.3983484208583832,0.7317518591880798,9.550048828125
17.3,-0.07925724238157272,0.09218946099281311,-0.0016289368504658341,0.11623367667198181,1.1679638624191284,10.35865592956543
17.32,-0.03985171765089035,0.041970279067754745,0.024086320772767067,-0.10680413991212845,0.9776578545570374,10.78387451171875
17.34,-0.007266182452440262,0.01577148027718067,0.061040014028549194,-0.11362052708864212,0.06682698428630829,10.599626541137695
17.36,0.03410106897354126,0.015021879225969315,0.04923069849610329,-0.3255828619003296,-1.0436259508132935,9.90546989440918
17.38,0.04239954426884651,-0.024449549615383148,0.0195778775960207,-0.547482430934906,-1.07485032081604,9.606537818908691
17.400000000000002,0.08184175193309784,-0.08856793493032455,-0.01141380425542593,-0.6878870129585266,-0.23380562663078308,9.620406150817871
17.42,0.12809108197689056,-0.09877607226371765,0.0004971419111825526,-0.69073086977005,0.4118581712245941,10.166046142578125
17.44,0.1327965408563614,-0.0785134807229042,-0.012860307469964027,-0.5471880435943604,0.7236638069152832,9.833723068237305
17.46,0.12484882771968842,-0.043088119477033615,0.015104008838534355,-0.48629871010780334,0.7134667038917542,9.159419059753418
17.48,0.0646400898694992,-0.060072269290685654,0.015250514261424541,-0.22164028882980347,0.7255474328994751,9.514029502868652
17.5,0.05452704057097435,-0.07519784569740295,0.021352222189307213,0.2491224855184555,0.767431378364563,9.92303466796875
17.52,0.07174581289291382,-0.06705902516841888,0.0008594277896918356,0.8455700874328613,0.9284803867340088,10.14140510559082
17.54,0.05323248729109764,-0.017163492739200592,-0.014254671521484852,1.1777892112731934,0.6348900198936462,10.090972900390625
17.56,0.06693883240222931,-0.030741052702069283,0.019206812605261803,1.2154223918914795,0.16836272180080414,10.083946228027344
17.580000000000002,0.12917223572731018,-1.9110984794679098e-05,0.01910056546330452,0.9298202395439148,-0.23090602457523346,9.571171760559082
17.6,0.139383465051651,0.06107814610004425,0.00950882863253355,0.5217438340187073,-0.14543217420578003,9.308521270751953
17.62,0.12559302151203156,0.10605493187904358,0.004440757911652327,0.4403374195098877,0.47797298431396484,9.343585014343262
17.64,0.05100080743432045,0.1337161660194397,-0.014947544783353806,0.5701138973236084,1.1441537141799927,9.727171897888184
17.66,0.03083137609064579,0.12098488211631775,-0.04034857079386711,0.5843865871429443,1.3237806558609009,9.914138793945312
17.68,-0.0007911318098194897,0.12656323611736298,-0.039308205246925354,0.4111641049385071,1.318487524986267,10.201021194458008
17.7,-0.030269954353570938,0.13548754155635834,-0.03243672102689743,0.3169887363910675,1.2476524114608765,9.705119132995605
17.72,-0.11049672216176987,0.11414673924446106,-0.008295847102999687,0.2766040563583374,1.1746770143508911,9.409978866577148
17.740000000000002,-0.11587134748697281,0.06636840105056763,-0.0054948036558926105,0.15874755382537842,0.9667134881019592,9.596315383911133
17.76,-0.0938805639743805,-0.032920077443122864,-0.022834697738289833,-0.19606168568134308,0.397946298122406,9.735032081604004
17.78,-0.11095726490020752,-0.09456374496221542,-0.04058890789747238,-0.3772675395011902,0.03394797444343567,9.242647171020508
17.8,-0.1293102204799652,-0.09701802581548691,-0.029724033549427986,-0.6904603838920593,0.1595536470413208,9.460243225097656
17.82,-0.1471286416053772,-0.14749206602573395,-0.016034897416830063,-0.5803314447402954,0.19459785521030426,10.112215995788574
17.84,-0.0583931989967823,-0.16300345957279205,-0.006735495291650295,-0.7737652659416199,0.4072054624557495,10.241474151611328
17.86,-0.12919463217258453,-0.12016674876213074,0.001214133924804628,-0.9049016833305359,0.44896650314331055,9.803269386291504
17.88,-0.10726075619459152,-0.05787196010351181,-0.009636348113417625,-0.828645646572113,0.36440518498420715,9.632386207580566
17.900000000000002,-0.08270223438739777,-0.03968328610062599,-0.024109195917844772,-0.7147045135498047,0.42406296730041504,9.542534828186035
17.92,-0.0880572497844696,-0.00010757798736449331,-0.040906403213739395,-0.5355836153030396,0.5700752139091492,9.894076347351074
17.94,-0.060614436864852905,0.01121565792709589,-0.023353558033704758,0.29873940348625183,0.5103382468223572,10.166136741638184
17.96,-0.10223609209060669,-0.01369596365839243,-0.006956384051591158,0.7558355331420898,0.2448623776435852,10.192573547363281
17.98,-0.08893750607967377,-0.021162735298275948,0.014685595408082008,1.0179386138916016,-0.0036486107856035233,10.308065414428711
18.0,-0.07232245057821274,-0.05142323300242424,0.016051936894655228,1.5085865259170532,-0.2040349841117859,9.608250617980957
18.02,-0.08010589331388474,-0.11150135099887848,0.016273649409413338,1.37333083152771,-0.1693829596042633,9.15953254699707
18.04,-0.06854575872421265,-0.11430170387029648,-0.005715544801205397,0.8151863813400269,0.270317018032074,8.956805229187012
18.06,-0.065599225461483,-0.054004453122615814,-0.002119645243510604,0.37802717089653015,0.7849844098091125,9.53963565826416
18.080000000000002,-0.041851237416267395,-0.004747864790260792,0.005903732497245073,0.19840721786022186,0.9300448894500732,10.37941837310791
18.1,-0.038863565772771835,0.0035288878716528416,0.026253627613186836,0.2018018662929535,0.5170589089393616,10.51085090637207
18.12,-0.0333007350564003,0.03378325328230858,0.0261006448417902,0.3121102452278137,-0.09326508641242981,9.8606538772583
18.14,0.04524485021829605,0.06725464016199112,-0.00019253062782809138,0.3805275857448578,-0.38297680020332336,9.300792694091797
18.16,0.04265729337930679,0.06054254621267319,0.013921457342803478,0.39987143874168396,-0.30988919734954834,9.65937328338623
18.18,0.08687914162874222,0.040460437536239624,0.017071256414055824,0.49017566442489624,-0.18382252752780914,9.786260604858398
18.2,0.14262352883815765,0.04305413365364075,0.029653459787368774,0.5551810264587402,-0.11746295541524887,9.769079208374023
18.22,0.09660863131284714,0.01340038888156414,0.01767989806830883,0.17149506509304047,-0.0597849041223526,9.820365905761719
18.240000000000002,0.07471665740013123,-0.0370367094874382,0.013669048435986042,-0.22107051312923431,0.2948754131793976,10.607645034790039
18.26,0.06286467611789703,-0.06113676354289055,0.011402087286114693,-0.4266378581523895,0.7514169812202454,10.975610733032227
18.28,0.08281140774488449,-0.02200378105044365,-0.0014025599230080843,-0.1222652941942215,1.1307799816131592,9.979106903076172
18.3,0.06555607169866562,-0.00196977611631155,-0.019262870773673058,-0.09299743920564651,1.0901583433151245,8.329580307006836
18.32,0.016717132180929184,-0.04040658473968506,-0.009875365532934666,-0.051466528326272964,0.7055968046188354,8.13878059387207
18.34,0.0004246609751135111,-0.09821196645498276,-0.004023074172437191,0.16572211682796478,0.23963932693004608,8.887621879577637
18.36,-0.0490151084959507,-0.09706784784793854,0.011426331475377083,0.2830134332180023,0.3878650963306427,9.910168647766113
18.38,0.014708018861711025,-0.06154840439558029,0.03453260287642479,0.1285005360841751,0.95769864320755,11.424398422241211
18.400000000000002,0.030524877831339836,-0.011825277470052242,0.08019876480102539,-0.27491381764411926,0.9110026955604553,11.56491756439209
18.42,0.08112569898366928,0.027249015867710114,0.08896204084157944,0.15814487636089325,0.1951838880777359,10.646888732910156
18.44,0.11617240309715271,-0.030429521575570107,0.019662795588374138,0.553620457649231,-0.982660174369812,8.548970222473145
18.46,0.09213103353977203,-0.008925925008952618,-0.06946653127670288,0.6998064517974854,-1.2054392099380493,7.735671043395996
18.48,0.16967010498046875,0.09318602085113525,-0.11820245534181595,0.6850358843803406,-0.3336232304573059,8.699442863464355
18.5,0.08599477261304855,0.15949884057044983,-0.07470250874757767,0.9497894644737244,0.7471508979797363,11.525301933288574
18.52,0.08551330119371414,0.058601438999176025,-0.0010016171727329493,1.0284653902053833,1.632373571395874,12.468424797058105
18.54,0.10456051677465439,0.03485611081123352,0.011390293948352337,0.6642710566520691,1.0425753593444824,10.954219818115234
18.56,0.032788921147584915,0.0951518639922142,-0.02174590528011322,0.35540518164634705,0.7342222332954407,8.626933097839355
18.580000000000002,-0.02214897610247135,0.034489601850509644,-0.032724637538194656,0.17678150534629822,1.0245888233184814,7.495483875274658
18.6,-0.04598820209503174,-0.03062441758811474,-0.02687297947704792,-0.132712259888649,1.4085052013397217,8.510954856872559
18.62,-0.06586209684610367,-0.04792794585227966,-0.04307470843195915,-0.33031466603279114,1.3144755363464355,10.67478084564209
18.64,-0.09686055779457092,-0.07541495561599731,-0.05932864174246788,-0.4964330196380615,0.9300864934921265,11.649645805358887
18.66,-0.05806285887956619,-0.06917571276426315,-0.028466008603572845,-0.7023851871490479,0.1659492552280426,10.294803619384766
18.68,-0.07715089619159698,-0.0768006220459938,-0.037161488085985184,-0.5715437531471252,-0.097554050385952,8.339689254760742
18.7,-0.023002468049526215,-0.08085884898900986,-0.019366182386875153,-0.3987642526626587,-0.21317999064922333,8.039905548095703
18.72,-0.02881854586303234,-0.09479852765798569,-0.0001960108638741076,-0.15520302951335907,-0.05922383815050125,9.643120765686035
18.740000000000002,-0.030507368966937065,-0.1063535064458847,0.04133092984557152,-0.1262597292661667,0.21452613174915314,11.309052467346191
18.76,0.023144805803894997,-0.12130559980869293,0.08951686322689056,0.6500549912452698,0.300129771232605,11.53542709350586
18.78,0.053384289145469666,-0.15152306854724884,0.051974691450595856,1.282419204711914,0.3550328016281128,10.305397033691406
