time,wx,wy,wz,ax,ay,az
0.0,-0.1804715245962143,0.31440475583076477,0.0026217144913971424,-0.3400675356388092,-1.8173128366470337,9.863190650939941
0.02,-0.2379598766565323,0.2352919578552246,-0.022433897480368614,-0.22362111508846283,-1.5645334720611572,10.411579132080078
0.04,-0.07235727459192276,0.0659111887216568,-0.06271776556968689,-0.23216325044631958,-1.5012857913970947,9.505961418151855
0.06,-0.0129642803221941,0.017745068296790123,-0.09350700676441193,-0.5617700219154358,-1.2929954528808594,8.041960716247559
0.08,0.10158894956111908,-0.03253629803657532,-0.08966992050409317,-0.9395968914031982,-1.1617130041122437,8.349332809448242
0.1,0.04495985805988312,-0.11007644981145859,-0.05421046167612076,-1.4079046249389648,-1.5966906547546387,10.554996490478516
0.12,0.027572719380259514,-0.11695355176925659,-0.014900514855980873,-1.3184236288070679,-1.529178261756897,11.523624420166016
0.14,0.05721912533044815,-0.01766013540327549,0.018400274217128754,-1.3073006868362427,-0.8783079385757446,9.713736534118652
0.16,0.10420995205640793,-0.01359256450086832,0.07348443567752838,-0.9916537404060364,-0.2553795278072357,8.133103370666504
0.18,0.10986586660146713,-0.08889211714267731,0.07215750962495804,-0.7315002679824829,-0.2696811556816101,8.511918067932129
0.2,0.02660125307738781,0.0014640705194324255,0.019063089042901993,-0.9147188663482666,-0.42367082834243774,10.533271789550781
0.22,-0.013553794473409653,0.12013355642557144,-0.06994138658046722,-0.7827841639518738,-0.32327282428741455,12.234576225280762
0.24,-0.026256002485752106,0.11111381649971008,-0.10734645277261734,-0.669683575630188,0.16171793639659882,10.350143432617188
0.26,-0.1001150831580162,0.047071464359760284,-0.05787729099392891,-0.14425688982009888,-0.10143996775150299,7.9500837326049805
0.28,-0.10242432355880737,0.03282628580927849,-0.0037766790483146906,0.3562069833278656,-0.5014418363571167,8.213993072509766
0.3,-0.04536823928356171,0.010246350429952145,0.03479873389005661,0.49509820342063904,-0.9459310173988342,9.931334495544434
0.32,-0.04243757575750351,-0.029304400086402893,0.07596977800130844,0.4499802887439728,-1.2278459072113037,11.446615219116211
0.34,-0.0037638088688254356,-0.05201823636889458,0.07191987335681915,0.18301141262054443,-0.9917956590652466,10.108628273010254
0.36,0.035535648465156555,-0.03134408965706825,0.023063277825713158,-0.027491725981235504,-0.7411208748817444,8.46054744720459
0.38,0.04918831214308739,-0.03938060253858566,0.003995626699179411,-0.23568451404571533,-0.948030412197113,8.63154125213623
0.4,0.054486118257045746,-0.06279876828193665,-3.583992292988114e-05,-0.3129653036594391,-1.329170823097229,9.54233455657959
0.42,0.012890649959445,-0.046541180461645126,0.007462691515684128,-0.21706493198871613,-1.181665301322937,11.195147514343262
0.44,0.037836745381355286,-1.2278734175197314e-05,-0.0020123959984630346,-0.4397806227207184,-0.42370373010635376,10.832855224609375
0.46,-0.020249029621481895,0.0033981753513216972,-0.019308211281895638,-0.43695610761642456,0.12091623246669769,9.517258644104004
0.48,-0.0381084568798542,0.005771241616457701,-0.0035372786223888397,-0.3922373056411743,0.29591482877731323,9.308914184570312
0.5,-0.017487699165940285,0.04837673157453537,0.0009499568841420114,-0.37327834963798523,-0.30470460653305054,9.055438995361328
0.52,-0.03704921901226044,0.07934024184942245,-0.011152910999953747,-0.45129692554473877,-0.7864952087402344,10.038267135620117
0.54,-0.05518031120300293,0.06273666769266129,0.0048266248777508736,-0.47933390736579895,-0.9764940738677979,10.177958488464355
0.56,-0.06789608299732208,0.0474691241979599,0.023700645193457603,-0.3679594397544861,-0.8431417942047119,9.461673736572266
0.58,0.025703065097332,0.07998757809400558,0.036061473190784454,-0.18610073626041412,-0.9306962490081787,8.994728088378906
0.6,0.013323293998837471,0.041008029133081436,0.06524882465600967,-0.11760861426591873,-1.1938413381576538,9.61277961730957
0.62,0.056134745478630066,-0.022426554933190346,0.0640307366847992,-0.0426228903234005,-1.2457386255264282,10.46450138092041
0.64,-0.0157906673848629,0.02134297415614128,0.021982667967677116,-0.6103916764259338,-0.8100295662879944,10.772492408752441
0.66,0.00834285095334053,0.0952565148472786,-0.03280499577522278,-0.8507723808288574,-0.09476875513792038,10.507180213928223
0.68,0.03759007528424263,0.07612313330173492,-0.043186381459236145,-0.848665177822113,-0.011665984988212585,9.292715072631836
0.7000000000000001,0.003806703258305788,0.06757719069719315,-0.011674836277961731,-0.6889126896858215,-0.4723278880119324,8.22763729095459
0.72,0.03429068997502327,0.07781092077493668,0.012262718752026558,-0.3780985474586487,-0.9946300387382507,9.102007865905762
0.74,-0.019731611013412476,0.05063418671488762,0.0077745551243424416,0.07151102274656296,-1.1129499673843384,10.522856712341309
0.76,0.012310272082686424,0.008656335063278675,0.02841355837881565,0.3389734923839569,-1.122498631477356,10.97852897644043
0.78,0.039481036365032196,0.014114410616457462,0.012521959841251373,0.20295849442481995,-0.881272554397583,9.617528915405273
0.8,0.046431995928287506,0.019989952445030212,-0.0022285606246441603,-0.09436409175395966,-0.6129908561706543,8.475329399108887
0.8200000000000001,0.028451377525925636,-0.03928150236606598,-0.01774492673575878,-0.3635944128036499,-0.526861310005188,9.221749305725098
0.84,0.03982730582356453,-0.0611652135848999,-0.01073240302503109,-0.7531283497810364,-0.3713066577911377,10.497149467468262
0.86,0.004403150174766779,-0.01945827156305313,-0.022214850410819054,-1.2958492040634155,-0.3425358533859253,11.19865608215332
0.88,0.005357163026928902,-0.0008422966348007321,-0.0238653551787138,-1.2051365375518799,-0.34574776887893677,10.10862922668457
0.9,0.005509429145604372,-0.030730068683624268,-0.014795989729464054,-0.855564534664154,-0.6248510479927063,8.516326904296875
0.92,-0.029711032286286354,-0.06700654327869415,-0.006795131601393223,-0.5098599195480347,-0.6065747737884521,8.646485328674316
0.9400000000000001,-0.060364507138729095,-0.037353042513132095,-0.010801317170262337,-0.488153338432312,-0.737183153629303,10.158677101135254
0.96,-0.07141939550638199,-0.05971215292811394,-0.030791830271482468,-0.556674063205719,-0.8430123329162598,11.45566177368164
0.98,-0.061266377568244934,-0.07044842094182968,-0.04572577774524689,-0.5859624743461609,-0.8146868348121643,9.98371696472168
1.0,-0.039190731942653656,-0.08000480383634567,-0.02247224934399128,-0.6188508868217468,-0.6867480278015137,9.191028594970703
1.02,-0.03678855672478676,-0.07621847093105316,-0.010231894440948963,-0.7212703227996826,-0.6228232979774475,9.318107604980469
1.04,0.022898836061358452,-0.04646744951605797,0.010881096124649048,-0.6510348916053772,-0.7362309098243713,9.741925239562988
1.06,0.04614723473787308,-0.017089268192648888,0.02686481550335884,-0.6944286227226257,-1.0561561584472656,9.800459861755371
1.08,0.04144931584596634,0.0016353445826098323,0.04112251475453377,-0.46777400374412537,-1.1089447736740112,9.864778518676758
1.1,0.10228190571069717,0.019955601543188095,0.02159428782761097,-0.25023776292800903,-1.0093103647232056,9.657163619995117
1.12,0.10327419638633728,0.05105859786272049,0.00045273106661625206,-0.16229033470153809,-0.6043633222579956,9.568406105041504
1.1400000000000001,0.16215388476848602,0.06953577697277069,0.02065093256533146,0.4155047833919525,-0.6262279748916626,9.60806941986084
1.16,0.09361568838357925,0.031249068677425385,0.020472362637519836,0.5257253646850586,-0.9252925515174866,10.261040687561035
1.18,0.09520778805017471,0.043746985495090485,-0.004855795297771692,0.3368849456310272,-1.0374504327774048,10.608987808227539
1.2,0.09880241006612778,0.02328617312014103,-0.03772887587547302,0.2985786497592926,-0.5832275748252869,9.792293548583984
1.22,0.04940309002995491,-0.0049186814576387405,-0.02402564324438572,0.04373812675476074,0.034396782517433167,8.578533172607422
1.24,0.017301158979535103,0.019750144332647324,-0.005194985307753086,-0.39499565958976746,0.14462268352508545,9.081406593322754
1.26,-0.06795617938041687,-0.0005171121447347105,-0.03518257290124893,-0.6399787068367004,0.08495385199785233,10.469584465026855
1.28,-0.04591644927859306,-0.046458031982183456,-0.04339100420475006,-0.5828832983970642,0.12815876305103302,10.845459938049316
1.3,-0.06668348610401154,-0.041997287422418594,-0.03533639758825302,-0.5011815428733826,0.03326416015625,10.106558799743652
1.32,-0.020159738138318062,-0.006184280849993229,0.002070321701467037,-0.42440661787986755,-0.4454292356967926,9.206987380981445
1.34,-0.0021184233482927084,-0.02280748263001442,0.03766527399420738,-0.4222945272922516,-1.0806509256362915,9.0131196975708
1.36,-0.0030777903739362955,-0.03639562800526619,0.04520212858915329,-0.6091628670692444,-1.6802104711532593,9.857952117919922
1.3800000000000001,-0.008723496459424496,-0.00928831659257412,0.03711124137043953,-0.9549450874328613,-1.7122983932495117,10.567182540893555
1.4000000000000001,0.05442306771874428,0.046656377613544464,-0.004499670118093491,-1.0888500213623047,-0.9527541399002075,9.991189956665039
1.42,0.03552753105759621,0.06972773373126984,-0.01464321743696928,-0.9112802147865295,-0.08395861089229584,9.282259941101074
1.44,0.0274189542979002,0.04522323235869408,-0.015893928706645966,-0.6503120064735413,0.23661136627197266,9.149168968200684
1.46,0.0445023849606514,0.035939257591962814,-0.011947792023420334,-0.35372626781463623,-0.21086381375789642,9.580157279968262
1.48,0.04171557351946831,0.03236152231693268,0.007383840158581734,0.006140039302408695,-0.7633124589920044,10.186544418334961
1.5,0.05623584985733032,-0.03862391784787178,0.001527213491499424,0.16813543438911438,-1.270106315612793,10.588119506835938
1.52,0.002440936863422394,-0.13401538133621216,-0.012992345727980137,0.24957643449306488,-1.027729868888855,9.777173042297363
1.54,-0.08461277186870575,-0.16761206090450287,-0.020585976541042328,-0.08972432464361191,-0.0604604035615921,8.787002563476562
1.56,-0.11299876868724823,-0.10457874089479446,-0.029333868995308876,-0.38182559609413147,0.6914684772491455,9.299362182617188
1.58,-0.13189858198165894,-0.07422112673521042,-0.03542798012495041,-0.6197715401649475,0.7499392628669739,10.222145080566406
1.6,-0.08509072661399841,-0.08370541036128998,-0.012938144616782665,-0.8127941489219666,0.05386800691485405,10.667598724365234
1.62,-0.060594066977500916,-0.06697846204042435,0.017010018229484558,-0.9496819376945496,-0.8966942429542542,10.340226173400879
1.6400000000000001,-0.07050549238920212,-0.053673841059207916,0.037246882915496826,-0.7113418579101562,-1.4924218654632568,9.70527172088623
1.6600000000000001,-0.049009036272764206,-0.07352137565612793,0.05834550783038139,-0.4570139944553375,-1.4663307666778564,9.09876537322998
1.68,-0.02421778067946434,-0.07721593976020813,0.07336210459470749,-0.13220185041427612,-1.0541819334030151,8.938277244567871
1.7,0.05366162955760956,-0.04567774757742882,0.04839428514242172,0.15289337933063507,-1.034995675086975,9.27461051940918
1.72,0.10239575803279877,-0.0867161676287651,0.008357894606888294,0.2533074617385864,-1.0660185813903809,9.891215324401855
1.74,0.08232419192790985,-0.1013936921954155,-0.01955357939004898,0.09415901452302933,-0.9417418241500854,10.547030448913574
1.76,0.018575496971607208,-0.03657420724630356,-0.04072842374444008,-0.09448068588972092,-0.6017208695411682,10.24438762664795
1.78,0.07497943192720413,0.019061725586652756,-0.026311611756682396,-0.0910261794924736,-0.3136022388935089,9.33089828491211
1.8,0.0628935694694519,0.009137679822742939,-0.018802890554070473,-0.27462154626846313,-0.17918787896633148,8.976874351501465
1.82,0.07268411666154861,0.014647005125880241,-0.03545338287949562,-0.31079864501953125,-0.3072882890701294,9.479978561401367
1.84,0.07607612013816833,0.0661209374666214,-0.04862229898571968,-0.14311903715133667,-0.548636794090271,10.354499816894531
1.86,0.07018113881349564,0.09214982390403748,-0.04767448082566261,-0.32621848583221436,-0.6432228684425354,10.98958683013916
1.8800000000000001,0.06839216500520706,0.07573817670345306,-0.026177089661359787,-0.052435252815485,-0.6992047429084778,10.675070762634277
1.9000000000000001,0.10906126350164413,0.00804021954536438,-0.013303234241902828,0.19368670880794525,-0.6138753890991211,9.333375930786133
1.92,0.07050847262144089,0.009554128162562847,-0.01787247136235237,0.04133925586938858,-0.6200584769248962,9.071687698364258
1.94,0.030180715024471283,0.0085493428632617,-0.03655647486448288,-0.15949630737304688,-0.5878213047981262,9.62105655670166
1.96,0.012814932502806187,-0.022212307900190353,-0.022731419652700424,-0.33596789836883545,-0.4470318555831909,9.826382637023926
1.98,0.007617485709488392,-0.05659942701458931,-0.00946936383843422,-0.41453972458839417,-0.15696164965629578,9.95756721496582
2.0,-0.011167194694280624,-0.034091413021087646,0.015508818440139294,-0.8919614553451538,0.16478361189365387,10.355708122253418
2.02,0.005762924440205097,0.0023994215298444033,-0.0008901354158297181,-1.050864338874817,0.3163785934448242,10.438600540161133
2.04,-0.0017473736079409719,-0.0034140818752348423,0.0075577422976493835,-0.7836722135543823,0.048868946731090546,9.704249382019043
2.06,0.00547541631385684,-0.03645335137844086,-0.0009156165760941803,-0.21359401941299438,-0.4442625641822815,8.94546890258789
2.08,-0.01399632915854454,-0.07836465537548065,-0.026416568085551262,0.25912901759147644,-0.7094582915306091,8.687201499938965
2.1,-0.03153158724308014,-0.10720189660787582,-0.050982385873794556,0.5723188519477844,-0.7611492276191711,9.093629837036133
2.12,-0.06485670059919357,-0.1182328462600708,-0.061060912907123566,0.4220178723335266,-0.7407606244087219,10.05968952178955
2.14,-0.06884399801492691,-0.07124204933643341,-0.04091813787817955,0.03586235269904137,-0.736107349395752,11.459502220153809
2.16,-0.03229757025837898,-0.027471674606204033,-0.007153627462685108,-0.19280365109443665,-0.3730008006095886,10.923592567443848
2.18,0.010367827489972115,-0.024009520187973976,0.028566233813762665,-0.4031679034233093,-0.1314186304807663,9.260082244873047
2.2,0.006647066678851843,-0.02953682467341423,0.05528634041547775,-0.3310193419456482,-0.4321005344390869,8.07763671875
2.22,0.042525045573711395,0.007721700239926577,0.05613245815038681,-0.2436589151620865,-0.9261760711669922,8.327008247375488
2.24,0.12325215339660645,0.0582556277513504,0.06591633707284927,0.24363493919372559,-1.342870831489563,9.498738288879395
2.2600000000000002,0.0904114693403244,0.06398419290781021,0.0199720598757267,0.3087904155254364,-1.389634132385254,10.895392417907715
2.2800000000000002,0.12791340053081512,0.064570352435112,-0.05018509179353714,-0.0013511405559256673,-1.1523466110229492,11.260994911193848
2.3000000000000003,0.10529680550098419,0.08849699050188065,-0.08662529289722443,-0.39239296317100525,-0.6387415528297424,10.534425735473633
2.32,0.09198248386383057,0.0862790048122406,-0.07973871380090714,-0.33509397506713867,-0.057515665888786316,9.34337043762207
2.34,0.0722779929637909,0.07922396808862686,-0.03420169651508331,-0.2486172318458557,0.23406629264354706,8.575508117675781
2.36,0.08570601791143417,0.07718928158283234,0.020072713494300842,0.11669182777404785,0.24567432701587677,8.625079154968262
2.38,0.07294351607561111,0.08683200180530548,0.04923457279801369,0.40348923206329346,0.12284643203020096,9.414444923400879
2.4,0.067179374396801,0.0408717580139637,0.04580242186784744,0.2533518373966217,-0.19186876714229584,10.57724380493164
2.42,0.019160987809300423,0.006903314031660557,0.03591681644320488,0.059581197798252106,-0.5496698617935181,10.969379425048828
2.44,-0.006536548957228661,-0.0012835621600970626,0.030518168583512306,-0.00398488063365221,-0.6311641931533813,10.39175796508789
2.46,0.05441145598888397,0.00407380098477006,0.011430008336901665,-0.04969041794538498,-0.246979221701622,9.272845268249512
2.48,0.05871694162487984,-0.03192950412631035,0.00603142287582159,-0.3840916156768799,0.06016029044985771,8.765586853027344
2.5,0.05355229601264,-0.03461970388889313,0.026320399716496468,-1.081112265586853,-0.05806632712483406,10.10606861114502
2.52,0.06725107133388519,-0.010332462377846241,0.013011961244046688,-1.2562205791473389,-0.6390550136566162,10.765700340270996
2.54,0.05668889358639717,0.029687117785215378,-0.00814343336969614,-1.2741892337799072,-1.0563935041427612,10.30474853515625
2.56,-0.021453509107232094,0.0062622628174722195,-0.027815379202365875,-1.1077390909194946,-0.6903393268585205,9.761526107788086
2.58,0.002249056939035654,0.012485970743000507,-0.03172600269317627,-0.6643036603927612,0.15182605385780334,9.389727592468262
2.6,-0.0010759541764855385,0.012994098477065563,-0.022066427394747734,-0.38892123103141785,0.6229944229125977,9.367834091186523
2.62,0.018645044416189194,0.009034308604896069,0.008783075958490372,-0.19381043314933777,0.6371267437934875,9.663389205932617
2.64,0.005116137210279703,-0.027027035132050514,0.04765816032886505,-0.2500227093696594,0.11844296008348465,9.561278343200684
2.66,-0.019509654492139816,-0.035103682428598404,0.039130352437496185,-0.23939083516597748,-0.478546679019928,9.766637802124023
2.68,0.0034053288400173187,-0.06902975589036942,0.014033406041562557,0.06457765400409698,-0.6875442266464233,10.007219314575195
2.7,-0.010063717141747475,-0.11001455038785934,0.0005984205054119229,0.2909673750400543,-0.4968998432159424,10.008963584899902
2.72,-0.006684848107397556,-0.11919502913951874,0.0007266543689183891,0.30580559372901917,-0.35004693269729614,9.596442222595215
2.74,0.08344084769487381,-0.058265939354896545,0.0003853559319395572,0.04553847387433052,-0.30554836988449097,9.536896705627441
2.7600000000000002,0.046011071652173996,-0.0006298325024545193,-0.0028845681808888912,-0.22492438554763794,-0.3506808876991272,10.092535972595215
2.7800000000000002,0.017445098608732224,0.015585322864353657,-0.01626165583729744,-0.16805359721183777,-0.5174903869628906,10.457530975341797
2.8000000000000003,0.05726194381713867,-0.005533689633011818,-0.02628464065492153,-0.07426416873931885,-0.48433947563171387,9.921500205993652
2.82,0.005600868258625269,0.004717998206615448,-0.013672205619513988,0.12522049248218536,-0.2526259124279022,9.202938079833984
2.84,0.05459000542759895,0.026786934584379196,-0.0036709140986204147,0.3134200870990753,-0.13329662382602692,8.896814346313477
2.86,0.08134827017784119,0.045135509222745895,0.03548762947320938,0.2680828273296356,-0.2553160786628723,9.17935848236084
2.88,0.14658915996551514,0.03806786984205246,0.04660839959979057,0.09387531131505966,-0.6603767275810242,10.525069236755371
2.9,0.10882259160280228,0.0009106768993660808,0.044356513768434525,-0.13847491145133972,-0.7938582301139832,11.27242374420166
2.92,0.10914567857980728,-0.032230570912361145,0.03400999307632446,-0.23003695905208588,-0.40525585412979126,9.920100212097168
2.94,0.09902622550725937,0.0009671272709965706,0.008314191363751888,-0.3430324196815491,0.08699217438697815,8.878729820251465
2.96,0.09248660504817963,0.0055773574858903885,-0.016032857820391655,-0.34125813841819763,0.6334578394889832,9.4513578414917
2.98,0.04405197128653526,-0.02992473542690277,-0.01842690072953701,-0.4415466785430908,0.5814574956893921,9.841239929199219
3.0,0.07139936089515686,-0.040140677243471146,-0.017196426168084145,-0.5952460765838623,0.043491069227457047,10.194205284118652
3.02,0.032489143311977386,-0.0367433987557888,-0.02778955176472664,-0.7443243861198425,-0.28354212641716003,10.179120063781738
3.04,-0.006169612985104322,-0.03301002457737923,-0.01777258887887001,-0.6987229585647583,-0.01655961014330387,10.130507469177246
3.06,-0.005040771793574095,-0.032559581100940704,0.010152365081012249,-0.5002503991127014,0.3610079884529114,10.186153411865234
3.08,-0.004192623309791088,-0.057300034910440445,0.024625087156891823,-0.3313582241535187,0.27191057801246643,9.539920806884766
3.1,0.015204135328531265,-0.06401091068983078,0.01935158669948578,-0.45708078145980835,0.04079490900039673,9.150373458862305
3.12,-0.0029732866678386927,-0.03275993838906288,0.028752338141202927,-0.5215539336204529,-0.25080692768096924,9.429566383361816
3.14,0.02839161641895771,-0.030035175383090973,0.02395871840417385,-0.44434309005737305,-0.3375074565410614,9.922285079956055
3.16,0.016791343688964844,-0.034381184726953506,0.019727854058146477,-0.10453014075756073,-0.255155473947525,9.850895881652832
3.18,-0.0010062322253361344,-0.02121780812740326,-0.013309699483215809,0.2893749475479126,-0.10992348939180374,9.875057220458984
3.2,0.005820827558636665,-0.030422449111938477,-0.017642447724938393,0.6129430532455444,0.18661682307720184,10.159719467163086
3.22,0.02676733024418354,-0.06323923170566559,-0.01989622972905636,0.5582237839698792,0.25523796677589417,10.164175987243652
3.24,0.023222073912620544,-0.06326807290315628,0.015306956134736538,0.11965984851121902,0.08745476603507996,9.883678436279297
3.2600000000000002,0.08402209728956223,-0.07142417132854462,0.030297880992293358,-0.10479830950498581,-0.17762207984924316,9.744218826293945
3.2800000000000002,0.05094970390200615,-0.07168706506490707,0.0332312285900116,-0.2028491348028183,-0.3283514082431793,9.41797924041748
3.3000000000000003,0.054692789912223816,-0.06235460564494133,0.026600882411003113,-0.26671525835990906,-0.3656904697418213,9.7874116897583
3.3200000000000003,0.03192704916000366,-0.018561379984021187,-0.008821296505630016,-0.30515560507774353,-0.27204054594039917,10.245433807373047
3.34,0.078870490193367,-0.028401454910635948,-0.05107083171606064,0.0834355279803276,0.013658896088600159,9.817112922668457
3.36,0.03966837003827095,-0.016989732161164284,-0.04950277507305145,0.3953635096549988,0.3352469205856323,9.014364242553711
3.38,0.01820817030966282,0.04354032874107361,-0.04029001668095589,0.391010046005249,0.3472853899002075,8.782600402832031
3.4,-0.013604303821921349,0.05474456027150154,-0.02534773014485836,0.44800615310668945,0.2406143844127655,9.705759048461914
3.42,-0.0752335861325264,0.052319228649139404,-0.02645234204828739,0.2761375904083252,0.30123257637023926,10.722955703735352
3.44,-0.06866442412137985,0.04264748468995094,4.931226430926472e-05,-0.10020717978477478,0.6231256127357483,10.50210952758789
3.46,-0.04617437347769737,0.03800906985998154,0.026025528088212013,-0.278722882270813,0.4900374412536621,9.431292533874512
3.48,-0.03237845376133919,0.006981216371059418,0.050396330654621124,-0.1658051311969757,0.19902636110782623,9.083683013916016
3.5,-0.06095800921320915,-0.03448452055454254,0.04837481305003166,-0.05652821436524391,-0.16998209059238434,9.919817924499512
3.52,0.028587818145751953,-0.08459411561489105,0.05090530589222908,-0.1562972068786621,-0.8581891655921936,10.860820770263672
3.54,-0.004024848807603121,-0.10478082299232483,0.010578789748251438,-0.38003554940223694,-0.9980469942092896,10.87794303894043
3.56,0.007958116941154003,-0.055403873324394226,-0.030426908284425735,-0.9378013014793396,-0.4911651313304901,9.820210456848145
3.58,0.017528820782899857,-0.00968481507152319,-0.047269441187381744,-1.076045274734497,0.22116713225841522,9.077492713928223
3.6,0.0179778840392828,0.013287837617099285,-0.040820784866809845,-1.1914358139038086,0.5240413546562195,9.165132522583008
3.62,0.03886585310101509,-0.021378524601459503,-0.010115106590092182,-0.44399261474609375,0.5410259366035461,9.92613410949707
3.64,-0.01565902680158615,-0.06000485643744469,0.014366216026246548,0.8321351408958435,0.33987629413604736,9.899982452392578
3.66,-0.028677266091108322,-0.04365619644522667,0.01722639799118042,1.2715590000152588,0.14278125762939453,9.135303497314453
3.68,0.010871203616261482,-0.024175379425287247,0.005123123060911894,1.2509492635726929,-0.10326413810253143,9.335180282592773
3.7,-0.02873075194656849,-0.06911896169185638,0.004524742718786001,0.7133580446243286,-0.5204206109046936,10.030110359191895
3.72,0.012064182199537754,-0.058292731642723083,-0.012688348069787025,0.022227760404348373,-0.5999249815940857,10.238731384277344
3.74,-0.038065604865550995,0.0032446656841784716,0.001417041989043355,-0.3200455605983734,-0.33865925669670105,9.931339263916016
3.7600000000000002,0.00888809747993946,-0.003831978887319565,0.014614800922572613,-0.414312481880188,-0.05120527371764183,9.789083480834961
3.7800000000000002,0.018613263964653015,-0.03398803249001503,0.00978313572704792,-0.263150155544281,0.18694579601287842,9.259368896484375
3.8000000000000003,0.007474548649042845,0.01681467890739441,-0.0009350706823170185,-0.12260729819536209,0.2379615753889084,9.378644943237305
3.8200000000000003,0.03504519537091255,0.09949654340744019,-0.029343588277697563,-0.08619605004787445,-0.032985929399728775,10.199274063110352
3.84,0.03386686369776726,0.08531028777360916,-0.026640649884939194,0.14029398560523987,-0.20915985107421875,10.434155464172363
3.86,-0.024822277948260307,0.04893878102302551,-0.02305295504629612,0.26848921179771423,-0.08838097751140594,10.574271202087402
3.88,0.025433119386434555,0.05378991737961769,-0.015658190473914146,0.08560054749250412,0.13631097972393036,9.575204849243164
3.9,0.04406376928091049,0.04434334859251976,-0.00043934176210314035,0.047690823674201965,0.19749854505062103,9.370484352111816
3.92,0.0068842144683003426,-0.04391036927700043,0.016920683905482292,0.1498509794473648,0.0826079398393631,9.552974700927734
3.94,0.016886133700609207,-0.04897457733750343,0.0248650461435318,0.07980770617723465,-0.08348912000656128,9.725610733032227
3.96,-0.0071229273453354836,0.005822892766445875,-0.0024665698874741793,-0.04113398864865303,-0.06754535436630249,9.794557571411133
3.98,0.01111949235200882,0.0172549020498991,-0.01154276728630066,-0.22255098819732666,0.014052094891667366,9.87559986114502
4.0,0.012959897518157959,-0.0051459819078445435,-0.022881081327795982,-0.30475351214408875,0.07378699630498886,9.890684127807617
4.0200000000000005,0.04440291225910187,0.019412381574511528,-0.02326049655675888,-0.48958784341812134,-0.15127474069595337,10.464548110961914
4.04,0.004678225610405207,0.029910508543252945,-0.015442050993442535,-0.6337109208106995,-0.16567884385585785,10.350519180297852
4.0600000000000005,0.061696670949459076,-0.005161127541214228,0.0024614310823380947,-0.19444504380226135,0.15324026346206665,9.312481880187988
4.08,-0.0053594233468174934,-0.025251120328903198,0.024154813960194588,0.2617425322532654,0.14184214174747467,8.990236282348633
4.1,0.005862648598849773,-0.04377463832497597,0.008283322677016258,0.5009884238243103,0.05344149097800255,9.806117057800293
4.12,-0.011076503433287144,-0.0721578598022461,0.0014956311788409948,0.1119195818901062,-0.2043788731098175,10.502269744873047
4.14,-0.026867615059018135,-0.06841079890727997,-0.015345449559390545,-0.5370473265647888,0.09540577232837677,10.85798454284668
4.16,-0.03351064398884773,-0.06312450021505356,-0.02342350035905838,-0.7183017134666443,0.39568030834198,10.178017616271973
4.18,-0.06235606595873833,-0.07624895870685577,0.008597376756370068,-0.45891910791397095,0.37092849612236023,8.996488571166992
4.2,-0.059350382536649704,-0.0774381160736084,0.01707751303911209,0.08254050463438034,0.11633044481277466,8.696687698364258
4.22,-0.05512149631977081,-0.052821915596723557,0.025040023028850555,0.5714032053947449,-0.0380919985473156,9.51313591003418
4.24,-0.025091899558901787,-0.027131790295243263,-0.002339173574000597,0.7104103565216064,-0.09174120426177979,10.340775489807129
4.26,-0.018298933282494545,-0.015895437449216843,2.74216308753239e-05,0.640608549118042,-0.19501140713691711,10.105388641357422
4.28,0.01687016524374485,-0.028642769902944565,-0.019341252744197845,0.2582550048828125,-0.4303191304206848,9.798036575317383
4.3,0.021099399775266647,-0.0020781687926501036,0.0005676089785993099,-0.07143227010965347,-0.4332170784473419,10.01937198638916
4.32,0.05487821623682976,0.05132891610264778,0.008774640038609505,0.08197662234306335,-0.16843631863594055,10.007954597473145
4.34,0.05104712396860123,0.02790248952805996,0.017712555825710297,0.4427323043346405,-0.029325775802135468,9.406214714050293
4.36,0.07785198837518692,-0.02865288406610489,0.014953138306736946,0.4997911751270294,-0.061924610286951065,8.791025161743164
4.38,0.032074879854917526,-0.01002923958003521,0.004711131099611521,0.2234378308057785,-0.035817701369524,9.05557632446289
4.4,0.03859676420688629,-0.003606423269957304,0.004845357965677977,0.07651535421609879,0.09589590132236481,10.018013954162598
4.42,0.027041301131248474,-0.04393027350306511,0.004979549907147884,0.013882465660572052,0.11621451377868652,9.973384857177734
4.44,-0.007015295326709747,-0.04977713152766228,-0.0069862245582044125,-0.16980716586112976,0.20442846417427063,9.663054466247559
4.46,-0.03286755084991455,-0.01640458218753338,-0.030005890876054764,-0.33236727118492126,0.5145868062973022,10.415626525878906
4.48,-0.02452021837234497,-0.028247717767953873,-0.023793699219822884,-0.46561717987060547,0.7927742004394531,10.544715881347656
4.5,-0.06064912676811218,-0.04630080237984657,0.01501750573515892,-0.37040674686431885,0.4831549823284149,9.409468650817871
4.5200000000000005,-0.013511276803910732,-0.01683059334754944,0.03171023726463318,-0.3386934697628021,-0.0022567680571228266,9.105345726013184
4.54,-0.002212145598605275,0.013137005269527435,0.03820839151740074,-0.49963077902793884,-0.3603276014328003,10.272444725036621
4.5600000000000005,0.0643734410405159,-0.009309119544923306,0.03154735267162323,-0.46239835023880005,-0.6651705503463745,10.543716430664062
4.58,0.02091355063021183,-0.03409172594547272,-0.010587743483483791,0.18010041117668152,-0.7498795986175537,10.200704574584961
4.6000000000000005,0.013086503371596336,-0.08490896970033646,-0.03599788621068001,0.5261198282241821,-0.5378877520561218,9.643559455871582
4.62,0.050375502556562424,-0.07238709926605225,-0.044080715626478195,0.4540524482727051,-0.05914807692170143,9.422345161437988
4.64,0.05839268118143082,-0.023366708308458328,-0.011822990141808987,0.3572534918785095,0.2253122180700302,9.533326148986816
4.66,0.04027663171291351,-0.011181727983057499,0.008744554594159126,0.5324306488037109,0.32995277643203735,9.95142650604248
4.68,0.029517875984311104,-0.02917606756091118,0.019204508513212204,0.41734743118286133,0.5622442960739136,10.067184448242188
4.7,0.010778937488794327,-0.011818128637969494,-0.0007418786408379674,0.20183193683624268,0.6022483110427856,9.9691801071167
4.72,-0.04498330503702164,0.0018657406326383352,-0.009957532398402691,0.07307858765125275,0.35053500533103943,9.95676326751709
4.74,-0.02782646380364895,0.05092976987361908,-0.015688331797719002,0.297374963760376,0.08722490817308426,9.655305862426758
4.76,-0.047787100076675415,0.05051465705037117,-0.0019660096149891615,0.5833151936531067,-0.06873428076505661,9.40414810180664
4.78,-0.055382080376148224,-0.014666159637272358,-0.00108819711022079,0.6968962550163269,-0.0584866963326931,9.637605667114258
4.8,-0.019695505499839783,-0.09222115576267242,-0.013757939450442791,0.3997912108898163,0.1447344869375229,9.46964168548584
4.82,0.023487495258450508,-0.10739360749721527,0.03227293863892555,0.15316756069660187,0.11059337109327316,9.606690406799316
4.84,0.029120173305273056,-0.10428421944379807,0.04136719927191734,-0.19381436705589294,-0.32811033725738525,10.03930377960205
4.86,-0.0004505420511122793,-0.12105053663253784,0.04460170492529869,-0.32881253957748413,-0.49485960602760315,10.415130615234375
4.88,0.10728666931390762,-0.13022999465465546,0.052234187722206116,-0.3074047267436981,-0.2967487573623657,9.747138977050781
4.9,0.06027251482009888,-0.08891621977090836,0.04375018924474716,-0.20449376106262207,0.11957766115665436,9.099892616271973
4.92,0.10255073755979538,-0.0010544871911406517,0.03552424907684326,-0.2760736346244812,0.06132723018527031,9.243362426757812
4.94,0.0820629745721817,0.041191551834344864,0.011264275759458542,-0.3829876780509949,-0.15535926818847656,10.378005027770996
4.96,0.12547515332698822,0.01743829809129238,-0.02764662355184555,-0.00783371739089489,-0.10594265908002853,10.263005256652832
4.98,0.08109739422798157,-0.007630265783518553,-0.06235272437334061,0.7749199271202087,0.35355082154273987,9.403387069702148
5.0,0.007112981751561165,-0.04281949624419212,-0.051355991512537,1.1688575744628906,0.7505248785018921,9.343003273010254
5.0200000000000005,-0.018732184544205666,-0.026032108813524246,-0.025749532505869865,0.9365197420120239,0.7893469333648682,10.120755195617676
5.04,-0.04835891351103783,-0.0212338138371706,0.009703075513243675,0.6759050488471985,0.5408646464347839,10.122228622436523
5.0600000000000005,-0.044834405183792114,-0.03637604042887688,0.01087174192070961,0.10896161943674088,0.12533263862133026,9.710105895996094
5.08,-0.0523766428232193,-0.035881754010915756,0.031214194372296333,-0.24314987659454346,0.07318966090679169,10.029474258422852
5.1000000000000005,-0.015688873827457428,-0.025468261912465096,0.00894404761493206,-0.2400478571653366,0.05667880177497864,10.140238761901855
5.12,-0.03665013238787651,-0.01158048678189516,-0.014128051698207855,0.22644084692001343,-0.06858248263597488,9.831292152404785
5.14,0.07688234001398087,0.009128661826252937,-0.024239392951130867,0.569274365901947,-0.2914198935031891,9.289460182189941
5.16,-0.0009161380585283041,0.03994736447930336,-0.016149094328284264,0.6790876388549805,-0.4678911864757538,9.549628257751465
5.18,0.04729071632027626,0.024930577725172043,-0.029587915167212486,0.5683270692825317,-0.16956469416618347,10.19907283782959
5.2,-0.007822765037417412,0.018644455820322037,-0.044169921427965164,0.3534029722213745,0.2316717952489853,10.730867385864258
5.22,0.00400363327935338,0.007006912492215633,-0.01853211410343647,0.0827961340546608,0.5471014380455017,10.341838836669922
5.24,-0.0011488834861665964,0.005857910495251417,0.0006308354786597192,-0.11876828223466873,0.4868965744972229,9.615555763244629
5.26,0.0059032924473285675,0.029790719971060753,-0.0015334251802414656,0.048081669956445694,0.4201253056526184,9.442178726196289
5.28,-0.014199253171682358,0.038694679737091064,-0.008182541467249393,0.3695562779903412,0.2796398997306824,9.424178123474121
5.3,0.0010270321508869529,0.0323699489235878,-0.01874546892940998,0.48661863803863525,0.08046714961528778,9.374317169189453
5.32,-0.060287393629550934,-0.00705816550180316,-0.01610742323100567,0.47561967372894287,-0.019167551770806313,9.41895580291748
5.34,-0.04352980852127075,0.007043486926704645,-0.024914946407079697,0.4458739459514618,-0.08284714072942734,9.389214515686035
5.36,-0.04781947284936905,0.023025505244731903,-0.003193728858605027,0.3709467053413391,-0.03127079829573631,9.819828987121582
5.38,-0.03876170516014099,0.0017578426050022244,0.005699042230844498,0.25791633129119873,0.017800046131014824,10.401094436645508
5.4,0.03164256364107132,-0.023439859971404076,0.025403054431080818,0.08176177740097046,0.026853837072849274,10.48246955871582
5.42,0.004585715942084789,-0.032154057174921036,0.015521420165896416,0.03772768750786781,0.04155755043029785,9.989842414855957
5.44,-0.01212253887206316,-0.00805013906210661,-0.0020001865923404694,0.06987021863460541,0.10879817605018616,9.305330276489258
5.46,0.07516804337501526,0.01206578966230154,-0.012209499254822731,0.11600922048091888,0.199346125125885,8.97943115234375
5.48,0.025546155869960785,0.0015445883618667722,-0.012140353210270405,0.10670015960931778,0.06543811410665512,9.186989784240723
5.5,0.027034349739551544,0.005641760770231485,-0.02594873309135437,0.0818144679069519,-0.06521272659301758,9.98399829864502
5.5200000000000005,0.05563253536820412,-0.028052883222699165,-0.025235354900360107,0.08937885612249374,-0.05597051978111267,10.438199043273926
5.54,0.08949290215969086,-0.08593066781759262,0.027777280658483505,0.2050357162952423,-0.030929001048207283,10.560552597045898
5.5600000000000005,0.085232675075531,-0.08648312836885452,0.06779167801141739,0.24187949299812317,-0.289402574300766,10.13250732421875
5.58,0.08766793459653854,-0.027120545506477356,0.05539657548069954,0.1170552670955658,-0.41399630904197693,10.06399154663086
5.6000000000000005,0.0671025961637497,-0.008596757426857948,0.01384293008595705,0.149799644947052,-0.10209742188453674,10.138036727905273
5.62,0.059654347598552704,-0.02486351691186428,-0.006343078799545765,0.14262785017490387,0.6383395791053772,9.82003402709961
5.64,0.05657750368118286,-0.07675743848085403,-0.031921375542879105,0.10153144598007202,1.0583745241165161,9.458731651306152
5.66,0.052889395505189896,-0.07285059988498688,-0.026161180809140205,0.16013778746128082,0.6866115927696228,9.428678512573242
5.68,0.08437545597553253,-0.03133922070264816,0.002874920843169093,0.2303561419248581,0.027248339727520943,9.614030838012695
5.7,0.05077313259243965,-0.014403101056814194,0.034477632492780685,0.5355274081230164,-0.272348016500473,9.922674179077148
5.72,0.074795201420784,-0.008016050793230534,0.02495334856212139,0.756454348564148,-0.18375281989574432,10.125277519226074
5.74,0.011285417713224888,-0.01836380735039711,-0.002153422450646758,0.7090814113616943,0.1610209047794342,10.073720932006836
5.76,-0.00959005393087864,-0.021888580173254013,-0.0380256362259388,0.5460334420204163,0.6324467062950134,9.596965789794922
5.78,-0.02266477234661579,-0.005652959458529949,-0.04883509501814842,0.4472635090351105,0.9074901342391968,9.176630973815918
5.8,-0.025926221162080765,0.025758152827620506,-0.03409268334507942,0.3982853293418884,0.7917932271957397,9.46914291381836
5.82,-0.0826636254787445,0.042455676943063736,-0.03652670234441757,0.47350013256073,0.6115589737892151,10.063060760498047
5.84,-0.05671606585383415,0.051093097776174545,-0.03570020943880081,0.6337647438049316,0.5161458849906921,9.965553283691406
5.86,-0.0804484486579895,0.021021855995059013,-0.004049345850944519,0.7756379842758179,0.49986085295677185,9.59083080291748
5.88,-0.053688012063503265,-0.003627617610618472,0.008767015300691128,0.6784226894378662,0.35501745343208313,9.063785552978516
5.9,-0.059049393981695175,0.014284331351518631,0.016317741945385933,0.4327029883861542,0.019415849819779396,9.389668464660645
5.92,-0.019820133224129677,0.08637683838605881,0.027482789009809494,0.21050527691841125,-0.19155657291412354,10.030332565307617
5.94,-0.020606623962521553,0.07827562093734741,0.02285655401647091,0.10777290165424347,-0.25990307331085205,10.322722434997559
5.96,0.006647828500717878,0.026478417217731476,0.016891058534383774,0.19013617932796478,-0.2939063310623169,10.097940444946289
5.98,-0.022785300388932228,0.03460770845413208,-0.006315404083579779,0.23470906913280487,-0.2643614411354065,9.343352317810059
6.0,0.05889612436294556,0.09146329760551453,-0.015078195370733738,0.2727387845516205,0.03131045773625374,8.699057579040527
6.0200000000000005,0.1045200377702713,0.08758499473333359,-0.010169906541705132,0.46119681000709534,0.32388341426849365,8.740966796875
6.04,0.08259217441082001,0.04791673645377159,0.007457598578184843,0.45997658371925354,0.22642472386360168,10.296431541442871
6.0600000000000005,0.020771432667970657,-0.008826798759400845,-0.012736013159155846,0.022964904084801674,0.22945556044578552,11.751864433288574
6.08,0.0476578064262867,0.005428639706224203,-0.04126662760972977,-0.24164032936096191,0.5620655417442322,10.94221305847168
6.1000000000000005,-0.05876190960407257,0.03495936468243599,-0.009651625528931618,-0.19680403172969818,0.8462021946907043,9.319816589355469
6.12,-0.06613525003194809,-0.017390243709087372,0.0014409513678401709,-0.19192390143871307,1.0122826099395752,8.581456184387207
6.140000000000001,-0.08374614268541336,-0.054094888269901276,0.006004182156175375,-0.21456095576286316,0.7415176033973694,8.813905715942383
6.16,-0.08951444923877716,-0.015438579022884369,-0.001793432398699224,-0.0753994882106781,0.5434026718139648,10.160689353942871
6.18,-0.07143541425466537,0.01334741897881031,0.0013578395592048764,0.12473977357149124,0.10959576070308685,10.866389274597168
6.2,-0.06445140391588211,-0.0025941538624465466,0.013260040432214737,0.5498033761978149,-0.323078989982605,9.833332061767578
6.22,-0.07207111269235611,0.006407013162970543,0.009675540961325169,0.6427139043807983,-0.5643481612205505,8.985057830810547
6.24,-0.04107353091239929,0.07751993834972382,-0.011706673540174961,0.4939497113227844,-0.2884044051170349,9.918214797973633
6.26,0.022295381873846054,0.08348952978849411,-0.0068999044597148895,0.6061956882476807,0.2209664136171341,10.363607406616211
6.28,-0.0574633814394474,0.06817124783992767,-0.01441974751651287,0.5294806957244873,0.4215048551559448,9.725701332092285
6.3,-0.044630683958530426,0.06703611463308334,-0.02445710450410843,0.43516334891319275,0.3944842517375946,9.758354187011719
6.32,-0.0601702518761158,0.07023652642965317,-0.03192470967769623,0.33409515023231506,0.2542441785335541,9.976797103881836
6.34,-0.09462732821702957,0.07596166431903839,-0.02345576323568821,0.3332541882991791,0.26793548464775085,9.671926498413086
6.36,-0.06405306607484818,0.05826509743928909,0.010656194761395454,0.3043181598186493,0.4448677897453308,9.632197380065918
6.38,-0.05876325070858002,0.006694968324154615,0.03351712226867676,0.038354817777872086,0.1510547697544098,9.425164222717285
6.4,0.009788945317268372,-0.06686241924762726,0.015253794379532337,0.06985766440629959,-0.1007639542222023,9.517471313476562
6.42,0.023257337510585785,-0.06127869710326195,0.021724771708250046,0.00992401223629713,-0.4024408757686615,9.980863571166992
6.44,0.11302582174539566,-0.006376410834491253,0.027209382504224777,-0.5179516673088074,-0.9326703548431396,9.96655559539795
6.46,0.10958566516637802,0.006969722919166088,0.02073749713599682,-0.750892162322998,-1.1784170866012573,9.607768058776855
6.48,0.11674468964338303,-0.05565724894404411,-0.013740714639425278,-0.6438925862312317,-0.805905282497406,9.82947826385498
6.5,0.10895612090826035,-0.07332693040370941,-0.03687669709324837,-0.4007384777069092,0.12321662157773972,10.488682746887207
6.5200000000000005,0.05552174150943756,0.016248276457190514,-0.019007494673132896,-0.4425780773162842,1.0902516841888428,11.198433876037598
6.54,0.10987892746925354,0.06386927515268326,-0.00760023295879364,-0.6610469222068787,1.456626296043396,10.57136058807373
6.5600000000000005,0.07015316933393478,-0.008679327555000782,-0.007606854662299156,-0.059895358979701996,1.1547951698303223,9.56037712097168
6.58,0.004274142440408468,-0.11273984611034393,-0.011678258888423443,0.9389755129814148,0.75675368309021,8.462745666503906
6.6000000000000005,-0.04008404538035393,-0.06331835687160492,-0.025365378707647324,1.1032381057739258,0.48874950408935547,9.074785232543945
6.62,-0.04783128947019577,-0.015494384802877903,-0.005247975699603558,1.0386712551116943,0.4540349841117859,10.31517505645752
6.640000000000001,-0.02050837315618992,-0.02697400189936161,0.03449706733226776,0.7943504452705383,0.18409974873065948,10.387704849243164
6.66,0.02731194533407688,0.0008171250810846686,0.06304462999105453,0.2750202417373657,0.07346625626087189,10.025320053100586
6.68,0.024153808131814003,0.06850394606590271,0.09087175130844116,0.27949467301368713,-0.1475616991519928,9.668546676635742
6.7,0.0756620466709137,0.07215847820043564,0.07292978465557098,0.4340669512748718,-0.41534924507141113,9.937295913696289
6.72,0.040466584265232086,0.044029682874679565,0.0434596873819828,0.7069714069366455,-0.31525880098342896,9.56075668334961
6.74,0.07695143669843674,0.05170740932226181,0.0006716689676977694,0.6050989627838135,-0.06727694720029831,9.605069160461426
6.76,0.04219570383429527,0.06803378462791443,-0.02108711749315262,0.07579229772090912,0.12357121706008911,9.85050106048584
6.78,0.04291725158691406,0.0068869986571371555,-0.03982657939195633,-0.3844795525074005,0.2046280950307846,10.258014678955078
6.8,-0.0003995918668806553,-0.045687220990657806,-0.05391726270318031,-0.6510770916938782,0.3841862082481384,10.234304428100586
6.82,0.005422047805041075,-0.07344993948936462,-0.034946125000715256,-0.6997647881507874,0.5752845406532288,9.849933624267578
6.84,0.0280549768358469,-0.09866452217102051,-0.013682860881090164,-0.6445329189300537,0.6553514003753662,9.60175609588623
6.86,0.022315112873911858,-0.15155720710754395,0.0090657202526927,-0.43130701780319214,0.5641037821769714,9.375052452087402
6.88,0.06202495098114014,-0.1737094223499298,0.01626712642610073,-0.18780535459518433,0.3445539176464081,9.09017562866211
6.9,0.05360086262226105,-0.18313123285770416,0.010984726250171661,0.30601075291633606,-0.06539999693632126,8.867109298706055
6.92,0.04322672635316849,-0.15527822077274323,-0.001134776626713574,0.5693289041519165,-0.5245616436004639,9.862635612487793
6.94,0.043775513768196106,-0.11862281709909439,-0.02205803245306015,0.7546532154083252,-0.582453727722168,10.596846580505371
6.96,0.04239560291171074,-0.08327236026525497,-0.031186070293188095,1.1424005031585693,-0.15820160508155823,10.754546165466309
6.98,0.02864525094628334,-0.10976787656545639,-0.020397018641233444,1.1459295749664307,0.5651654005050659,9.83031940460205
7.0,0.067097507417202,-0.12452605366706848,0.0014255908317863941,0.8634008169174194,1.041711688041687,8.675189018249512
7.0200000000000005,0.05263889580965042,-0.0729500874876976,0.03141678869724274,0.578278660774231,0.8951929211616516,8.36829662322998
7.04,0.003011612454429269,0.023108569905161858,0.025184862315654755,0.47376054525375366,0.7266650199890137,9.320284843444824
7.0600000000000005,-0.06820803880691528,0.09501001983880997,0.0009917528368532658,0.6593582034111023,0.8043090105056763,10.555533409118652
7.08,-0.09312605112791061,0.07684402167797089,-0.038893915712833405,0.7675579786300659,0.7888855338096619,10.331140518188477
7.1000000000000005,-0.11689721792936325,0.036503225564956665,-0.045599568635225296,0.6256579756736755,0.6912213563919067,9.456815719604492
7.12,-0.12510907649993896,0.0769350677728653,-0.027498623356223106,0.4561472535133362,0.4982840418815613,9.048701286315918
7.140000000000001,-0.12777811288833618,0.13367129862308502,0.01168079860508442,0.5886704325675964,0.19383880496025085,9.399043083190918
7.16,-0.10620757937431335,0.13565923273563385,0.03715141490101814,0.6268149614334106,-0.17562708258628845,9.95275592803955
7.18,-0.12372838705778122,0.11109521985054016,0.03340688720345497,0.38193976879119873,-0.19162659347057343,10.298083305358887
7.2,-0.10375072807073593,0.07047096639871597,-0.01108645461499691,0.0778917595744133,0.17301981151103973,11.01934814453125
7.22,-0.016262926161289215,-0.06753966957330704,-0.021746207028627396,0.05624805763363838,0.21755239367485046,11.135208129882812
7.24,-0.004376575350761414,-0.13683559000492096,0.006173017900437117,0.3873332142829895,-0.17957675457000732,9.194463729858398
7.26,0.06868072599172592,-0.1096157431602478,0.026578223332762718,-0.14775989949703217,-0.6422845125198364,8.266236305236816
7.28,0.07441223412752151,-0.14099420607089996,0.03220877796411514,-0.7202062606811523,-0.9585110545158386,9.353209495544434
7.3,0.09932344406843185,-0.21592074632644653,0.02413189969956875,-0.808497965335846,-0.45423731207847595,10.354499816894531
7.32,0.005198589060455561,-0.16061297059059143,0.008631730452179909,-0.8510409593582153,0.6073506474494934,10.725367546081543
7.34,-0.05581820756196976,-0.024123089388012886,-0.043596379458904266,-0.67364501953125,1.3997749090194702,10.574594497680664
7.36,-0.07088509947061539,0.002173313172534108,-0.07478465139865875,-0.7656443119049072,1.257980465888977,9.154306411743164
7.38,-0.15256603062152863,-0.02575390413403511,-0.06480900198221207,0.2140125036239624,0.8844882249832153,8.138214111328125
7.4,-0.14437584578990936,-0.02062779664993286,-0.06648561358451843,1.287725806236267,0.5407606363296509,8.726288795471191
7.42,-0.1472157984972,0.02484140917658806,-0.04813557490706444,1.9326910972595215,0.14746171236038208,10.159976959228516
7.44,-0.16007761657238007,-0.012718609534204006,-0.015752233564853668,2.4451050758361816,-0.2683497965335846,11.396157264709473
7.46,-0.09901374578475952,-0.043453399091959,0.02583814039826393,2.3439576625823975,-0.6625064611434937,10.6588773727417
7.48,-0.04517986252903938,0.0327865406870842,0.05498775094747543,1.3480725288391113,-0.6586459279060364,8.697013854980469
7.5,0.0030339627992361784,0.07399751245975494,0.06477255374193192,0.4745747447013855,-0.20006121695041656,8.387906074523926
7.5200000000000005,0.05122300982475281,0.0415494441986084,0.06599687784910202,0.061262957751750946,-0.1400051712989807,9.627285957336426
7.54,0.04236041381955147,0.005406830459833145,0.060377221554517746,0.2128787785768509,-0.18983213603496552,10.661478996276855
7.5600000000000005,0.12159191817045212,0.0973464846611023,0.035504214465618134,0.08938486129045486,-0.3282470107078552,10.637948989868164
7.58,0.09655703604221344,0.1457415670156479,0.0065714335069060326,-0.05929768830537796,-0.34562572836875916,11.391870498657227
7.6000000000000005,0.04026813060045242,-0.020726870745420456,-0.035281870514154434,-0.36459463834762573,0.1546350121498108,11.193008422851562
7.62,-0.004844599403440952,-0.11975560337305069,-0.06532445549964905,-0.3469766676425934,0.8384770750999451,9.284133911132812
7.640000000000001,-0.018207857385277748,-0.08991163969039917,-0.06633473932743073,-0.2589021921157837,0.8637793064117432,9.081530570983887
7.66,-0.034125905483961105,-0.15547701716423035,-0.03803033009171486,-0.20090672373771667,0.7812098264694214,9.724949836730957
7.68,-0.04393398016691208,-0.20196714997291565,0.013117802329361439,-0.29328620433807373,0.7018433213233948,9.293135643005371
7.7,-0.060409992933273315,-0.10688956826925278,0.057186342775821686,-0.21438521146774292,0.42420494556427,9.356500625610352
7.72,-0.04316476359963417,-0.036242060363292694,0.06917539238929749,0.3403989374637604,-0.18011313676834106,9.694144248962402
7.74,-0.0540042370557785,-0.051137637346982956,0.029108911752700806,1.1354613304138184,-0.3434787094593048,9.64750862121582
7.76,-0.0319550484418869,0.01779675856232643,-0.030630549415946007,1.5433249473571777,-0.27133041620254517,9.367406845092773
7.78,0.05441637337207794,0.17440636456012726,-0.06515111029148102,2.064332962036133,-0.41940486431121826,9.239194869995117
7.8,0.06706224381923676,0.17299701273441315,-0.07074552029371262,2.1088767051696777,-0.48088595271110535,8.820039749145508
7.82,0.08514905720949173,0.1427956223487854,-0.033437397330999374,1.8806966543197632,-0.2467818558216095,8.972259521484375
7.84,0.042688917368650436,0.17873890697956085,0.022881217300891876,1.1678574085235596,-0.1661836802959442,10.595029830932617
7.86,0.0011846298584714532,0.15737032890319824,0.018401572480797768,0.1803370714187622,0.08439146727323532,12.584681510925293
7.88,0.01012561284005642,0.08200418204069138,-0.011548764072358608,-0.3165788948535919,0.7664082050323486,10.873625755310059
7.9,-0.05841954052448273,0.09423369914293289,-0.01606706902384758,-0.18674564361572266,1.0221236944198608,8.324484825134277
7.92,-0.04570125415921211,0.09948042780160904,-0.029856767505407333,-0.23068876564502716,0.8496036529541016,8.580041885375977
7.94,-0.08652657270431519,-0.0007459855987690389,-0.019013483077287674,-0.18163807690143585,0.3581639528274536,9.815776824951172
7.96,-0.04121117293834686,-0.06832919269800186,-0.019643912091851234,-0.3055107891559601,-0.1378346085548401,10.518095970153809
7.98,-0.06209363788366318,-0.0009443606832064688,-0.008553016930818558,-0.7581807374954224,-0.5627700686454773,9.98798656463623
8.0,-0.05333559587597847,0.006775595713406801,0.018481791019439697,-0.5980735421180725,-0.4808497130870819,9.832367897033691
8.02,0.007875225506722927,-0.04431091994047165,0.003442387795075774,-0.5307890176773071,-0.10714495182037354,9.38192081451416
8.040000000000001,-0.0493154302239418,-0.028565993532538414,0.013974529691040516,-0.4368709325790405,0.11127748340368271,9.387995719909668
8.06,-0.011579263024032116,0.009373029693961143,0.020772943273186684,-0.2495008111000061,-0.0742846205830574,9.763667106628418
8.08,0.012616617605090141,-0.021445196121931076,0.01838928647339344,0.9214238524436951,-0.2048235833644867,10.501562118530273
8.1,-0.012961728498339653,-0.055451344698667526,-0.015086108818650246,1.4657237529754639,0.1083337590098381,10.195596694946289
8.120000000000001,0.07128380984067917,-0.004985884763300419,-0.03132849931716919,1.534850001335144,0.2649344801902771,9.554646492004395
8.14,0.043768785893917084,0.02715154178440571,-0.03595804423093796,1.218026041984558,0.030040182173252106,8.932336807250977
8.16,-0.01646842621266842,0.014208544977009296,-0.022394102066755295,0.7691099643707275,-0.06218819320201874,9.43480110168457
8.18,0.002056637778878212,0.006612136494368315,-0.01728968322277069,0.34536683559417725,0.1689528375864029,9.874656677246094
8.2,-0.03753085434436798,0.04717017337679863,0.0016952714649960399,0.2575521469116211,0.4675188958644867,9.8213529586792
8.22,-0.008908197283744812,0.020319031551480293,0.02629285678267479,0.19083352386951447,0.5378924608230591,10.148090362548828
8.24,-0.04056970402598381,-0.0007200721302069724,0.04434503614902496,-0.1856183111667633,0.21491767466068268,10.565223693847656
8.26,-0.024049773812294006,0.027209294959902763,0.019358322024345398,-0.1474541872739792,-0.19466589391231537,10.628398895263672
8.28,-0.04459058493375778,0.012204756028950214,-0.011633784510195255,0.013754190877079964,-0.3240276873111725,9.689783096313477
8.3,-0.0045580132864415646,-0.020983178168535233,-0.005640310700982809,-0.05776319280266762,0.0130921620875597,8.97344970703125
8.32,0.015142414718866348,-0.032392196357250214,0.02544313855469227,-0.04221795126795769,0.07280109077692032,9.094274520874023
8.34,0.04467707872390747,-0.03326837345957756,0.044416919350624084,0.2135070562362671,-0.21589267253875732,9.897773742675781
8.36,0.10305456817150116,-0.03828645870089531,0.03779027983546257,0.6848036050796509,-0.623498797416687,10.315909385681152
8.38,0.056280042976140976,-0.0448385551571846,0.004497965332120657,0.8442788124084473,-0.6455831527709961,9.959178924560547
8.4,0.026516050100326538,-0.03836513310670853,-0.032403308898210526,0.7238942980766296,-0.14057642221450806,9.372841835021973
8.42,0.037301063537597656,-0.02237793616950512,-0.029998082667589188,0.47964122891426086,0.35317263007164,9.285669326782227
8.44,0.00942861009389162,0.052008457481861115,-0.011924240738153458,0.36651602387428284,0.7362737059593201,9.494668006896973
8.46,-0.016583142802119255,0.0892505794763565,-0.012627837248146534,0.35044798254966736,0.7414186596870422,9.301115989685059
8.48,-0.02993595227599144,0.06633345782756805,-0.02091285027563572,0.39795586466789246,0.5776016116142273,8.972248077392578
8.5,-0.08803687989711761,0.0693456158041954,-0.014733703806996346,0.5959100723266602,0.5683832168579102,9.24248218536377
8.52,-0.13348408043384552,0.11709696054458618,-0.008784238249063492,0.6400272250175476,0.708524227142334,10.188080787658691
8.540000000000001,-0.14617910981178284,0.092958964407444,-0.0027350098825991154,0.34781527519226074,0.7108573913574219,10.892829895019531
8.56,-0.07781378924846649,-0.01290893740952015,-0.00043795406236313283,0.12056908756494522,-0.08115813136100769,10.323936462402344
8.58,-0.0637737438082695,-0.05893585830926895,-0.006107964087277651,-0.15856842696666718,-0.7797380685806274,10.122358322143555
8.6,-0.001148920739069581,-0.04325379803776741,-0.015585142187774181,-0.4314711391925812,-0.8937883973121643,10.45799732208252
8.620000000000001,0.05440855026245117,-0.0314033143222332,-0.004291811026632786,-0.6754530072212219,-0.9909010529518127,10.575535774230957
8.64,0.04294225201010704,0.002350101014599204,0.008597010746598244,-1.042582392692566,-0.8537683486938477,10.35927677154541
8.66,0.01328014675527811,0.03462417423725128,-0.01258170697838068,-1.0015380382537842,-0.23094643652439117,9.446490287780762
8.68,0.007456510793417692,0.01923992857336998,0.006974757649004459,-0.23596815764904022,0.4205870032310486,8.990823745727539
8.700000000000001,0.016209570690989494,0.04732871800661087,0.0017766336677595973,1.0320799350738525,0.695817232131958,9.16519832611084
8.72,-0.03286180645227432,0.07208621501922607,-0.014945161528885365,2.169928789138794,0.7741301655769348,9.649267196655273
8.74,-0.08362121880054474,0.11609861999750137,-0.02928333729505539,2.5084962844848633,0.6736375093460083,9.942493438720703
8.76,-0.06798277050256729,0.0727803111076355,-0.008172651752829552,2.090365171432495,0.4272822141647339,9.574422836303711
8.78,-0.06350879371166229,0.04644899442791939,0.02246076613664627,0.7662715315818787,0.08825133740901947,8.846087455749512
8.8,-0.022906962782144547,0.05461302399635315,0.04316284880042076,-0.15307532250881195,-0.3245927691459656,8.876220703125
8.82,-0.008558187633752823,0.007210221607238054,0.026402603834867477,-0.296394944190979,-0.6853698492050171,10.142280578613281
8.84,0.04601149633526802,-0.03635537624359131,0.01248885877430439,-0.3140011429786682,-0.8892679810523987,10.618035316467285
8.86,0.04786765202879906,-0.009037667885422707,0.0006354267825372517,-0.8073062896728516,-1.1177440881729126,10.498875617980957
8.88,0.028306711465120316,0.010486811399459839,-0.017865536734461784,-0.9491146802902222,-0.780508279800415,10.049692153930664
8.9,0.04905053228139877,-0.04997945949435234,-0.03203853219747543,-0.9624236226081848,0.08538486063480377,9.035481452941895
8.92,0.06876334547996521,-0.110573910176754,-0.016899416223168373,-0.8308084011077881,0.7434713244438171,8.867344856262207
8.94,0.023972639814019203,-0.10779476165771484,-0.00534815201535821,-0.5504962205886841,0.8811532258987427,10.242966651916504
8.96,-0.011343689635396004,-0.06420530378818512,0.013547060079872608,-0.4495930075645447,0.573649525642395,11.589436531066895
8.98,0.025412878021597862,0.01855003461241722,0.021939920261502266,-0.6552028656005859,0.07007205486297607,10.22261905670166
9.0,-0.0015495269326493144,0.02261372283101082,0.029886331409215927,-0.09245447814464569,-0.3628140389919281,8.883617401123047
9.02,-0.010945376008749008,-0.012945818714797497,0.028629612177610397,0.9665947556495667,-0.32493487000465393,8.53150749206543
9.040000000000001,0.00144829077180475,-0.011899351142346859,0.009113891050219536,1.801078200340271,-0.1928088665008545,9.612037658691406
9.06,-0.0344073548913002,0.014270023442804813,-0.0069827307015657425,2.209796905517578,-0.0777529776096344,10.589831352233887
9.08,0.03160401061177254,0.006746371276676655,0.0005068260943517089,1.8023079633712769,0.18090000748634338,10.382372856140137
9.1,0.03064238280057907,0.0013027683598920703,0.0020144213922321796,0.5770584344863892,0.24970191717147827,9.982603073120117
9.120000000000001,0.02025758847594261,0.03765084594488144,0.003274163929745555,-0.3313243091106415,-0.06253937631845474,9.664124488830566
9.14,-0.008987179957330227,0.07083788514137268,-0.00304893939755857,-0.5482143759727478,-0.1845247596502304,9.55746078491211
9.16,-0.018408602103590965,0.0560942143201828,-0.01681920886039734,-0.26590439677238464,-0.07462599873542786,9.452163696289062
9.18,-0.0536506213247776,0.04495449364185333,-0.024586720392107964,0.08365347981452942,0.2306782454252243,9.449596405029297
9.200000000000001,-0.04183002933859825,0.00596407288685441,-0.019881825894117355,0.2356366068124771,0.5742144584655762,9.469679832458496
9.22,-0.06309802830219269,0.001319561735726893,-0.010530069470405579,0.27837711572647095,0.6491726040840149,9.974854469299316
9.24,-0.03319655731320381,-0.03755820542573929,0.010185761377215385,0.17999447882175446,0.27417707443237305,10.2133150100708
9.26,-0.015391070395708084,-0.04717608168721199,0.0026336372829973698,-0.07273224741220474,-0.2921261489391327,9.949740409851074
9.28,-0.04431100934743881,-0.010760223492980003,0.006568484473973513,-0.33949363231658936,-0.6775367259979248,9.681270599365234
9.3,-0.07585121691226959,-0.013840795494616032,-0.010365208610892296,-0.5244441032409668,-0.6965369582176208,10.118730545043945
9.32,-0.07557771354913712,-0.022364594042301178,-0.017779476940631866,-0.11933009326457977,-0.12284912914037704,10.221105575561523
9.34,-0.03194088861346245,-0.0018612344283610582,-0.0247309822589159,0.5801692605018616,0.34591782093048096,9.570613861083984
9.36,-0.016141116619110107,0.014694873243570328,-0.004756493028253317,0.9999748468399048,0.3428252935409546,9.572050094604492
9.38,0.01539992168545723,-0.00270083942450583,0.004423203878104687,0.9731010794639587,0.004117092117667198,9.73410415649414
9.4,0.0020211911760270596,-0.005098826717585325,0.008080734871327877,0.6592847108840942,-0.15903513133525848,9.795023918151855
9.42,0.026072967797517776,0.008592425845563412,0.0051895081996917725,0.3421732485294342,-0.2577747106552124,9.292150497436523
9.44,0.02589322440326214,0.013906831853091717,0.00987480953335762,0.04716693237423897,-0.3918329179286957,9.250234603881836
9.46,0.015418465249240398,-0.008884662762284279,0.009871500544250011,0.043468065559864044,-0.5680040717124939,9.572190284729004
9.48,0.01335560530424118,-0.011457470245659351,0.008057084865868092,0.2040937840938568,-0.4259563088417053,9.891515731811523
9.5,0.032323550432920456,0.008489582687616348,-0.01465324591845274,0.2645559012889862,-0.044701479375362396,9.790523529052734
9.52,0.010257366113364697,0.010875982232391834,-0.015462808310985565,0.06351818144321442,0.40932297706604004,10.049269676208496
9.540000000000001,0.05643469840288162,-0.011801457963883877,-0.007537372410297394,-0.12454363703727722,0.5265536308288574,10.073694229125977
9.56,0.028667336329817772,0.00048667198279872537,0.028175581246614456,-0.28866198658943176,0.14369085431098938,9.782855033874512
9.58,0.044115860015153885,0.01649828627705574,0.027210501953959465,-0.36454081535339355,-0.28498342633247375,10.033527374267578
9.6,0.026144910603761673,0.008437573909759521,0.014330924488604069,-0.07955746352672577,-0.3065987825393677,10.155008316040039
9.620000000000001,-0.004928830079734325,0.017631785944104195,0.004385307431221008,0.2644083797931671,-0.08336984366178513,9.375326156616211
9.64,-0.003789361799135804,0.052556805312633514,-0.00212528882548213,0.6653124690055847,0.08489840477705002,9.474103927612305
9.66,-0.005857069045305252,0.07984990626573563,-0.011669063940644264,1.008650541305542,0.11221732944250107,10.148208618164062
9.68,-0.03436800837516785,0.04945816099643707,-0.016895828768610954,0.8733708262443542,0.12201683968305588,10.548943519592285
9.700000000000001,-0.01629222184419632,0.022177057340741158,-0.0036860830150544643,0.44839176535606384,0.10229289531707764,9.897049903869629
9.72,-0.03634073957800865,0.05139894783496857,0.007178685627877712,0.20393577218055725,-0.03690577670931816,9.375547409057617
9.74,-0.046052463352680206,0.06020836904644966,0.018515538424253464,0.17303302884101868,-0.02504444308578968,9.288644790649414
9.76,-0.03725550323724747,0.0365765318274498,0.01041658129543066,0.06683472543954849,0.09255025535821915,9.357147216796875
9.78,-0.05982019007205963,0.025732869282364845,0.0059706419706344604,-0.08619522303342819,0.1410938948392868,9.779019355773926
9.8,-0.039101388305425644,0.0057943155989050865,-0.00724041648209095,-0.24079245328903198,0.04383957386016846,10.412765502929688
9.82,-0.02353883534669876,-0.015021947212517262,0.004955536685883999,-0.4195009469985962,-0.0680689662694931,10.254755973815918
9.84,-0.025045134127140045,-0.03600233793258667,-0.002920351689681411,-0.33628925681114197,-0.2666230797767639,9.625489234924316
9.86,-0.007460322231054306,-0.03476683422923088,-0.005186085589230061,-0.3790014088153839,-0.3637423515319824,9.678041458129883
9.88,-0.06434617936611176,-0.0332290418446064,-0.004091165494173765,-0.29725128412246704,-0.2584455907344818,9.967462539672852
9.9,-0.06520559638738632,-0.05037014186382294,-0.000898818310815841,0.09067393839359283,-0.21862316131591797,9.990976333618164
9.92,-0.01584421470761299,-0.043005697429180145,0.004196677822619677,0.29864439368247986,-0.18556225299835205,9.554383277893066
9.94,0.012145239859819412,-0.02484727092087269,-0.0018973061814904213,0.41127902269363403,-0.07070253044366837,9.489124298095703
9.96,0.014865566045045853,0.007547404151409864,0.0064658005721867085,0.4965568780899048,0.017168214544653893,10.01358699798584
9.98,0.012099256739020348,-0.013576735742390156,0.01413501612842083,0.5231911540031433,0.017665129154920578,10.127498626708984
10.0,-0.005092056933790445,-0.006928143557161093,0.001906681340187788,0.47613269090652466,0.03719034790992737,9.550375938415527
10.02,-0.00451919250190258,0.0386582650244236,0.010995078831911087,0.5106428861618042,0.0467909500002861,9.155275344848633
10.040000000000001,0.018221743404865265,0.06487784534692764,0.014846879057586193,0.6099261045455933,-0.052607350051403046,9.188639640808105
10.06,-0.002482963027432561,0.047763533890247345,0.02170073799788952,0.5380205512046814,-0.30720970034599304,9.443572998046875
10.08,0.0497901476919651,0.06647271662950516,0.01201937347650528,0.26662254333496094,-0.46163615584373474,9.779568672180176
10.1,0.014789920300245285,0.10945681482553482,-0.027472224086523056,0.03456547111272812,-0.4073338508605957,9.871688842773438
10.120000000000001,0.001913132960908115,0.10814166069030762,-0.034522898495197296,-0.12814533710479736,-0.1831386536359787,9.91565227508545
10.14,0.010405097156763077,0.07311557978391647,-0.02421063557267189,-0.1477993130683899,0.1625152975320816,10.537128448486328
10.16,-0.004032734781503677,0.0432269349694252,-0.012779566459357738,0.024943100288510323,0.19750751554965973,10.676033020019531
10.18,-0.0012363492278382182,0.05043495446443558,-0.001166228554211557,-0.01444599311798811,0.11082272976636887,9.586472511291504
10.200000000000001,-0.027370689436793327,0.03043040633201599,-0.00667257234454155,-0.11562206596136093,0.045254942029714584,8.895206451416016
10.22,-0.01720867119729519,0.026127353310585022,0.0032340234611183405,-0.3962726294994354,0.006584423128515482,9.585952758789062
10.24,0.03699440136551857,0.062112774699926376,0.021116502583026886,-0.6736850142478943,-0.1572398692369461,10.779170036315918
10.26,0.008940118364989758,0.059123001992702484,0.010688523761928082,-0.4791378080844879,-0.2553485929965973,10.353806495666504
10.28,0.009805100969970226,0.04794137924909592,0.004848905839025974,0.04713168740272522,-0.24269963800907135,9.126389503479004
10.3,0.09855695068836212,0.05725051090121269,0.005985792726278305,0.5669405460357666,-0.29194480180740356,8.789169311523438
10.32,0.007372643332928419,0.10031165927648544,0.005753263831138611,0.9458978772163391,-0.27548912167549133,9.35912799835205
10.34,0.03387259319424629,0.09967248141765594,0.012092170305550098,0.8512952327728271,-0.20329295098781586,10.567172050476074
10.36,0.019767362624406815,0.06326942890882492,-0.011277851648628712,0.18297873437404633,-0.0338982418179512,11.078354835510254
10.38,0.003362241666764021,0.055444251745939255,-0.04344768077135086,-0.271135538816452,0.38466349244117737,10.090362548828125
10.4,-0.010452553629875183,0.06538888812065125,-0.025213444605469704,-0.33580103516578674,0.492108017206192,8.74223518371582
10.42,-0.06985370814800262,0.020045766606926918,-0.008597556501626968,-0.2900976538658142,0.44807344675064087,9.292218208312988
10.44,-0.06728345900774002,-0.01723206788301468,0.0006952589610591531,-0.5536685585975647,0.39686131477355957,10.767427444458008
10.46,-0.028137750923633575,-0.03358403220772743,0.014152267947793007,-0.5524195432662964,-0.014136431738734245,10.735557556152344
10.48,-0.023469194769859314,-0.052082546055316925,0.026144912466406822,-0.5436251759529114,-0.384848028421402,9.765340805053711
10.5,-0.0014740015612915158,-0.09506912529468536,0.02894718386232853,-0.37860408425331116,-0.6460727453231812,8.688519477844238
10.52,-0.030465811491012573,-0.08475568145513535,0.011649149470031261,-0.36571142077445984,-0.5508217215538025,8.967534065246582
10.540000000000001,0.03377082198858261,-0.02676898054778576,-0.0030043632723391056,-0.4576703608036041,-0.30492380261421204,9.892070770263672
10.56,0.011729092337191105,-0.011317898519337177,-0.012919943779706955,-0.5576091408729553,0.016571853309869766,10.057455062866211
10.58,0.018089665099978447,-0.027830202132463455,-0.02000841312110424,-0.4663274586200714,0.12458005547523499,9.628581047058105
10.6,0.01533341035246849,-0.03348831459879875,-0.00586399482563138,0.3103541433811188,0.07316043972969055,9.903861999511719
10.620000000000001,0.016338927671313286,-0.004566574469208717,-0.007350014988332987,1.0421125888824463,0.008782478980720043,10.165931701660156
10.64,-0.015016873367130756,0.0016431553522124887,-0.009208180010318756,1.2302318811416626,-0.05954413861036301,9.613678932189941
10.66,-0.007898502983152866,-0.052192747592926025,-0.003996406216174364,0.6404713988304138,0.04760756716132164,9.65483570098877
10.68,-0.012072695419192314,-0.07679412513971329,-0.004119905177503824,-0.23497971892356873,0.08313703536987305,9.815116882324219
10.700000000000001,-0.026164395734667778,-0.048265427350997925,-0.005875883158296347,-0.5262094140052795,-0.07185203582048416,9.973326683044434
10.72,-0.004843550268560648,-0.03695117309689522,0.006829981692135334,-0.6138714551925659,-0.1294223666191101,10.223958015441895
10.74,-0.0016759627033025026,-0.04407001659274101,0.0011508124880492687,-0.5888605713844299,-0.18421222269535065,9.746996879577637
10.76,0.008539827540516853,-0.020542612299323082,-0.018966497853398323,-0.5009465217590332,-0.3781110346317291,9.465569496154785
10.78,-0.005158187821507454,-0.009994306601583958,-0.02774340659379959,-0.12760236859321594,-0.32807883620262146,9.972929954528809
10.8,-0.02733852155506611,-0.027978723868727684,-0.021957460790872574,0.4016437530517578,-0.09174024313688278,10.163707733154297
10.82,-0.0023091535549610853,-0.043948911130428314,-0.008228081278502941,0.5615646839141846,0.27754223346710205,9.791754722595215
10.84,-0.02494165673851967,0.0021830417681485415,0.006465249229222536,0.3829383850097656,0.35948485136032104,9.35730266571045
10.86,-0.02863789163529873,0.01760973408818245,0.004468257073312998,0.25408750772476196,0.3778141140937805,9.30906867980957
10.88,-0.04778321832418442,-0.007766713388264179,-0.008367636241018772,-0.04613707959651947,0.2984694242477417,10.162848472595215
10.9,-0.023839576169848442,-0.02999851107597351,-0.003198101883754134,-0.18780146539211273,-0.03303317353129387,11.219562530517578
10.92,0.0029652647208422422,-0.02992422506213188,0.006980611011385918,0.018103692680597305,-0.5421284437179565,10.706515312194824
10.94,-0.02352733723819256,-0.011181838810443878,0.013895832933485508,0.22452904284000397,-0.8123558163642883,9.139375686645508
10.96,0.02657492272555828,-0.0350659154355526,0.013147812336683273,0.26000407338142395,-0.5298687815666199,8.818081855773926
10.98,-0.008324544876813889,-0.060299355536699295,0.0008821187075227499,0.06711895763874054,-0.17246131598949432,9.064067840576172
11.0,0.010279331356287003,-0.04605584219098091,-0.012475416995584965,-0.16858536005020142,0.2056911289691925,9.578808784484863
11.02,0.0056933206506073475,-0.03577651083469391,0.001922203809954226,-0.29089808464050293,0.4190116226673126,10.243368148803711
11.040000000000001,-0.036951933056116104,-0.058143358677625656,0.00646077748388052,-0.12218691408634186,0.22086964547634125,10.500330924987793
11.06,0.01562950201332569,-0.06650863587856293,0.007050301413983107,0.1944875419139862,-0.20990459620952606,9.697176933288574
11.08,-0.01194512378424406,-0.026858177036046982,0.004488134756684303,0.525283932685852,-0.32864993810653687,9.20978832244873
11.1,-0.0033604768104851246,-0.06635599583387375,-0.014178328216075897,0.608656108379364,-0.27208763360977173,9.255523681640625
11.120000000000001,0.021497344598174095,-0.09245765954256058,-0.006299595348536968,0.33260494470596313,-0.22596004605293274,9.56829833984375
11.14,0.013197493739426136,-0.07246874272823334,-0.00995080079883337,0.046576499938964844,-0.14069993793964386,9.799386978149414
11.16,0.03690905496478081,-0.05913431942462921,-0.0006124801002442837,0.042662397027015686,-0.011785040609538555,10.067882537841797
11.18,-0.009857122786343098,-0.09847088158130646,0.0049945092760026455,-0.07524971663951874,0.12483176589012146,9.968360900878906
11.200000000000001,0.023459207266569138,-0.0931766927242279,0.012699165381491184,-0.06212354451417923,0.24580474197864532,9.88013744354248
11.22,-0.040864452719688416,-0.04936809465289116,0.027795564383268356,0.03232673555612564,0.16632917523384094,9.555623054504395
11.24,-0.028195373713970184,-0.009537006728351116,0.04863898083567619,0.2081671953201294,0.07816586643457413,9.498625755310059
11.26,0.022066369652748108,0.01243531983345747,0.07731254398822784,0.5052148103713989,0.05869998037815094,9.55443286895752
11.28,-0.008916299790143967,0.010066499933600426,0.05102243646979332,0.7264449000358582,-0.21474315226078033,9.638411521911621
11.3,0.022809432819485664,0.03510840982198715,0.01643860898911953,0.7890014052391052,-0.43606889247894287,9.734234809875488
11.32,0.03300859406590462,0.04281633347272873,-0.023228902369737625,0.7193647623062134,-0.4357147812843323,9.949176788330078
11.34,0.02514059655368328,0.00566993560642004,-0.01815004087984562,0.4791523814201355,-0.34804263710975647,9.95996379852295
11.36,0.034526798874139786,0.0037513014394789934,-0.009053343906998634,0.26271161437034607,-0.25039395689964294,9.352601051330566
11.38,0.032208871096372604,0.018602389842271805,-0.019147707149386406,0.3091990053653717,-0.13287033140659332,9.722036361694336
11.4,0.019564008340239525,0.007372808642685413,-0.014797119423747063,0.13554918766021729,-0.14020557701587677,10.578581809997559
11.42,0.01729629561305046,-0.0175530593842268,-0.009935809299349785,-0.03816109150648117,0.09819440543651581,10.570112228393555
11.44,-0.009709354490041733,-0.015792138874530792,-0.004454231355339289,-0.17047236859798431,0.5555174350738525,9.859811782836914
11.46,-0.06454167515039444,0.012228505685925484,-0.009177247993648052,-0.42625004053115845,0.5578411221504211,9.268278121948242
11.48,-0.06043453514575958,0.03615536168217659,-0.021834032610058784,-0.4617649018764496,0.29219844937324524,9.61754322052002
11.5,-0.036683667451143265,0.029415834695100784,-0.010266541503369808,-0.46452003717422485,-0.05795766040682793,10.32933521270752
11.52,-0.044412970542907715,0.06099190562963486,0.016651390120387077,-0.3215208947658539,-0.4959399402141571,10.431526184082031
11.540000000000001,-0.021922962740063667,0.07724419236183167,0.035857778042554855,-0.1904992163181305,-0.7866616249084473,9.824966430664062
11.56,0.014760518446564674,0.029729394242167473,0.019208377227187157,0.7928770184516907,-0.6504744291305542,9.343003273010254
11.58,0.052763182669878006,-0.016498982906341553,-0.00987414363771677,1.2819390296936035,-0.16157764196395874,8.872502326965332
11.6,0.027727913111448288,-0.0012478451244533062,-0.021901549771428108,1.074365258216858,0.06232320889830589,9.37855052947998
11.620000000000001,0.02346014976501465,0.037919897586107254,-0.021332699805498123,0.5623368620872498,-0.06802340596914291,10.04026985168457
11.64,0.009665369056165218,0.05143386125564575,-0.004119458608329296,0.1001957580447197,-0.068567655980587,10.085843086242676
11.66,-0.007498766295611858,0.010730569250881672,0.0025242120027542114,-0.1201358288526535,-0.029109785333275795,9.901484489440918
11.68,-0.0034105016384273767,0.04149941727519035,0.016326196491718292,-0.08232609182596207,0.17994821071624756,9.975091934204102
11.700000000000001,0.019518790766596794,0.08938281238079071,0.028232840821146965,0.03991802781820297,0.15057484805583954,10.07650375366211
11.72,-0.01818421483039856,0.09327792376279831,0.016158321872353554,0.3511066436767578,-0.15940871834754944,9.467530250549316
11.74,0.021348796784877777,0.036701660603284836,0.0021097222343087196,0.11189424991607666,-0.03565302491188049,10.211653709411621
11.76,0.012117407284677029,0.057536762207746506,-0.026319336146116257,-0.3042948544025421,0.010557165369391441,10.802973747253418
11.78,0.03401483967900276,0.056743621826171875,-0.020328575745224953,-0.3816843330860138,-0.10205912590026855,10.380988121032715
11.8,0.023582302033901215,0.009076694957911968,-0.013927488587796688,-0.023992881178855896,-0.5482344031333923,9.278265953063965
11.82,0.023010028526186943,-0.017211761325597763,-0.027653703466057777,0.32190653681755066,-0.6671248078346252,8.515174865722656
11.84,0.029025787487626076,0.005445234011858702,-0.03583410382270813,0.5014713406562805,-0.3236949145793915,8.499330520629883
11.86,-0.024125004187226295,0.005616649053990841,-0.017965858802199364,0.46147817373275757,0.2799115777015686,10.124478340148926
11.88,-0.0338275283575058,0.0015942031750455499,-0.006584094371646643,0.11230915784835815,0.6825293898582458,10.835823059082031
11.9,-0.03771571069955826,0.030955513939261436,0.007766571827232838,-0.15729402005672455,0.2581818699836731,10.04121208190918
11.92,-0.058951206505298615,0.023823503404855728,0.00825833436101675,-0.3184269964694977,-0.030628854408860207,9.750545501708984
11.94,-0.025258298963308334,-0.004241446498781443,0.00485549122095108,-0.4146219789981842,-0.150290846824646,10.243653297424316
11.96,-0.03212173283100128,0.05443603917956352,0.010350937955081463,-0.14859573543071747,-0.2727823257446289,10.406928062438965
11.98,6.074347402318381e-05,0.0799378901720047,0.006896112579852343,0.37241700291633606,-0.5389935970306396,9.859047889709473
12.0,-0.008065784350037575,0.032887332141399384,0.0034420776646584272,0.5253773927688599,-0.5175996422767639,9.216504096984863
12.02,-0.00808696262538433,0.028282100334763527,0.0003683089162223041,0.25174689292907715,-0.24357201159000397,9.02369213104248
12.040000000000001,0.014093287289142609,0.08173038810491562,-0.02290416695177555,0.12087051570415497,0.047339022159576416,9.846275329589844
12.06,0.030654538422822952,0.09028115123510361,-0.0248301699757576,0.17984282970428467,0.19637905061244965,10.104872703552246
12.08,0.00784087460488081,0.06444666534662247,-0.01884075626730919,0.28363940119743347,0.10776010900735855,9.810683250427246
12.1,0.006096391938626766,0.08781509846448898,-0.010374482721090317,0.166752427816391,-0.10113625228404999,9.388639450073242
12.120000000000001,0.0004320692387409508,0.10315216332674026,6.033298632246442e-05,-0.052001502364873886,-0.2637968361377716,9.906291007995605
12.14,-0.016124481335282326,0.07276658713817596,0.015766164287924767,-0.30578771233558655,-0.10657445341348648,10.6356840133667
12.16,-0.022229822352528572,0.05049533769488335,0.016902010887861252,-0.48410993814468384,0.15386688709259033,10.082971572875977
12.18,0.022980690002441406,0.0296670850366354,-0.002206173725426197,-0.45861950516700745,0.10219046473503113,9.518499374389648
12.200000000000001,-0.03000590205192566,0.01191383320838213,-0.024725524708628654,-0.3757319152355194,-0.3008890151977539,9.198644638061523
12.22,0.03755010664463043,-0.027264432981610298,-0.02900688722729683,-0.240674689412117,-0.4079783260822296,9.72240161895752
12.24,0.038158297538757324,-0.06845305860042572,0.004613702651113272,-0.30949562788009644,-0.3230886161327362,9.970063209533691
12.26,0.0232655331492424,-0.08284299820661545,0.04291815310716629,-0.44541308283805847,-0.3377995193004608,9.738921165466309
12.280000000000001,0.03443793207406998,-0.09659398347139359,0.04865509644150734,-0.4012565016746521,-0.17703548073768616,9.7819185256958
12.3,0.05161052197217941,-0.12808729708194733,0.0489090159535408,-0.3265121877193451,0.14846935868263245,9.865752220153809
12.32,0.002875707810744643,-0.10753612965345383,0.02883680909872055,-0.23511523008346558,0.3962489366531372,10.226801872253418
12.34,0.019816173240542412,-0.0837399810552597,-0.002550290198996663,-0.24872736632823944,0.2842257022857666,10.412606239318848
12.36,0.021865420043468475,-0.08745744079351425,-0.006982851307839155,-0.024347569793462753,-0.10223527252674103,9.563471794128418
12.38,-0.004121961072087288,-0.09008335322141647,-0.018762528896331787,0.3129075765609741,-0.3265904188156128,8.65743637084961
12.4,-0.027482150122523308,-0.09051793068647385,-0.028455685824155807,0.540341317653656,-0.18035674095153809,8.888594627380371
12.42,-0.03421067073941231,-0.059985555708408356,-0.0018014683155342937,0.528407633304596,-0.029506394639611244,10.13791561126709
12.44,0.023683251813054085,-0.0622248500585556,0.016450408846139908,0.6349554657936096,0.007220936939120293,10.693277359008789
12.46,-0.0002512153296265751,-0.052792809903621674,0.03465143218636513,0.4871929883956909,-0.13478177785873413,9.788187026977539
12.48,0.013438630849123001,-0.0008325034286826849,0.006017759907990694,0.2998432517051697,-0.4009045660495758,8.965154647827148
12.5,0.026752645149827003,0.06437723338603973,-0.02241053245961666,0.009708603844046593,-0.40635591745376587,9.09273624420166
12.52,0.07261195778846741,0.12175946682691574,-0.040377985686063766,0.13447320461273193,-0.12498139590024948,9.768823623657227
12.540000000000001,0.004479218274354935,0.09776731580495834,-0.008968466892838478,0.43011438846588135,-0.1495247334241867,10.219199180603027
12.56,0.0017888221191242337,0.04587317630648613,-0.003475661389529705,0.4970613420009613,-0.24146930873394012,10.56301212310791
12.58,0.008255965076386929,0.03439818322658539,0.013480517081916332,0.4088798463344574,-0.04602276161313057,10.291728019714355
12.6,0.00697363680228591,0.038858234882354736,0.029350075870752335,0.31606006622314453,0.2358810305595398,9.644232749938965
12.620000000000001,-0.0342133454978466,0.011509792879223824,0.03779885545372963,0.215585857629776,0.4429444670677185,8.831356048583984
12.64,-0.01685391552746296,-0.019805798307061195,0.01621965318918228,0.14096270501613617,0.33590808510780334,8.78091812133789
12.66,-0.07611362636089325,-0.09791620820760727,-0.014985375106334686,-0.04585528373718262,0.19517162442207336,9.886799812316895
12.68,-0.077845998108387,-0.1518651843070984,-0.02775661274790764,-0.651180624961853,0.261910617351532,11.078421592712402
12.700000000000001,-0.09029345959424973,-0.10110741853713989,-0.0351877398788929,-0.8033795356750488,0.05351019650697708,10.922138214111328
12.72,-0.10816095769405365,-0.06284594535827637,-0.007794100325554609,-0.8776286840438843,-0.3096574544906616,10.429896354675293
12.74,-0.052116479724645615,-0.07370588183403015,0.025336621329188347,-0.7999662160873413,-0.3953344523906708,9.745099067687988
12.76,-0.03816591948270798,-0.09481511265039444,0.033825356513261795,-0.6494895815849304,-0.31665846705436707,8.713481903076172
12.780000000000001,0.027772314846515656,-0.005393922794610262,0.04445003718137741,-0.6514579057693481,-0.37302708625793457,8.746294975280762
12.8,0.03423016890883446,0.01458453107625246,0.04597356915473938,-0.4157058000564575,-0.7165631651878357,10.04996395111084
12.82,0.1355285793542862,-0.01317385770380497,0.012981425039470196,0.18469826877117157,-0.9603565335273743,10.174752235412598
12.84,0.07898838818073273,0.007123751100152731,-0.010241278447210789,0.9557531476020813,-0.63927161693573,9.245809555053711
12.86,0.10662736743688583,0.0579567477107048,-0.024360770359635353,1.5354564189910889,-0.36426013708114624,8.866004943847656
12.88,0.10242559760808945,0.04320118948817253,-0.035038188099861145,1.8239918947219849,-0.14129385352134705,9.693059921264648
12.9,0.013537618331611156,0.03209714591503143,-0.03797948732972145,1.6340968608856201,0.33699870109558105,10.379465103149414
12.92,-0.020067693665623665,0.06279900670051575,-0.025045186281204224,0.677162230014801,1.0976910591125488,10.244841575622559
12.94,-0.018030507490038872,0.09192635118961334,0.004038041923195124,0.1269344836473465,1.2749619483947754,9.822909355163574
12.96,-0.07345396280288696,0.07367104291915894,0.007349685300141573,-0.4082846939563751,0.7641768455505371,9.516963005065918
12.98,-0.05416533350944519,0.08201291412115097,0.015548907220363617,-0.38735058903694153,0.18889811635017395,10.75109577178955
13.0,0.003734256373718381,0.055237673223018646,0.042639583349227905,-0.41080009937286377,-0.9502002000808716,10.731514930725098
13.02,0.010442005470395088,0.0016931832069531083,0.029881078749895096,-0.0893278643488884,-1.3170888423919678,10.200791358947754
13.040000000000001,0.040047530084848404,-0.008856085129082203,0.010988466441631317,-0.11566204577684402,-0.8260334134101868,8.970826148986816
13.06,0.06574485450983047,-0.008203098550438881,0.00862941611558199,-0.31084343791007996,-0.1650821417570114,9.084343910217285
13.08,0.0563909150660038,-0.029534772038459778,0.0016662555281072855,-0.6548966765403748,-0.01813218928873539,9.660250663757324
13.1,0.04433480277657509,-0.05932735651731491,-0.008442145772278309,-0.7193601131439209,0.02031789906322956,10.171533584594727
13.120000000000001,-0.00445628073066473,-0.06369209289550781,-0.013154220767319202,-0.7763063311576843,0.27337223291397095,9.909346580505371
13.14,0.05640184506773949,-0.032968051731586456,-0.0039037067908793688,-0.6253229975700378,0.5309125781059265,9.814535140991211
13.16,0.006114899646490812,0.009304828941822052,0.03167783468961716,-0.611910343170166,0.6362528800964355,10.34487247467041
13.18,0.09704749286174774,-0.05297457054257393,0.05981765687465668,-0.3121204078197479,0.24859753251075745,10.340465545654297
13.200000000000001,0.05241069197654724,-0.13598933815956116,0.06133769080042839,0.41635626554489136,-0.519585371017456,10.177116394042969
13.22,0.058071184903383255,-0.15554538369178772,0.03637169674038887,0.7504321932792664,-0.8994923233985901,9.435510635375977
13.24,0.047352079302072525,-0.13384774327278137,-0.0011106953024864197,0.6413577198982239,-0.7349671125411987,9.525960922241211
13.26,0.021605096757411957,-0.13197089731693268,-0.03408927470445633,0.3355597257614136,-0.08391407132148743,9.853607177734375
13.280000000000001,-0.02379755862057209,-0.1354147344827652,-0.07184876501560211,0.17158271372318268,0.6924675107002258,10.197492599487305
13.3,-0.03591630235314369,-0.0742330551147461,-0.07766220718622208,0.06793075054883957,1.0078428983688354,10.095236778259277
13.32,-0.0011065998114645481,-0.00038043843233026564,-0.050655607134103775,0.16869038343429565,0.7642325162887573,9.453056335449219
13.34,0.03813854604959488,0.03139663115143776,0.0049535175785422325,0.6063584685325623,0.19289831817150116,8.716252326965332
13.36,0.02939712069928646,0.03891551122069359,0.056247130036354065,1.2830500602722168,-0.5494219064712524,8.949928283691406
13.38,0.03614548593759537,0.093556247651577,0.05224601924419403,1.594231128692627,-0.9373014569282532,9.922965049743652
13.4,0.09631030261516571,0.121282197535038,0.040955428034067154,1.261539340019226,-0.5895950198173523,10.334228515625
13.42,0.1039840579032898,0.06671305745840073,0.02354499325156212,0.715726375579834,0.03162769600749016,10.174212455749512
13.44,0.11334405839443207,0.02065350115299225,0.00048656840226612985,0.16000361740589142,0.3090225160121918,10.084901809692383
13.46,0.0937938392162323,0.03294364735484123,-0.031386762857437134,-0.1912841498851776,0.35594066977500916,9.814318656921387
13.48,0.03582083061337471,0.04096611589193344,-0.035659871995449066,-0.1887737661600113,0.2785138487815857,9.56424331665039
13.5,0.030435020104050636,-0.0016339882276952267,-0.02936260960996151,0.006951574236154556,0.5214835405349731,9.247088432312012
13.52,0.012784960679709911,-0.0359981395304203,0.01857639104127884,0.016813570633530617,0.6802126169204712,9.329286575317383
13.540000000000001,-0.025673603639006615,-0.036881349980831146,0.034638140350580215,-0.1268753856420517,0.5289482474327087,9.818465232849121
13.56,-0.017597796395421028,-0.04677505046129227,0.015667743980884552,-0.7312825322151184,0.31041303277015686,10.494997024536133
13.58,-0.053335823118686676,-0.060546066612005234,-0.017468281090259552,-0.8570860028266907,0.27785128355026245,10.143373489379883
13.6,-0.012672127224504948,-0.04407160356640816,-0.023407019674777985,-0.5808086395263672,0.11115258187055588,9.373495101928711
13.620000000000001,-0.008543095551431179,-0.04661938548088074,-0.024029964581131935,-0.22296567261219025,-0.07260221987962723,9.099328994750977
13.64,-0.009191804565489292,-0.07696133852005005,-0.02737514302134514,-0.011744480580091476,-0.14126268029212952,9.606536865234375
13.66,-0.02648429200053215,-0.10269638150930405,-0.020492151379585266,-0.08319159597158432,-0.11773605644702911,10.512246131896973
13.68,-0.0049515822902321815,-0.11561071872711182,-0.002109292196109891,0.044245731085538864,-0.03169861063361168,10.990506172180176
13.700000000000001,0.031294986605644226,-0.10566457360982895,0.01754571497440338,0.06255126744508743,-0.09419169276952744,10.278959274291992
13.72,-0.07883308082818985,-0.08396013081073761,0.04933375120162964,0.1242866963148117,0.04079490900039673,9.403656959533691
13.74,0.04283777251839638,-0.06829796731472015,0.0314318872988224,0.22386643290519714,0.29421383142471313,9.08363151550293
13.76,-0.08346094936132431,-0.05256057158112526,-0.005731739103794098,0.5110259056091309,0.5129997134208679,9.550122261047363
13.780000000000001,-0.053897298872470856,-0.07300501316785812,-0.02671053633093834,0.9340815544128418,0.5355242490768433,10.442456245422363
13.8,-0.016552772372961044,-0.06634422391653061,-0.03667041286826134,1.193707823753357,0.33360612392425537,10.555444717407227
13.82,0.03938208520412445,-0.031195642426609993,-0.023111660033464432,1.2407257556915283,-0.057489458471536636,9.749441146850586
13.84,0.07121917605400085,-0.0010624839924275875,0.0038583215791732073,1.1556884050369263,-0.5471954345703125,8.7240571975708
13.86,0.0778619572520256,0.013937026262283325,0.033454302698373795,0.8889572620391846,-0.8795346021652222,8.687087059020996
13.88,0.09781525284051895,0.04997225105762482,0.02855607494711876,0.7568724155426025,-0.6892735362052917,8.840008735656738
13.9,0.09633862227201462,0.09686203300952911,0.022622929885983467,0.5889970064163208,-0.1676943302154541,9.528265953063965
13.92,0.09182844310998917,0.13901837170124054,-0.0026782252825796604,0.48423564434051514,0.42691025137901306,9.904300689697266
13.94,0.05697590112686157,0.058333899825811386,-0.03447388857603073,0.35315072536468506,0.6221467852592468,10.200559616088867
13.96,-0.008977639488875866,-0.02690742164850235,-0.036382682621479034,0.2200515866279602,0.7004224061965942,10.290334701538086
13.98,-0.019598746672272682,-0.037621743977069855,-0.015281113795936108,0.5004837512969971,0.8318798542022705,10.090609550476074
14.0,-0.06998780369758606,0.0038313441909849644,-0.003648467129096389,0.36550411581993103,0.7900461554527283,9.717397689819336
14.02,-0.024274837225675583,0.01276190485805273,0.006350328214466572,-0.08315818011760712,0.5074663162231445,9.167682647705078
14.040000000000001,-0.08176173269748688,-0.05794375762343407,0.007370939012616873,-0.6158695816993713,0.07451847195625305,9.460518836975098
14.06,-0.07630079984664917,-0.09094341844320297,0.006378257647156715,-0.7660962343215942,-0.22168606519699097,10.746702194213867
14.08,-0.028483014553785324,-0.031546466052532196,-0.025839613750576973,-0.8562051653862,-0.35816243290901184,11.41198444366455
14.1,-0.04420670121908188,0.02909461222589016,-0.005425537936389446,-0.42219236493110657,-0.2148030400276184,9.829444885253906
14.120000000000001,0.06107649579644203,0.03272654116153717,0.0350981205701828,0.08899020403623581,-0.17991702258586884,7.961337089538574
14.14,0.022457102313637733,0.06182076781988144,0.03962668403983116,-0.10523473471403122,-0.2531290054321289,8.357500076293945
14.16,0.06553533673286438,0.09496143460273743,0.018935712054371834,0.33444634079933167,-0.38436469435691833,10.047120094299316
14.18,0.004126711282879114,0.05875270813703537,-0.012501162476837635,0.9318278431892395,-0.18050183355808258,11.53903865814209
14.200000000000001,0.08748451620340347,0.025253821164369583,-0.024998564273118973,1.2186086177825928,0.10523837059736252,10.922743797302246
14.22,0.058050867170095444,0.0502072274684906,-0.041401926428079605,1.1031947135925293,0.2711869180202484,9.50345230102539
14.24,0.021995509043335915,0.08620475977659225,-0.03252621740102768,0.9489937424659729,0.5662021636962891,8.826459884643555
14.26,0.021219098940491676,0.10144877433776855,0.007743710186332464,0.6286887526512146,0.6954163908958435,9.33403491973877
14.280000000000001,0.02407119609415531,0.06112740933895111,0.022859811782836914,0.2493024319410324,0.4531901776790619,10.742291450500488
14.3,0.017608975991606712,0.0577315017580986,0.028051266446709633,-0.06720371544361115,0.17965751886367798,10.420289039611816
14.32,0.012083807028830051,0.10853955894708633,0.005023187957704067,-0.14414623379707336,0.08195734769105911,9.550887107849121
14.34,0.00485847145318985,0.09103935211896896,-0.005022857338190079,0.0008631533710286021,-0.17884549498558044,9.631597518920898
14.36,-0.014934254810214043,0.031479302793741226,-0.020205700770020485,-0.03446997329592705,-0.05341741442680359,10.467963218688965
14.38,0.01806446723639965,-0.02100060135126114,-0.01660834811627865,-0.17672063410282135,0.33950892090797424,10.279007911682129
14.4,-0.00029913196340203285,-0.007156052626669407,0.0005199912120588124,-0.32751375436782837,0.552688479423523,9.448949813842773
14.42,0.0032499434892088175,0.0030667646788060665,0.019543612375855446,-0.1832389533519745,0.3085649907588959,8.815940856933594
14.44,-0.00700808921828866,0.015187183395028114,0.028914518654346466,0.06217078119516373,0.06227988749742508,8.96571159362793
14.46,0.05203159153461456,0.03065899945795536,0.030139215290546417,0.5243046283721924,-0.009923077188432217,9.680638313293457
14.48,-0.013876397162675858,0.046877458691596985,-0.0012915151892229915,0.7563313841819763,0.12727373838424683,10.023448944091797
14.5,0.0005859846714884043,0.053723905235528946,-0.02968600019812584,0.6498693227767944,0.3556174337863922,9.772844314575195
14.52,0.021580033004283905,0.09032759815454483,-0.022419249638915062,0.5443816781044006,0.24283970892429352,9.192543029785156
14.540000000000001,-0.01183389127254486,0.08540690690279007,-0.01114315539598465,0.38746699690818787,0.09448382258415222,10.26077938079834
14.56,-0.0191175676882267,0.061650440096855164,-0.02751714549958706,-0.066898874938488,0.07525480538606644,10.832287788391113
14.58,0.005732122343033552,0.11231933534145355,-0.018027635291218758,-0.3348555862903595,0.07621530443429947,10.007349014282227
14.6,0.010900001041591167,0.10108958184719086,0.012772344052791595,-0.25963127613067627,0.04355841502547264,9.271551132202148
14.620000000000001,-0.00015877751866355538,0.01942317746579647,0.02035059779882431,-0.20333461463451385,0.06122841313481331,8.928314208984375
14.64,0.01786234602332115,-0.04778201878070831,0.023524539545178413,-0.1430230289697647,0.05418866127729416,9.586479187011719
14.66,0.023845858871936798,-0.03070974536240101,0.0031276755034923553,-0.26651349663734436,0.1617710441350937,10.973519325256348
14.68,0.022982683032751083,0.008349942974746227,-0.00021680201462004334,-0.2540287971496582,0.3238893449306488,10.891377449035645
14.700000000000001,-0.0250126663595438,0.010468114167451859,-0.015486267395317554,-0.18346363306045532,0.5995503664016724,9.077047348022461
14.72,0.04533957317471504,0.014112726785242558,-0.017361871898174286,-0.5035095810890198,0.42479532957077026,8.536572456359863
14.74,-0.004240646492689848,0.010150311514735222,-0.028083695098757744,-0.7747614979743958,0.153900608420372,9.820438385009766
14.76,0.020260730758309364,-0.022610660642385483,0.01752355694770813,-0.47970902919769287,0.01846480928361416,11.13035774230957
14.780000000000001,-0.0017261888133361936,-0.005469184368848801,0.06272894889116287,0.280605286359787,-0.3064061999320984,10.42984676361084
14.8,0.060839079320430756,-0.006863852962851524,0.056529540568590164,0.8755847811698914,-0.3756222426891327,9.353920936584473
14.82,0.06537700444459915,-0.014680484309792519,0.010173057205975056,0.8554014563560486,-0.05208675190806389,9.375712394714355
14.84,0.05466394126415253,-0.022520391270518303,-0.022694384679198265,0.3582817316055298,0.6078616976737976,9.54997444152832
14.86,0.05350111797451973,-0.023330766707658768,-0.033719245344400406,0.020134244114160538,0.6957576870918274,10.215543746948242
14.88,0.04103492200374603,-0.011015960946679115,-0.035102371126413345,-0.2537413239479065,0.5101069211959839,9.891335487365723
14.9,0.004383559338748455,-0.024454539641737938,-0.04429443180561066,-0.06918561458587646,0.31392234563827515,9.263571739196777
14.92,-0.08863016217947006,-0.0001573971239849925,-0.026297952979803085,0.11357839405536652,0.48908907175064087,8.897872924804688
14.94,-0.09409110248088837,0.062412749975919724,0.016386661678552628,0.06415092200040817,0.8438034653663635,9.475772857666016
14.96,-0.08602370321750641,0.04773064702749252,0.05034169927239418,0.04679766669869423,0.8096460103988647,10.777889251708984
14.98,-0.1052226722240448,0.0013522956287488341,0.048505693674087524,-0.12784326076507568,0.40133264660835266,11.108301162719727
15.0,-0.02498013712465763,0.001438218867406249,-0.006164492107927799,-0.12757185101509094,0.08516430109739304,10.002740859985352
15.02,-0.03532840684056282,-0.00440851878374815,-0.03643913194537163,-0.013439824804663658,-0.3918045163154602,8.718085289001465
15.040000000000001,-0.0135700274258852,-0.038026683032512665,-0.045360784977674484,0.1613275706768036,-0.6570495963096619,8.731955528259277
15.06,0.009620146825909615,-0.047420669347047806,-0.035674095153808594,0.35868924856185913,-0.6053751111030579,9.036253929138184
15.08,0.02254842221736908,-0.010073802433907986,0.001430697157047689,0.2834510803222656,-0.23373956978321075,10.043550491333008
15.1,0.03219180181622505,-0.011882826685905457,0.01719687692821026,-0.2925141155719757,0.23462040722370148,11.19375991821289
15.120000000000001,-0.00727912737056613,-0.02576293982565403,0.020536646246910095,-0.5171332359313965,0.85307776927948,10.131423950195312
15.14,0.005995654501020908,0.032464515417814255,-0.004888469353318214,-0.36663269996643066,1.0011913776397705,8.760074615478516
15.16,-0.04904794692993164,0.07682519406080246,-0.008675136603415012,0.04373506084084511,0.92497718334198,9.412715911865234
15.18,-0.04229763150215149,-0.0104164844378829,0.019376862794160843,0.7613350749015808,0.4064140319824219,10.355359077453613
15.200000000000001,-0.05744968354701996,-0.037012889981269836,0.022299936041235924,0.7832328677177429,-0.1849052757024765,10.417328834533691
15.22,-0.014937582425773144,0.014641471207141876,0.017854416742920876,0.46823182702064514,-0.6452550292015076,9.569048881530762
15.24,0.0016113064484670758,-0.03447544574737549,0.011105572804808617,-0.006900992710143328,-0.6337882280349731,9.026182174682617
15.26,0.03525356948375702,-0.10454683750867844,-0.005525505170226097,-0.116231270134449,0.01204185001552105,8.992676734924316
15.280000000000001,0.022990329191088676,-0.07571587711572647,-0.009901108220219612,-0.23743712902069092,0.6081029772758484,10.073919296264648
15.3,0.08384565263986588,-0.0012349225580692291,-0.014561408199369907,-0.4896259009838104,0.4905686378479004,10.907082557678223
15.32,-0.009808439761400223,0.00290521583519876,0.02022472955286503,-0.5652627348899841,0.2409946173429489,10.451130867004395
15.34,-0.007384015247225761,-0.022544505074620247,0.03536556661128998,-0.3322872221469879,0.24749517440795898,9.524142265319824
15.36,-0.014980609528720379,0.020129123702645302,0.03656525909900665,-0.2389013022184372,0.3695990741252899,9.223522186279297
15.38,-0.009343826211988926,0.05618923902511597,0.004125960636883974,-0.21145495772361755,0.37149232625961304,9.85183048248291
15.4,-0.018105333670973778,0.011553185060620308,-0.016366660594940186,0.19524843990802765,0.029224317520856857,10.016782760620117
15.42,0.047618318349123,-0.04528072476387024,-0.05730224773287773,0.4129874110221863,0.04006645083427429,9.632306098937988
15.44,0.017704883590340614,-0.02714492194354534,-0.05113864690065384,0.48397210240364075,0.006226859986782074,9.949257850646973
15.46,0.036296769976615906,-0.022252501919865608,0.012260111048817635,0.41654807329177856,0.025254715234041214,10.295232772827148
15.48,0.05860109254717827,-0.03629790246486664,0.047976382076740265,0.23385502398014069,-0.07922444492578506,9.816539764404297
15.5,-0.006325859576463699,-0.0021746584679931402,0.038669973611831665,0.2894807457923889,0.1165662631392479,9.162272453308105
15.52,0.01466408185660839,0.011175338178873062,-0.014843563549220562,0.2713385820388794,0.4530883729457855,9.499173164367676
15.540000000000001,-0.026983845978975296,-0.03679605945944786,-0.043658800423145294,0.1461409628391266,0.6312616467475891,9.867341995239258
15.56,-0.003075795480981469,-0.05357401818037033,-0.06222224980592728,0.11709502339363098,0.5800491571426392,9.888944625854492
15.58,-0.026719514280557632,-0.007476181257516146,-0.03397465497255325,0.012011794373393059,0.36532118916511536,10.186704635620117
15.6,-0.021978436037898064,-0.0017622046871110797,0.003609676379710436,-0.11541967839002609,0.3486127257347107,10.244094848632812
15.620000000000001,-0.02706795185804367,-0.034932997077703476,0.024009305983781815,-0.15491080284118652,0.20052197575569153,9.518150329589844
15.64,-0.009013771079480648,-0.06541034579277039,0.0230306014418602,-0.16041328012943268,0.038078565150499344,8.774836540222168
15.66,-0.015550469979643822,-0.056384678930044174,0.0029736794531345367,-0.27717939019203186,0.012873734347522259,9.709975242614746
15.68,-0.023100124672055244,-0.018851088359951973,-0.009146081283688545,-0.42494097352027893,-0.19694070518016815,10.425756454467773
15.700000000000001,0.013268222101032734,-0.05131402611732483,-0.01773119531571865,-0.11554257571697235,-0.16143299639225006,10.024560928344727
15.72,-0.029555760324001312,-0.04125094786286354,0.0024138682056218386,0.23706382513046265,-0.06106358394026756,10.247087478637695
15.74,0.03895563259720802,-0.013490144163370132,0.010774762369692326,0.4922235906124115,0.2601339817047119,10.319082260131836
15.76,0.058701612055301666,-0.026094499975442886,0.030287055298686028,0.70307856798172,0.3220123052597046,9.609244346618652
15.780000000000001,0.06841346621513367,-0.06383558362722397,0.024550285190343857,0.8088093996047974,0.43020808696746826,9.049580574035645
15.8,0.005725339520722628,-0.03330092132091522,0.002235960680991411,0.48450323939323425,0.4029388427734375,9.442728042602539
15.82,-3.315710637252778e-05,0.025903450325131416,-0.020697232335805893,0.0776512548327446,0.30064716935157776,10.10549259185791
15.84,0.024790767580270767,0.05644766986370087,-0.0192952249199152,-0.03531956300139427,0.21761658787727356,10.054957389831543
15.860000000000001,-0.003015876282006502,0.042057331651449203,-0.003044350538402796,0.10148007422685623,0.23281623423099518,10.086749076843262
15.88,0.07991309463977814,0.029557140544056892,0.024946516379714012,0.32194143533706665,0.18668228387832642,9.805075645446777
15.9,0.06764034181833267,0.05586741119623184,0.016216127201914787,0.5394161939620972,-0.1981711983680725,9.564841270446777
15.92,0.10875274986028671,0.06157815083861351,-0.00946800597012043,0.694126307964325,-0.27901071310043335,9.554628372192383
15.94,0.08027742803096771,0.04773321375250816,-0.021145597100257874,0.4529988467693329,-0.18820488452911377,9.94923210144043
15.96,0.030833296477794647,0.043427567929029465,-0.02424907125532627,-0.1052221730351448,0.43471217155456543,9.977592468261719
15.98,0.03524462506175041,0.059099361300468445,0.004429399501532316,-0.4616985619068146,0.9160172343254089,9.714422225952148
16.0,0.01943550817668438,0.07180481404066086,0.045885756611824036,-0.40324386954307556,1.0651682615280151,9.952817916870117
16.02,-0.031212426722049713,0.019278312101960182,0.06037535518407822,-0.06906654685735703,0.8167354464530945,9.585745811462402
16.04,-0.03823578357696533,0.02847008965909481,0.030176332220435143,0.2120475322008133,0.5690543055534363,9.459851264953613
16.06,-0.08934851735830307,0.010736385360360146,-0.021400293335318565,0.46974533796310425,0.5220291018486023,9.761478424072266
16.080000000000002,-0.06902661919593811,-0.049348384141922,-0.048446666449308395,0.4105016589164734,0.35603630542755127,9.330489158630371
16.1,-0.041566334664821625,-0.08113027364015579,-0.05239813029766083,0.12195327877998352,0.09523502737283707,9.352577209472656
16.12,-0.010005551390349865,-0.10457409918308258,-0.03730201721191406,0.0015234720194712281,-0.3271738886833191,10.708404541015625
16.14,-0.08959726244211197,-0.09904542565345764,-0.0013297920813784003,-0.11801502108573914,-0.1830121874809265,10.48006534576416
16.16,-0.023383745923638344,-0.05466314032673836,0.03382644057273865,-0.36467278003692627,0.18287453055381775,9.616297721862793
16.18,-0.03560257703065872,-0.03606441244482994,0.0557868629693985,-0.49650120735168457,0.495004802942276,9.243592262268066
16.2,0.006849230267107487,-0.01760234870016575,0.04888901486992836,-0.6073128581047058,0.44044050574302673,9.709513664245605
16.22,-0.010871343314647675,0.02989945001900196,0.025226235389709473,-0.5370733141899109,0.0681733638048172,10.523186683654785
16.24,-0.007866742089390755,0.032703645527362823,-0.024724872782826424,-0.015020059421658516,-0.2827410101890564,9.91596508026123
16.259999999999998,0.00768143218010664,-0.02020811103284359,-0.022186484187841415,1.09104323387146,-0.2789950966835022,9.500807762145996
16.279999999999998,0.026893530040979385,-0.05062281712889671,-0.014759044162929058,1.3488565683364868,0.0435335747897625,9.726984977722168
16.299999999999997,-0.02953343093395233,-0.03880314156413078,-0.0031031910330057144,0.840997040271759,0.41180136799812317,10.052906036376953
16.319999999999997,0.021610917523503304,-0.04180077835917473,0.0124423298984766,0.34082579612731934,0.5416341423988342,9.854142189025879
16.34,0.015017593279480934,-0.06979606300592422,0.04669930785894394,-0.24724014103412628,0.3047351837158203,9.384693145751953
16.36,0.03554365783929825,-0.02410752885043621,0.03617764636874199,-0.3519890606403351,-0.05323042720556259,9.405404090881348
16.38,0.006989710032939911,0.03636704012751579,0.013493580743670464,-0.11515023559331894,-0.12382656335830688,10.097747802734375
16.4,0.021931374445557594,0.015460078604519367,-0.04053618013858795,0.398014634847641,0.11792125552892685,10.115351676940918
16.419999999999998,0.04190804436802864,-0.0018835796508938074,-0.02508118934929371,0.7252929210662842,0.289256751537323,9.855968475341797
16.439999999999998,0.06322932988405228,0.060534439980983734,-0.02078935131430626,0.8183803558349609,0.23229224979877472,9.710741996765137
16.46,0.04688086360692978,0.048803482204675674,-0.006635324098169804,0.7093319296836853,0.10102695971727371,9.356804847717285
16.479999999999997,-0.02240484207868576,-0.022907733917236328,0.005131042096763849,0.06535115838050842,0.4769565165042877,9.344654083251953
16.5,0.007546060718595982,-0.03060387261211872,0.003959299065172672,-0.22832448780536652,0.6554862856864929,9.934362411499023
16.519999999999996,-0.00943694356828928,0.008659612387418747,0.015286421403288841,-0.4056544005870819,0.4929824769496918,11.13012409210205
16.54,-0.026340199634432793,-0.010772522538900375,0.003125799121335149,-0.48787710070610046,0.2508603036403656,10.504873275756836
16.56,-0.03217039257287979,-0.016996830701828003,0.0027343586552888155,-0.3776845633983612,0.1726299524307251,8.8825101852417
16.58,0.05708710476756096,0.015702027827501297,-0.001289651612751186,-0.15054719150066376,0.14578187465667725,9.158120155334473
16.599999999999998,0.04912592098116875,-0.03973584622144699,-0.009353356435894966,0.3579346835613251,0.0017994559602811933,10.199228286743164
16.619999999999997,-0.0005234413547441363,-0.0872366800904274,-0.0050269970670342445,0.6686785221099854,-0.03131444752216339,10.058097839355469
16.64,0.04461183398962021,-0.05632397532463074,-0.01236558798700571,0.5933377146720886,0.050513625144958496,9.716629028320312
16.659999999999997,0.0501464419066906,0.01722406968474388,-0.0015079168369993567,0.5530117750167847,0.40001755952835083,9.70880126953125
16.68,0.03515838831663132,0.015209170989692211,0.014103553257882595,0.4306800663471222,0.5896193385124207,9.13292121887207
16.699999999999996,0.004451796878129244,-0.011036291718482971,0.012214316986501217,0.13602977991104126,0.4203226566314697,8.77563190460205
16.72,-0.01241085771471262,0.02843759022653103,-0.017342016100883484,0.11197959631681442,0.1911952942609787,9.680994987487793
16.74,-0.024945512413978577,0.07273731380701065,-0.009005323052406311,0.37811529636383057,0.2721526622772217,10.614078521728516
16.759999999999998,0.011857185512781143,0.0838734433054924,0.011683671735227108,0.7265253663063049,0.46813032031059265,10.197904586791992
16.779999999999998,0.0074622430838644505,0.0849713683128357,0.014651519246399403,0.663407564163208,0.36734557151794434,9.778081893920898
16.799999999999997,0.006511584855616093,0.10064445436000824,-0.0023226875346153975,0.4362168610095978,0.2595329284667969,9.818318367004395
16.82,0.010933225974440575,0.08098473399877548,-0.0022261389531195164,0.08826728910207748,-0.04627757519483566,9.996187210083008
16.839999999999996,0.02307887189090252,0.016620110720396042,0.003074594773352146,-0.2762887477874756,0.024295926094055176,10.26609992980957
16.86,-0.006166169885545969,0.01789485663175583,0.007667756173759699,-0.325388103723526,0.3334110677242279,10.021759033203125
16.88,0.012280424125492573,0.0028547036927193403,0.010342191904783249,-0.22363916039466858,0.6031441688537598,9.826936721801758
16.9,-0.01968015357851982,-0.020787017419934273,0.0022065797820687294,-0.10237307101488113,0.48739975690841675,8.837682723999023
16.919999999999998,0.006919537205249071,-0.05140193551778793,0.00758343655616045,-0.05749202147126198,0.34789353609085083,8.60002613067627
16.939999999999998,-0.014948675408959389,-0.0716158077120781,0.007715083658695221,-0.11895302683115005,0.2440762221813202,10.094629287719727
16.96,0.019208034500479698,-0.05632960423827171,0.002729726955294609,-0.1730523258447647,0.2928445041179657,11.303770065307617
16.979999999999997,-0.018423467874526978,-0.05260604992508888,-0.009038064628839493,-0.16049303114414215,0.2564166784286499,10.34977912902832
17.0,0.0230995062738657,-0.034735240042209625,-0.0168917253613472,-0.27208617329597473,0.04854429513216019,8.853229522705078
17.019999999999996,-0.011868337169289589,-0.03092162124812603,-0.017856843769550323,-0.3118343651294708,0.029804401099681854,9.251124382019043
17.04,0.01344602182507515,-0.04421517252922058,-0.014712697826325893,0.03251061588525772,0.3484296202659607,10.060905456542969
17.06,-0.04242067039012909,-0.023326700553297997,0.011028705164790154,0.4411271810531616,0.6826757192611694,10.019944190979004
17.08,-0.029815342277288437,-0.013886076398193836,0.02641754411160946,0.8077614307403564,0.7431710362434387,9.534751892089844
17.099999999999998,-0.042493417859077454,-0.015273586846888065,0.01396307721734047,0.8099526166915894,0.5808739066123962,9.623132705688477
17.119999999999997,-0.055710289627313614,-0.04515603557229042,-0.019310366362333298,0.6284729242324829,0.3804148733615875,9.853619575500488
17.14,-0.040398359298706055,-0.013339371420443058,-0.02583431452512741,0.26141005754470825,0.053129520267248154,9.8029146194458
17.159999999999997,-0.0414462685585022,0.054418180137872696,-0.0006082006148062646,0.11660117655992508,-0.3124329149723053,9.919573783874512
17.18,0.007728940807282925,0.08642808347940445,0.00852908194065094,0.20367127656936646,-0.35281121730804443,9.70186996459961
17.199999999999996,-0.001006711390800774,0.06354590505361557,0.014264773577451706,0.3968568444252014,-0.033203065395355225,9.475884437561035
17.22,0.017912905663251877,0.08135073632001877,-0.004386046901345253,0.5083245038986206,0.34700122475624084,9.725420951843262
17.24,0.03396677225828171,0.1060648038983345,-0.011071107350289822,0.48352912068367004,0.300680547952652,10.106268882751465
17.259999999999998,0.024708706885576248,0.09673774987459183,0.0031928089447319508,0.5270441174507141,0.16840654611587524,10.229463577270508
17.279999999999998,0.0184288639575243,0.060652319341897964,-0.003906103316694498,0.2087395191192627,0.12864506244659424,9.822009086608887
17.299999999999997,-0.019343629479408264,0.03607797250151634,-0.01015627384185791,-0.09873999655246735,0.5437355637550354,9.694337844848633
17.32,0.021717824041843414,0.03245120868086815,-0.014111482538282871,-0.23195014894008636,0.7764825820922852,9.817133903503418
17.339999999999996,-0.010295629501342773,-0.016013288870453835,0.009711265563964844,-0.37195852398872375,0.37970608472824097,9.707018852233887
17.36,-0.027803249657154083,-0.047737330198287964,0.024109577760100365,-0.5225965976715088,0.002973147900775075,10.183648109436035
17.38,0.009340325370430946,-0.02311362512409687,0.011567264795303345,-0.7563654780387878,-0.07117129862308502,10.605762481689453
17.4,0.005608584266155958,0.005383199080824852,0.014143992215394974,-0.5747213363647461,0.35564136505126953,9.454734802246094
17.419999999999998,-0.020264236256480217,-0.020604249089956284,0.035132985562086105,-0.4718538522720337,0.4686402678489685,8.264368057250977
17.439999999999998,0.0236944779753685,-0.011624202132225037,0.01517223846167326,0.08127056807279587,0.21635310351848602,8.717269897460938
17.46,-0.004113230388611555,0.02882857248187065,-0.011250554583966732,0.6350409388542175,-0.12018083035945892,9.856131553649902
17.479999999999997,-0.02716001681983471,0.02769748494029045,-0.028126973658800125,0.9822319149971008,0.07802117615938187,11.163459777832031
17.5,-0.00866180844604969,-0.019051412120461464,-0.014728274196386337,1.0261468887329102,0.584937334060669,10.405741691589355
17.519999999999996,0.009656672365963459,0.004024819005280733,0.007436069659888744,0.5579153299331665,0.6261879205703735,9.168191909790039
17.54,0.029907532036304474,0.06755448132753372,0.012486673891544342,0.02085184119641781,0.19980134069919586,9.141164779663086
17.56,0.005469667259603739,0.06442728638648987,0.016876496374607086,-0.2746697664260864,-0.17003697156906128,10.439387321472168
17.58,0.029940491542220116,0.02947258949279785,0.030706243589520454,-0.2887100577354431,-0.12832209467887878,10.887048721313477
17.599999999999998,0.011744949035346508,0.06601262837648392,0.02086670696735382,-0.13292871415615082,0.04918985813856125,9.726114273071289
17.619999999999997,0.038254693150520325,0.07590939849615097,0.002823988441377878,0.06425852328538895,0.304851233959198,9.214836120605469
17.64,0.049607280641794205,0.00466020405292511,-0.022407665848731995,0.02946576289832592,0.3823736906051636,9.42255973815918
17.659999999999997,0.07245158404111862,-0.01655949279665947,-0.004924639593809843,-0.23155464231967926,0.35905763506889343,10.539793014526367
17.68,0.07000008225440979,-0.029147326946258545,0.0013884649379178882,-0.3785552680492401,0.2128887176513672,10.558682441711426
17.699999999999996,0.06625159829854965,-0.032889097929000854,0.005260585341602564,-0.3859226405620575,-0.061718206852674484,9.746220588684082
17.72,0.04840830713510513,-0.0741145983338356,0.004624226596206427,-0.1793159395456314,0.3637498915195465,8.649285316467285
17.74,0.029720069840550423,-0.08064639568328857,0.007871841080486774,-0.039925143122673035,0.5673975944519043,8.862129211425781
17.759999999999998,-0.0018742980901151896,-0.07794032990932465,-0.007339389529079199,0.12470604479312897,0.5538318157196045,10.019644737243652
17.779999999999998,-0.007160584907978773,-0.06027652323246002,-0.017732808366417885,0.11466910690069199,0.6746935844421387,10.450854301452637
17.799999999999997,-0.026615390554070473,-0.037809476256370544,-0.009401515126228333,0.20759925246238708,0.8479458093643188,9.849077224731445
17.82,-0.013623769395053387,-0.058562539517879486,0.011479814536869526,0.33994555473327637,0.7138888239860535,9.052779197692871
17.839999999999996,-0.03078620135784149,-0.03895650804042816,0.00020471816242206842,0.33702659606933594,0.4531819224357605,9.723840713500977
17.86,-0.02849745564162731,-0.0022756634280085564,0.00013353834219742566,0.31629765033721924,-0.005153572652488947,10.670124053955078
17.88,-0.04306629300117493,-0.008045711554586887,0.019478050991892815,0.35308465361595154,-0.34948375821113586,10.731599807739258
17.9,0.001150979194790125,-0.00596169987693429,0.011992277577519417,0.22564364969730377,-0.24529141187667847,9.538427352905273
17.919999999999998,0.012637212872505188,0.026752401143312454,0.004587362986057997,0.047455254942178726,0.01277387235313654,8.588065147399902
17.939999999999998,0.06586039066314697,0.0671551302075386,-0.002985837869346142,0.22339969873428345,0.2067260444164276,8.869205474853516
17.96,0.05077265948057175,0.07123691588640213,-0.012320292182266712,0.3960411548614502,0.4903919994831085,9.611055374145508
17.979999999999997,0.07226286828517914,0.053065646439790726,-0.018762297928333282,0.31751883029937744,0.5584272742271423,11.116705894470215
18.0,0.05202004685997963,0.058593932539224625,0.008825922384858131,0.07977430522441864,0.184627503156662,10.954124450683594
18.019999999999996,0.03019009716808796,0.06655846536159515,0.013225742615759373,0.06894553452730179,0.08278246223926544,9.605830192565918
18.04,0.003379611996933818,0.030445080250501633,0.0016209711320698261,0.06584502756595612,0.4200463593006134,8.682401657104492
18.06,-0.002753542037680745,-0.0003529238165356219,0.0037214483600109816,-0.11871521174907684,0.9454566240310669,9.705564498901367
18.08,-0.011637154035270214,-0.02240249700844288,0.0013457892928272486,-0.2844982445240021,0.8912997245788574,10.559110641479492
18.099999999999998,0.0003481887106318027,-0.012014048174023628,0.007087117526680231,-0.4908297061920166,0.30339252948760986,10.529202461242676
18.119999999999997,-0.018803725019097328,-0.021898791193962097,-0.00566544383764267,-0.5095614790916443,0.0950285792350769,9.60433292388916
18.14,-0.03756542503833771,-0.007637375500053167,-0.01302969828248024,-0.34111469984054565,0.3276328444480896,8.590011596679688
18.159999999999997,-0.05571955442428589,0.0006695872871205211,-0.016423171386122704,0.04588369280099869,0.47616082429885864,8.816179275512695
18.18,-0.0639352798461914,-0.017952775582671165,-0.027548354119062424,0.3613821268081665,0.2319020926952362,10.018022537231445
18.199999999999996,-0.06633395701646805,0.005528307519853115,-0.012677855789661407,0.5451644062995911,0.057199761271476746,10.88085651397705
18.22,-0.032960787415504456,0.042638812214136124,0.01890510320663452,0.6899659037590027,0.13811330497264862,10.116851806640625
18.24,0.07547883689403534,0.0542924627661705,0.025065286085009575,0.5765483379364014,0.18830883502960205,9.655234336853027
18.259999999999998,0.0716143473982811,0.017213765531778336,0.015541278757154942,0.42380088567733765,0.14761771261692047,9.015028953552246
18.279999999999998,0.04392876476049423,0.010321195237338543,0.009345284663140774,0.2712433338165283,0.14657150208950043,8.886316299438477
18.299999999999997,0.050950173288583755,0.028270777314901352,0.00892368983477354,-0.08159371465444565,0.16301649808883667,9.76486587524414
18.32,0.01473892293870449,0.030220668762922287,-0.02116875909268856,-0.4433341920375824,0.2570532560348511,10.96798324584961
18.339999999999996,0.0010079692583531141,-0.03665027394890785,-0.03400283306837082,-0.22048266232013702,0.491439551115036,10.86031436920166
18.36,-0.04010399430990219,-0.06348977237939835,-0.032139334827661514,-0.13585646450519562,1.08370840549469,9.435747146606445
18.38,-0.07126977294683456,-0.022566404193639755,-0.00830471608787775,-0.3650413751602173,1.1955316066741943,9.375870704650879
18.4,-0.023222429677844048,-0.013009889982640743,0.014572493731975555,-0.6794619560241699,0.8831121921539307,9.743598937988281
18.419999999999998,-0.05350372567772865,-0.053654059767723083,0.01063393335789442,-0.6973665952682495,0.13042789697647095,9.882414817810059
18.439999999999998,-0.07062743604183197,-0.03707258030772209,-0.006768218707293272,-0.6301092505455017,-0.3220100998878479,9.966978073120117
18.46,-0.02645648829638958,0.005284260958433151,-0.03078567422926426,-0.6105961799621582,-0.37296608090400696,9.89717960357666
18.479999999999997,-0.025131115689873695,0.009633404202759266,-0.029453985393047333,-0.3905070126056671,-0.004240630194544792,9.729560852050781
18.5,0.003095800057053566,0.006974536459892988,0.00587417371571064,0.33904796838760376,0.20565523207187653,9.753222465515137
18.519999999999996,0.060124292969703674,-0.01208024937659502,0.009425447322428226,0.8806470632553101,-0.020082633942365646,9.51144790649414
18.54,0.013393971137702465,-0.014722740277647972,-0.015431220643222332,0.9968770742416382,0.07144653052091599,8.975893020629883
18.56,0.053782034665346146,-0.029643738642334938,-0.0186084546148777,0.7567917108535767,0.47208619117736816,9.439580917358398
18.58,-0.00981846172362566,-0.02425972744822502,-0.00804243516176939,0.30038633942604065,0.5843192338943481,9.968778610229492
18.599999999999998,0.009217734448611736,-0.008767785504460335,-0.0215139202773571,-0.05137813836336136,0.45291242003440857,10.698197364807129
