time,wx,wy,wz,ax,ay,az
0.0,0.08871506154537201,-0.06771781295537949,-0.0020343689247965813,-0.6193010210990906,0.21265339851379395,10.069951057434082
0.02,0.03187548369169235,-0.10820352286100388,-0.0298378374427557,-0.1874392032623291,0.1399313509464264,8.79953384399414
0.04,0.04021662101149559,-0.10970048606395721,-0.04693690314888954,-0.23138369619846344,0.3910830318927765,8.578278541564941
0.06,0.0396256260573864,-0.12137577682733536,-0.035156577825546265,-0.4165917634963989,0.44185957312583923,9.638331413269043
0.08,0.01820126734673977,-0.0694635808467865,-0.019601603969931602,-0.7207987308502197,0.5063464641571045,10.597084999084473
0.1,-0.028924008831381798,-0.03240860253572464,-0.0037703048437833786,-0.5565444231033325,0.5681683421134949,10.246212005615234
0.12,-0.0533716194331646,-0.033866673707962036,0.004181461874395609,0.5473071932792664,0.4720780849456787,9.929465293884277
0.14,-0.01373184472322464,-0.06882916390895844,0.010929412208497524,1.2527565956115723,0.28456857800483704,10.019878387451172
0.16,-0.015931373462080956,-0.049483753740787506,0.018586115911602974,1.1715023517608643,0.2846440076828003,9.865796089172363
0.18,-0.006600261200219393,-0.031087026000022888,0.0019082322251051664,0.5171324610710144,0.18739071488380432,9.0625
0.2,-0.03769564628601074,-0.02618235908448696,0.009092390537261963,-0.07928480952978134,0.1328163743019104,9.075121879577637
0.22,-0.07152722775936127,0.017383310943841934,-0.01438779104501009,-0.29025888442993164,0.303396612405777,9.589654922485352
0.24,-0.04930829629302025,0.05641109496355057,-0.0013152594910934567,-0.049775488674640656,0.5329503417015076,10.136907577514648
0.26,-0.012791497632861137,0.05073646083474159,0.0022333532106131315,0.240861713886261,0.42272716760635376,10.386981964111328
0.28,0.006452253088355064,-0.005450037773698568,0.019851628690958023,0.26364511251449585,-0.07041201740503311,9.81706428527832
0.3,0.040718428790569305,-0.06120996177196503,-9.07670400920324e-05,0.11136376857757568,-0.3862592279911041,9.382582664489746
0.32,0.004218043759465218,-0.12940527498722076,-0.013031350448727608,-0.053061049431562424,-0.2099526822566986,9.742924690246582
0.34,0.022210752591490746,-0.12720680236816406,-0.017639487981796265,-0.3908962905406952,0.2550899386405945,10.153409957885742
0.36,0.03605938330292702,-0.07668846845626831,-0.007614546921104193,-1.063097596168518,0.5951854586601257,10.012548446655273
0.38,0.024129366502165794,-0.033186476677656174,0.0005300618940964341,-1.0181365013122559,0.3115086257457733,9.290486335754395
0.4,0.013052809983491898,-0.036756109446287155,-0.013196161016821861,-0.45981523394584656,0.12803220748901367,9.2482271194458
0.42,0.03742389753460884,0.00045949657214805484,-0.0037495167925953865,-0.18128587305545807,0.16126248240470886,9.772101402282715
0.44,0.0006343016866594553,0.062161874026060104,0.004620295017957687,-0.16001088917255402,0.36274218559265137,10.095110893249512
0.46,-0.011194582097232342,0.055861640721559525,0.003842097707092762,0.04188055917620659,0.45971184968948364,9.618242263793945
0.48,0.03185738995671272,0.004290875047445297,-0.004088392946869135,0.7747299075126648,0.45044001936912537,9.367619514465332
0.5,-0.004874835722148418,0.01762457750737667,0.008442330174148083,0.983566164970398,0.20269371569156647,9.587990760803223
0.52,0.0621425025165081,0.06897574663162231,0.028131192550063133,0.7947344183921814,0.04844680428504944,9.877237319946289
0.54,0.08593116700649261,0.07751403748989105,0.02563171647489071,0.5060722827911377,-0.1661406010389328,9.7366304397583
0.56,-0.0007037044852040708,0.08985437452793121,0.008840563707053661,0.116141676902771,0.3886048495769501,9.898415565490723
0.58,0.009553360752761364,0.11282254755496979,-0.019892849028110504,-0.10558350384235382,0.8918710947036743,9.941463470458984
0.6,-0.0019265245646238327,0.10328293591737747,-0.03125207871198654,-0.003824990475550294,0.4120689332485199,10.349555015563965
0.62,-0.000577091530431062,0.07454428821802139,-0.034891583025455475,0.19604651629924774,0.11190800368785858,9.91694450378418
0.64,-0.0101065244525671,0.05707564577460289,-0.01705208420753479,0.15655966103076935,0.17840731143951416,9.292323112487793
0.66,0.0043318565003573895,0.028589077293872833,-0.026729874312877655,-0.05608689412474632,0.5699982047080994,9.29020881652832
0.68,-0.03275013715028763,0.005960003938525915,-0.0074257319793105125,-0.18738429248332977,0.9874539375305176,9.950854301452637
0.7000000000000001,0.05483577772974968,0.0316707007586956,0.03655967116355896,-0.7317754030227661,0.5677549839019775,11.103205680847168
0.72,0.042998652905225754,0.074091836810112,0.07171296328306198,-0.9270521998405457,-0.25196754932403564,10.726584434509277
0.74,0.01023173239082098,0.020359277725219727,0.056449711322784424,-0.6843125224113464,-0.40187305212020874,8.974424362182617
0.76,0.06168626993894577,0.018727833405137062,0.029178589582443237,-0.5828975439071655,-0.3141047954559326,8.23601245880127
0.78,0.008055435493588448,0.0712265819311142,-0.006906277034431696,-0.48673126101493835,0.1933760792016983,9.308629989624023
0.8,0.0011293513234704733,0.05802718922495842,-0.02108154445886612,-0.3256460130214691,0.8145706653594971,10.81700611114502
0.8200000000000001,0.006946671288460493,0.0017678113654255867,-0.05217000097036362,-0.21915049850940704,1.2250251770019531,10.966344833374023
0.84,0.033381156623363495,-0.011750399135053158,-0.0503917932510376,-0.08780175447463989,1.0706117153167725,9.777728080749512
0.86,-0.049510858952999115,0.014369981363415718,-0.05718554928898811,-0.3226581811904907,0.552647590637207,8.967975616455078
0.88,-0.11053931713104248,-0.025819262489676476,-0.05866999924182892,-0.5221023559570312,0.5597206950187683,9.211310386657715
0.9,-0.10242609679698944,-0.05621946230530739,-0.037251394242048264,-0.6621071696281433,0.5535004734992981,10.690009117126465
0.92,-0.02004571072757244,-0.020658668130636215,0.03256199136376381,-0.7438464760780334,0.04485326632857323,11.30046558380127
0.9400000000000001,-0.04012889415025711,0.025231972336769104,0.08932163566350937,-0.7086493372917175,-0.15397033095359802,9.898006439208984
0.96,-0.04955101013183594,-0.0025775141548365355,0.10565756261348724,-0.11351149529218674,0.13064183294773102,8.715484619140625
0.98,-0.003842286067083478,-0.008660892024636269,0.05823893845081329,0.24424558877944946,0.05824115872383118,8.785955429077148
1.0,0.08556080609560013,0.05591202527284622,-0.008416260592639446,0.41031256318092346,-0.36404019594192505,9.909529685974121
1.02,0.1232609748840332,0.08017364144325256,-0.06779979914426804,0.2301921546459198,-0.7012609243392944,10.65715217590332
1.04,0.08131282776594162,0.1093539446592331,-0.06948111206293106,0.38069063425064087,-0.6257294416427612,9.975101470947266
1.06,0.08514482527971268,0.11527453362941742,-0.05228552222251892,0.3117500841617584,0.0756073072552681,9.738712310791016
1.08,0.08775464445352554,0.11132988333702087,-0.02844983898103237,0.34191009402275085,0.8128810524940491,10.108392715454102
1.1,0.07786000519990921,0.110437773168087,0.01775486022233963,0.1672007441520691,0.8988950252532959,10.2349853515625
1.12,0.0748344138264656,0.11605581641197205,0.051662128418684006,0.06031373143196106,0.7573462724685669,9.973132133483887
1.1400000000000001,0.1301458328962326,0.0748889148235321,0.05870109051465988,-0.2672540843486786,0.588036298751831,9.543548583984375
1.16,0.08959793299436569,0.06259238719940186,0.017295120283961296,-0.5240598917007446,0.5143941044807434,9.615288734436035
1.18,0.013744060881435871,0.05230749025940895,-0.008219694718718529,-0.7190917134284973,0.8971071839332581,9.590620040893555
1.2,0.02789785899221897,0.060417331755161285,-0.0034137440379709005,-0.9818136692047119,0.6767578125,9.35214900970459
1.22,0.009015373885631561,0.031569335609674454,-0.013398234732449055,-1.144223690032959,0.14511148631572723,9.634852409362793
1.24,0.028644118458032608,0.0031559260096400976,-0.00514143705368042,-1.2492096424102783,0.18064498901367188,9.943614959716797
1.26,0.04423431307077408,0.027707166969776154,0.009863362647593021,-1.1402831077575684,0.5297787189483643,10.143128395080566
1.28,0.05594820901751518,0.0011828243732452393,0.021339891478419304,-0.7207357287406921,0.6232022047042847,10.14495849609375
1.3,0.07270744442939758,-0.016221599653363228,0.03776420280337334,-0.2426101118326187,0.5146176815032959,9.673811912536621
1.32,0.06638390570878983,-0.03727614879608154,0.027076812461018562,0.04693647846579552,0.4791848361492157,8.895256042480469
1.34,0.03416803479194641,-0.039588019251823425,0.01712961308658123,0.11929277330636978,0.45371270179748535,8.819258689880371
1.36,0.045367781072854996,-0.022786680608987808,-0.020608587190508842,0.19856686890125275,0.32824453711509705,9.439160346984863
1.3800000000000001,0.03652915731072426,-0.06421199440956116,-0.038032256066799164,0.17588159441947937,0.5542947053909302,10.046297073364258
1.4000000000000001,0.011701014824211597,-0.08371967077255249,-0.02503691054880619,-0.06955744326114655,0.6356660723686218,10.159348487854004
1.42,-0.06512650102376938,-0.05874672159552574,-0.008971640840172768,-0.4281766712665558,0.8103069067001343,10.000782012939453
1.44,-0.03824935480952263,-0.05252733826637268,0.01360613014549017,-0.5463955402374268,1.0856558084487915,9.435575485229492
1.46,-0.055257782340049744,-0.08846753090620041,0.014333645813167095,-0.31341713666915894,0.9376035332679749,9.199235916137695
1.48,-0.06753281503915787,-0.09410953521728516,0.02498878724873066,-0.1405465006828308,0.7907713651657104,9.37453556060791
1.5,-0.10797767341136932,-0.12035690248012543,0.02232925407588482,0.006513808388262987,0.6579694747924805,9.725872993469238
1.52,-0.06413937360048294,-0.16502851247787476,0.01541812438517809,-0.002184433164075017,0.2972354292869568,9.95559310913086
1.54,-0.06081579998135567,-0.1392841339111328,-0.006123434752225876,-0.5189858675003052,0.10255511105060577,10.170890808105469
1.56,-0.06766795367002487,-0.08792579174041748,-0.01670379377901554,-0.6875551342964172,0.14069247245788574,9.72921085357666
1.58,-0.09870205819606781,-0.06924125552177429,-0.011691379360854626,-0.8346862196922302,0.195942685008049,9.099766731262207
1.6,-0.026136625558137894,-0.04670370742678642,0.003387256059795618,-0.6437243223190308,0.36346837878227234,9.277066230773926
1.62,0.006374362390488386,-0.024853892624378204,0.03916554898023605,-0.3212968111038208,0.18172994256019592,10.196807861328125
1.6400000000000001,0.039020735770463943,-0.005105865187942982,0.049663979560136795,-0.2954639792442322,-0.20104782283306122,11.025527000427246
1.6600000000000001,0.031565841287374496,-0.02720196731388569,0.0449211522936821,-0.262661874294281,-0.2619204819202423,10.979630470275879
1.68,0.0029610164929181337,-0.052078843116760254,0.02319376729428768,-0.04439052194356918,0.026396678760647774,9.826803207397461
1.7,0.07723808288574219,-0.040946971625089645,-0.01483768317848444,0.04658672958612442,0.46254125237464905,8.715907096862793
1.72,0.02954336255788803,-0.05788322165608406,-0.014674670994281769,-0.09602746367454529,1.0055454969406128,8.949687004089355
1.74,-0.024107854813337326,-0.08274315297603607,-0.029175465926527977,-0.1844567060470581,1.2154513597488403,9.952045440673828
1.76,-0.03573083132505417,-0.09849267452955246,-0.040386222302913666,-0.17514364421367645,1.0332649946212769,10.470320701599121
1.78,-0.061400819569826126,-0.08638899028301239,-0.024231575429439545,-0.15292595326900482,0.4631376266479492,10.302337646484375
1.8,-0.06306488811969757,-0.08631705492734909,8.899242675397545e-05,-0.0987323448061943,0.2984324097633362,9.987651824951172
1.82,-0.07345090061426163,-0.09278713911771774,0.0020558051764965057,0.00040621671359986067,0.3277275562286377,9.744345664978027
1.84,-0.06354649364948273,-0.03800288960337639,0.00704918522387743,0.1700500100851059,0.6114846467971802,9.725081443786621
1.86,-0.05895165354013443,-0.00635946961119771,0.020919064059853554,0.3116958439350128,0.4486108124256134,9.268685340881348
1.8800000000000001,-0.0943053588271141,0.015411213040351868,0.034002501517534256,0.6416952013969421,0.12635444104671478,8.973136901855469
1.9000000000000001,-0.057038940489292145,0.0020847884006798267,0.002937949961051345,0.8310331702232361,0.04572040215134621,9.339399337768555
1.92,-0.04861781746149063,0.032063115388154984,-0.009236935526132584,0.6866930723190308,0.08978408575057983,10.059736251831055
1.94,-0.02562212571501732,0.08732926100492477,-0.013578443787992,0.3835214674472809,0.1206807941198349,10.2072172164917
1.96,-0.00637883972376585,0.09770511835813522,0.0017451946623623371,0.02637757547199726,0.19726532697677612,9.988115310668945
1.98,-0.06833180785179138,0.07530704140663147,-0.0023598161060363054,-0.09745962917804718,0.6898358464241028,9.739834785461426
2.0,-0.027187304571270943,0.08026778697967529,-0.006350124720484018,0.1354113072156906,0.6827153563499451,9.28269100189209
2.02,-0.008254972286522388,0.0876370221376419,-0.002791633829474449,0.3823148012161255,0.38680917024612427,9.384740829467773
2.04,0.041475288569927216,0.09370888024568558,0.016203131526708603,0.09138396382331848,-0.116034135222435,9.866890907287598
2.06,0.05210929736495018,0.07421984523534775,0.031016163527965546,-0.42061349749565125,-0.4357249140739441,10.112951278686523
2.08,0.040787987411022186,0.06733744591474533,0.027568314224481583,-0.8781822323799133,-0.09504827857017517,10.338607788085938
2.1,0.016255876049399376,0.08106383681297302,0.005002944730222225,-0.9797114729881287,0.176956906914711,10.53538703918457
2.12,0.016732048243284225,0.08387621492147446,0.0029442450031638145,-0.9396172761917114,0.4747457802295685,10.655582427978516
2.14,0.022095175459980965,0.0875716283917427,-0.01832759752869606,-0.6655445098876953,0.5497038960456848,9.776525497436523
2.16,-0.013538318686187267,0.03618793189525604,-0.04401830956339836,-0.6510244607925415,0.7982374429702759,9.306204795837402
2.18,0.078858882188797,-0.025655286386609077,-0.038576383143663406,-0.6104826927185059,0.5154772996902466,9.608527183532715
2.2,0.043807338923215866,-0.027582567185163498,-0.021948134526610374,-0.5391658544540405,0.029484007507562637,9.629298210144043
2.22,-0.007783087436109781,-0.02583940140902996,-0.01622788980603218,-0.8534232974052429,0.22682012617588043,10.203034400939941
2.24,-0.021002057939767838,-0.031123971566557884,0.013102972880005836,-0.8405444025993347,0.5535610318183899,10.248162269592285
2.2600000000000002,0.018246600404381752,-0.0454176664352417,0.043501175940036774,-0.1420321762561798,0.5775235891342163,9.868200302124023
2.2800000000000002,0.04053178057074547,-0.01773751899600029,0.04195092245936394,0.2694401443004608,0.6074791550636292,9.9490966796875
2.3000000000000003,0.07031214982271194,0.005644272547215223,0.016762498766183853,0.7899595499038696,0.39640650153160095,9.880826950073242
2.32,0.07370662689208984,-0.03641128167510033,-0.00048108550254255533,1.0550302267074585,0.27910861372947693,9.372549057006836
2.34,0.12125211954116821,-0.027896566316485405,-0.015145852230489254,0.7697368264198303,0.002777551067993045,9.04377269744873
2.36,0.1179371327161789,-0.004351551178842783,-0.02413973957300186,0.08916538208723068,-0.44440513849258423,9.006772994995117
2.38,0.09887233376502991,0.06045474857091904,-0.020229024812579155,-0.21429988741874695,-0.4053233563899994,9.510878562927246
2.4,0.06542988866567612,0.09247881174087524,-0.030788348987698555,-0.2841220796108246,0.12619830667972565,10.381381034851074
2.42,0.030669495463371277,0.057413216680288315,-0.029165862128138542,-0.22657421231269836,1.1005616188049316,10.559908866882324
2.44,0.06622935086488724,0.04558002948760986,-0.026585305109620094,-0.15451298654079437,1.7260088920593262,9.802104949951172
2.46,-0.036487799137830734,0.039338935166597366,-0.02477436512708664,-0.04090428724884987,1.5352903604507446,9.298174858093262
2.48,-0.04162483662366867,0.003301567630842328,-0.01959201693534851,-0.06151638180017471,1.2197343111038208,8.993638038635254
2.5,-0.04420703649520874,-0.013136734254658222,-0.008872275240719318,-0.18366144597530365,0.6695164442062378,9.185225486755371
2.52,-0.09821271896362305,0.0485980249941349,-0.0022483672946691513,-0.4149048924446106,-0.0785236805677414,9.5180082321167
2.54,-0.12334667891263962,0.08605644851922989,0.009513847529888153,-0.5910640954971313,0.09366156160831451,10.009683609008789
2.56,-0.1035395935177803,0.12058563530445099,0.01993664912879467,-0.47482234239578247,0.42149674892425537,10.07966136932373
2.58,-0.09048054367303848,0.1299562156200409,0.02963995933532715,-0.33773964643478394,0.5912598967552185,9.958102226257324
2.6,-0.061776865273714066,0.07560183107852936,0.03546423837542534,-0.20982767641544342,0.49015289545059204,10.062785148620605
2.62,-0.014528695493936539,0.03208034485578537,0.028748800978064537,-0.0866984874010086,0.1719537377357483,10.207387924194336
2.64,0.006431623362004757,0.011818948201835155,0.012027665972709656,-0.35359856486320496,-0.27369949221611023,10.235246658325195
2.66,0.03265814110636711,-0.01321440003812313,-0.013227619230747223,-0.6568121910095215,-0.5343195796012878,9.63326358795166
2.68,0.024421991780400276,-0.01444932445883751,-0.037366125732660294,-0.9617404937744141,-0.060854509472846985,9.62334156036377
2.7,-0.0029110261239111423,-0.006074604578316212,-0.039266932755708694,-0.9263859987258911,0.39093127846717834,9.847861289978027
2.72,0.005900662392377853,0.001026709913276136,-0.017086543142795563,-0.8090389966964722,0.7901268005371094,9.795711517333984
2.74,-0.0015452370280399919,-0.008438365533947945,-0.02661323919892311,-0.7425569295883179,1.000878930091858,9.950263023376465
2.7600000000000002,0.0025768911000341177,-0.01483486033976078,-0.020455854013562202,-0.7898549437522888,0.7872982025146484,10.123527526855469
2.7800000000000002,-0.015266293659806252,-0.04640953242778778,-0.013253155164420605,-0.875211238861084,0.30555832386016846,9.941675186157227
2.8000000000000003,-0.01682445965707302,-0.024310369044542313,-0.006538895424455404,-0.4601457715034485,0.19196726381778717,9.576520919799805
2.82,-0.07075241953134537,-0.01248227246105671,0.00043424934847280383,0.3400942087173462,0.414768785238266,9.222864151000977
2.84,-0.06841351836919785,-0.03016550838947296,-0.005974228959530592,0.8710280060768127,0.5559400916099548,9.39755630493164
2.86,-0.057415325194597244,0.01940768025815487,0.0013818731531500816,0.772309422492981,0.5042833089828491,9.90312385559082
2.88,-0.047746773809194565,0.04611489176750183,-0.009499914012849331,0.5513926148414612,0.3706321716308594,9.84063720703125
2.9,-0.09766871482133865,0.0340738371014595,-0.0179482102394104,0.01940537989139557,0.3090241551399231,9.781715393066406
2.92,-0.0639638602733612,0.011520027182996273,-0.027096260339021683,-0.35729265213012695,0.35949763655662537,10.059637069702148
2.94,-0.04557614400982857,0.01512491051107645,-0.03852219879627228,-0.3242366909980774,0.16098855435848236,9.629725456237793
2.96,-0.04829972982406616,0.033391695469617844,-0.04391472786664963,-0.1722669005393982,-0.030313950031995773,9.236322402954102
2.98,-0.10779475420713425,-0.018780477344989777,-0.01925719529390335,-0.09536439180374146,0.07261504977941513,9.331685066223145
3.0,-0.027661284431815147,-0.056651510298252106,0.024078620597720146,0.04184889793395996,0.05507652461528778,9.516204833984375
3.02,-0.014119300059974194,-0.05441451445221901,0.053041063249111176,-0.20756076276302338,0.1127753034234047,9.654928207397461
3.04,0.012431608512997627,-0.04858366772532463,0.06515663862228394,-0.5426356196403503,0.17044880986213684,9.826373100280762
3.06,-0.01901066116988659,-0.11066697537899017,0.03787160664796829,-0.6864047646522522,0.10237828642129898,9.726268768310547
3.08,0.009564527310431004,-0.10472583770751953,0.0072652059607207775,-0.8207769393920898,0.1919652372598648,9.94856071472168
3.1,0.08535093069076538,-0.08403095602989197,-0.009247827343642712,-0.8998384475708008,-0.18073900043964386,11.000414848327637
3.12,0.06293722987174988,-0.12476149946451187,-0.03120211884379387,-0.9278082251548767,-0.14302459359169006,10.705303192138672
3.14,0.019649188965559006,-0.07446154206991196,-0.04048744961619377,-0.9508053064346313,0.38337594270706177,9.53888988494873
3.16,0.0031950389966368675,-0.04250866547226906,-0.017053451389074326,-0.8635340332984924,0.9869173169136047,8.969621658325195
3.18,-0.05071748048067093,-0.08457542955875397,0.013702363707125187,-0.8401824235916138,0.7880803942680359,9.876198768615723
3.2,0.0010308950440958142,-0.03349558264017105,0.020655015483498573,-0.9419575333595276,0.39824965596199036,10.974414825439453
3.22,-0.0016827331855893135,-0.004988932516425848,0.015415689907968044,-0.5872187614440918,0.06546585261821747,10.779451370239258
3.24,-0.044680409133434296,-0.0677822008728981,-0.0013321579899638891,-0.18829689919948578,-0.3487575650215149,9.88907527923584
3.2600000000000002,-0.049247585237026215,-0.09143571555614471,-0.015766756609082222,-0.10096824169158936,0.06576903164386749,8.96099853515625
3.2800000000000002,0.020711258053779602,-0.04194958135485649,-0.020038548856973648,-0.08213839679956436,0.42973124980926514,9.048151969909668
3.3000000000000003,0.029355889186263084,-0.03680712729692459,-0.0257527194917202,0.3255656361579895,0.4036691188812256,9.432723045349121
3.3200000000000003,-0.005843008868396282,-0.05787106230854988,-0.025957755744457245,1.0567927360534668,0.19794833660125732,9.765007972717285
3.34,-0.0158915426582098,-0.06367004662752151,-0.004278560169041157,1.331773281097412,0.06308118999004364,9.736812591552734
3.36,-0.00202205590903759,-0.04953289404511452,0.02091708406805992,1.0844618082046509,0.26933589577674866,9.810700416564941
3.38,0.04455704614520073,-0.049971804022789,0.03240705281496048,0.5025238394737244,0.1063709706068039,9.606332778930664
3.4,0.025544127449393272,-0.05952484905719757,0.01663823239505291,-0.0481954962015152,-0.05482364073395729,9.57836627960205
3.42,0.044397201389074326,-0.016247296705842018,0.010356638580560684,-0.18525542318820953,0.3304128050804138,10.186626434326172
3.44,0.06369253247976303,0.005170607008039951,0.005374191794544458,-0.3413669168949127,0.24063776433467865,10.2819185256958
3.46,0.0474984273314476,0.017396556213498116,-0.0024311726447194815,-0.3532201051712036,0.06836969405412674,9.907894134521484
3.48,0.08419158309698105,0.007285190746188164,0.007566368672996759,-0.39063528180122375,0.05205151438713074,9.494063377380371
3.5,0.08684782683849335,-0.00046596041647717357,0.012928570620715618,-0.20521105825901031,0.09773098677396774,9.828462600708008
3.52,0.07098276913166046,-0.03192177042365074,0.018859807401895523,-0.13903383910655975,0.3795482814311981,10.091160774230957
3.54,0.07607519626617432,-0.07742781192064285,-0.00510613014921546,-0.18683242797851562,0.6604166626930237,9.91578197479248
3.56,0.053040195256471634,-0.10453774034976959,-0.02832322008907795,-0.31343162059783936,0.6214238405227661,9.570940971374512
3.58,0.005792491137981415,-0.07550747692584991,-0.027182193472981453,-0.41704341769218445,0.5850255489349365,9.3879976272583
3.6,-0.0679694190621376,-0.04593135416507721,-0.02291610650718212,-0.3609420359134674,0.5655899047851562,9.259562492370605
3.62,-0.013490976765751839,-0.03507358208298683,-0.023570114746689796,-0.03994128480553627,0.47210386395454407,9.37220287322998
3.64,-0.016388937830924988,-0.00413605896756053,0.014440439641475677,0.5421921610832214,0.3660832941532135,9.406330108642578
3.66,-0.04084266722202301,0.021757367998361588,0.02166505716741085,0.9894125461578369,0.3869781196117401,9.09090518951416
3.68,-0.03165704756975174,0.05916732922196388,0.03722013533115387,1.0568040609359741,0.36182600259780884,9.035663604736328
3.7,-0.01068264152854681,0.0818234533071518,0.02242867276072502,0.6624266505241394,0.1532949060201645,9.937588691711426
3.72,-0.05026218295097351,0.11857611685991287,-0.020686112344264984,0.11776801198720932,-0.020229434594511986,10.921646118164062
3.74,0.0004393621638882905,0.10761082917451859,-0.02456684783101082,-0.11077328026294708,-0.05782511457800865,11.323802947998047
3.7600000000000002,0.030510110780596733,0.1360693871974945,-0.022006602957844734,0.010700363665819168,0.13588817417621613,10.259685516357422
3.7800000000000002,0.021489916369318962,0.14382758736610413,-0.021739862859249115,0.1935485452413559,0.28269270062446594,8.59498405456543
3.8000000000000003,0.0034064394421875477,0.089764304459095,-0.02498766779899597,0.09590811282396317,0.2113741636276245,8.402515411376953
3.8200000000000003,-0.017842566594481468,0.06678875535726547,-0.044027842581272125,-0.123267762362957,0.2659933567047119,10.012910842895508
3.84,-0.053436342626810074,0.0790071040391922,-0.06025512143969536,-0.3134784400463104,0.5675125122070312,11.048321723937988
3.86,-0.05045481398701668,0.07477343082427979,-0.052619196474552155,-0.4513096213340759,0.6475421786308289,10.227742195129395
3.88,-0.08232064545154572,0.04134858772158623,-0.023059718310832977,-0.40326109528541565,0.2480691373348236,9.354947090148926
3.9,-0.0753469318151474,0.033806584775447845,-0.004796309862285852,-0.2559394836425781,0.6372067332267761,9.242718696594238
3.92,-0.06766321510076523,0.02483825385570526,0.016604969277977943,-0.5856603384017944,0.4352944493293762,9.598227500915527
3.94,-0.05638569965958595,0.011349448934197426,0.024315685033798218,-0.906791090965271,0.23214903473854065,10.23348331451416
3.96,-0.028642667457461357,0.004556243307888508,0.02154202200472355,-0.8470922708511353,0.12023892253637314,10.953685760498047
3.98,-0.023255327716469765,0.00878447387367487,0.007606766186654568,-0.6557104587554932,-0.21290390193462372,10.064515113830566
4.0,0.00668699573725462,0.0021196824964135885,0.01630834862589836,-0.3842572569847107,-0.49150651693344116,9.060930252075195
4.0200000000000005,0.005812210496515036,-0.023513630032539368,0.008391005918383598,-0.29816681146621704,-0.3618847727775574,9.062250137329102
4.04,0.07083890587091446,-0.045613862574100494,0.002370860194787383,-0.31080594658851624,-0.05935119837522507,9.97198486328125
4.0600000000000005,0.01323147863149643,0.004724082536995411,-0.004246511962264776,-0.4635011851787567,0.4295562505722046,10.395596504211426
4.08,0.015419642440974712,0.03887084126472473,-0.027562128379940987,-0.6427340507507324,0.7275918126106262,9.816818237304688
4.1,0.03580884262919426,0.008402373641729355,-0.023442156612873077,-0.6622208952903748,0.6833377480506897,10.041732788085938
4.12,-0.0014476391952484846,-0.04412801191210747,-0.01493796519935131,-0.4132320284843445,0.3522539436817169,10.433000564575195
4.14,-0.03356359153985977,-0.06215761601924896,-0.0007435611332766712,-0.10680725425481796,0.3218941390514374,10.439970016479492
4.16,-0.009658535942435265,-0.051713306456804276,0.024858754128217697,-0.2185814082622528,0.3572526276111603,10.086073875427246
4.18,-0.07510824501514435,-0.08972019702196121,0.023278528824448586,-0.2910095453262329,0.31155502796173096,9.824244499206543
4.2,-0.07749059051275253,-0.10696417093276978,0.023009641095995903,-0.5110740065574646,0.5694446563720703,9.77046012878418
4.22,-0.03954271972179413,-0.07640436291694641,0.03876740112900734,-0.3857894241809845,0.47034546732902527,9.910416603088379
4.24,-0.06314881145954132,-0.03735169395804405,0.026709504425525665,0.030879152938723564,-0.029936324805021286,9.933670997619629
4.26,0.0010298020206391811,-0.053671810775995255,0.01114602666348219,0.4045006036758423,-0.3816017508506775,9.519662857055664
4.28,0.005588008556514978,-0.0564047247171402,-0.010083307512104511,0.6722848415374756,-0.4942113161087036,9.302689552307129
4.3,-0.0010632788762450218,-0.047125063836574554,-0.009006106294691563,0.5716912150382996,-0.36602258682250977,9.499405860900879
4.32,0.05574692040681839,-0.0069709657691419125,0.0033096401020884514,0.4004010558128357,-0.017954908311367035,9.829729080200195
4.34,0.04290378838777542,-0.011474869213998318,0.010186570696532726,0.42872676253318787,0.22660377621650696,9.647705078125
4.36,0.06138971447944641,-0.008843154646456242,0.020897209644317627,0.32776013016700745,0.3758769929409027,9.706604957580566
4.38,0.10240922123193741,0.01727924309670925,0.026685692369937897,0.03356504440307617,0.2719686031341553,9.935214042663574
4.4,0.0974586009979248,0.03815820440649986,0.015497537329792976,-0.19228823482990265,0.08662427961826324,9.487926483154297
4.42,0.08046333491802216,0.01321157906204462,-0.010083151049911976,-0.27103981375694275,0.2794441282749176,9.20686149597168
4.44,0.08499865978956223,-0.000892144744284451,-0.011719153262674809,-0.28031125664711,0.3013615608215332,9.283592224121094
4.46,0.017697982490062714,0.013220643624663353,-0.01155123207718134,-0.31019365787506104,0.38281336426734924,9.7667236328125
4.48,-0.014247585088014603,0.052600760012865067,-0.011865533888339996,-0.1901533603668213,0.5744190216064453,9.976773262023926
4.5,-0.005516206845641136,0.03980976715683937,0.008482755161821842,-0.027678383514285088,0.6167860627174377,9.506267547607422
4.5200000000000005,-0.021304110065102577,0.04645616561174393,0.01731126196682453,0.058173906058073044,0.6296306848526001,9.522326469421387
4.54,0.05693237856030464,0.09259798377752304,0.027253493666648865,0.12283076345920563,0.4835550785064697,9.80695915222168
4.5600000000000005,-0.01091199740767479,0.11014492064714432,0.01265985332429409,0.15136826038360596,0.3081018924713135,9.854212760925293
4.58,-0.051395758986473083,0.10934684425592422,0.0059342593885958195,0.0935751423239708,0.3064800202846527,9.614826202392578
4.6000000000000005,-0.018379395827651024,0.12737345695495605,-0.006974027957767248,0.008802827447652817,0.18352293968200684,9.571816444396973
4.62,-0.029719369485974312,0.10148138552904129,-0.013830028474330902,-0.00656417990103364,0.02751344069838524,9.772479057312012
4.64,-0.03125884756445885,0.07884933054447174,-0.015928251668810844,0.15933722257614136,0.08278729766607285,9.740306854248047
4.66,-0.0006591303390450776,0.022095326334238052,-0.01813662424683571,0.32255181670188904,0.31973204016685486,9.236119270324707
4.68,-0.030548028647899628,-0.015778375789523125,-0.010225676000118256,0.38026168942451477,0.4827895164489746,9.04341983795166
4.7,-0.014309647493064404,-0.07299614697694778,0.023198861628770828,-0.1813969761133194,0.3000800907611847,9.605392456054688
4.72,0.009317615069448948,-0.08090716600418091,0.046587150543928146,-0.5179656147956848,-0.14343352615833282,10.166367530822754
4.74,0.046579793095588684,-0.042199600487947464,0.05938033387064934,-0.6771543622016907,0.044173985719680786,10.146574974060059
4.76,0.05572717636823654,0.004078137222677469,0.05150727182626724,-0.9280571937561035,0.09951668232679367,9.719367027282715
4.78,0.07157149165868759,0.006351431366056204,0.04842119663953781,-1.0273369550704956,0.1555427461862564,9.484699249267578
4.8,0.09248139709234238,-0.017293691635131836,0.033244188874959946,-0.6550911068916321,0.23924103379249573,10.353046417236328
4.82,0.07684110105037689,-0.05349991098046303,0.0057233781553804874,-0.3361518383026123,0.30914306640625,10.699318885803223
4.84,0.06567952036857605,-0.05497291311621666,-0.024283401668071747,-0.4086955487728119,0.25548920035362244,10.226911544799805
4.86,-0.004239455331116915,-0.06496448069810867,-0.06438466906547546,-0.7149063944816589,0.6168652176856995,9.201356887817383
4.88,-0.019463898614048958,-0.07845072448253632,-0.09557393938302994,-0.9392327666282654,0.6820009350776672,9.323799133300781
4.9,-0.08757489174604416,-0.08940157294273376,-0.0638241320848465,-1.0947070121765137,1.0682984590530396,10.392679214477539
4.92,-0.07341404259204865,-0.06792480498552322,-0.0013892077840864658,-0.9454847574234009,1.106153964996338,11.108893394470215
4.94,-0.07471031695604324,-0.052079636603593826,0.04958576709032059,-0.5872797966003418,0.6698181629180908,9.876423835754395
4.96,-0.06033625826239586,-0.06306138634681702,0.0711798444390297,-0.17988282442092896,0.29134073853492737,8.437127113342285
4.98,-0.046675074845552444,-0.07987159490585327,0.06556761264801025,0.26222527027130127,0.047543104737997055,8.538612365722656
5.0,-0.011402360163629055,-0.07071459293365479,0.035798270255327225,0.0005277914460748434,-0.3343232572078705,9.923371315002441
5.0200000000000005,0.04719550907611847,-0.03545421361923218,0.006365919020026922,-0.07015510648488998,-0.9051351547241211,11.153843879699707
5.04,0.13928104937076569,-0.026380866765975952,0.013580000959336758,-0.21397294104099274,-1.055001974105835,11.017940521240234
5.0600000000000005,0.06041642278432846,-0.011402725242078304,-0.0025854932609945536,-0.0051316162571311,-0.6130404472351074,9.688682556152344
5.08,0.07565418630838394,0.002583992201834917,-0.008428494445979595,0.22638481855392456,0.48188143968582153,8.59085464477539
5.1000000000000005,0.10009744018316269,0.026006361469626427,-0.004959109239280224,0.27706611156463623,0.9230552315711975,9.040265083312988
5.12,0.050550393760204315,0.032898541539907455,-0.025150399655103683,0.003434412879869342,1.2422822713851929,10.23755931854248
5.14,0.07023701071739197,0.009290666319429874,-0.03057585097849369,0.01759890653192997,1.4526318311691284,10.729790687561035
5.16,0.016230670735239983,0.02609580010175705,-0.039767730981111526,0.11403577029705048,0.8167872428894043,10.324877738952637
5.18,-0.06487087905406952,0.091278076171875,-0.04794246330857277,0.08853621780872345,0.18256065249443054,9.634159088134766
5.2,-0.04563087597489357,0.10203792154788971,-0.03430578485131264,0.28404051065444946,0.03650013729929924,9.826766967773438
5.22,-0.12402642518281937,0.061238452792167664,-0.01261148788034916,0.4352751076221466,0.4535379707813263,10.023346900939941
5.24,-0.0642961859703064,0.07523875683546066,0.012717340141534805,0.5421026349067688,0.601123034954071,10.111433029174805
5.26,-0.024999525398015976,0.09433676302433014,0.010239516384899616,0.4129524230957031,0.42720356583595276,9.956890106201172
5.28,-0.04609188064932823,0.11352211236953735,0.0033689953852444887,0.0647406205534935,0.10221321135759354,9.680008888244629
5.3,0.002194624161347747,0.11611132323741913,0.009570568799972534,-0.07872099429368973,-0.2653608024120331,9.609030723571777
5.32,0.058767516165971756,0.10962805151939392,0.007189983036369085,-0.2308017611503601,-0.4425017237663269,9.50648307800293
5.34,0.053905144333839417,0.10820788145065308,0.017179904505610466,-0.3860814571380615,-0.4088308811187744,9.440557479858398
5.36,0.05746717005968094,0.13237519562244415,0.021317217499017715,-0.3184252381324768,-0.20134632289409637,9.514069557189941
5.38,0.0917443037033081,0.08114481717348099,0.020644498988986015,-0.4083728492259979,0.18555022776126862,9.64148998260498
5.4,0.09121059626340866,0.08462324738502502,-0.002046432578936219,-0.6679845452308655,0.6967337727546692,10.095244407653809
5.42,0.10119816660881042,0.12260463833808899,-0.013058080337941647,-0.7699658870697021,0.8602126240730286,10.841299057006836
5.44,0.05888299271464348,0.07193157076835632,-0.03658769652247429,-0.36286211013793945,0.7721230387687683,10.580960273742676
5.46,0.0504031740128994,0.019199006259441376,-0.031144969165325165,-0.11679323762655258,0.5471698641777039,9.078278541564941
5.48,-0.006803814321756363,0.01215201523154974,-0.017711475491523743,-0.3570709228515625,0.38591063022613525,8.549293518066406
5.5,-0.07052560895681381,-0.028445197269320488,0.003682010341435671,-0.5528563857078552,0.8020641207695007,8.769844055175781
5.5200000000000005,-0.08263492584228516,-0.08013460785150528,0.008333543315529823,-0.49204501509666443,1.0655326843261719,9.16416072845459
5.54,-0.08740365505218506,-0.0868147537112236,0.015005904249846935,-0.3132532835006714,0.9560546875,10.004368782043457
5.5600000000000005,-0.1285504698753357,-0.11264809221029282,0.02226841449737549,-0.2143922746181488,0.6038511991500854,10.413411140441895
5.58,-0.07519247382879257,-0.13493724167346954,0.0024288189597427845,-0.3990376889705658,-0.1019253134727478,10.113414764404297
5.6000000000000005,-0.05778658017516136,-0.09987667202949524,-0.020190397277474403,-0.6160942316055298,-0.3606003224849701,9.12995719909668
5.62,-0.08876641094684601,-0.08225695043802261,-0.01887497492134571,-0.9336999654769897,-0.07409857958555222,8.784850120544434
5.64,-0.03216558322310448,-0.07903769612312317,-0.001252770540304482,-0.8547735214233398,0.05526912957429886,9.586366653442383
5.66,0.006602292414754629,-0.05897421017289162,0.005166845396161079,-0.4914655387401581,0.04045804962515831,10.437785148620605
5.68,0.03139819577336311,0.0071214111521840096,0.016519663855433464,-0.17743054032325745,-0.1142863780260086,10.344758033752441
5.7,0.04816090688109398,0.03420734405517578,0.01234801858663559,-0.1798567771911621,-0.033218931406736374,9.908143997192383
5.72,0.01660606823861599,0.011178776621818542,0.009308676235377789,-0.06127065792679787,0.13505113124847412,9.464729309082031
5.74,0.06423100084066391,-0.03297433629631996,0.0010628965683281422,0.15249301493167877,0.49482080340385437,9.51154899597168
5.76,0.03757820650935173,-0.03984645754098892,-0.005638440605252981,0.1518707424402237,0.6564631462097168,10.213089942932129
5.78,0.025629298761487007,-0.04635796695947647,0.008571537211537361,-0.17510685324668884,0.4573928117752075,10.258291244506836
5.8,0.042911771684885025,-0.0794181078672409,0.023722155019640923,-0.5117929577827454,0.30086204409599304,9.923347473144531
5.82,0.06178058311343193,-0.05129082128405571,0.03962533921003342,-0.6238080263137817,0.07894161343574524,9.612469673156738
5.84,0.011472218669950962,-0.03799780458211899,0.03096984140574932,-0.6061660647392273,0.40809106826782227,10.09635066986084
5.86,-0.02855493314564228,-0.057558946311473846,0.014364490285515785,-0.4127369225025177,0.6761119961738586,10.273351669311523
5.88,0.03789965435862541,-0.0635857880115509,-0.02654496394097805,-0.2192380130290985,0.520582377910614,9.834062576293945
5.9,-0.014531432650983334,-0.07447532564401627,-0.0670049786567688,0.0814274325966835,0.4430316388607025,9.632205963134766
5.92,-0.03110210783779621,-0.09101644158363342,-0.07956970483064651,-0.07450944930315018,0.5227292776107788,9.81091594696045
5.94,-0.03110550343990326,-0.0498749203979969,-0.05986832454800606,-0.21780095994472504,0.3870464861392975,9.856218338012695
5.96,-0.04930190369486809,-0.013083068653941154,-0.00526421656832099,-0.10239826142787933,0.36676499247550964,10.082769393920898
5.98,-0.06976557523012161,0.03432619199156761,0.033025212585926056,0.3452206552028656,0.32685062289237976,10.078161239624023
6.0,-0.05230712890625,0.03445224091410637,0.057670459151268005,0.927584171295166,0.5702494978904724,9.812847137451172
6.0200000000000005,-0.0420200489461422,0.038552649319171906,0.05437915027141571,1.0377812385559082,0.38605231046676636,9.628238677978516
6.04,-0.021193254739046097,0.035970475524663925,0.012358227744698524,0.5928988456726074,0.010634195059537888,9.508727073669434
6.0600000000000005,0.031704727560281754,0.04409731552004814,-0.019891157746315002,0.0208937618881464,-0.36468106508255005,9.4801607131958
6.08,0.06601820886135101,0.026110971346497536,-0.024228964000940323,-0.270251989364624,-0.5007725954055786,9.115518569946289
6.1000000000000005,0.031103594228625298,-0.016298070549964905,-0.03349124640226364,-0.15098631381988525,-0.05304514244198799,9.482538223266602
6.12,0.05500219762325287,-0.04632647708058357,-0.006809713318943977,-0.28476482629776,0.5077086687088013,10.519712448120117
6.140000000000001,0.05403062701225281,-0.0585145503282547,0.014353561215102673,-0.6942517161369324,0.43465083837509155,10.879251480102539
6.16,0.05214545875787735,-0.06920848041772842,0.02566814422607422,-1.0824750661849976,0.2928277850151062,10.322410583496094
6.18,-0.0024505681358277798,-0.06639272719621658,0.013196303509175777,-1.108602523803711,0.16939280927181244,8.6082763671875
6.2,-0.030771279707551003,-0.04914901405572891,-0.013245717622339725,-0.719953179359436,0.2961970269680023,8.489113807678223
6.22,-0.026508916169404984,-0.024362843483686447,-0.019780082628130913,-0.4772922992706299,0.6763076186180115,9.72567367553711
6.24,-0.008191579952836037,0.005911224987357855,-0.012772860005497932,-0.545081377029419,0.9828527569770813,10.476308822631836
6.26,-0.030646754428744316,0.00271475687623024,-0.014952629804611206,-0.47695842385292053,0.5770703554153442,10.196431159973145
6.28,-0.06919324398040771,0.021465642377734184,0.010932181030511856,0.6262844204902649,0.35439959168434143,10.025854110717773
6.3,-0.017350293695926666,-0.016060594469308853,0.028092047199606895,1.3889459371566772,0.496699720621109,9.29574203491211
6.32,-0.05476883426308632,-0.01744779199361801,0.03124726377427578,1.2406114339828491,0.22725558280944824,9.317216873168945
6.34,-0.06151522696018219,0.001282094861380756,0.01401179563254118,0.4711797535419464,0.06582551449537277,9.986629486083984
6.36,0.015924403443932533,0.031964726746082306,-0.0010446907253935933,-0.23001599311828613,-0.18077734112739563,10.339767456054688
6.38,-0.02749330922961235,0.06882898509502411,-0.0003015803813468665,-0.4369174540042877,-0.341563880443573,10.033900260925293
6.4,-0.004116755444556475,0.05017709732055664,0.012631640769541264,-0.41887569427490234,0.053312383592128754,9.645756721496582
6.42,0.04001469910144806,0.03282110020518303,0.023484578356146812,-0.16486875712871552,0.28515946865081787,9.962966918945312
6.44,0.06274882704019547,-0.0009295609779655933,0.027451587840914726,0.04416126012802124,0.2340671867132187,10.236188888549805
6.46,0.031759317964315414,-0.051803503185510635,0.022475343197584152,-0.03893796354532242,-0.008707149885594845,9.587133407592773
6.48,0.07949548214673996,-0.09599441289901733,0.008568358607590199,-0.22232024371623993,0.05459798127412796,9.296940803527832
6.5,0.059517376124858856,-0.07255712896585464,-0.018073750659823418,-0.8284623622894287,0.23249061405658722,9.622406005859375
6.5200000000000005,-0.0017034175107255578,-0.05202638357877731,-0.030212277546525,-1.0088675022125244,0.552183985710144,10.339393615722656
6.54,0.05214458331465721,0.0048249526880681515,-0.026801764965057373,-1.0999374389648438,0.9919761419296265,10.647439956665039
6.5600000000000005,0.012584846466779709,0.01659769006073475,-0.021336115896701813,-0.910685658454895,0.8977565169334412,9.735865592956543
6.58,-0.011352743953466415,-0.014865578152239323,-0.00603162357583642,0.09601014852523804,0.4618224799633026,9.107216835021973
6.6000000000000005,-0.013514813035726547,-0.03767680004239082,0.01495015062391758,1.2840065956115723,0.18113769590854645,8.858423233032227
6.62,-0.07058289647102356,-0.027736622840166092,0.004872582387179136,1.2951295375823975,0.16667594015598297,9.33719253540039
6.640000000000001,-0.020925989374518394,-0.023730959743261337,0.005710470024496317,0.7830252647399902,0.13908401131629944,9.9229736328125
6.66,-0.04501011595129967,0.017284758388996124,0.003005867823958397,0.2861470580101013,0.34493106603622437,10.019216537475586
6.68,-0.02466588281095028,0.04819627106189728,0.009227261878550053,-0.04627452418208122,0.2085018903017044,9.251250267028809
6.7,0.02257591299712658,0.0791659727692604,0.014343468472361565,-0.09801625460386276,-0.17343458533287048,9.254887580871582
6.72,0.0715264305472374,0.11195364594459534,0.008174615912139416,-0.018288932740688324,-0.20397880673408508,10.045062065124512
6.74,0.012374352663755417,0.07710658758878708,-0.0004798966401722282,0.07100144028663635,0.01528120320290327,10.3901948928833
6.76,0.03500165790319443,0.03641347214579582,-0.017124362289905548,-0.03835264965891838,0.43478572368621826,10.441564559936523
6.78,0.001331950188614428,0.002550869481638074,-0.052149511873722076,-0.19800294935703278,0.696858823299408,10.181501388549805
6.8,-0.03362370654940605,-0.015859108418226242,-0.07041362673044205,-0.2995634973049164,0.6788841485977173,9.654906272888184
6.82,-0.06468495726585388,0.003968996461480856,-0.062134597450494766,-0.5956942439079285,0.4991162419319153,9.227971076965332
6.84,-0.0566910058259964,0.0003930353850591928,-0.024130001664161682,-0.9228875637054443,0.4982556104660034,9.512121200561523
6.86,-0.06933619827032089,0.0011763061629608274,0.015458667650818825,-1.0480526685714722,0.549861490726471,10.574433326721191
6.88,-0.07005857676267624,7.89548794273287e-05,0.04176805540919304,-0.8116440176963806,0.5958956480026245,10.888675689697266
6.9,-0.053955987095832825,0.0183140579611063,0.03541475906968117,-0.7128199338912964,0.27276065945625305,10.016059875488281
6.92,-0.08630280196666718,0.05584200844168663,0.0007763375760987401,-0.8983615636825562,-0.2804083526134491,9.117716789245605
6.94,-0.03993543982505798,0.030679866671562195,-0.04283684119582176,-0.12325313687324524,-0.4639160931110382,9.157925605773926
6.96,-0.028750929981470108,-0.03671367093920708,-0.06191828101873398,0.6390519738197327,-0.2215753048658371,9.624091148376465
6.98,0.010506846010684967,-0.04091910645365715,-0.031141171231865883,0.9555646181106567,-0.19210857152938843,10.568184852600098
7.0,0.04953647777438164,-0.10020749270915985,0.009864517487585545,0.38549819588661194,-0.12958316504955292,11.279354095458984
7.0200000000000005,0.07754131406545639,-0.14786426723003387,0.03408685326576233,-0.30589067935943604,-0.12501336634159088,10.299705505371094
7.04,0.06947622448205948,-0.13050612807273865,0.04015880450606346,-0.6648587584495544,-0.09718509763479233,9.087071418762207
7.0600000000000005,0.09431694447994232,-0.11199351400136948,0.024930590763688087,-0.6126714944839478,-0.2527080178260803,8.717521667480469
7.08,0.10869082808494568,-0.10265188664197922,-0.019408222287893295,-0.5106097459793091,-0.041222795844078064,9.27978515625
7.1000000000000005,0.07178966701030731,-0.10975232720375061,-0.050046805292367935,0.0007788374205119908,0.3898327350616455,9.79953384399414
7.12,0.06500663608312607,-0.1053733080625534,-0.042025331407785416,0.47562387585639954,0.6928035020828247,10.263296127319336
7.140000000000001,0.02556561306118965,-0.05029505118727684,-0.033019158989191055,0.5397860407829285,0.8801101446151733,10.60849380493164
7.16,0.057139769196510315,0.0014016031054779887,-0.006992749869823456,0.6696931719779968,0.846381664276123,9.669673919677734
7.18,0.0011110182385891676,-0.003735856618732214,-0.00016715859237592667,0.790632426738739,0.6318169832229614,8.659955024719238
7.2,-0.043554358184337616,0.0006570842233486474,0.005493541248142719,0.7919386029243469,0.5392429828643799,8.950217247009277
7.22,-0.037978895008563995,0.054510582238435745,-0.00194675347302109,0.370649516582489,0.5978445410728455,9.880847930908203
7.24,-0.02493271976709366,0.07500641793012619,-0.010634984821081161,0.11130567640066147,0.4427669048309326,9.962608337402344
7.26,-0.1022820696234703,0.02327408827841282,-0.028826609253883362,-0.25211983919143677,0.046744655817747116,10.15266227722168
7.28,-0.12623295187950134,0.012163701467216015,-0.02039797231554985,-0.33393070101737976,0.08064576238393784,9.998023986816406
7.3,-0.05336775258183479,0.04282207787036896,-0.033965446054935455,-0.23430639505386353,0.08471670746803284,9.65317440032959
7.32,-0.1032807007431984,0.0017306858208030462,-0.026674220338463783,-0.09291131049394608,0.34767839312553406,9.28614616394043
7.34,-0.06309658288955688,-0.033413395285606384,-0.020044969394803047,0.07037508487701416,0.46898606419563293,9.275754928588867
7.36,-0.020633278414607048,-0.054112859070301056,-0.004385397303849459,0.014255166985094547,0.10435076057910919,10.00710391998291
7.38,0.014053530059754848,-0.04250839352607727,0.005048832856118679,-0.33985379338264465,-0.296066015958786,10.583470344543457
7.4,-0.03328018635511398,-0.06576160341501236,0.007009991444647312,-0.4453356862068176,-0.3061648905277252,9.977904319763184
7.42,0.001617526519112289,-0.09048519283533096,0.00714298989623785,-0.37295445799827576,-0.10185889154672623,9.245952606201172
7.44,0.02010735124349594,-0.06566109508275986,0.02388725057244301,-0.4880407452583313,-0.1452309936285019,9.705925941467285
7.46,0.039160482585430145,-0.006759834010154009,0.020774507895112038,-0.6536752581596375,-0.005741757340729237,10.301445007324219
7.48,0.0035679801367223263,0.003402512287721038,0.005892015993595123,0.03102099895477295,0.22629263997077942,10.130223274230957
7.5,0.0074151661247015,-0.034380801022052765,-0.011040770448744297,1.0958685874938965,0.38355594873428345,9.409876823425293
7.5200000000000005,0.05673268437385559,-0.03157651051878929,-0.01704077422618866,1.3798460960388184,0.3591894805431366,9.4988431930542
7.54,0.02504572831094265,0.017376624047756195,-0.018908537924289703,0.8515265583992004,0.12655138969421387,9.812299728393555
7.5600000000000005,0.07009439170360565,0.05248330160975456,-0.011187538504600525,0.32835662364959717,0.19085825979709625,9.831663131713867
7.58,0.03453793376684189,0.0657443255186081,0.007858593948185444,-0.05752113088965416,0.2516018748283386,9.958425521850586
7.6000000000000005,0.020522188395261765,0.09409423917531967,0.013065122067928314,0.04247177764773369,0.7116934061050415,9.7998685836792
7.62,0.009977701120078564,0.10825319588184357,-0.0013997876085340977,0.3850451111793518,0.6138744950294495,9.009364128112793
7.640000000000001,-0.08516248315572739,0.13062229752540588,-0.011064748279750347,0.6055256128311157,0.5691120028495789,9.576864242553711
7.66,-0.07181849330663681,0.10354866832494736,-0.027071136981248856,0.2634725868701935,0.5734266638755798,10.445832252502441
7.68,-0.06338270008563995,0.04369731619954109,-0.03854018449783325,-0.2399408221244812,0.006442563608288765,10.208136558532715
7.7,-0.08821370452642441,-0.0239715613424778,-0.06829220056533813,-0.1346874237060547,-0.0470426008105278,9.49731159210205
7.72,-0.07277598977088928,-0.06281965225934982,-0.06656908988952637,0.02107023075222969,0.3628688454627991,9.131628036499023
7.74,-0.05401944741606712,-0.10042824596166611,-0.041309356689453125,-0.22226013243198395,0.4545958638191223,9.421416282653809
7.76,-0.07775744795799255,-0.13713978230953217,0.0037361127324402332,-0.3945581614971161,-0.13587336242198944,9.75379753112793
7.78,-0.08199431747198105,-0.1236298531293869,0.017581038177013397,-0.8300371170043945,-0.45909440517425537,9.923224449157715
7.8,-0.034721117466688156,-0.06230737268924713,0.026749061420559883,-0.8730632066726685,-0.5015395879745483,10.212169647216797
7.82,0.015363819897174835,-0.04233942925930023,0.01977531798183918,-0.8219349384307861,-0.29472464323043823,10.202109336853027
7.84,-0.04202666133642197,-0.020391760393977165,0.003002756740897894,-0.410538911819458,0.09107577800750732,9.680163383483887
7.86,-0.014521226286888123,0.00981172639876604,-0.01484027411788702,-0.4112662672996521,0.18596284091472626,10.060463905334473
7.88,-0.07434605062007904,0.008309849537909031,-0.044740743935108185,-0.3170553743839264,0.4740375876426697,9.947284698486328
7.9,-0.11522789299488068,-0.010759174823760986,-0.04887291416525841,0.1354970484972,0.46125534176826477,9.7042875289917
7.92,-0.11738204210996628,-0.05785585939884186,-0.04570808634161949,0.5367846488952637,0.47698095440864563,9.485239028930664
7.94,-0.08223220705986023,-0.08715587109327316,-0.017999058589339256,0.7008863091468811,0.42785727977752686,10.196006774902344
7.96,-0.05910202115774155,-0.067245714366436,0.01862773299217224,0.3773233890533447,-0.16669973731040955,10.388197898864746
7.98,-0.09814852476119995,-0.04373142868280411,0.032455358654260635,0.15915927290916443,-0.438134104013443,10.10843276977539
8.0,-0.028446488082408905,-0.0008183494792319834,0.051185257732868195,-0.24982979893684387,-0.33837243914604187,9.852639198303223
8.02,-0.01277258712798357,0.04304976761341095,0.07164715230464935,-0.0715709775686264,-0.2921046018600464,9.636879920959473
8.040000000000001,0.036074090749025345,0.06347279250621796,0.05447264388203621,0.6955009698867798,-0.284910649061203,9.508852005004883
8.06,0.05582256242632866,0.08517979830503464,0.021196238696575165,1.3363662958145142,-0.21514303982257843,9.573616981506348
8.08,0.0880642980337143,0.12134595960378647,-0.0157758928835392,1.354400396347046,-0.30964627861976624,10.02012825012207
8.1,0.13037976622581482,0.15049226582050323,-0.005022034514695406,0.8854869604110718,-0.406132310628891,10.325399398803711
8.120000000000001,0.12046527862548828,0.13931040465831757,0.008766507729887962,0.32148316502571106,-0.2859300971031189,10.207732200622559
8.14,0.09560319781303406,0.1394936740398407,0.01574310101568699,0.07071658968925476,0.06610569357872009,9.312948226928711
8.16,0.01891149953007698,0.12271573394536972,-0.0007599883247166872,-0.13915765285491943,0.5334120392799377,9.094210624694824
8.18,0.01347164437174797,0.09668179601430893,0.0008046310977078974,-0.15530750155448914,0.9273951053619385,9.339395523071289
8.2,-0.013013770803809166,0.040666889399290085,-0.004727126099169254,-0.25242942571640015,0.7853971123695374,9.900492668151855
8.22,-0.06785444915294647,-0.007452758960425854,-0.01566399075090885,-0.35142168402671814,0.8272411227226257,10.186173439025879
8.24,-0.06216006726026535,-0.015147575177252293,-0.04087790101766586,-0.7091657519340515,0.5567641258239746,9.833498001098633
8.26,-0.09787435084581375,0.008625216782093048,-0.04206063598394394,-1.2604482173919678,0.02451142854988575,9.706215858459473
8.28,-0.14510846138000488,0.011310034431517124,-0.03590383380651474,-1.1879453659057617,0.0964585468173027,9.936192512512207
8.3,-0.09183181822299957,-0.0004358781734481454,-0.014884299598634243,-0.7396432757377625,-0.15531907975673676,9.642849922180176
8.32,-0.09471839666366577,-0.002905267523601651,0.004821103997528553,-0.3810165524482727,-0.35627061128616333,9.666912078857422
8.34,-0.05995602905750275,-0.021193617954850197,0.017300723120570183,-0.20766809582710266,-0.322163462638855,9.510990142822266
8.36,-0.05078813433647156,-0.028520340099930763,0.021727129817008972,-0.2747882902622223,-0.20188598334789276,9.255703926086426
8.38,-0.004859133157879114,-0.03605843707919121,0.013099418953061104,0.021693527698516846,-0.048578523099422455,9.603110313415527
8.4,-0.0015039629070088267,-0.03990230709314346,0.01349481288343668,0.5068551898002625,-0.09708058089017868,10.153909683227539
8.42,0.0387117825448513,-0.024902019649744034,-0.0011252830736339092,0.5703853368759155,-0.06972358375787735,10.6456880569458
8.44,0.03205735236406326,0.015433107502758503,0.023622598499059677,0.48856446146965027,-0.24331964552402496,10.394535064697266
8.46,0.04489392787218094,0.01074000634253025,0.011194142512977123,0.38182687759399414,-0.2126711905002594,9.573862075805664
8.48,0.05570859834551811,0.019342344254255295,0.011904039420187473,0.2610586881637573,0.06639554351568222,9.152569770812988
8.5,0.04491855949163437,0.017196716740727425,-0.0007838765741325915,0.2272278368473053,0.003617283422499895,9.2368745803833
8.52,0.03219141438603401,0.04157271981239319,-0.0162233617156744,0.09791912883520126,0.0038084909319877625,10.005457878112793
8.540000000000001,0.0547342449426651,0.058250315487384796,-0.02985946647822857,-0.03183989226818085,0.08130615204572678,10.260171890258789
8.56,0.053993143141269684,0.048294518142938614,-0.017000652849674225,-0.08650616556406021,0.029044773429632187,9.81485652923584
8.58,0.054798826575279236,0.05206921324133873,0.004552066791802645,0.05902848392724991,0.013523397967219353,9.169595718383789
8.6,0.020467517897486687,-0.008136505261063576,0.024567658081650734,0.22525452077388763,0.03498786687850952,8.956307411193848
8.620000000000001,0.033095523715019226,-0.050851382315158844,0.03667974844574928,0.2648735046386719,0.1853591501712799,9.295434951782227
8.64,0.012991099618375301,-0.08387114107608795,0.02339067868888378,-0.18592683970928192,0.39808958768844604,10.004593849182129
8.66,0.0036927557084709406,-0.10972706973552704,-0.010026859119534492,-0.4478064477443695,0.5355885028839111,10.315825462341309
8.68,-0.006074330769479275,-0.07144985347986221,-0.005345454439520836,-0.939656138420105,0.5349743366241455,9.864294052124023
8.700000000000001,0.013256526552140713,0.006021654698997736,-0.014358587563037872,-1.19537353515625,-0.0795506089925766,10.183734893798828
8.72,0.02806977741420269,0.03737657517194748,-0.0072378735058009624,-0.8428636193275452,-0.4408529996871948,10.210701942443848
8.74,0.021161800250411034,0.01049630157649517,-0.01138152927160263,-0.5167768597602844,-0.17124459147453308,9.664227485656738
8.76,-0.022141439840197563,0.02069365233182907,-0.005354670342057943,-0.3049945831298828,0.2317568063735962,9.620750427246094
8.78,-0.048545707017183304,0.032982345670461655,-0.009781159460544586,-0.10033794492483139,0.48166242241859436,10.069646835327148
8.8,0.005926740355789661,-0.013651053421199322,-0.018037907779216766,0.45900759100914,0.47310692071914673,10.099444389343262
8.82,-0.07429789751768112,-0.06412327289581299,-0.03353768587112427,0.48752814531326294,0.27341529726982117,9.856764793395996
8.84,-0.06910169869661331,-0.03610476106405258,-0.049536433070898056,0.3312835097312927,-0.07713408768177032,9.815185546875
8.86,-0.045194465667009354,-0.02332097850739956,-0.03247709572315216,0.19100457429885864,-0.17177094519138336,9.465946197509766
8.88,-0.05401327833533287,-0.046270497143268585,-0.01737804524600506,0.07310762256383896,-0.21801243722438812,9.845352172851562
8.9,-0.041009802371263504,-0.05056653916835785,0.0013388190418481827,-0.11296539008617401,-0.009501341730356216,10.43370246887207
8.92,-0.050933949649333954,-0.03832102194428444,0.018598012626171112,-0.24569828808307648,0.14706170558929443,10.376581192016602
8.94,-0.0733601450920105,-0.045324452221393585,-0.007075316738337278,-0.32657068967819214,0.05199912190437317,9.77433967590332
8.96,-0.02179108001291752,-0.06870561838150024,-0.03151917830109596,-0.20501047372817993,-0.15222828090190887,9.789390563964844
8.98,-0.0951586589217186,-0.08185163140296936,-0.04555100202560425,-0.04455040395259857,-0.12910664081573486,9.94204330444336
9.0,-0.05460371449589729,-0.040293850004673004,-0.039264578372240067,0.006944198627024889,-0.016528960317373276,9.912683486938477
9.02,-0.07977030426263809,-0.03512023761868477,-0.020183835178613663,0.21210895478725433,-0.23994454741477966,9.428595542907715
9.040000000000001,-0.08014843612909317,-0.04607906937599182,0.006629087496548891,0.5131446123123169,-0.11230094730854034,8.874370574951172
9.06,-0.03557567298412323,-0.025427227839827538,0.017997661605477333,0.6216784715652466,0.14327450096607208,8.96452808380127
9.08,-0.03521332889795303,0.004772030282765627,0.031610481441020966,0.46854639053344727,-0.07842309772968292,9.615412712097168
9.1,-0.027432359755039215,0.021489497274160385,0.015971677377820015,0.29817184805870056,-0.2668027877807617,10.38900375366211
9.120000000000001,0.007384634111076593,0.02392929419875145,0.008285232819616795,0.10574004799127579,-0.48881977796554565,10.719082832336426
9.14,0.02568148262798786,0.02457195520401001,-0.0011043376289308071,-0.04285893216729164,-0.45032942295074463,10.125812530517578
9.16,0.017689501866698265,0.023585807532072067,0.0002062572311842814,-0.09410922974348068,-0.19300860166549683,9.965087890625
9.18,0.0851249024271965,-0.024773919954895973,0.0025117583572864532,0.009452585130929947,-0.42632555961608887,9.574186325073242
9.200000000000001,0.030677611008286476,-0.0609692707657814,-0.011255108751356602,-0.04754479229450226,-0.35778501629829407,8.86180591583252
9.22,0.05066347494721413,-0.09969452023506165,-0.011767109856009483,0.07414237409830093,-0.06313539296388626,8.878310203552246
9.24,0.09161031991243362,-0.09032352268695831,-0.009164326824247837,-0.14855346083641052,0.15842491388320923,9.404298782348633
9.26,0.07627693563699722,-0.05283256247639656,-0.005775638855993748,-0.38637322187423706,0.22844721376895905,10.48145580291748
9.28,0.022943783551454544,-0.01461979653686285,-0.006407923996448517,-0.8432177901268005,0.21723558008670807,11.17589282989502
9.3,0.01321007963269949,-0.0027094618417322636,-0.0026000752113759518,-0.8311606049537659,0.13568297028541565,10.489212989807129
9.32,-0.0023701731115579605,-0.012135840021073818,-0.01707133650779724,-0.3783717155456543,0.0671844482421875,9.603671073913574
9.34,-0.004988361615687609,0.032055240124464035,-0.016993146389722824,0.7195115685462952,-0.0942852720618248,8.802227020263672
9.36,-0.03186274692416191,0.013243239372968674,-0.019007625058293343,1.461138129234314,0.0028904711361974478,8.91201114654541
9.38,-0.04892800375819206,-0.03822741657495499,-0.012589855119585991,1.2582319974899292,0.35602912306785583,9.523185729980469
9.4,-0.06851719319820404,-0.03931644186377525,-0.01715068891644478,0.6066449284553528,0.4197286069393158,10.239315032958984
9.42,-0.07091159373521805,0.02132696472108364,-0.0099849384278059,0.06624177098274231,0.3727511167526245,10.763710021972656
9.44,-0.08056233823299408,0.021184416487812996,-0.012994349002838135,-0.08524801582098007,-0.14003005623817444,10.133150100708008
9.46,-0.04951123520731926,0.004466017708182335,-0.017042670398950577,-0.09560786932706833,-0.5840269327163696,9.300979614257812
9.48,-0.04433080926537514,0.035977959632873535,0.005175661761313677,-0.02079763263463974,-0.668636679649353,9.499377250671387
9.5,0.005201803054660559,0.018985243514180183,0.023698661476373672,-0.14669910073280334,-0.38224348425865173,9.414261817932129
9.52,0.006083424668759108,-0.010189011693000793,0.020215818658471107,-0.1370534896850586,-0.03491497412323952,9.676036834716797
9.540000000000001,0.023495640605688095,-0.0024873537477105856,0.020198294892907143,0.007645297795534134,-0.08081233501434326,9.923087120056152
9.56,0.023229200392961502,0.0016884399810805917,0.018395721912384033,0.1987878978252411,-0.20920886099338531,10.135552406311035
9.58,0.06157274916768074,-0.019570162519812584,0.00406062975525856,0.30655357241630554,-0.66682368516922,9.868431091308594
9.6,0.05826457962393761,-0.055543385446071625,-0.009207495488226414,0.2174776792526245,-0.48175305128097534,9.936500549316406
9.620000000000001,0.09681317210197449,-0.05424967035651207,-0.021290378645062447,-0.0015313959447667003,-0.30103009939193726,9.974413871765137
9.64,0.05402578413486481,-0.07070102542638779,-0.023629281669855118,-0.11037896573543549,-0.05897420272231102,9.428133010864258
9.66,0.0499776266515255,-0.026903698220849037,-0.009161382913589478,-0.3136688768863678,0.5760350823402405,9.336647987365723
9.68,0.053099196404218674,0.002213341649621725,-0.007841280661523342,-0.37781834602355957,0.7442077994346619,9.536806106567383
9.700000000000001,0.06983984261751175,-0.02140955626964569,-0.010303542017936707,0.04515977203845978,0.4753347933292389,9.834030151367188
9.72,0.04448398947715759,-0.024262676015496254,0.012974472716450691,0.6527890563011169,0.18481327593326569,10.170533180236816
9.74,0.00968767236918211,-0.022329049184918404,0.02515176311135292,0.8558538556098938,-0.023973839357495308,10.05694580078125
9.76,-0.03802162781357765,-0.04184826463460922,0.0021569228265434504,0.6046143770217896,-0.13784177601337433,9.532083511352539
9.78,-0.004182485863566399,-0.06819362193346024,-0.0009790245676413178,0.09878317266702652,-0.10877179354429245,9.678621292114258
9.8,-0.01519735623151064,-0.03146045655012131,0.004133757669478655,-0.2844737470149994,-0.21869394183158875,9.952008247375488
9.82,0.015526862815022469,-0.011657310649752617,0.028659729287028313,-0.3934217095375061,0.0157097689807415,10.056356430053711
9.84,0.020159976556897163,-0.005222631618380547,0.023005807772278786,-0.22421039640903473,0.009801694191992283,9.869961738586426
9.86,0.049869753420352936,-0.030771659687161446,-0.009080187417566776,0.1701124757528305,-0.16245056688785553,10.359187126159668
9.88,-0.002798930276185274,-0.06302251666784286,-0.036749064922332764,0.4422514736652374,-0.19321955740451813,10.650104522705078
9.9,0.02841176465153694,-0.07531198859214783,-0.03319690003991127,0.3361058533191681,-0.1879340559244156,10.182448387145996
9.92,-0.013410931453108788,-0.05000736191868782,-0.030584361404180527,0.119524285197258,-0.15392598509788513,9.162493705749512
9.94,-0.025809407234191895,-0.031823787838220596,-0.01709466613829136,0.0959339290857315,0.512302577495575,8.73222827911377
9.96,-0.026217332109808922,0.005357477813959122,-0.013084108941257,0.0068440823815763,0.8877825140953064,9.76361083984375
9.98,-0.03709941357374191,0.04407420754432678,-0.0010827999794855714,0.2780265212059021,0.5796246528625488,10.450743675231934
10.0,-0.02312493324279785,0.059251818805933,-0.009855879470705986,0.9217286705970764,0.35171204805374146,10.111907005310059
10.02,-0.06254973262548447,0.03166709840297699,-0.009064117446541786,1.2232420444488525,-0.027506478130817413,9.236722946166992
10.040000000000001,-0.05664954334497452,0.05429739132523537,-0.017735954374074936,0.9270521998405457,-0.3885473310947418,9.41133975982666
10.06,-0.11715827882289886,0.09110035002231598,-0.02446078695356846,0.490212619304657,-0.24750898778438568,9.94365406036377
10.08,-0.06035478040575981,0.07690492272377014,-0.007048603612929583,0.15970809757709503,-0.012320148758590221,9.962542533874512
10.1,0.010948337614536285,0.07236229628324509,0.023083774372935295,0.054376259446144104,-0.1295451521873474,9.732142448425293
10.120000000000001,-0.00309972302056849,0.048959970474243164,0.0354771725833416,-0.05039308965206146,-0.37791651487350464,9.609984397888184
10.14,0.013415995053946972,0.029088353738188744,0.04782625287771225,-0.22079022228717804,-0.5422135591506958,9.630387306213379
10.16,0.04029444605112076,-0.020530937239527702,0.038372501730918884,-0.2607423663139343,-0.38973164558410645,9.930158615112305
10.18,0.03753392770886421,-0.06760403513908386,0.026360448449850082,-0.3827780783176422,-0.13304395973682404,10.128403663635254
10.200000000000001,0.04946596920490265,-0.08582194894552231,0.004733342677354813,-0.4439160227775574,0.1103934720158577,9.813861846923828
10.22,0.0032565947622060776,-0.03416857123374939,-0.011877714656293392,-0.8247875571250916,0.35915806889533997,9.62269115447998
10.24,-0.023868631571531296,0.014581414870917797,-0.026646975427865982,-1.1924102306365967,0.2033180296421051,10.218660354614258
10.26,-0.009717491455376148,-0.0038206689059734344,-0.0018240462522953749,-0.76518315076828,-0.036604996770620346,10.583041191101074
10.28,-0.04536265507340431,-0.0355357900261879,0.04472208395600319,0.26677754521369934,-0.1526569128036499,9.759125709533691
10.3,0.031095340847969055,-0.043111346662044525,0.08928122371435165,0.8518080115318298,-0.11130181699991226,9.069477081298828
10.32,-0.01552010141313076,-0.06340941041707993,0.09218725562095642,0.8614403009414673,-0.16042813658714294,9.103656768798828
10.34,0.01369494292885065,-0.11358886957168579,0.07219642400741577,0.8369899988174438,0.18918894231319427,9.620552062988281
10.36,-0.005510217510163784,-0.17429812252521515,0.04207979887723923,0.7914509773254395,0.47301825881004333,10.154092788696289
10.38,-0.0351686105132103,-0.15291127562522888,-0.009716774336993694,0.5606193542480469,0.3999808728694916,10.290494918823242
10.4,0.03141794726252556,-0.085185706615448,-0.049865808337926865,0.3139286935329437,0.04344938322901726,9.856600761413574
10.42,-0.06501288712024689,-0.020720941945910454,-0.07862351089715958,0.2450510412454605,-0.1877666562795639,9.557994842529297
10.44,-0.019803768023848534,-0.026188574731349945,-0.060225214809179306,0.3047860264778137,-0.09871961176395416,9.202102661132812
10.46,-0.006962388753890991,0.009450096637010574,-0.027504848316311836,0.36821597814559937,-0.07070017606019974,8.967805862426758
10.48,-0.04996997117996216,0.06427671760320663,-8.105981396511197e-05,0.5716137290000916,0.14383183419704437,8.72981071472168
10.5,0.017348971217870712,0.08269018679857254,0.015018471516668797,0.9643070697784424,0.17599724233150482,9.951006889343262
10.52,-0.02773006074130535,0.0699664056301117,0.007111866492778063,1.242536187171936,0.14719858765602112,11.302169799804688
10.540000000000001,0.009293140843510628,0.02614278718829155,0.007233650889247656,1.1180663108825684,-0.3027121126651764,11.27800464630127
10.56,0.027996109798550606,0.025495324283838272,-0.006084837485104799,0.6134490370750427,-0.47639328241348267,9.458690643310547
10.58,-0.009661362506449223,0.05305371433496475,-0.008007006719708443,0.21623903512954712,-0.33399757742881775,7.903335094451904
10.6,0.021269192919135094,0.026195786893367767,0.003792855190113187,0.1667472869157791,-0.15938091278076172,8.209410667419434
10.620000000000001,-0.010337059386074543,0.035125669091939926,0.012318991124629974,-0.0212155319750309,0.19164657592773438,10.003110885620117
10.64,0.022656681016087532,0.029979035258293152,0.026463886722922325,-0.34385472536087036,0.4331381916999817,11.141234397888184
10.66,0.035267822444438934,0.022771408781409264,0.03123958595097065,-0.2815397083759308,-0.16257861256599426,10.589383125305176
10.68,-0.0005978738772682846,0.03834082931280136,0.011319496668875217,-0.0008493203204125166,-0.14449192583560944,9.757983207702637
10.700000000000001,-0.011126657947897911,0.028675146400928497,-0.0007330648950301111,0.16545222699642181,0.0072867777198553085,9.172748565673828
10.72,0.010865271091461182,0.009808401577174664,-0.010036902502179146,0.08929519355297089,0.06662951409816742,9.139034271240234
10.74,-0.02594192512333393,0.0341905876994133,0.0014938327949494123,-0.08741754293441772,0.2679579555988312,10.235123634338379
10.76,0.012676231563091278,0.012204841710627079,0.015050588175654411,-0.08002704381942749,0.1051933616399765,10.73660659790039
10.78,0.01798369735479355,-0.021440211683511734,0.022781582549214363,-0.1665501445531845,-0.3433830440044403,10.128695487976074
10.8,-0.02653379738330841,-0.037055861204862595,0.021675530821084976,-0.458342581987381,-0.3386234939098358,9.724883079528809
10.82,0.06370024383068085,-0.05527267977595329,0.03877457603812218,-0.6019436120986938,-0.32366806268692017,9.709210395812988
10.84,0.050808459520339966,-0.09794998914003372,0.050862714648246765,-0.4646075367927551,-0.2545221149921417,9.904510498046875
10.86,0.04195963591337204,-0.05871149152517319,0.058559540659189224,-0.46029767394065857,0.22899600863456726,10.07723331451416
10.88,0.09879107028245926,-0.01864439994096756,0.039929669350385666,-0.19388353824615479,0.16852864623069763,10.088196754455566
10.9,0.07785358279943466,-0.055952027440071106,0.007840091362595558,0.5987860560417175,0.03187183663249016,10.106915473937988
10.92,0.0849665105342865,-0.08172788470983505,-0.0037443870678544044,0.9309786558151245,0.10909117013216019,9.793329238891602
10.94,0.05808026343584061,-0.06896986067295074,-0.009906417690217495,0.9596472382545471,0.06804846227169037,9.490017890930176
10.96,0.05348849296569824,-0.05018245056271553,-0.04070330411195755,0.9476673007011414,-0.08496934175491333,9.907015800476074
10.98,-0.006027791183441877,-0.039672210812568665,-0.0461985319852829,0.8878738880157471,0.007323191035538912,9.970870971679688
11.0,0.0349104180932045,0.00932075921446085,-0.026392873376607895,0.7700859308242798,0.3033631443977356,9.525238990783691
11.02,0.04428113251924515,0.03658784180879593,-0.000694980553817004,0.8670414686203003,0.2585482895374298,9.003058433532715
11.040000000000001,0.0697389543056488,0.06203140690922737,0.027405675500631332,0.9968417882919312,0.1415959894657135,8.60220718383789
11.06,0.08654893189668655,0.08760508894920349,0.049103714525699615,1.0218621492385864,0.11296982318162918,9.048833847045898
11.08,0.08332289010286331,0.09952697157859802,0.03407834842801094,0.8087819218635559,-0.2468642294406891,10.284586906433105
11.1,0.04787018895149231,0.0790913850069046,0.0008583050803281367,0.5216451287269592,0.011384570971131325,10.823307991027832
11.120000000000001,0.03554150462150574,0.03235595300793648,-0.017799466848373413,0.18552561104297638,0.19166605174541473,10.696314811706543
11.14,0.019543875008821487,0.033584076911211014,-0.02269563637673855,0.15146929025650024,-0.08294603228569031,9.486862182617188
11.16,-0.004791795276105404,-0.014524106867611408,-0.008259613066911697,0.1684764325618744,0.19092552363872528,8.697267532348633
11.18,-0.07650725543498993,-0.06227210909128189,-0.0020717100705951452,-0.09549182653427124,0.6256820559501648,8.932449340820312
11.200000000000001,-0.10793013125658035,-0.05299606919288635,0.005631843116134405,-0.8744306564331055,1.2049269676208496,10.371347427368164
11.22,-0.06105780601501465,0.016261009499430656,0.005197585094720125,-1.3061474561691284,0.6294873356819153,10.914409637451172
11.24,-0.11523837596178055,0.045090287923812866,-0.012298944406211376,-0.7802108526229858,0.12189491838216782,10.27318286895752
11.26,-0.06302756816148758,0.04580414667725563,-0.010121596977114677,-0.4684823155403137,0.1510671228170395,9.39577865600586
11.28,-0.034702785313129425,0.06584342569112778,0.007142091169953346,-0.16709470748901367,-0.5269415378570557,9.0172758102417
11.3,-0.023317573592066765,0.0806829035282135,-0.0018160745967179537,1.018008828163147,-0.37324389815330505,9.332535743713379
11.32,0.05575612559914589,0.056393176317214966,0.005514801014214754,1.593292474746704,-0.16872602701187134,9.7919282913208
11.34,0.03939388692378998,0.0473012700676918,0.02151522971689701,1.454089879989624,-0.3343949615955353,10.2705659866333
11.36,0.07574442774057388,0.03731983155012131,-0.00024261102953460068,0.6395250558853149,-0.5645629167556763,10.54175090789795
11.38,-0.010924686677753925,0.10760293900966644,-0.01596149429678917,-0.11136749386787415,-0.45025503635406494,10.647916793823242
11.4,-0.01909559965133667,0.16144336760044098,-0.01965482160449028,0.023996617645025253,0.013093717396259308,9.553072929382324
11.42,-0.0229810681194067,0.1199481412768364,-0.029736656695604324,0.39486825466156006,0.21083375811576843,8.879659652709961
11.44,0.021387694403529167,0.07881352305412292,-0.01663808710873127,0.48124080896377563,0.7518969178199768,9.080634117126465
11.46,-0.02754201740026474,0.07442901283502579,-0.00620292266830802,0.3095230460166931,0.8205554485321045,9.877720832824707
11.48,-0.046528782695531845,0.04109734296798706,-0.010906475596129894,-0.032046377658843994,0.8871269226074219,10.435283660888672
11.5,-0.031786929816007614,-0.0160514023154974,0.004735829308629036,-0.25219786167144775,0.11388470977544785,10.02687931060791
11.52,-0.06276783347129822,-0.012981944717466831,-0.0011395912151783705,-0.1762980967760086,-0.5055171847343445,9.496285438537598
11.540000000000001,-0.07536737620830536,-0.0034841110464185476,0.014062684960663319,-0.45899733901023865,-0.3116403818130493,9.820250511169434
11.56,0.0023799934424459934,-0.022619890049099922,0.0036589307710528374,-0.7305425405502319,-0.5366694927215576,10.042560577392578
11.58,-0.00044700183207169175,-0.052461616694927216,0.00010676423698896542,-0.7079553604125977,-0.29832693934440613,9.679790496826172
11.6,0.015650508925318718,-0.047632187604904175,0.0123537452891469,-0.5302255749702454,0.06566473096609116,9.498173713684082
11.620000000000001,0.01988559029996395,-0.09541727602481842,0.010469922795891762,-0.3501874506473541,-0.029154764488339424,9.45074462890625
11.64,0.06242740899324417,-0.14784957468509674,0.003892221488058567,-0.06813697516918182,-0.22930878400802612,9.442671775817871
11.66,0.005073354113847017,-0.1155315414071083,-0.01659170165657997,0.011579311452805996,-0.10746589303016663,9.95413875579834
11.68,0.009140356443822384,-0.0533992201089859,-0.033466074615716934,-0.3262433111667633,0.198485866189003,10.394065856933594
11.700000000000001,0.006938434671610594,-0.013560334220528603,-0.04106385260820389,-0.3147691786289215,0.4842168688774109,9.717644691467285
11.72,-0.07499956339597702,-0.045279473066329956,-0.04936918243765831,0.6017121076583862,0.5205972790718079,9.264249801635742
11.74,-0.07681915909051895,-0.03473516181111336,-0.02427404373884201,1.2686173915863037,0.33449026942253113,9.709227561950684
11.76,-0.08383549749851227,-0.02420320175588131,0.007017762400209904,1.5396881103515625,0.20584037899971008,10.48091983795166
11.78,-0.07258967310190201,-0.04543743282556534,0.03348596394062042,1.2735553979873657,0.11910111457109451,10.496203422546387
11.8,-0.10887039452791214,-0.04604361206293106,0.017195282503962517,0.5570764541625977,-0.12575113773345947,9.480834007263184
11.82,-0.09361369907855988,-0.011904943734407425,-0.0040056235156953335,-0.11163245886564255,0.1323850303888321,8.9722261428833
11.84,0.0073972102254629135,0.04491955414414406,0.004387172870337963,-0.40567857027053833,-0.433156818151474,9.604222297668457
11.86,-0.05654251575469971,0.07170145958662033,0.010137646459043026,-0.31134968996047974,-0.9611967206001282,10.71700382232666
11.88,0.033166080713272095,0.06399274617433548,0.02574179694056511,0.06287333369255066,-0.6904768943786621,10.340523719787598
11.9,0.04561193659901619,0.031302619725465775,0.025485694408416748,0.29483693838119507,-0.06184358894824982,9.447705268859863
11.92,0.10388503968715668,0.029663169756531715,0.020424697548151016,0.35725656151771545,-0.10534238815307617,9.606480598449707
11.94,0.14083100855350494,-0.017562642693519592,0.0036078309640288353,0.22827240824699402,-0.5219436883926392,9.799018859863281
11.96,0.12856583297252655,0.003980313427746296,-0.012819663621485233,-0.03998424485325813,-0.4147590696811676,10.014976501464844
11.98,0.13065476715564728,0.011860462836921215,-0.0007718404522165656,-0.14781059324741364,-0.25467824935913086,10.247966766357422
12.0,0.09445856511592865,-0.01731504313647747,0.005994128994643688,0.07958924770355225,0.029231557622551918,10.064756393432617
12.02,0.08944803476333618,-0.05432254448533058,0.018603401258587837,0.2173699140548706,0.43328753113746643,9.274540901184082
12.040000000000001,0.09283813089132309,-0.04425273835659027,0.00958059262484312,0.04993847757577896,0.5748916864395142,9.053364753723145
12.06,0.05869877338409424,-0.017787501215934753,-0.025508755818009377,-0.1385592222213745,0.7735342383384705,9.6079740524292
12.08,-0.026843130588531494,0.006744063924998045,-0.05253753066062927,0.05021090805530548,0.7649957537651062,9.820149421691895
12.1,-0.029886756092309952,0.021796835586428642,-0.03536992147564888,0.48494216799736023,0.291946142911911,9.705456733703613
12.120000000000001,-0.08534097671508789,0.052001554518938065,-0.011983556672930717,0.8852598071098328,0.05370187759399414,9.927279472351074
12.14,-0.08064815402030945,0.06676895916461945,0.020166805014014244,0.9840052723884583,0.2095901370048523,10.02189826965332
12.16,-0.08483380824327469,0.047323644161224365,0.029608866199851036,0.7692024111747742,0.45538330078125,9.194610595703125
12.18,-0.08073531091213226,0.054559338837862015,0.014507138170301914,0.23847883939743042,0.4195742905139923,8.880072593688965
12.200000000000001,-0.11468550562858582,0.08392011374235153,-0.002007008995860815,-0.1641063094139099,0.5464046001434326,9.845649719238281
12.22,-0.07267525047063828,0.09127702564001083,-0.005891779437661171,-0.29639148712158203,0.11924469470977783,10.92767333984375
12.24,-0.09966032952070236,0.05528924614191055,-0.024062925949692726,-0.1107579916715622,-0.4980056881904602,10.433637619018555
12.26,-0.03521496057510376,0.060470450669527054,-0.016754427924752235,0.16002829372882843,-0.7995802164077759,9.399030685424805
12.280000000000001,-0.03827104717493057,0.052523065358400345,-0.0053085582330822945,0.2254345864057541,-0.8040575981140137,8.764314651489258
12.3,-0.025780469179153442,-0.03221810609102249,0.003518373006954789,0.35988864302635193,-0.40485289692878723,8.721240997314453
12.32,-0.013192352838814259,-0.07592736184597015,0.01684110425412655,0.4148711860179901,0.04762047529220581,9.76489543914795
12.34,-0.048131972551345825,-0.07256237417459488,-0.0028241912368685007,0.2684997320175171,0.38671427965164185,10.50232982635498
12.36,-0.04397597536444664,-0.05941443145275116,-0.019499877467751503,-0.661238968372345,0.36307886242866516,10.8066987991333
12.38,0.016960853710770607,-0.03052559308707714,-0.027329538017511368,-0.9005791544914246,0.2004546821117401,10.142579078674316
12.4,-0.054993800818920135,-0.04170958325266838,-0.00640576146543026,-0.7971681356430054,-0.5322335958480835,9.33477783203125
12.42,-0.06297345459461212,-0.03261992707848549,0.021907730028033257,-0.4144594669342041,-0.2918306291103363,9.460938453674316
12.44,-0.025581156834959984,-0.032080136239528656,0.034705717116594315,-0.304778128862381,-0.17179740965366364,9.932608604431152
12.46,-0.026259830221533775,-0.051339227706193924,0.046039171516895294,-0.31927937269210815,-0.13128021359443665,10.392797470092773
12.48,0.04273070767521858,-0.0556308850646019,0.04552549496293068,-0.2054940015077591,0.11354277282953262,10.14894962310791
12.5,0.01640639454126358,-0.032441508024930954,0.018151728436350822,0.003954317886382341,-0.06527640670537949,9.295452117919922
12.52,0.03605039045214653,-0.02490239590406418,-0.02333941124379635,0.6535703539848328,-0.25292566418647766,9.199908256530762
12.540000000000001,0.03396418318152428,-0.020193791016936302,-0.03381385654211044,1.3102531433105469,-0.5067194104194641,9.651697158813477
12.56,0.010493147186934948,-0.01180998794734478,-0.049549851566553116,1.543069839477539,-0.2798033058643341,10.146435737609863
12.58,0.043960630893707275,-0.016050340607762337,-0.022989748045802116,1.0859962701797485,-0.18469300866127014,10.763920783996582
12.6,0.05248850956559181,0.015998538583517075,-0.0024962162133306265,0.49320465326309204,0.2719578742980957,10.16662883758545
12.620000000000001,0.04904506355524063,0.03914150595664978,0.0060366117395460606,0.1757684201002121,0.5670463442802429,9.119049072265625
12.64,-0.023902643471956253,0.07162506133317947,0.01497073657810688,0.1572588086128235,0.4186305105686188,8.855277061462402
12.66,-0.03199638053774834,0.10686855018138885,0.022876717150211334,0.2633027732372284,0.23860174417495728,9.622118949890137
12.68,-0.00584111362695694,0.09171994775533676,0.031086385250091553,0.32911258935928345,0.2424171417951584,10.356019020080566
12.700000000000001,-0.005393680185079575,0.0423518568277359,0.03869539871811867,0.05062199756503105,-0.24789057672023773,9.93263053894043
12.72,0.05964598432183266,0.02881183847784996,0.02767678163945675,-0.21286071836948395,-0.5509277582168579,9.746319770812988
12.74,-0.011744038201868534,-0.020516756922006607,0.0077486904338002205,-0.511061429977417,-0.4113636314868927,10.41578197479248
12.76,0.022982634603977203,-0.03991205617785454,-0.005062686279416084,-0.7552289366722107,-0.12048052251338959,10.816933631896973
12.780000000000001,0.02542928233742714,-0.054068759083747864,-0.012500758282840252,-0.6857522130012512,-0.012135171331465244,9.861397743225098
12.8,0.05533857271075249,-0.02224200963973999,-0.018157361075282097,-0.45712679624557495,-0.146047905087471,9.459368705749512
12.82,0.014723459258675575,-0.04485788568854332,-0.010027489624917507,-0.07632550597190857,-0.1637195646762848,9.2134428024292
12.84,-5.586677434621379e-05,-0.06074698641896248,-0.006512325257062912,0.25951001048088074,0.14888586103916168,9.456226348876953
12.86,-0.028460830450057983,-0.08195996284484863,0.009515726007521152,0.5437507033348083,0.31147682666778564,9.882500648498535
12.88,-0.014462639577686787,-0.10264146327972412,0.01912066526710987,0.5352398753166199,0.5181684494018555,10.271893501281738
12.9,-0.03447623550891876,-0.10192789882421494,0.019037066027522087,0.4223502576351166,0.5101110339164734,9.80543041229248
12.92,-0.06097494065761566,-0.06868458539247513,0.011273281648755074,0.3091813325881958,0.1815321445465088,9.423420906066895
12.94,-0.06427238881587982,-0.055403463542461395,-0.011130317114293575,0.4353577792644501,0.05883926525712013,9.452705383300781
12.96,-0.04301454499363899,-0.04226561635732651,-0.001781369443051517,0.4739229083061218,-0.12147302180528641,9.600910186767578
12.98,0.0281894039362669,0.007281371392309666,0.020594295114278793,0.5610767602920532,-0.4061337113380432,9.749550819396973
13.0,0.038301367312669754,0.025850314646959305,0.027260245755314827,0.7948716282844543,-0.7699149250984192,9.687968254089355
13.02,0.0573882982134819,0.021151095628738403,0.027511173859238625,0.6483781933784485,-0.7344023585319519,9.825987815856934
13.040000000000001,0.06099073961377144,0.05515328794717789,0.025020288303494453,0.37570205330848694,-0.884783148765564,10.174416542053223
13.06,0.08598336577415466,0.07658153027296066,0.018682343885302544,0.3770924508571625,-0.3687150776386261,10.212313652038574
13.08,0.08877278864383698,0.04391293600201607,0.007485253736376762,0.2777378559112549,0.3344789743423462,9.48607349395752
13.1,0.055000338703393936,0.004197421949356794,0.0008225663332268596,0.35055840015411377,0.5694290399551392,9.377920150756836
13.120000000000001,0.04477505385875702,-0.002141692442819476,-0.004323533736169338,0.08631104230880737,0.42178598046302795,9.496929168701172
13.14,-0.005070012528449297,-0.08207696676254272,-0.014075186103582382,0.03315862640738487,0.5604627728462219,9.644540786743164
13.16,-0.0334998182952404,-0.10869565606117249,-0.03666010871529579,-0.030211908742785454,0.5219818949699402,9.698209762573242
13.18,-0.05041986703872681,-0.08427059650421143,-0.020251436159014702,-0.4155254065990448,0.18732212483882904,10.15260124206543
13.200000000000001,-0.10362797975540161,-0.03525407984852791,0.0005069213220849633,-0.8928841948509216,0.27056679129600525,10.724751472473145
13.22,-0.019308723509311676,-0.020585322752594948,0.03685369715094566,-0.9984316229820251,0.10449244827032089,10.334197044372559
13.24,-0.025177301838994026,-0.025234408676624298,0.06949556618928909,-0.8127053380012512,-0.4249982535839081,9.363110542297363
13.26,0.033829160034656525,-0.04547540843486786,0.05893724784255028,0.4159081280231476,-0.3872263431549072,9.234354972839355
13.280000000000001,0.03963111340999603,-0.07413522154092789,0.02931869402527809,1.223388910293579,-0.6851410269737244,9.481216430664062
13.3,0.02802968956530094,-0.12520131468772888,-0.009028444066643715,1.302026391029358,-0.9414488673210144,9.9804105758667
13.32,0.047441571950912476,-0.14342550933361053,-0.036584556102752686,1.0042885541915894,-0.3775483965873718,10.376614570617676
13.34,0.01827278919517994,-0.12552247941493988,-0.041300125420093536,0.4116913378238678,0.35479259490966797,10.180545806884766
13.36,0.03809826448559761,-0.05520464479923248,-0.04063883796334267,0.1489860564470291,0.6106795072555542,9.33395004272461
13.38,0.016376404091715813,-0.050221867859363556,-0.02131723240017891,0.3660775125026703,0.5595872402191162,8.922459602355957
13.4,-0.022093936800956726,-0.0628708228468895,-0.015032133087515831,0.6009268760681152,0.45095303654670715,9.367008209228516
13.42,-0.019727613776922226,-0.05890849232673645,-0.002395041985437274,0.687123715877533,0.4854764938354492,10.075246810913086
13.44,-0.08422621339559555,-0.04367297142744064,-0.008529447950422764,0.6905175447463989,0.3567969799041748,10.282139778137207
13.46,-0.07310464978218079,-0.03652398660778999,-0.00848753284662962,0.45731663703918457,0.20416900515556335,10.256004333496094
13.48,0.02211189828813076,0.012135844677686691,0.010679482482373714,0.22890357673168182,-0.2921145558357239,9.655654907226562
13.5,-0.013210197910666466,0.04023892432451248,0.03283737227320671,0.346770703792572,-0.4525843858718872,8.81080436706543
13.52,0.03129130229353905,0.0488307923078537,0.044217173010110855,0.694896399974823,-0.39494988322257996,9.362961769104004
13.540000000000001,0.05945149064064026,0.04977826401591301,0.02436322532594204,0.9775267243385315,-0.6056775450706482,10.655036926269531
13.56,0.09358867257833481,0.05754034221172333,-0.001876349444501102,0.9296735525131226,-0.8305298089981079,11.074149131774902
13.58,0.10903900116682053,0.036762785166502,-0.016828302294015884,0.6037843227386475,-0.7484326362609863,9.847149848937988
13.6,0.0899876207113266,0.03573485091328621,-0.020686335861682892,0.23738522827625275,-0.2777417302131653,8.292821884155273
13.620000000000001,0.06320086866617203,0.027143966406583786,-0.0242016464471817,0.03354903310537338,0.6103202700614929,8.477043151855469
13.64,-0.05587662011384964,0.021337831392884254,-0.04549753665924072,-0.025517426431179047,1.3862148523330688,9.685361862182617
13.66,-0.08900195360183716,0.010602524504065514,-0.046123702079057693,0.11597725003957748,1.5130748748779297,10.599458694458008
13.68,-0.09120356291532516,0.015341628342866898,-0.02366621233522892,0.20593537390232086,1.0030561685562134,10.443546295166016
13.700000000000001,-0.13683569431304932,-0.04198313131928444,0.01434322539716959,0.09938094019889832,0.25280919671058655,9.676026344299316
13.72,-0.08383607864379883,-0.08837037533521652,0.0198887400329113,0.0571167953312397,-0.3031865358352661,9.384178161621094
13.74,-0.07528121024370193,-0.08561698347330093,0.03568418323993683,0.11541245877742767,-0.3663661777973175,9.467235565185547
13.76,-0.01891764998435974,-0.056831520050764084,0.05428983271121979,-0.18058757483959198,-0.31944406032562256,9.857574462890625
13.780000000000001,0.051014773547649384,-0.014490376226603985,0.044844869524240494,-0.060750871896743774,-1.1338937282562256,10.62783145904541
13.8,0.07153938710689545,-0.011537848971784115,0.003760494291782379,0.0464753732085228,-1.537266731262207,10.668930053710938
13.82,0.0778038278222084,-0.021952537819743156,-0.04831220209598541,0.6854973435401917,-0.6503010392189026,10.084576606750488
13.84,0.11194254457950592,0.013918847776949406,-0.030227959156036377,1.275317668914795,0.13544124364852905,9.780070304870605
13.86,0.09890474379062653,0.051456231623888016,-0.0047057573683559895,1.4910145998001099,0.30809521675109863,9.508965492248535
13.88,0.04988417401909828,0.03635767847299576,-0.003376741660758853,1.291847825050354,0.5468080639839172,9.36850357055664
13.9,0.037095967680215836,0.048946600407361984,-0.013448841869831085,0.6473656296730042,0.6679704189300537,9.830032348632812
13.92,0.011787880212068558,0.06827908009290695,-0.009188087657094002,0.30617231130599976,0.2055041491985321,9.913912773132324
13.94,-0.0190531387925148,0.06727153807878494,-0.004000495653599501,0.2785134017467499,0.1265348345041275,9.785897254943848
13.96,-0.008476758375763893,0.06482448428869247,0.014849530532956123,0.45884931087493896,0.3792973756790161,9.074830055236816
13.98,-0.014926942065358162,0.07108180224895477,0.019908955320715904,0.33909234404563904,0.5164331793785095,9.0891752243042
14.0,-0.01467874739319086,0.03543943911790848,0.005109997931867838,0.06102066859602928,0.11805347353219986,9.85288143157959
14.02,-0.016459161415696144,0.006715063005685806,-0.01044262945652008,-0.12633034586906433,-0.3018992841243744,10.25859546661377
14.040000000000001,-0.019095635041594505,0.026033949106931686,-0.008480281569063663,0.05958133935928345,-0.6704099178314209,9.857625961303711
14.06,-0.013148870319128036,0.025949053466320038,0.0011062558041885495,0.13988414406776428,-0.5750590562820435,9.235713005065918
14.08,0.01919735036790371,0.008083514869213104,-0.0017072128830477595,0.2752123773097992,-0.2412203699350357,8.976308822631836
14.1,-0.015155777335166931,0.0035740879829972982,0.0019423147896304727,0.23323971033096313,0.22255589067935944,9.63055419921875
14.120000000000001,0.008282500319182873,0.04866825044155121,-0.006404969375580549,0.2974719703197479,0.32321983575820923,10.60722541809082
14.14,0.008341629058122635,0.06924676895141602,-0.011584113352000713,0.43850359320640564,0.1605064570903778,10.432119369506836
14.16,0.04075415059924126,0.04225338250398636,-0.009214679710566998,0.6248189806938171,-0.1611815243959427,9.532062530517578
14.18,0.03160691633820534,0.04816499352455139,-0.008849555626511574,0.5871109962463379,-0.21341748535633087,9.011345863342285
14.200000000000001,-0.008260621689260006,0.10872305929660797,-0.015323764644563198,0.49811384081840515,-0.11581776291131973,9.776532173156738
14.22,-0.03512079268693924,0.11364324390888214,-0.027691414579749107,0.2298184633255005,0.294991672039032,10.860023498535156
14.24,-0.0008017419022507966,0.05213041603565216,-0.01438224222511053,0.09903798252344131,0.3842460513114929,10.858739852905273
14.26,-0.03535998612642288,0.07765450328588486,0.004741450306028128,0.15757344663143158,0.3613787591457367,9.935877799987793
14.280000000000001,-0.01987607590854168,0.0901680737733841,0.013312228955328465,0.37310418486595154,0.17667798697948456,8.855660438537598
14.3,-0.010305963456630707,0.04053863137960434,0.014901629649102688,0.24586836993694305,-0.3095847964286804,8.977441787719727
14.32,0.02116989903151989,0.05185727775096893,0.015832195058465004,-0.09327535331249237,-0.5633050203323364,10.195764541625977
14.34,0.03568170964717865,0.05711314454674721,0.008645857684314251,-0.22856900095939636,-0.4061141014099121,10.699575424194336
14.36,0.039457399398088455,0.04957927018404007,0.006938716862350702,-0.11452366411685944,-0.38521796464920044,9.916882514953613
14.38,0.06143788993358612,0.05814598500728607,-0.019220402464270592,0.16415658593177795,-0.04553049057722092,9.277935981750488
14.4,0.07266747206449509,0.06740069389343262,-0.019027920439839363,0.3623465895652771,0.01811394840478897,9.318846702575684
14.42,0.013349749147891998,0.07897759228944778,-0.037733737379312515,0.3833891451358795,0.20908978581428528,9.838736534118652
14.44,0.027859702706336975,0.04314005747437477,-0.01494576781988144,0.2630751132965088,0.40580564737319946,10.007651329040527
14.46,0.025784363970160484,0.05188241973519325,0.011192353442311287,0.09732279181480408,0.06793300062417984,9.847305297851562
14.48,0.0013915690360590816,0.04082457721233368,0.016752230003476143,0.03988642618060112,0.07635223865509033,10.129964828491211
14.5,0.00039259978802874684,1.6403284462285228e-05,0.024705948308110237,-0.11336033791303635,0.15334953367710114,10.440364837646484
14.52,0.023565519601106644,-0.049138668924570084,0.012759320437908173,-0.3451239764690399,-0.00439284835010767,9.928296089172363
14.540000000000001,0.011281988583505154,-0.038267266005277634,0.0031605707481503487,-0.5216056704521179,0.19903989136219025,9.139472007751465
14.56,0.08120636641979218,-0.05960546061396599,0.0036476352252066135,-0.4729098081588745,0.10063710808753967,9.158397674560547
14.58,0.0076415762305259705,-0.04779114946722984,0.011438137851655483,-0.10373528301715851,-0.1172165721654892,9.710599899291992
14.6,0.03757772222161293,-0.025846999138593674,0.010564523749053478,0.4020272195339203,-0.09469883888959885,9.844334602355957
14.620000000000001,0.027576087042689323,-0.02475356124341488,0.0010696540120989084,0.610760509967804,-0.19610090553760529,9.654619216918945
14.64,0.040698323398828506,-0.0028309780173003674,0.003358409507200122,0.536058247089386,-0.10627654939889908,9.869462013244629
14.66,0.03263403847813606,0.011011099442839622,-0.019436117261648178,0.5202748775482178,0.2253042459487915,10.073902130126953
14.68,-0.02641143649816513,0.01244253572076559,-0.03071046993136406,0.5355522632598877,0.3102336525917053,9.49742317199707
14.700000000000001,-0.041412949562072754,0.027504853904247284,-0.025024911388754845,0.44451704621315,0.4222151041030884,9.21511173248291
14.72,-0.014392784796655178,0.04710112512111664,-0.013000083155930042,0.36656874418258667,0.5029950737953186,9.39222240447998
14.74,-0.031361982226371765,0.052565913647413254,0.010121683590114117,0.22663614153862,0.46613872051239014,9.87580394744873
14.76,-0.055448196828365326,0.04450152441859245,0.009340476244688034,0.09904970973730087,0.4901033937931061,10.314264297485352
14.780000000000001,-0.00214534904807806,0.028412844985723495,-0.004846054594963789,-0.027356186881661415,0.30930036306381226,10.236719131469727
14.8,-0.08162534981966019,0.04608329385519028,-0.007115644868463278,-0.1358656883239746,-0.09623605012893677,9.656722068786621
14.82,-0.0494484081864357,0.045000944286584854,0.0007597208605147898,-0.23385512828826904,-0.2796924114227295,9.238381385803223
14.84,-0.018143126741051674,0.024836737662553787,0.016731126233935356,-0.37778088450431824,-0.35434579849243164,9.518516540527344
14.86,-0.08079187572002411,0.024527646601200104,0.034208644181489944,-0.34271952509880066,-0.3316290080547333,10.128312110900879
14.88,-0.002518496010452509,0.011441097594797611,0.030201271176338196,-0.07184627652168274,-0.0875638872385025,10.493159294128418
14.9,0.035326771438121796,-0.000756405817810446,0.018165724352002144,0.0049162800423800945,-0.13314059376716614,10.430063247680664
14.92,0.016896137967705727,-0.022963274270296097,0.0031723424326628447,-0.08754909038543701,-0.08843187987804413,9.690489768981934
14.94,0.011714658699929714,-0.017263276502490044,-0.0006541856564581394,-0.22806011140346527,0.03231797739863396,9.591794967651367
14.96,0.02131575159728527,-0.012411996722221375,-0.002566681010648608,-0.12085887044668198,-0.13265608251094818,9.861215591430664
14.98,0.023337263613939285,0.003723995527252555,-0.0027639216277748346,0.24466705322265625,0.11409129947423935,9.723597526550293
15.0,-0.0015889452770352364,0.025668146088719368,-0.003425316885113716,0.6314094662666321,0.5430911183357239,9.460332870483398
15.02,-0.03575517609715462,0.008921519853174686,0.005305285565555096,0.8531621694564819,0.5909126996994019,9.276909828186035
15.040000000000001,-0.020038360729813576,0.010214725509285927,-0.006935758050531149,0.7720535397529602,0.29987841844558716,9.228161811828613
15.06,-0.05695119500160217,0.043963853269815445,-1.2413148397172336e-05,0.49240413308143616,0.026259442791342735,9.199483871459961
15.08,-0.020590435713529587,0.05526004359126091,-0.007366967387497425,0.22861795127391815,-0.16049665212631226,9.877690315246582
15.1,-0.026589639484882355,0.08427150547504425,-0.013040046207606792,-0.15557684004306793,-0.34681302309036255,10.756874084472656
15.120000000000001,-0.01621927320957184,0.09785496443510056,-0.014468090608716011,-0.19558432698249817,-0.25837260484695435,10.30854606628418
15.14,0.00026105737197212875,0.09973472356796265,0.0007167024305090308,-0.08851977437734604,-0.3282950818538666,9.176827430725098
15.16,0.033326730132102966,0.04649118706583977,-0.0021676337346434593,-0.0012033178936690092,-0.22608116269111633,8.635988235473633
15.18,0.03607949614524841,0.01025298796594143,0.007020812015980482,0.10656479001045227,-0.035401079803705215,9.150359153747559
15.200000000000001,0.07386966794729233,-0.02169658988714218,0.008491271175444126,0.2428974062204361,-0.026433106511831284,9.747654914855957
15.22,0.051189396530389786,-0.08619648218154907,0.01835683360695839,0.5017277598381042,-0.2533632218837738,10.051194190979004
15.24,-0.00214174622669816,-0.07302773743867874,0.034541286528110504,-0.012678392231464386,0.09427904337644577,10.592242240905762
15.26,0.042048148810863495,0.031892649829387665,0.035081762820482254,-0.9958165884017944,0.4497514069080353,10.52597427368164
15.280000000000001,0.07180404663085938,0.0814935490489006,0.02637043222784996,-1.074572205543518,0.02405036799609661,9.44190502166748
15.3,0.03410479798913002,0.023457787930965424,-0.010808952152729034,-0.7494775056838989,0.10109204798936844,9.063579559326172
15.32,0.04923585429787636,0.007646922022104263,-0.0064742728136479855,-0.2724761366844177,0.3897847533226013,9.795928001403809
15.34,0.0247210506349802,0.09860464185476303,-0.013040613383054733,-0.23752033710479736,0.20717012882232666,11.139975547790527
15.36,0.09605395793914795,0.11857999116182327,-0.022801388055086136,-0.5373161435127258,-0.3702465295791626,11.320480346679688
15.38,0.05769187584519386,0.04866071790456772,-0.004054136574268341,-0.11031147837638855,-0.48586463928222656,9.774453163146973
15.4,0.041239701211452484,-0.02139533869922161,0.013620445504784584,0.40800580382347107,-0.04122724011540413,8.462992668151855
15.42,0.04875831678509712,0.007715351413935423,0.04402998089790344,0.5940023064613342,0.39892297983169556,9.287530899047852
15.44,0.029075685888528824,-0.005831438582390547,0.04011908918619156,0.43233221769332886,0.7997289299964905,10.122859954833984
15.46,-0.02573012188076973,-0.08765161782503128,0.03573736175894737,0.16892307996749878,1.0078908205032349,9.851771354675293
15.48,-0.02757609449326992,-0.10277238488197327,0.019506094977259636,-0.019062500447034836,0.6938844919204712,9.184334754943848
15.5,-0.02359999530017376,-0.0699237510561943,0.004272868856787682,-0.28182345628738403,0.13587366044521332,9.229317665100098
15.52,-0.04256332293152809,0.00796644575893879,-0.0029245021287351847,-0.7185916304588318,-0.21368364989757538,10.575573921203613
15.540000000000001,-0.041042376309633255,0.09478235244750977,-0.0007608796004205942,-0.8328219056129456,-0.16345585882663727,10.775146484375
15.56,-0.00483733182772994,0.08669982850551605,-0.033040810376405716,-0.18776102364063263,0.020250800997018814,10.217324256896973
15.58,0.04237498342990875,0.03803626447916031,-0.020285332575440407,0.679752767086029,0.13582777976989746,9.640167236328125
15.6,0.022784242406487465,0.08526904881000519,-0.010397202335298061,1.1669880151748657,0.035616934299468994,9.369574546813965
15.620000000000001,0.061920858919620514,0.09277107566595078,0.013328189961612225,1.094673991203308,-0.16905151307582855,9.47109603881836
15.64,0.028939666226506233,0.015528889372944832,0.02203984744846821,0.3491303324699402,-0.4564003646373749,9.992914199829102
15.66,0.006438832264393568,-0.04066270962357521,0.00985122099518776,-0.3529289662837982,0.03933579847216606,10.463240623474121
15.68,0.013655616901814938,-0.018956869840621948,0.012116876430809498,-0.48135098814964294,0.2789495885372162,9.927240371704102
15.700000000000001,0.02088840864598751,0.012347100302577019,0.0022354130633175373,-0.572016716003418,0.35838815569877625,8.941953659057617
15.72,-0.030706437304615974,0.02672434225678444,-0.024156277999281883,-0.7270014882087708,0.7717429995536804,8.714916229248047
15.74,-0.04352507367730141,0.000629710906650871,-0.04236847907304764,-0.5526334047317505,0.8181296586990356,9.43474292755127
15.76,-0.07278262823820114,0.028184112161397934,-0.043711740523576736,-0.4266912043094635,0.5722942352294922,10.440580368041992
15.780000000000001,-0.07470610737800598,0.019069159403443336,-0.023209447041153908,-0.310965359210968,0.33449649810791016,10.294744491577148
15.8,-0.06187388673424721,0.013109562918543816,-0.02239103801548481,-0.31553640961647034,-0.04678981751203537,9.366491317749023
15.82,-0.06427070498466492,-0.014229683205485344,-0.0022142974194139242,-0.2460629940032959,-0.23632673919200897,9.520769119262695
15.84,-0.03237844631075859,-0.023440223187208176,0.02839539758861065,0.060699768364429474,-0.26222798228263855,9.965812683105469
15.860000000000001,-0.032377563416957855,-0.036122191697359085,0.03870050981640816,0.11030255258083344,-0.17062300443649292,10.156404495239258
15.88,-0.005477244034409523,-0.03585394099354744,0.016594063490629196,-0.03161689639091492,0.006391781847923994,10.035713195800781
15.9,-0.007340153679251671,0.0034376122057437897,-0.0183671023696661,0.10627531260251999,0.08036676794290543,9.732182502746582
15.92,0.016136284917593002,0.02968037687242031,-0.03151032328605652,0.22703388333320618,-0.06715265661478043,9.258151054382324
15.94,-0.005721149500459433,0.05086340010166168,-0.02119467779994011,0.21902261674404144,-0.2323945015668869,9.393529891967773
15.96,-0.02551528625190258,0.08471617102622986,-0.005373199936002493,0.2081795334815979,0.13923132419586182,10.015281677246094
15.98,0.03255755454301834,0.116615891456604,-0.0016517947660759091,0.22978174686431885,0.3110838830471039,10.415923118591309
16.0,-0.013510668650269508,0.08863989263772964,-0.0009662752272561193,0.34493669867515564,0.44621145725250244,9.931225776672363
16.02,-0.003717295126989484,0.06617367267608643,0.00015847510076127946,0.21163196861743927,0.62510746717453,9.751471519470215
16.04,-0.08538516610860825,0.0872039943933487,-0.00813149381428957,-0.15623819828033447,0.3590884506702423,9.565791130065918
16.06,-0.04820551350712776,0.05685186758637428,-0.03874053806066513,-0.3479924201965332,0.22254283726215363,9.423734664916992
16.080000000000002,-0.060488007962703705,0.015566454268991947,-0.03651787340641022,-0.4393610656261444,-0.05793633311986923,9.41506290435791
16.1,-0.01221606694161892,-0.01108481828123331,-0.019378507509827614,-0.43058544397354126,-0.3296753764152527,9.996320724487305
16.12,0.004736477043479681,-0.05922335386276245,0.004238564055413008,-0.5911794304847717,-0.6100057363510132,10.419100761413574
16.14,0.02223285287618637,-0.07434980571269989,0.0331575907766819,-0.9673244953155518,-0.390567809343338,10.240519523620605
16.16,0.06226875260472298,-0.040096357464790344,0.048431623727083206,-1.1588404178619385,-0.22363398969173431,9.564885139465332
16.18,0.07774730771780014,-0.012678926810622215,0.037664324045181274,-0.9479590654373169,-0.08624710142612457,8.904088973999023
16.2,0.08292349427938461,-0.04086035490036011,0.0266032163053751,-0.6554391384124756,-0.13552795350551605,9.388639450073242
16.22,0.12431055307388306,-0.016402103006839752,0.021810023114085197,-0.32192981243133545,-0.08575784415006638,10.109366416931152
16.240000000000002,0.11498284339904785,-0.0053895688615739346,0.016613692045211792,-0.26183804869651794,0.13522253930568695,10.104562759399414
16.26,0.10682326555252075,-0.05693943426012993,0.0016454634023830295,0.0934334397315979,0.13988858461380005,9.712451934814453
16.28,0.06805722415447235,-0.10902363806962967,-0.029911771416664124,0.30788037180900574,0.3140332102775574,9.48539924621582
16.3,0.02149798534810543,-0.07938685268163681,-0.03553128242492676,0.20039300620555878,0.6210066676139832,10.027161598205566
16.32,0.03593340888619423,-0.04114098101854324,-0.026104504242539406,0.15401673316955566,0.8328797221183777,10.159202575683594
16.34,0.007500846404582262,-0.047671280801296234,-0.0079625453799963,0.12727861106395721,0.7460176348686218,9.365534782409668
16.36,-0.002874774392694235,-0.01652619056403637,0.017625190317630768,0.24676549434661865,0.4499330520629883,8.900174140930176
16.38,-0.038420386612415314,0.03430667519569397,0.036822278052568436,0.23845168948173523,0.20487560331821442,9.813435554504395
16.4,-0.00472143804654479,0.07149142026901245,0.024646075442433357,0.2579490840435028,0.2586182653903961,10.543351173400879
16.42,0.02280350588262081,0.05576782673597336,-0.0034876130521297455,0.08175530284643173,0.04682223126292229,10.214627265930176
16.44,-0.015977859497070312,0.05616019293665886,-0.031158529222011566,-0.20649734139442444,-0.3670291602611542,10.65231990814209
16.46,0.0004945726250298321,0.07381192594766617,-0.027305904775857925,-0.3153024911880493,-0.02232315205037594,11.03707504272461
16.48,-0.004524142947047949,0.06989634037017822,-0.01571974717080593,-0.29038962721824646,0.10775050520896912,9.606337547302246
16.5,0.02300136908888817,0.06832017749547958,0.01940714754164219,-0.214396134018898,0.26474249362945557,8.863791465759277
16.52,0.024952076375484467,0.037810828536748886,0.04165767878293991,-0.07967649400234222,0.11413432657718658,9.414237976074219
16.54,0.036289993673563004,-0.03591075912117958,0.046198770403862,-0.08066662400960922,0.15828384459018707,10.229384422302246
16.56,0.04433625563979149,-0.049334414303302765,0.02176007069647312,-0.20011645555496216,0.4080325961112976,10.114259719848633
16.580000000000002,0.011295425705611706,-0.06891797482967377,0.003342574927955866,-0.44273996353149414,0.407967209815979,9.162579536437988
16.6,-0.060215212404727936,-0.11641480773687363,-0.006365442648530006,-0.34216466546058655,0.3698888123035431,9.060546875
16.62,-0.05154889076948166,-0.1218157559633255,0.007230889517813921,-0.34882813692092896,0.4793299436569214,9.5684175491333
16.64,-0.047577377408742905,-0.05143338441848755,0.02232239954173565,-0.7703371644020081,0.37196364998817444,10.176355361938477
16.66,-0.010394991375505924,0.02347128838300705,0.023999448865652084,-1.116898775100708,0.03492861986160278,9.887317657470703
16.68,0.06266548484563828,0.06062576174736023,0.03779551014304161,-0.8301588892936707,-0.2257886528968811,9.899911880493164
16.7,0.044432930648326874,0.03749240189790726,0.009039022959768772,0.16032856702804565,-0.1324426829814911,10.115741729736328
16.72,0.09696624428033829,0.049321673810482025,-0.010634160600602627,0.7716276049613953,-0.13789132237434387,10.294530868530273
16.740000000000002,0.057762261480093,0.0748499184846878,-0.04653472453355789,0.6861062049865723,-0.1578245311975479,9.601051330566406
16.76,0.08104445785284042,0.04855887591838837,-0.050348710268735886,0.4796333611011505,-0.25129351019859314,9.266460418701172
16.78,0.046309925615787506,0.035663507878780365,-0.03440728411078453,0.4570973217487335,-0.1563456654548645,9.075227737426758
16.8,0.07247504591941833,0.06073588505387306,-0.012280715629458427,0.28312262892723083,0.26491448283195496,9.321022033691406
16.82,0.07541776448488235,0.10156124830245972,0.013843938708305359,0.23305809497833252,0.8355792760848999,9.893365859985352
16.84,0.02823730744421482,0.11087562143802643,0.03362634405493736,0.19360825419425964,1.041528582572937,10.408622741699219
16.86,0.05494872108101845,0.13452927768230438,0.018967069685459137,0.1441613733768463,1.071280837059021,10.17940902709961
16.88,0.04850168898701668,0.1364145576953888,-0.006330474745482206,0.02328973077237606,0.49395129084587097,9.508720397949219
16.9,-0.013092676177620888,0.08746782690286636,-0.0456872321665287,-0.022903554141521454,-0.15361790359020233,9.021306991577148
16.92,-0.07071693986654282,0.05499912053346634,-0.06954868882894516,0.1950942426919937,0.34506934881210327,8.867619514465332
16.94,-0.02697400189936161,0.021853221580386162,-0.0714057981967926,0.4479120373725891,0.73077392578125,9.387845993041992
16.96,-0.12979590892791748,-0.0010669477051123977,-0.04553829878568649,-0.12007374316453934,0.5679908394813538,9.80630111694336
16.98,-0.1370014250278473,-0.030959906056523323,-0.024447327479720116,-0.6809043884277344,0.7401133179664612,9.666167259216309
17.0,-0.14236631989479065,-0.04084852710366249,-0.004710271023213863,-0.6948108673095703,0.6134751439094543,9.883902549743652
17.02,-0.164734348654747,-0.07657546550035477,-0.013616116717457771,-1.1105947494506836,0.13769564032554626,10.702564239501953
17.04,-0.14808154106140137,-0.12293272465467453,-0.023872051388025284,-0.8989353775978088,0.12796038389205933,10.932273864746094
17.06,-0.12725281715393066,-0.07822554558515549,-0.018182678148150444,-1.7756633758544922,-0.17052216827869415,10.716378211975098
17.080000000000002,-0.11739052832126617,-0.024059360846877098,0.015944000333547592,-1.985667109489441,-0.0037071811966598034,10.115246772766113
17.1,-0.04460010305047035,-0.020994236692786217,0.0530400350689888,-1.4164096117019653,-0.2936379313468933,9.424934387207031
17.12,-0.007403600960969925,-0.022311894223093987,0.0836239904165268,-0.7689208984375,-0.741723895072937,8.826461791992188
17.14,0.061962615698575974,0.013241631910204887,0.07406222820281982,-0.5985434055328369,-0.9575763940811157,9.501758575439453
17.16,0.10303416848182678,0.03341328725218773,0.03977014124393463,-0.08263843506574631,-0.8908270001411438,9.775411605834961
17.18,0.11324374377727509,-0.016314789652824402,0.0014089884934946895,0.24869222939014435,-0.3969533443450928,10.149528503417969
17.2,0.07869786024093628,-0.027824101969599724,-0.032829202711582184,0.2541424036026001,0.4686342179775238,10.131002426147461
17.22,0.10109904408454895,0.007594008464366198,-0.045925404876470566,0.10353216528892517,1.0098267793655396,9.747881889343262
17.240000000000002,0.021680673584342003,0.03692156821489334,-0.04992678388953209,-0.059934064745903015,0.9181714653968811,9.519206047058105
17.26,0.03349265083670616,0.01534086000174284,-0.013936778530478477,0.08217041194438934,0.5195123553276062,9.925209045410156
17.28,-0.010395034216344357,0.009866781532764435,0.017095794901251793,0.35964104533195496,0.3962516784667969,9.912967681884766
17.3,-0.0016765932086855173,-0.0017181163420900702,0.047984372824430466,0.3224629759788513,0.14264309406280518,9.618049621582031
17.32,0.015376029536128044,-0.0008600518922321498,0.04253068566322327,0.017516404390335083,0.039488788694143295,9.310482025146484
17.34,-0.02996784821152687,-0.00801597349345684,0.02793929912149906,-0.19496631622314453,0.43482711911201477,9.497457504272461
17.36,-0.026408497244119644,-0.027781082317233086,0.0011839582584798336,-0.27625223994255066,0.45619601011276245,9.953752517700195
17.38,-0.0028564673848450184,-0.040512632578611374,-0.01854849047958851,-0.2570449709892273,0.04760647192597389,10.248751640319824
17.400000000000002,0.048949241638183594,-0.03565721586346626,-0.026049502193927765,-0.2570056915283203,-0.364412784576416,10.05338191986084
17.42,0.07606731355190277,-0.029706154018640518,-0.0333566777408123,-0.19906915724277496,-0.6288901567459106,9.712711334228516
17.44,0.01414574682712555,-0.02438759244978428,-0.036414094269275665,-0.125417560338974,-0.06358163058757782,8.987164497375488
17.46,0.02812274917960167,-0.007382379379123449,-0.020267194136977196,-0.10075530409812927,0.3687598407268524,9.147130966186523
17.48,0.008459660224616528,0.021938074380159378,-0.0017624947940930724,-0.17524956166744232,0.6091799139976501,9.909784317016602
17.5,-0.034500543028116226,0.05225668475031853,0.024166278541088104,-0.32627567648887634,0.733021080493927,10.340518951416016
17.52,-0.05125001072883606,0.042359959334135056,0.02360188215970993,-0.20410947501659393,0.8621222972869873,10.783341407775879
17.54,0.009430227801203728,0.04262802377343178,0.008777574636042118,-0.19701048731803894,0.5930946469306946,10.714700698852539
17.56,-0.0453842468559742,0.08718518912792206,0.010775518603622913,-0.2488597333431244,0.001300825853832066,9.675289154052734
17.580000000000002,-0.013004240579903126,0.09669680148363113,0.008653132244944572,-0.06406286358833313,-0.20853760838508606,8.941561698913574
17.6,-0.03318089619278908,0.04093928635120392,0.022294631227850914,0.05473172664642334,-0.034621525555849075,9.394201278686523
17.62,0.02004013955593109,0.05281662568449974,0.021456832066178322,0.042716145515441895,0.07830385118722916,9.699491500854492
17.64,0.03367289900779724,0.06876013427972794,0.02453075349330902,0.006367773283272982,0.07549852877855301,9.45062255859375
17.66,0.01796206645667553,0.04082204028964043,0.01113910973072052,-0.2140345275402069,0.0498640276491642,9.699530601501465
17.68,0.05610225349664688,0.05127685144543648,-0.009328696876764297,-0.820135772228241,0.16582202911376953,10.536938667297363
17.7,0.03891107067465782,0.05641932785511017,-0.014362026005983353,-0.9728832244873047,-0.0008944690926000476,10.252958297729492
17.72,0.04574882611632347,0.06518436968326569,-0.011594808660447598,-0.6830489635467529,-0.011317603290081024,9.827625274658203
17.740000000000002,0.022478505969047546,0.04358983784914017,-0.02545834891498089,-0.4530782699584961,0.06427287310361862,9.3418607711792
17.76,-0.003921414725482464,0.02381560392677784,-0.02984406054019928,-0.4071873128414154,0.6335431933403015,9.423620223999023
17.78,0.009763477370142937,0.013155256398022175,-0.014598551206290722,-0.45718640089035034,0.6567004323005676,9.313591003417969
17.8,-0.021872496232390404,0.0006968927336856723,-0.020783791318535805,-0.39986148476600647,0.5969750881195068,9.57838249206543
17.82,-0.032567184418439865,0.0027799985837191343,-0.005423609167337418,-0.35543155670166016,0.7349992990493774,10.504118919372559
17.84,-0.03375077620148659,0.022789426147937775,0.010704743675887585,-0.3096308708190918,0.7122669219970703,10.497050285339355
17.86,-0.04593518748879433,0.020429112017154694,0.012687040492892265,-0.2281186580657959,0.2536577880382538,9.740426063537598
17.88,-0.05587122589349747,0.009968488477170467,0.0035205562599003315,-0.21787092089653015,-0.3395208716392517,9.486689567565918
17.900000000000002,-0.08255605399608612,0.0314333513379097,-0.01323674339801073,-0.2429213672876358,-0.3156259059906006,9.26370620727539
17.92,-0.1110917180776596,0.06157921627163887,-0.012918848544359207,-0.08743633329868317,-0.03704746067523956,9.153420448303223
17.94,-0.12179506570100784,0.05901750922203064,-0.019781753420829773,-0.043148744851350784,0.24106204509735107,9.755597114562988
17.96,-0.13708390295505524,0.04095979034900665,-0.021690795198082924,-0.20838922262191772,0.6833164095878601,9.802103042602539
17.98,-0.13280637562274933,0.037393104285001755,-0.04007791727781296,-0.1971019208431244,0.6065225005149841,9.682500839233398
18.0,-0.16179536283016205,-0.006997733376920223,-0.05310207977890968,-0.17005936801433563,0.43010008335113525,9.868746757507324
18.02,-0.10913435369729996,-0.0458030104637146,-0.06253565847873688,-0.6127030849456787,0.17326299846172333,10.741658210754395
18.04,-0.09791508316993713,-0.09236498922109604,-0.06134103238582611,-1.012561559677124,-0.3091434836387634,10.891221046447754
18.06,-0.09192313998937607,-0.05571628734469414,-0.022141072899103165,-1.0832267999649048,-0.5127730965614319,10.4968900680542
18.080000000000002,-0.1001107394695282,-0.05660565569996834,0.01521424949169159,-1.0289584398269653,-0.3809804618358612,9.459207534790039
18.1,-0.069984570145607,-0.05911659821867943,0.06425165385007858,-0.7120480537414551,-0.397622674703598,8.393720626831055
18.12,0.029492048546671867,-0.03543517738580704,0.0746459886431694,-0.7187552452087402,-0.7845486402511597,8.44306468963623
18.14,0.0727459192276001,-0.030862946063280106,0.07041522115468979,-0.7440953254699707,-1.0591593980789185,9.327404022216797
18.16,0.13840706646442413,-0.015800125896930695,0.05963202193379402,-0.3569292426109314,-1.0149211883544922,10.222042083740234
18.18,0.1868036985397339,-0.03748808428645134,0.04788433387875557,0.048235051333904266,-0.8138608932495117,10.856175422668457
18.2,0.15695786476135254,-0.06277232617139816,0.02277832105755806,0.5457566380500793,-0.20228195190429688,10.603927612304688
18.22,0.1832457333803177,-0.0793456956744194,-0.009975677356123924,0.6721708178520203,0.5680659413337708,9.588116645812988
18.240000000000002,0.19359813630580902,-0.10261686146259308,-0.027179593220353127,0.2761238217353821,0.6301182508468628,8.030573844909668
18.26,0.1315021514892578,-0.10646816343069077,-0.03297106549143791,-0.006442828569561243,0.5172023773193359,8.463997840881348
18.28,0.04577133059501648,-0.04029134288430214,-0.04108420014381409,-0.4026673138141632,0.7495645880699158,10.835014343261719
18.3,-0.016082270070910454,0.07858934253454208,-0.0575026273727417,-1.0589728355407715,1.2238975763320923,11.429433822631836
18.32,-0.038685090839862823,0.11165709048509598,-0.0548989400267601,-1.3353534936904907,0.5775501728057861,10.54433536529541
18.34,-0.07107479870319366,0.11168257147073746,-0.042229365557432175,-0.5170256495475769,0.41234326362609863,9.58259391784668
18.36,-0.1027674674987793,0.08700255304574966,0.014371449127793312,0.5288864374160767,0.5948339700698853,9.159695625305176
18.38,-0.02957279235124588,0.0649694949388504,0.051555465906858444,1.0680303573608398,0.22660869359970093,9.86966323852539
18.400000000000002,-0.06365303695201874,0.016097253188490868,0.03129565715789795,0.44714123010635376,-0.022203478962183,10.222426414489746
18.42,-0.049331746995449066,-0.020860614255070686,-0.006285172421485186,-0.42264148592948914,0.11697802692651749,9.806547164916992
18.44,-0.03210597112774849,0.007645413279533386,-0.024862034246325493,-0.7995770573616028,-0.22947652637958527,9.276105880737305
18.46,0.00397495785728097,0.045888420194387436,-0.029478885233402252,-0.7415961623191833,-0.786778450012207,9.378156661987305
18.48,0.048571713268756866,0.02714688889682293,-0.01195443980395794,-0.42412546277046204,-0.9351520538330078,9.532843589782715
18.5,0.055102404206991196,0.01090254820883274,0.015453372150659561,0.05955706536769867,-0.665614128112793,9.420294761657715
18.52,0.08149317651987076,0.014796450734138489,0.02856016345322132,0.08138111233711243,-0.0247629564255476,9.511427879333496
18.54,0.09638221561908722,-0.020450469106435776,0.03697576746344566,-0.5602418780326843,0.4797295331954956,9.965401649475098
18.56,0.03070611134171486,-0.04964810237288475,0.016600564122200012,-0.9591497182846069,0.6906470060348511,10.476229667663574
18.580000000000002,0.03316761553287506,-0.019692817702889442,-0.012838437221944332,-0.9645048379898071,0.5477055311203003,10.264941215515137
18.6,0.06301254034042358,0.009776840917766094,-0.023532073944807053,-0.865671694278717,0.12258043140172958,9.671679496765137
18.62,0.028560370206832886,0.03224153071641922,-0.02826799266040325,-0.5603185892105103,-0.010047861374914646,9.34333324432373
18.64,-0.015775902196764946,0.01304815337061882,-0.021205691620707512,-0.4376316964626312,0.5109800696372986,9.86780071258545
18.66,-0.004422177094966173,-0.00540023110806942,0.00184535700827837,-0.5246014595031738,0.8506854176521301,10.78714370727539
18.68,-0.012740131467580795,-0.031871210783720016,0.035830751061439514,-0.5629473924636841,0.5343130826950073,10.362290382385254
18.7,0.03136076405644417,-0.026428351178765297,0.08075851202011108,-0.6564809679985046,0.02799990214407444,9.031392097473145
18.72,0.07667294889688492,0.006906498223543167,0.07980375736951828,-0.5904984474182129,-0.5258179903030396,8.69388198852539
18.740000000000002,0.025750217959284782,-0.007014566101133823,0.0498182475566864,-0.17877696454524994,-0.489231675863266,9.453751564025879
