time,wx,wy,wz,ax,ay,az
0.0,0.07452994585037231,-0.05672663077712059,0.012387491762638092,-0.49324506521224976,-0.3454340994358063,9.826654434204102
0.02,0.06818998605012894,-0.02563249133527279,-0.004619683139026165,-0.5445777177810669,0.11312802135944366,9.864335060119629
0.04,0.013271646574139595,-0.02736704610288143,-0.018913306295871735,-0.3091753125190735,0.5037660598754883,9.809907913208008
0.06,0.02492896281182766,-0.022637616842985153,-0.020743250846862793,-0.18067213892936707,0.6705936789512634,9.6040620803833
0.08,-0.008819201961159706,-0.017408648505806923,-0.027636483311653137,0.004359905142337084,0.6024444699287415,9.497855186462402
0.1,-0.018289174884557724,-0.05079992115497589,0.009637809358537197,0.3154812753200531,0.5158116817474365,10.19014835357666
0.12,-0.02564338967204094,-0.076106496155262,0.02973651885986328,0.4318282902240753,0.4171827435493469,10.46886157989502
0.14,0.015803279355168343,-0.05860096961259842,0.02104538306593895,0.2798311114311218,0.48318660259246826,10.231847763061523
0.16,-0.014194630086421967,-0.040128905326128006,-0.003560309298336506,0.24801219999790192,0.5243337750434875,9.64852523803711
0.18,-0.006756172515451908,-0.09386186301708221,-0.01900465600192547,0.3336484730243683,0.38341739773750305,9.395828247070312
0.2,-0.015934810042381287,-0.12024150043725967,-0.03813383728265762,0.2599579095840454,0.059476740658283234,9.568291664123535
0.22,0.036820195615291595,-0.07296908646821976,-0.01795661635696888,0.054047681391239166,-0.29162973165512085,9.59549617767334
0.24,0.04766254872083664,-0.054213959723711014,0.007445458322763443,-0.12018976360559464,-0.3400041162967682,9.78178882598877
0.26,-0.044443320482969284,-0.07076486200094223,0.012148559093475342,0.056737836450338364,0.11357644945383072,10.529390335083008
0.28,-0.014298582449555397,-0.04478629305958748,0.010285673663020134,0.3066251873970032,0.8460007905960083,10.121660232543945
0.3,-0.010791453532874584,0.016653940081596375,-0.017634235322475433,0.7073787450790405,1.1543262004852295,9.017467498779297
0.32,-0.025429528206586838,0.01075007114559412,-0.021504487842321396,0.9219973087310791,0.808768630027771,8.923686981201172
0.34,-0.0212973915040493,0.0005628019571304321,-0.005425925832241774,0.8095536231994629,0.23374855518341064,9.51313304901123
0.36,-0.024351883679628372,-0.005151207093149424,0.029481083154678345,0.5113546252250671,-0.07107958942651749,9.809534072875977
0.38,-0.028240395709872246,0.00096566800493747,0.047367483377456665,-0.006747418083250523,-0.05609386786818504,10.047331809997559
0.4,-0.029419029131531715,-0.010904908180236816,0.06567815691232681,-0.17552804946899414,0.15189650654792786,10.598198890686035
0.42,-0.008390792645514011,-0.02018754370510578,0.037262678146362305,-0.03483229875564575,0.32208698987960815,10.716041564941406
0.44,0.0017862149979919195,-0.023984743282198906,-0.018056388944387436,-0.24806037545204163,0.4462459981441498,9.684921264648438
0.46,0.018543608486652374,-0.04673584923148155,-0.04855811968445778,-0.4601421356201172,0.334501177072525,9.096518516540527
0.48,-0.014538737013936043,-0.05100133642554283,-0.07291725277900696,-0.29950612783432007,0.047340571880340576,9.085192680358887
0.5,-0.009288683533668518,-0.03564665466547012,-0.05169137939810753,0.010203622281551361,0.19142156839370728,9.704474449157715
0.52,-0.005696458742022514,-0.030645886436104774,-0.0024808933958411217,-0.02628963068127632,0.19809682667255402,10.468177795410156
0.54,-0.037317559123039246,0.02046545408666134,0.04290524497628212,0.13305382430553436,0.22079229354858398,10.432271957397461
0.56,-0.019113237038254738,0.026523366570472717,0.08929271250963211,0.019911952316761017,0.5014812350273132,9.679248809814453
0.58,0.010624658316373825,0.025971055030822754,0.09438755363225937,0.32241788506507874,0.3769702911376953,9.57608699798584
0.6,0.04299407824873924,0.025822501629590988,0.06993726640939713,0.9273804426193237,0.15303809940814972,10.111242294311523
0.62,0.06729184836149216,0.02415940910577774,0.020099829882383347,1.182803750038147,-0.1617366373538971,10.1080322265625
0.64,0.077918142080307,-0.02302614413201809,-0.029695216566324234,1.0804336071014404,-0.40717288851737976,9.48194694519043
0.66,0.03616553917527199,-0.050557415932416916,-0.058446004986763,0.6867659687995911,-0.2715566158294678,9.102173805236816
0.68,0.006001711823046207,-0.0008139102137647569,-0.04617636650800705,0.13151231408119202,0.27638497948646545,9.542569160461426
0.7000000000000001,0.06414153426885605,0.03295978158712387,-0.019356444478034973,-0.12087762355804443,0.6206056475639343,9.889867782592773
0.72,-1.0417570592835546e-05,0.026157459244132042,-0.0014315065927803516,-0.16960062086582184,0.7866657972335815,9.98585319519043
0.74,-0.05678736791014671,0.0008943155989982188,-0.006002358160912991,0.014234120026230812,1.0378059148788452,10.117762565612793
0.76,-0.027857521548867226,-0.0065271202474832535,0.013243562541902065,0.16819152235984802,0.8684365749359131,9.997669219970703
0.78,-0.022526780143380165,-0.003195681143552065,0.0037787840701639652,0.044678814709186554,0.27805623412132263,9.238776206970215
0.8,-0.08197981119155884,-0.046286482363939285,0.0013444374781101942,0.0554424412548542,0.03419463336467743,8.99612045288086
0.8200000000000001,-0.06260783225297928,-0.05306572839617729,0.0060347020626068115,0.014398561790585518,0.14202968776226044,9.678155899047852
0.84,-0.01440789271146059,0.002588027622550726,0.008355916477739811,-0.1642601042985916,0.0321524553000927,10.753337860107422
0.86,-0.023714737966656685,0.009610351175069809,0.036106593906879425,-0.27134254574775696,-0.30627498030662537,10.106119155883789
0.88,0.045441482216119766,-0.027639437466859818,0.020111730322241783,0.029027823358774185,-0.26333358883857727,9.577102661132812
0.9,0.017378617078065872,0.013641953468322754,0.005723592359572649,0.24526238441467285,-0.07603055238723755,9.690878868103027
0.92,0.05691605061292648,0.034610118716955185,-0.03349088877439499,0.4936932623386383,0.14484481513500214,9.920584678649902
0.9400000000000001,0.08437743037939072,0.028247755020856857,-0.0281231552362442,0.6764022707939148,-0.07225920259952545,9.81478214263916
0.96,0.023152189329266548,0.01956089958548546,0.002697156509384513,0.786827802658081,0.09363523870706558,9.85666561126709
0.98,0.04634993150830269,0.048856545239686966,0.0127112977206707,0.8703538179397583,0.4862993061542511,10.257089614868164
1.0,0.08390896767377853,0.04048244655132294,0.03434034809470177,0.6583585143089294,0.5164322257041931,9.790313720703125
1.02,0.05386696755886078,0.035680461674928665,0.04150975123047829,0.3224610686302185,0.38434386253356934,9.11801815032959
1.04,-0.024986632168293,0.02686561830341816,0.024743396788835526,0.1414918750524521,0.6211108565330505,9.108841896057129
1.06,0.04632776603102684,-0.00044069995055906475,-0.008909668773412704,-0.11215472966432571,0.8446438312530518,9.955329895019531
1.08,0.050808873027563095,-0.024324003607034683,-0.023395521566271782,-0.23282067477703094,0.7062506675720215,10.340974807739258
1.1,-0.027202222496271133,-0.053911540657281876,-0.007244800683110952,-0.27262434363365173,0.24334971606731415,10.058378219604492
1.12,0.02675572969019413,-0.06022699177265167,0.009458878077566624,-0.276279091835022,0.14517948031425476,10.111566543579102
1.1400000000000001,0.0002757144975475967,-0.06873995065689087,0.009992978535592556,-0.15807995200157166,0.0832156240940094,9.54941463470459
1.16,0.0005833908799104393,-0.04036019742488861,-0.007899082265794277,-0.036077361553907394,0.32624873518943787,8.945549011230469
1.18,-0.05686662718653679,-0.014807511121034622,-0.018152274191379547,0.21295002102851868,0.5548761487007141,9.203901290893555
1.2,-0.016251005232334137,0.014364815317094326,-0.04226936399936676,0.4423724114894867,0.4693808853626251,10.147007942199707
1.22,0.0030316065531224012,0.042484503239393234,-0.032005615532398224,0.6811644434928894,0.2666286528110504,10.381424903869629
1.24,0.02710913121700287,0.057830292731523514,-0.005629785358905792,0.753638744354248,0.02767067961394787,10.135448455810547
1.26,0.007071401458233595,0.08703833818435669,0.03868450969457626,0.8277044892311096,0.10465981066226959,9.91606330871582
1.28,0.020613886415958405,0.08959054201841354,0.043368250131607056,0.8682422637939453,0.1693568080663681,9.534807205200195
1.3,0.01049928367137909,0.07791854441165924,0.016185911372303963,0.7979835271835327,0.4450569748878479,9.521767616271973
1.32,0.0023704173509031534,0.07849539816379547,-0.0063927737064659595,0.5819637179374695,0.5498495697975159,9.356221199035645
1.34,-0.010032464750111103,0.062078237533569336,-0.022328902035951614,0.11235369741916656,0.3503645956516266,9.62060260772705
1.36,-0.026816589757800102,0.047451555728912354,-0.02248353324830532,-0.33528491854667664,0.45972564816474915,10.165844917297363
1.3800000000000001,0.02381100319325924,0.04127984121441841,-0.01389017142355442,-0.43518492579460144,0.5341339111328125,10.301523208618164
1.4000000000000001,-0.017961399629712105,0.02532895654439926,0.017556050792336464,-0.4401342570781708,0.3657768964767456,9.81058406829834
1.42,-0.04652594402432442,0.017854176461696625,0.03960202634334564,-0.5311411619186401,0.19688007235527039,9.71135139465332
1.44,0.018196944147348404,0.027093390002846718,0.032118551433086395,-0.49243754148483276,0.14945591986179352,9.716626167297363
1.46,-0.015200944617390633,0.0470365434885025,0.009773730300366879,-0.4292384386062622,0.06411740183830261,9.496761322021484
1.48,-0.02302701584994793,0.03163304924964905,-0.0073433187790215015,-0.1563798487186432,0.33356615900993347,9.854889869689941
1.5,-0.006834208499640226,0.0011606421321630478,-0.03819376975297928,0.343781977891922,0.5895515084266663,10.046538352966309
1.52,0.02853926084935665,-0.027559146285057068,-0.025835426524281502,0.5813798308372498,0.26104864478111267,9.863739967346191
1.54,-0.004261215683072805,-0.06483485549688339,-0.004894324578344822,0.363414466381073,0.11923648416996002,9.461421966552734
1.56,0.020235681906342506,-0.05889640748500824,0.012720678932964802,-0.09329687803983688,0.13623374700546265,9.766145706176758
1.58,0.02760688215494156,-0.02913130633533001,0.03193087503314018,-0.27281424403190613,0.280021607875824,10.3627290725708
1.6,0.010049015283584595,0.002760012401267886,0.020009994506835938,0.04167462885379791,0.6475238800048828,10.2477388381958
1.62,0.06196004897356033,-0.0037432932294905186,0.0021674593444913626,0.5038661956787109,0.6107233762741089,9.426010131835938
1.6400000000000001,0.04349295049905777,-0.016536226496100426,-0.0008423401741310954,0.7867013812065125,0.22825756669044495,9.06900405883789
1.6600000000000001,0.03624440357089043,-0.009827468544244766,-0.01702127978205681,0.6911672949790955,-0.0733761191368103,9.377503395080566
1.68,0.020828137174248695,0.010141832754015923,-0.013911905698478222,0.23956003785133362,-0.04977346956729889,9.838093757629395
1.7,-0.022087840363383293,0.023136960342526436,-0.014218535274267197,0.05655643716454506,0.3168119490146637,10.113872528076172
1.72,0.019790809601545334,0.01481191162019968,0.000738686416298151,0.00691264308989048,0.8366572856903076,9.960188865661621
1.74,-0.0066541638225317,0.0226034764200449,-0.0037143041845411062,-0.015346349216997623,0.9715420007705688,9.702278137207031
1.76,-0.03944109007716179,0.04664154350757599,-0.009481462650001049,0.0426722876727581,0.7778279185295105,9.581940650939941
1.78,-0.03401906043291092,0.03012295439839363,-0.013385591097176075,-0.0691603496670723,0.478776216506958,9.765289306640625
1.8,-0.04364688694477081,-0.011764590628445148,-0.0006496930727735162,-0.10306338965892792,0.1739242970943451,9.959100723266602
1.82,-0.06393693387508392,-0.006564016919583082,0.013420245610177517,0.003482251428067684,0.3246725797653198,9.929350852966309
1.84,-0.022777194157242775,-0.02008076384663582,0.01155541930347681,0.09562180936336517,0.22698384523391724,9.56420612335205
1.86,-0.04034406319260597,-0.04051117226481438,-0.0005438587395474315,0.11706215888261795,0.10139315575361252,9.81166934967041
1.8800000000000001,-0.03202221915125847,-0.03948059678077698,-0.003787345951423049,0.010128217749297619,0.16764922440052032,9.850983619689941
1.9000000000000001,-0.008130870759487152,-0.011792193166911602,0.006496252957731485,-0.030934441834688187,0.11039720475673676,9.625701904296875
1.92,-0.013815462589263916,0.005705134477466345,0.004208899103105068,-0.050220079720020294,0.00411867955699563,9.521517753601074
1.94,0.028778614476323128,0.027447374537587166,0.0005391009617596865,-0.0007798706064932048,0.40689465403556824,9.89645767211914
1.96,0.051072973757982254,0.044680677354335785,0.017679518088698387,0.3175787031650543,0.11064927279949188,9.925915718078613
1.98,0.010737372562289238,0.04467920586466789,0.03133675083518028,0.6782722473144531,0.07238759100437164,9.642589569091797
2.0,0.07677022367715836,0.030765831470489502,0.03305421397089958,0.7369264364242554,0.03243156895041466,9.770316123962402
2.02,0.05836945399641991,0.05445994809269905,0.03745845705270767,0.5946034789085388,0.22634755074977875,9.828959465026855
2.04,0.09391678869724274,0.0681707039475441,0.03173010051250458,0.2556854486465454,0.5370783805847168,10.055760383605957
2.06,0.055682938545942307,0.06136661022901535,-0.0063087427988648415,-0.1769583374261856,0.588509738445282,9.761262893676758
2.08,0.008344464935362339,0.03397434949874878,-0.03489949181675911,-0.3773023188114166,0.5416949987411499,9.75895881652832
2.1,0.04549286141991615,0.025475261732935905,-0.036283932626247406,-0.4148692786693573,0.30918169021606445,10.022884368896484
2.12,0.009508119896054268,0.024557316675782204,-0.028697293251752853,-0.4444500505924225,0.2812226414680481,10.151861190795898
2.14,-0.013922073878347874,0.011319952085614204,-0.019509755074977875,-0.45391345024108887,0.4923307001590729,10.028108596801758
2.16,-0.024409590288996696,-0.02388138696551323,0.009336507879197598,-0.305131196975708,0.7335885167121887,9.486077308654785
2.18,-0.04369162768125534,-0.01220688596367836,0.01491559948772192,-0.13490188121795654,0.7981502413749695,9.12264633178711
2.2,-0.03525005280971527,-0.008221113122999668,0.022524990141391754,0.14247584342956543,0.5000594258308411,9.040894508361816
2.22,-0.04256773367524147,-0.03453245759010315,0.006357602775096893,0.2878037393093109,0.2510469853878021,10.253437042236328
2.24,-0.012900729663670063,-0.05530903488397598,-0.013956905342638493,0.196433886885643,0.30389654636383057,10.944147109985352
2.2600000000000002,-0.048458345234394073,-0.0418873205780983,-0.014664570800960064,0.07916733622550964,0.5722082853317261,10.473763465881348
2.2800000000000002,-0.018947672098875046,-0.027557091787457466,-0.010038221254944801,0.06167270615696907,0.20809343457221985,8.870954513549805
2.3000000000000003,-0.03991593420505524,-0.03006252460181713,0.005261206533759832,-0.037912819534540176,0.12163747847080231,9.003222465515137
2.32,-0.03215819224715233,-0.018102027475833893,0.01006652507930994,-0.11261431872844696,0.14297498762607574,10.162294387817383
2.34,-0.034323304891586304,-0.0155129823833704,0.009888681583106518,0.13950954377651215,0.1920284926891327,10.644519805908203
2.36,-0.04457510635256767,-0.057023972272872925,-0.0031343314331024885,0.365467369556427,0.4660487771034241,10.302770614624023
2.38,-0.004608433227986097,-0.07812359929084778,-0.022627554833889008,0.30087727308273315,0.7302023768424988,9.202938079833984
2.4,-0.0005157355917617679,-0.07506892830133438,-0.02934173122048378,-0.057321157306432724,0.5799325108528137,8.737150192260742
2.42,-0.017461061477661133,-0.04326172173023224,-0.018434671685099602,-0.3118906021118164,0.17901760339736938,9.350765228271484
2.44,-0.05030188336968422,-0.035073116421699524,-0.0013757179258391261,-0.1214950680732727,-0.10349415242671967,10.092768669128418
2.46,-0.013117440976202488,-0.03971615433692932,0.01790553331375122,0.291387677192688,-0.09297242760658264,10.265247344970703
2.48,-0.020644763484597206,-0.027106188237667084,0.035681743174791336,0.6015745401382446,0.0623001903295517,9.771469116210938
2.5,-0.018057091161608696,-0.004830918740481138,0.016243543475866318,0.6670542359352112,0.16934964060783386,9.073582649230957
2.52,0.01623692736029625,0.005067277234047651,-0.003824525512754917,0.5032898783683777,0.3446502983570099,9.516082763671875
2.54,-0.006174317095428705,0.00911870039999485,-0.0293135866522789,0.2844393849372864,0.44025787711143494,10.237330436706543
2.56,-0.028137139976024628,0.03340096399188042,-0.0298459455370903,0.10095381736755371,0.36917099356651306,10.448136329650879
2.58,-0.05191768333315849,0.032302144914865494,-0.01476670615375042,0.11767809092998505,0.4541942775249481,10.001995086669922
2.6,-0.04432942345738411,0.04497624933719635,0.006429971661418676,0.07185270637273788,0.4946563243865967,9.437592506408691
2.62,-0.013755732215940952,0.03682858496904373,0.02291485294699669,-0.062171898782253265,0.4806002080440521,9.581537246704102
2.64,-0.035564884543418884,0.037188950926065445,0.027685366570949554,-0.10055862367153168,0.49455341696739197,10.03751277923584
2.66,-0.05384243279695511,0.03977281600236893,0.013004963286221027,-0.03962082788348198,0.44020745158195496,10.105914115905762
2.68,-0.03878788277506828,0.053516410291194916,-0.023384330794215202,0.16830141842365265,0.3402811884880066,10.021276473999023
2.7,-0.03718854486942291,0.04997361823916435,-0.03509866073727608,0.36814290285110474,0.11478052288293839,9.718522071838379
2.72,-0.004362264182418585,0.03801726549863815,-0.03106422908604145,0.20985126495361328,-0.0809326097369194,9.288454055786133
2.74,0.005362062249332666,0.007986589334905148,-0.017426185309886932,0.017320452257990837,-0.4381493330001831,9.683112144470215
2.7600000000000002,0.03016253188252449,0.005629169289022684,0.007945062592625618,-0.14655926823616028,-0.6597352623939514,10.127031326293945
2.7800000000000002,0.004797632340341806,-0.007406707853078842,0.013558892533183098,-0.2133365273475647,-0.316160649061203,9.767077445983887
2.8000000000000003,0.018347587436437607,0.010485456325113773,0.02171529084444046,-0.03500691428780556,0.06278727203607559,9.22791576385498
2.82,-0.02291349321603775,-0.013766851276159286,0.007437102030962706,0.08141128718852997,0.6340848803520203,9.19588851928711
2.84,0.034449946135282516,0.00323742488399148,0.0004431049746926874,-0.006992863956838846,0.8942854404449463,9.862282752990723
2.86,0.03826836869120598,-0.0012419505510479212,-0.011321498081088066,-0.15522021055221558,0.5246233940124512,10.475345611572266
2.88,0.018379973247647285,0.025346480309963226,-0.003952764440327883,-0.10770178586244583,0.39556267857551575,10.36703109741211
2.9,0.021123068407177925,0.06488392502069473,0.015773452818393707,0.18171994388103485,0.2567712962627411,9.741684913635254
2.92,0.0013690963387489319,0.05633935704827309,0.008170314133167267,0.613978385925293,0.09262813627719879,9.342646598815918
2.94,-0.0334867425262928,0.025719497352838516,0.0005869412561878562,0.819312334060669,0.10304228961467743,9.172791481018066
2.96,0.007818949408829212,0.022533122450113297,0.0032942991238087416,0.6229303479194641,0.22738221287727356,9.341290473937988
2.98,-0.0164690800011158,0.014901462942361832,-0.010301298461854458,-0.00257936236448586,0.19936437904834747,9.942891120910645
3.0,-0.01788489706814289,0.0015111269894987345,-0.011907742358744144,-0.38308531045913696,0.27764901518821716,9.977925300598145
3.02,-0.01471010409295559,-0.007732072379440069,0.008152625523507595,-0.31064340472221375,0.29847127199172974,9.629546165466309
3.04,-0.012502023950219154,-0.003157078055664897,0.036925122141838074,-0.29580649733543396,0.09313394129276276,9.793874740600586
3.06,1.6001176845747977e-05,-0.020237259566783905,0.04721396043896675,-0.2689816951751709,0.0858691856265068,10.098381042480469
3.08,0.03806217014789581,-0.06621832400560379,0.04265794903039932,-0.10771412402391434,-0.0949607565999031,9.720816612243652
3.1,0.05601370707154274,-0.07121703028678894,0.02794661745429039,-0.19884133338928223,-0.28470495343208313,9.631199836730957
3.12,0.04308287799358368,-0.07790633291006088,-0.02572072669863701,-0.3042847216129303,0.12010756134986877,10.028876304626465
3.14,0.07285632938146591,-0.06086688116192818,-0.06278511881828308,-0.30682572722435,0.5010101199150085,10.0125150680542
3.16,0.00804955791682005,-0.018596570938825607,-0.06686603277921677,-0.49647149443626404,0.4921639859676361,9.806295394897461
3.18,0.00678078131750226,0.017855297774076462,-0.05896018445491791,-0.5730738043785095,0.4769864082336426,9.917069435119629
3.2,-0.011639824137091637,-0.007503002416342497,-0.0465376079082489,0.4089176654815674,0.36157897114753723,9.924410820007324
3.22,-0.00699619622901082,-0.042892683297395706,-0.005031038075685501,1.2177116870880127,0.2974347472190857,9.828847885131836
3.24,0.018201349303126335,-0.015586063265800476,0.023750750347971916,1.1327533721923828,0.38166099786758423,9.719714164733887
3.2600000000000002,-0.049100395292043686,-0.015310784801840782,0.0035244356840848923,0.380515992641449,0.44245007634162903,9.717328071594238
3.2800000000000002,-0.010513809509575367,0.023997865617275238,-0.0012838119873777032,-0.26750051975250244,0.5163816213607788,10.509560585021973
3.3000000000000003,-0.03235555440187454,0.02209446206688881,-0.011135808192193508,-0.0030368464067578316,0.26234889030456543,10.320908546447754
3.3200000000000003,-0.05320725217461586,-0.006432696245610714,-0.0071840970776975155,0.505422830581665,0.11072251945734024,9.43632984161377
3.34,-0.023633448407053947,-0.005760707892477512,0.0018321748357266188,0.5447224378585815,-0.13357143104076385,9.19131088256836
3.36,0.027118651196360588,0.010062405839562416,-0.005816071759909391,0.13657253980636597,-0.2690125107765198,9.57681941986084
3.38,-0.038851719349622726,-0.028123969212174416,-0.020329490303993225,-0.3139263093471527,0.012418598867952824,10.050467491149902
3.4,-0.03465034067630768,-0.03649499639868736,-0.02047310397028923,-0.5996477603912354,0.4637337327003479,10.215631484985352
3.42,-0.03216427564620972,0.003762504318729043,-0.014258875511586666,-0.3383141756057739,0.5868149399757385,10.121755599975586
3.44,-0.012743724510073662,0.010510767810046673,-0.004503759555518627,0.14647631347179413,0.24293209612369537,9.698653221130371
3.46,-0.003444765228778124,-0.01003764197230339,0.003863477846607566,0.5465890169143677,0.04224136844277382,9.388118743896484
3.48,-0.006840168964117765,-0.041316986083984375,0.010261896066367626,0.5319848656654358,0.0387684628367424,9.400662422180176
3.5,0.0003862289304379374,-0.03121986612677574,0.004733767360448837,0.2048947662115097,-0.0333736389875412,9.64369010925293
3.52,0.012745733372867107,0.0028719198890030384,-0.00888130534440279,0.07271482050418854,0.0992632806301117,9.541874885559082
3.54,-0.003628854639828205,-0.008606748655438423,-0.018554216250777245,0.12867695093154907,0.38650092482566833,9.464439392089844
3.56,-0.011797536164522171,-0.014310342259705067,-0.026750069111585617,0.23875692486763,0.476089209318161,9.798941612243652
3.58,0.00776195852085948,0.001480561913922429,-0.02245572954416275,0.10279752314090729,0.5154456496238708,10.117294311523438
3.6,0.016725102439522743,-0.013795498758554459,0.00487688509747386,0.07577326148748398,0.06519979238510132,9.760368347167969
3.62,-0.047182660549879074,-0.042547259479761124,0.01118822954595089,0.06423544883728027,0.1182362288236618,9.577386856079102
3.64,-0.0763063058257103,-0.043715573847293854,0.011764713563024998,0.11004577577114105,0.37440142035484314,9.762520790100098
3.66,-0.05497220531105995,-0.016565702855587006,-0.01032332330942154,0.23844535648822784,0.48629435896873474,9.793068885803223
3.68,-0.06516540795564651,-0.03642136603593826,0.010783729143440723,0.8802024722099304,0.2986677289009094,9.623116493225098
3.7,-0.08298023790121078,-0.044246602803468704,0.03755911439657211,0.5520696640014648,-0.12167296558618546,9.434618949890137
3.72,-0.006647877395153046,-0.012700383551418781,0.06443405151367188,0.02864752896130085,-0.17652304470539093,9.956866264343262
3.74,-0.009812526404857635,0.04572943225502968,0.065559022128582,-0.2856416404247284,-0.3061695992946625,10.194014549255371
3.7600000000000002,-0.05127754807472229,0.04651245102286339,0.0660616010427475,-0.20372574031352997,0.01488182321190834,9.609003067016602
3.7800000000000002,-0.025386380031704903,0.05841978266835213,0.04638851433992386,0.026422247290611267,0.1871093064546585,9.196660995483398
3.8000000000000003,-0.0194588303565979,0.10222285240888596,0.01433662697672844,0.3884648084640503,0.20326943695545197,9.225507736206055
3.8200000000000003,0.024092786014080048,0.058282870799303055,-0.005610838998109102,0.6239461898803711,0.1173466295003891,9.693330764770508
3.84,-0.009512601420283318,-0.014731667004525661,-0.04029121249914169,0.5285959243774414,-0.11178167909383774,10.20135498046875
3.86,-0.027717730030417442,-0.0005243310588411987,-0.07019798457622528,0.21847856044769287,0.06253933161497116,10.156044006347656
3.88,-0.05134053900837898,1.3021667655266356e-06,-0.061979275196790695,-0.4368554353713989,0.570537269115448,10.13961124420166
3.9,-0.010919136926531792,-0.02485702373087406,-0.013261792249977589,-0.6144738793373108,0.5128757953643799,10.0914945602417
3.92,0.0009787139715626836,-0.01543591357767582,0.021907800808548927,-0.459881067276001,0.06464704126119614,9.507577896118164
3.94,-0.008271386846899986,-0.003957097418606281,0.051258284598588943,-0.2430688887834549,-0.24132509529590607,9.429008483886719
3.96,-0.034326691180467606,0.002013114746659994,0.046577226370573044,-0.29575425386428833,-0.20218037068843842,9.591635704040527
3.98,-0.037891317158937454,0.018116716295480728,0.03918307274580002,-0.3161775469779968,-0.1694074422121048,9.7056884765625
4.0,0.01622343808412552,0.025759445503354073,0.006059566512703896,0.045889243483543396,0.03336780145764351,9.797124862670898
4.0200000000000005,-0.032286666333675385,0.028619810938835144,-0.020930280908942223,0.6771044731140137,0.1925158053636551,9.836260795593262
4.04,-0.024920132011175156,0.008913264609873295,-0.01271023042500019,0.8299564123153687,0.30574315786361694,10.027824401855469
4.0600000000000005,0.01039453037083149,0.010049677453935146,0.014260743744671345,0.751558780670166,0.08136919140815735,10.000797271728516
4.08,0.005609993357211351,-0.01740080490708351,0.051216188818216324,0.391641765832901,-0.09290172904729843,9.951810836791992
4.1,0.020069723948836327,-0.00878103356808424,0.058492228388786316,-0.0682898759841919,-0.12490451335906982,9.666234970092773
4.12,0.018944818526506424,0.01841999776661396,0.04981797933578491,-0.1095246747136116,-0.033879246562719345,9.514838218688965
4.14,0.06355367600917816,0.06245867535471916,0.026193754747509956,-0.09167440980672836,-0.14790451526641846,9.572425842285156
4.16,0.08193562924861908,0.06434566527605057,0.007387491874396801,-0.24766120314598083,-0.44694069027900696,10.031352996826172
4.18,0.06533598154783249,0.06320533901453018,-0.036103926599025726,-0.11534243822097778,-0.5326891541481018,10.106794357299805
4.2,0.057492196559906006,0.04378729686141014,-0.04421680420637131,0.3486153781414032,-0.2205028235912323,9.782670974731445
4.22,0.023424088954925537,0.03596868738532066,-0.015756623819470406,0.5283665060997009,0.4780544936656952,9.601876258850098
4.24,0.02925759181380272,0.006777024362236261,0.011458437889814377,0.258211612701416,0.7793126702308655,10.13475513458252
4.26,0.045438118278980255,0.002354040276259184,0.006692598108202219,-0.42342931032180786,0.7820452451705933,10.265429496765137
4.28,0.054784778505563736,0.01637614518404007,-0.005530078429728746,-0.6769298315048218,0.5392484664916992,10.180160522460938
4.3,-0.018540946766734123,0.010296851396560669,-0.025456901639699936,-0.5627449750900269,0.3819940686225891,10.075937271118164
4.32,-0.06321592628955841,-0.029048213735222816,-0.02441488578915596,-0.08148568123579025,0.44099193811416626,9.96578598022461
4.34,-0.04949924349784851,-0.03042611852288246,-0.002050849376246333,0.1590449959039688,0.15306083858013153,9.685136795043945
4.36,-0.05661625415086746,-0.011339341290295124,0.030120227485895157,0.17392776906490326,-0.08942940831184387,9.514020919799805
4.38,-0.04068037495017052,0.012758633121848106,0.04590954631567001,0.21244114637374878,-0.3339565694332123,9.514938354492188
4.4,-0.03437182307243347,-0.0020570361521095037,0.06364670395851135,0.2790754437446594,-0.31550559401512146,9.627267837524414
4.42,-0.00509535102173686,0.01748652197420597,0.09103967249393463,0.4587273597717285,-0.33447301387786865,9.986327171325684
4.44,-0.009633720852434635,0.012524746358394623,0.1237853541970253,0.7447911500930786,-0.17619004845619202,9.488980293273926
4.46,0.04972647875547409,-0.010548335500061512,0.17752574384212494,0.9032917022705078,-0.14501571655273438,9.40239143371582
4.48,0.036072567105293274,-0.013891496695578098,0.20459359884262085,0.4349735975265503,-0.12604230642318726,9.738242149353027
4.5,0.031820449978113174,0.007934643886983395,0.22291430830955505,0.23673346638679504,0.2052992880344391,9.550576210021973
4.5200000000000005,0.08616882562637329,0.023076137527823448,0.2100362777709961,0.2592781186103821,0.4440803527832031,8.897102355957031
4.54,0.0384669192135334,0.03958097845315933,0.18316680192947388,-0.03606417030096054,0.5131498575210571,8.913253784179688
4.5600000000000005,0.040609050542116165,0.06459489464759827,0.17403696477413177,-0.6006115078926086,0.23123584687709808,9.627141952514648
4.58,0.0032533565536141396,0.06162094324827194,0.20692886412143707,-0.6103598475456238,-0.016685476526618004,9.709074020385742
4.6000000000000005,-0.02372293919324875,0.008449154905974865,0.2491622269153595,-0.35704827308654785,0.15999984741210938,9.853714942932129
4.62,-0.06030812859535217,0.022321416065096855,0.2943800389766693,-0.2563932240009308,0.3764129877090454,9.58655834197998
4.64,-0.035603880882263184,0.02114868350327015,0.29115772247314453,-0.38788628578186035,0.6233991980552673,8.454477310180664
4.66,-0.044200316071510315,-8.351924770977348e-05,0.26314303278923035,-0.20708367228507996,0.2226962298154831,8.835623741149902
4.68,-0.04841015487909317,-0.049119580537080765,0.17935389280319214,-0.06676918268203735,0.26485487818717957,9.782859802246094
4.7,-0.01457870565354824,-0.0049002026207745075,0.09161291271448135,0.005249087233096361,0.3798011243343353,9.828384399414062
4.72,-0.023605577647686005,0.0017077176598832011,-0.008247369900345802,-0.20449361205101013,0.6547844409942627,9.696208953857422
4.74,-0.012041281908750534,-0.03422963619232178,-0.07568531483411789,0.008003977127373219,0.6825054287910461,9.721341133117676
4.76,-0.031320638954639435,-0.03746867552399635,-0.08754497766494751,0.17280703783035278,0.04894397035241127,9.681419372558594
4.78,-0.06091116741299629,-0.007499623112380505,-0.03254750370979309,0.3591107726097107,-0.3678041398525238,9.771888732910156
4.8,-0.045742250978946686,0.006273284088820219,0.008040448650717735,0.4540603756904602,-0.26112625002861023,9.72429370880127
4.82,-0.06182089075446129,0.0016068954719230533,0.03607409447431564,0.3770688474178314,0.16520537436008453,9.245850563049316
4.84,-0.08704815804958344,0.00898453313857317,0.04271365702152252,0.12430738657712936,0.6605128645896912,9.749910354614258
4.86,-0.05766534060239792,0.017622197046875954,0.014595168642699718,-0.15277087688446045,0.6807523965835571,10.305174827575684
4.88,-0.06972754001617432,0.013211718760430813,0.012214286252856255,-0.3020004630088806,0.08606832474470139,10.366780281066895
4.9,-0.06778362393379211,0.02079317718744278,-0.0021538755390793085,-0.16079261898994446,-0.5817722678184509,9.497541427612305
4.92,-0.043939050287008286,0.02223547175526619,-0.013398070819675922,-0.0986381322145462,-0.6946069598197937,9.084491729736328
4.94,-0.002284763613715768,0.011137984693050385,-0.009631698951125145,-0.1300426721572876,-0.4480459690093994,9.600042343139648
4.96,0.028006669133901596,-0.0063294521532952785,-0.013262547552585602,0.08362388610839844,-0.21124888956546783,10.081724166870117
4.98,0.012062858790159225,-0.03779923915863037,-0.005634868051856756,0.17236748337745667,-0.09410123527050018,9.860730171203613
5.0,0.003056939458474517,-0.055999211966991425,-0.015818817541003227,-0.1474354863166809,-0.17969270050525665,10.021403312683105
5.0200000000000005,-0.02142021805047989,-0.1029154434800148,-0.01605810411274433,-0.6258383393287659,-0.17774797976016998,10.632923126220703
5.04,0.029614748433232307,-0.0865938812494278,-0.013676137663424015,-0.5883592367172241,0.16682858765125275,10.294522285461426
5.0600000000000005,-0.00840231403708458,-0.08264967799186707,-0.010818819515407085,-0.2195873260498047,0.25244584679603577,9.368022918701172
5.08,0.009828191250562668,-0.09949367493391037,-0.0018952784594148397,0.1158846989274025,0.31696629524230957,8.71129035949707
5.1000000000000005,-0.027162304148077965,-0.09872473776340485,0.007563603110611439,0.3233330547809601,0.2801751494407654,9.097661018371582
5.12,-0.04206521064043045,-0.0975775197148323,0.01831677556037903,0.44849953055381775,0.19043053686618805,9.826377868652344
5.14,-0.035966139286756516,-0.0863170251250267,0.022518277168273926,0.2505457401275635,-0.12488622218370438,10.495674133300781
5.16,0.002648875815793872,-0.0737093836069107,0.02991907112300396,0.013300931081175804,-0.6248579025268555,10.666621208190918
5.18,-0.008585546165704727,-0.04436219111084938,0.030877498909831047,0.1355404555797577,-0.6075094938278198,10.433416366577148
5.2,0.009039978496730328,-0.022636257112026215,0.03526284918189049,0.35652345418930054,-0.24827714264392853,9.388585090637207
5.22,0.03135412558913231,-0.03139668330550194,0.025779400020837784,0.4674708843231201,0.08361537754535675,8.752634048461914
5.24,0.06501389294862747,-0.031333111226558685,0.0329584963619709,0.5017485022544861,0.09445413947105408,9.267375946044922
5.26,0.053846314549446106,-0.03186144307255745,0.024212470278143883,0.34566161036491394,-0.025766072794795036,10.370321273803711
5.28,0.04522727057337761,-0.026741642504930496,-0.003840623190626502,0.1716710478067398,0.0009445750038139522,11.047863006591797
5.3,-0.03212543576955795,-0.04983339458703995,-0.035237062722444534,0.17463445663452148,0.10231359302997589,10.651141166687012
5.32,0.01206320058554411,-0.061644673347473145,-0.030073055997490883,0.220561683177948,0.15618188679218292,9.874741554260254
5.34,-0.022088855504989624,-0.0385606475174427,-0.003646997967734933,0.147277370095253,0.20478715002536774,8.817412376403809
5.36,-0.06338763236999512,-0.019880352541804314,0.013113684952259064,0.2778374254703522,0.3771118223667145,8.811635971069336
5.38,-0.059593867510557175,-0.028625765815377235,0.014936648309230804,0.4568735957145691,0.4090002775192261,9.664504051208496
5.4,-0.03217051923274994,-0.0080116493627429,0.018611647188663483,0.5321105718612671,0.11479045450687408,10.251701354980469
5.42,-0.0017319668550044298,0.021714450791478157,0.023383958265185356,0.5489572286605835,-0.04891713708639145,9.919464111328125
5.44,0.00998262781649828,0.04394231736660004,0.02214345894753933,0.6123560070991516,-0.43815910816192627,9.04615306854248
5.46,0.018135691061615944,0.031631696969270706,0.028513658791780472,0.5475224852561951,-0.5487502813339233,9.197042465209961
5.48,0.024435166269540787,0.036313775926828384,0.02005433291196823,0.33431804180145264,-0.5103150606155396,10.062726020812988
5.5,0.059585511684417725,0.05402061715722084,0.017570799216628075,0.1415041834115982,-0.3177732825279236,10.942642211914062
5.5200000000000005,0.08847983181476593,0.04461772367358208,0.006125104613602161,0.11802508682012558,0.02432599663734436,10.41433334350586
5.54,0.07359649240970612,0.035642966628074646,-0.011029793880879879,0.16972005367279053,0.002347201108932495,9.080493927001953
5.5600000000000005,0.06708778440952301,0.03656107559800148,-0.002453544642776251,0.11738550662994385,0.1163487583398819,8.832042694091797
5.58,0.09333869069814682,0.01973123475909233,-0.004484565928578377,0.030722055584192276,0.08590294420719147,9.522241592407227
5.6000000000000005,0.04422658681869507,0.018594248220324516,0.00025355041725561023,0.019407639279961586,-0.010431144386529922,10.30262279510498
5.62,-0.015387432649731636,0.03656864911317825,0.004196589346975088,0.0040550860576331615,0.28302109241485596,10.376887321472168
5.64,0.008077727630734444,0.08394286781549454,0.006879957392811775,0.19319415092468262,0.5752095580101013,9.574459075927734
5.66,0.01389764342457056,0.06931868195533752,-0.01446595974266529,0.3578472137451172,0.4407530128955841,9.119409561157227
5.68,0.01009813230484724,0.05226428806781769,-0.010005117394030094,0.27334269881248474,0.07847123593091965,10.032835006713867
5.7,0.016676681116223335,0.03311876580119133,-0.005309506319463253,0.10436505824327469,-0.17149494588375092,10.734692573547363
5.72,0.004126383922994137,0.02932027168571949,-0.0048997607082128525,0.18529175221920013,-0.12989524006843567,10.198356628417969
5.74,-0.0126413032412529,0.0022807095665484667,0.0027851087506860495,0.30784985423088074,-0.16350118815898895,9.283693313598633
5.76,0.0003721113607753068,-0.017669513821601868,0.006676374468952417,0.14163587987422943,0.027951061725616455,8.894421577453613
5.78,0.016835901886224747,-0.020526044070720673,0.02030314691364765,-0.09230217337608337,-0.12941107153892517,9.60590648651123
5.8,-0.011255176737904549,-0.02580680511891842,0.012658501043915749,-0.16986657679080963,-0.12279384583234787,10.405030250549316
5.82,0.010383876040577888,-0.04282643273472786,-0.019282745197415352,-0.19619660079479218,0.07221455127000809,10.38563060760498
5.84,-0.009722743183374405,-0.02335440181195736,-0.05510428547859192,-0.29219499230384827,0.3861427903175354,9.191678047180176
5.86,-0.06507071107625961,-0.013404210098087788,-0.06530964374542236,-0.2104382961988449,0.5287671685218811,8.611790657043457
5.88,-0.049150992184877396,-0.025517910718917847,-0.048051442950963974,0.021824995055794716,0.6102097630500793,9.729958534240723
5.9,-0.05975578725337982,-0.004723709542304277,0.004975078161805868,0.06410311907529831,0.2796744108200073,11.351738929748535
5.92,-0.10307980328798294,0.018957126885652542,0.04880424216389656,0.4518822431564331,-0.03889423981308937,11.174635887145996
5.94,-0.06790824979543686,-0.0036220040637999773,0.050111912190914154,0.6233591437339783,-0.16627050936222076,10.104936599731445
5.96,-0.0927603617310524,-0.04322533309459686,0.03625166043639183,0.7014977335929871,-0.1770375669002533,8.74492073059082
5.98,-0.061396922916173935,-0.055375151336193085,0.01889713853597641,0.5836458206176758,-0.16278956830501556,8.657271385192871
6.0,0.012364341877400875,-0.07869818806648254,-0.007785589899867773,0.06156843900680542,-0.3240925371646881,9.300435066223145
6.0200000000000005,0.004988525062799454,-0.0678347647190094,-0.004462616052478552,-0.30624744296073914,-0.5401703119277954,9.850534439086914
6.04,0.016064956784248352,-0.05874842777848244,-0.01320493035018444,-0.39186128973960876,-0.4009339511394501,10.426054000854492
6.0600000000000005,0.03285936266183853,-0.014454114250838757,-0.0062638199888169765,-0.3723239600658417,-0.38939130306243896,10.294333457946777
6.08,-0.019814113155007362,-0.019345112144947052,0.015262863598763943,-0.13720069825649261,0.07107606530189514,10.073803901672363
6.1000000000000005,0.04622621834278107,-0.006458869203925133,0.012550045736134052,0.3024306893348694,0.4107486605644226,10.131684303283691
6.12,-0.001925027696415782,0.0028241577092558146,0.0018243619706481695,0.5557172298431396,0.2502908408641815,9.445551872253418
6.140000000000001,-0.047941215336322784,0.004655153024941683,0.0011705906363204122,0.7268556952476501,0.21054264903068542,9.243252754211426
6.16,-0.009422551840543747,0.005828954745084047,0.006675899960100651,0.6806374788284302,0.13756833970546722,9.615160942077637
6.18,-0.0255613774061203,-0.011293215677142143,0.02343667857348919,0.4787313640117645,0.16772478818893433,10.08332347869873
6.2,-0.001544166705571115,-0.022578168660402298,0.03703347221016884,0.29336678981781006,-0.18761000037193298,10.356281280517578
6.22,-0.025784403085708618,-0.023487864062190056,0.034263093024492264,0.09097929298877716,-0.2619476318359375,9.855220794677734
6.24,0.0015736173372715712,-0.035255108028650284,0.012998515740036964,0.04057959467172623,-0.43637073040008545,9.170469284057617
6.26,-0.0457492433488369,-0.015022356994450092,-0.012801822274923325,-0.04169241711497307,-0.39531072974205017,9.251985549926758
6.28,-0.0018334237392991781,0.01875457353889942,-0.006287908181548119,0.08663742989301682,-0.23886123299598694,9.762139320373535
6.3,0.011180024594068527,0.04145856574177742,-0.007462140638381243,0.3162792921066284,-0.1397332400083542,9.854211807250977
6.32,0.049071669578552246,0.04472703859210014,0.0126406941562891,0.4236254394054413,-0.06927815824747086,9.744866371154785
6.34,0.039556846022605896,0.05973970144987106,0.04840651527047157,0.4506140947341919,-0.05762266367673874,10.137650489807129
6.36,0.03441266342997551,0.07690928876399994,0.06044695898890495,0.6017265915870667,0.023345613852143288,10.417110443115234
6.38,-0.006074762437492609,0.06913766264915466,0.04255589842796326,0.5411672592163086,0.30514341592788696,9.977860450744629
6.4,0.013450453989207745,0.044474631547927856,0.008219250477850437,0.3916521966457367,0.20647913217544556,9.386523246765137
6.42,-0.014657814987003803,0.04319113865494728,-0.01878979429602623,0.22530360519886017,0.04141031950712204,9.641763687133789
6.44,0.0038299420848488808,0.011339164339005947,-0.01525934599339962,-0.054417457431554794,-0.08112841099500656,10.004816055297852
6.46,-0.0036148838698863983,-0.025256028398871422,-0.005197798367589712,-0.3573230803012848,-0.23410296440124512,10.040510177612305
6.48,0.02835223264992237,-0.05329098552465439,-0.008700518868863583,-0.4439028799533844,-0.26627638936042786,9.499549865722656
6.5,0.08282328397035599,-0.07577171176671982,-0.0014702826738357544,-0.4231366217136383,-0.21818950772285461,9.548032760620117
6.5200000000000005,0.0731300637125969,-0.07797019183635712,-0.0012042132439091802,-0.3916325867176056,-0.20967814326286316,9.685294151306152
6.54,0.05387015640735626,-0.07944587618112564,0.004633887205272913,-0.17101801931858063,-0.14155253767967224,9.533958435058594
6.5600000000000005,0.052000854164361954,-0.0605902224779129,0.00810719933360815,0.2863561809062958,0.07137542217969894,9.46949577331543
6.58,0.025885235518217087,-0.06728960573673248,0.001190795679576695,0.6621770858764648,0.23116886615753174,9.50048828125
6.6000000000000005,0.057661231607198715,-0.0699211061000824,-0.001625258126296103,0.8139307498931885,0.4127967655658722,10.089153289794922
6.62,0.03581872954964638,-0.04544661194086075,-0.003205577377229929,0.7591666579246521,0.3000905513763428,10.475674629211426
6.640000000000001,0.022938307374715805,-0.022995056584477425,-0.006210985593497753,0.6722295880317688,-0.07078319042921066,9.867618560791016
6.66,0.006632337346673012,-0.052509576082229614,-0.011562288738787174,0.5985467433929443,-0.23517653346061707,9.141510009765625
6.68,-0.021936703473329544,-0.05273374542593956,-0.00444745272397995,0.4245132803916931,0.03239138051867485,9.131006240844727
6.7,-0.013317134231328964,-0.021557243540883064,-0.008552278392016888,0.03357868641614914,0.22806686162948608,10.002315521240234
6.72,-0.022854506969451904,-0.02207065559923649,-0.01872268319129944,-0.24641728401184082,0.3308767080307007,10.403825759887695
6.74,-0.04549907147884369,-0.03210466355085373,-0.02207922749221325,-0.28887486457824707,0.3133009374141693,10.364370346069336
6.76,-0.020132439211010933,-0.009384488686919212,-0.005500467959791422,-0.023048067465424538,0.03592521697282791,9.850662231445312
6.78,0.005505172535777092,-0.011387188918888569,0.017820825800299644,0.49019569158554077,-0.13727863132953644,9.41296672821045
6.8,0.019171837717294693,-0.01922413520514965,0.025372572243213654,0.8152080774307251,-0.3048892021179199,9.39771842956543
6.82,0.037358224391937256,-0.0026078703813254833,0.04222271963953972,0.9852102994918823,-0.39313122630119324,9.36009693145752
6.84,0.023878183215856552,0.008506321348249912,0.021582026034593582,0.8687933683395386,-0.2627968192100525,9.71037483215332
6.86,0.013800615444779396,0.029950449243187904,-0.005220868159085512,0.6300003528594971,-0.16888545453548431,9.801668167114258
6.88,-0.011753696016967297,0.05614801496267319,-0.01856444962322712,0.43677574396133423,0.14787018299102783,9.69035816192627
6.9,0.035259343683719635,0.06512279808521271,-0.01833481527864933,0.24002765119075775,0.40321508049964905,9.840060234069824
6.92,0.044144924730062485,0.08606699109077454,-0.007797423284500837,0.213102787733078,-0.024614591151475906,9.982934951782227
6.94,0.00791120994836092,0.0975467711687088,-0.001048807054758072,0.11996284872293472,-0.055961642414331436,10.265399932861328
6.96,-0.017695534974336624,0.12121982127428055,-0.011111797764897346,0.23459230363368988,0.32761478424072266,10.22517204284668
6.98,-0.00843440368771553,0.08824941515922546,-0.02186872623860836,0.5311688780784607,0.54143887758255,9.471108436584473
7.0,-0.007269599009305239,0.0629090964794159,-0.015811597928404808,0.5501837730407715,0.26276320219039917,9.397321701049805
7.0200000000000005,-0.03002200834453106,0.04622608423233032,-0.01998787745833397,0.23643548786640167,-0.13794958591461182,9.759421348571777
7.04,-0.029073646292090416,0.052415959537029266,-0.035286445170640945,-0.35365724563598633,-0.18653786182403564,10.270115852355957
7.0600000000000005,-0.04705403000116348,0.03835320472717285,-0.030522266402840614,-0.6354477405548096,0.10780169069766998,10.456013679504395
7.08,-0.010548620484769344,0.02303425967693329,-0.01923592947423458,-0.536146879196167,0.09032703936100006,9.82800006866455
7.1000000000000005,0.016462227329611778,0.03581180423498154,0.006033320911228657,-0.3607703447341919,0.11056040972471237,9.658638954162598
7.12,-0.009137743152678013,0.0495564341545105,0.03791158273816109,-0.10231643915176392,-0.1783962845802307,9.77051067352295
7.140000000000001,-0.02377423457801342,-0.0036609626840800047,0.02202226221561432,0.45534569025039673,-0.43405085802078247,9.879936218261719
7.16,-0.009833075106143951,-0.018157968297600746,-0.008418498560786247,0.4879906177520752,-0.1596847027540207,10.105140686035156
7.18,-0.001160890911705792,0.007581199519336224,-0.022953327745199203,0.3055248260498047,0.10208133608102798,9.676719665527344
7.2,-0.011747526004910469,0.01878824643790722,-0.03200766444206238,0.20599092543125153,0.10590839385986328,9.157581329345703
7.22,-0.0406503863632679,0.0038138150703161955,-0.031226757913827896,0.27995359897613525,0.33525630831718445,9.428787231445312
7.24,-0.06604614108800888,0.0028685657307505608,-0.014644571579992771,0.27003952860832214,0.36066290736198425,10.155101776123047
7.26,-0.0067172423005104065,0.02863248996436596,0.003810622962191701,0.17736053466796875,0.02491190657019615,10.696455001831055
7.28,-0.054982926696538925,0.010458014905452728,0.008325613103806973,0.28311997652053833,-0.2781425714492798,10.333433151245117
7.3,-0.06117171049118042,-0.05379056930541992,0.009304010309278965,0.18730928003787994,-0.0817425400018692,9.03372859954834
7.32,-0.07138755917549133,-0.08990892022848129,0.001681364607065916,-0.04820728674530983,0.1881105899810791,8.561626434326172
7.34,-0.04420897364616394,-0.06642992049455643,0.003071847138926387,-0.4224507212638855,0.1970592886209488,9.108322143554688
7.36,0.008215595968067646,-0.061834730207920074,0.015533081255853176,-0.45785415172576904,-0.0628875195980072,10.299461364746094
7.38,-0.02072858437895775,-0.08954885601997375,0.01873202435672283,-0.27882182598114014,-0.4380260705947876,10.919844627380371
7.4,0.022564951330423355,-0.07926180213689804,0.029260683804750443,-0.0896594375371933,-0.5926347970962524,11.016502380371094
7.42,0.021801365539431572,-0.09897157549858093,0.024182826280593872,-0.006628019735217094,-0.46719852089881897,10.185708999633789
7.44,0.038220349699258804,-0.07261224091053009,-0.000531037978362292,0.05701572075486183,-0.03608885407447815,9.194539070129395
7.46,-0.00665238406509161,-0.07891033589839935,-0.024749426171183586,0.09379713982343674,0.2762487232685089,8.65007209777832
7.48,0.03441862761974335,-0.061882440000772476,-0.032325223088264465,0.11394746601581573,0.40889084339141846,9.348295211791992
7.5,0.025111040100455284,-0.02449490875005722,-0.0342155396938324,0.32987919449806213,0.2926326394081116,10.404022216796875
7.5200000000000005,-0.014915726147592068,-0.0010634881909936666,-0.033676888793706894,0.8638817667961121,-0.1478952020406723,10.422505378723145
7.54,-0.008015771396458149,-0.02117239125072956,-0.018605932593345642,1.3990843296051025,-0.24022649228572845,9.858325004577637
7.5600000000000005,-0.030513353645801544,-0.03210623189806938,0.006843205541372299,1.4200001955032349,-0.029468338936567307,9.025105476379395
7.58,0.005078556481748819,-0.01094743236899376,0.022729497402906418,0.9893669486045837,0.13744154572486877,9.06221866607666
7.6000000000000005,-0.027570685371756554,0.04995586723089218,0.018859105184674263,0.7343331575393677,0.051263295114040375,9.572251319885254
7.62,-0.03752245754003525,0.056113988161087036,-0.0009360226686112583,0.6505588293075562,0.009808370843529701,10.016274452209473
7.640000000000001,0.03176673874258995,0.05702011287212372,-0.009323879145085812,0.4211274981498718,-0.07601667940616608,10.087728500366211
7.66,-0.009161241352558136,0.08653298765420914,0.00014554661174770445,0.2664864659309387,-0.1440819352865219,9.855694770812988
7.68,0.0208988506346941,0.07455940544605255,0.014528700150549412,0.15933671593666077,-0.08252909034490585,9.705133438110352
7.7,0.006172032095491886,0.030509401112794876,0.023237301036715508,-0.16481059789657593,0.036456309258937836,9.766465187072754
7.72,0.008224602788686752,-0.028275413438677788,0.014854231849312782,-0.24707487225532532,0.12330117076635361,9.950643539428711
7.74,0.0035688409116119146,-0.05179651826620102,0.0015941495075821877,-0.31021660566329956,0.07832512259483337,9.860260963439941
7.76,-0.03125917911529541,-0.034067969769239426,-0.002170527819544077,-0.6612321138381958,0.18489401042461395,9.864452362060547
7.78,0.00799939688295126,-0.04839654639363289,-0.012018099427223206,-0.8286089897155762,-0.002516569569706917,9.920676231384277
7.8,0.014319422654807568,-0.04291001707315445,-0.000777353357989341,-0.6603043079376221,-0.03805746138095856,10.29996395111084
7.82,0.05279135704040527,-0.06140558049082756,0.030152013525366783,0.20253348350524902,-0.4761280417442322,9.784659385681152
7.84,0.04297809302806854,-0.0472092442214489,0.031817153096199036,0.8455603122711182,-0.450964093208313,9.163444519042969
7.86,0.04967261105775833,-0.06858460605144501,0.03162992373108864,1.0632981061935425,-0.44444867968559265,9.133169174194336
7.88,0.08453661948442459,-0.10411560535430908,0.014706223271787167,1.1242153644561768,-0.1039310097694397,9.521767616271973
7.9,0.03560393303632736,-0.06502104550600052,0.002582671819254756,0.9057537913322449,0.2258954644203186,10.035463333129883
7.92,0.03972504660487175,-0.010241571813821793,-0.027468914166092873,0.6391682028770447,0.3230624794960022,9.737081527709961
7.94,0.1317935436964035,0.02939559333026409,-0.017744064331054688,0.6777227520942688,0.2419424057006836,9.551644325256348
7.96,0.06485702097415924,0.02263529784977436,0.007523172535002232,0.7046080231666565,-0.21074973046779633,9.4043607711792
7.98,0.09896349161863327,0.024280674755573273,0.026747487485408783,0.49336451292037964,-0.2859458029270172,9.450419425964355
8.0,0.10705205053091049,0.015727557241916656,0.032804619520902634,0.22628530859947205,-0.05186087265610695,10.082390785217285
8.02,0.1124553233385086,0.03290136158466339,0.01632833294570446,0.06902080774307251,0.09273438900709152,10.548412322998047
8.040000000000001,0.10370177775621414,0.010466966778039932,-0.0020944641437381506,0.06784074753522873,0.18812976777553558,10.424803733825684
8.06,0.058151450008153915,-0.007243659347295761,-0.010930003598332405,0.09279729425907135,0.46269264817237854,9.486948013305664
8.08,0.02539832703769207,0.005686426535248756,-0.012440974824130535,0.04549501836299896,0.6054492592811584,8.754637718200684
8.1,-0.0357542484998703,-0.02100493013858795,-0.0053874230943620205,0.08491057902574539,0.6584880352020264,8.920677185058594
8.120000000000001,-0.08431510627269745,-0.09386687725782394,-0.0037149330601096153,0.11894839257001877,0.8981266021728516,9.688874244689941
8.14,-0.11463230848312378,-0.1201380267739296,0.00862578209489584,0.17126353085041046,0.9692597985267639,10.341704368591309
8.16,-0.050041671842336655,-0.13215944170951843,0.022340847179293633,0.03813093155622482,0.3760390877723694,10.797477722167969
8.18,-0.10626183450222015,-0.11844709515571594,-0.002327498747035861,-0.3667951226234436,-0.21231591701507568,10.954150199890137
8.2,-0.08909647911787033,-0.07982586324214935,-0.02747158519923687,-0.5148415565490723,0.050262875854969025,10.194923400878906
8.22,-0.0789252370595932,-0.05717192217707634,-0.0252979826182127,-0.27487215399742126,-0.11494848877191544,9.591711044311523
8.24,-0.05193519964814186,-0.029361844062805176,0.00845347996801138,0.7051779627799988,-0.07026796042919159,9.39101791381836
8.26,-0.02981414645910263,-0.04762355983257294,0.03839721903204918,1.554987907409668,-0.3685563802719116,9.323272705078125
8.28,0.02039998024702072,-0.050579797476530075,0.04572579264640808,1.6461389064788818,-0.5577954053878784,9.83551025390625
8.3,0.016902165487408638,-0.014135697856545448,0.031103361397981644,1.2528934478759766,-0.3992511034011841,10.292191505432129
8.32,0.025621645152568817,0.03800457343459129,0.015615060925483704,0.8361458778381348,-0.10530911386013031,10.087285995483398
8.34,0.0623333714902401,0.029189912602305412,-0.012340832501649857,0.7177597284317017,0.07783512026071548,9.645051956176758
8.36,0.06251394748687744,0.057332593947649,-0.04851887375116348,0.6456048488616943,0.11651565879583359,9.461834907531738
8.38,0.01745656505227089,0.08411545306444168,-0.0502200610935688,0.6371697783470154,0.20953822135925293,9.546670913696289
8.4,0.0627448707818985,0.06785165518522263,-0.004235920496284962,0.3270869255065918,0.046425703912973404,10.366959571838379
8.42,-0.010398129001259804,0.049688734114170074,0.03494354709982872,0.023091614246368408,0.23768390715122223,10.18014144897461
8.44,-0.012726484797894955,0.029465317726135254,0.04460051283240318,0.0642182007431984,0.6584858298301697,9.659032821655273
8.46,-0.015963729470968246,-0.001626854413188994,0.028698919340968132,0.20592035353183746,0.5453976988792419,9.425122261047363
8.48,-0.05081113427877426,-0.020362040027976036,-0.003312711138278246,0.12438415735960007,0.2455344945192337,9.54082202911377
8.5,-0.0037643355317413807,-0.013294091448187828,-0.007222308311611414,0.07076197862625122,0.12492281198501587,10.028502464294434
8.52,0.00576192419975996,0.01576266624033451,-0.002735499758273363,0.0024518026039004326,-0.37431707978248596,9.992287635803223
8.540000000000001,-0.025421997532248497,0.0246732197701931,0.004225762560963631,0.10482018440961838,-0.39549776911735535,9.803282737731934
8.56,0.0018375578802078962,0.033403996378183365,-0.002825581468641758,0.49847546219825745,-0.30431807041168213,9.374364852905273
8.58,-0.02225576713681221,0.024473588913679123,-0.008707757107913494,0.8356721997261047,-0.364774614572525,9.336634635925293
8.6,0.031746719032526016,0.016334526240825653,-0.000132432920509018,0.9374587535858154,-0.18518957495689392,10.156393051147461
8.620000000000001,-0.009150453843176365,-0.006337993778288364,-0.010850725695490837,0.7796968817710876,0.07448773086071014,10.386837005615234
8.64,-0.0037357870023697615,-0.013616889715194702,-0.018868455663323402,0.5041307210922241,0.31407880783081055,9.806605339050293
8.66,-0.001923956093378365,-0.004523141775280237,-0.028350207954645157,0.15001150965690613,0.5384211540222168,9.341278076171875
8.68,-0.037178922444581985,-0.01723766326904297,-0.03403639420866966,0.09375251829624176,0.3850919306278229,9.208126068115234
8.700000000000001,-0.04726589843630791,-0.04163609445095062,-0.0062209079042077065,0.08572396636009216,0.2604415714740753,9.595708847045898
8.72,-0.0879465714097023,-0.029217328876256943,0.01347456406801939,0.022781288251280785,0.14755259454250336,9.99455738067627
8.74,-0.03848818689584732,-0.06897827982902527,0.020212339237332344,-0.08933133631944656,-0.0969686210155487,10.237893104553223
8.76,-0.03799416869878769,-0.07272853702306747,0.009979065507650375,-0.0484936386346817,-0.3103909492492676,10.42447566986084
8.78,-0.03078567236661911,-0.044012729078531265,-0.010060458444058895,0.35236459970474243,-0.08026504516601562,9.768832206726074
8.8,-0.015638131648302078,-0.03784378990530968,-0.015645306557416916,0.7811443209648132,0.07147758454084396,9.170682907104492
8.82,0.000246012321440503,-0.027770208194851875,-0.015244700014591217,0.9805675745010376,-0.15009866654872894,9.324081420898438
8.84,0.04238055646419525,-0.021923257037997246,-0.008670499548316002,0.9140138626098633,-0.37751054763793945,9.852229118347168
8.86,0.06054336577653885,-0.035609763115644455,0.011366368271410465,0.8279998898506165,-0.47123464941978455,10.276143074035645
8.88,0.06165286526083946,-0.03554295003414154,0.039577942341566086,0.6099077463150024,-0.26801371574401855,10.056745529174805
8.9,0.09848897159099579,-0.00027586205396801233,0.037771936506032944,0.3925199508666992,-0.03798549622297287,9.575380325317383
8.92,0.08032557368278503,0.010525434277951717,0.005180899053812027,0.28647395968437195,0.1336251199245453,9.259315490722656
8.94,0.04183213785290718,0.03512514382600784,-0.027887586504220963,0.42304104566574097,0.09140562266111374,9.016535758972168
8.96,0.06617650389671326,0.07525668293237686,-0.03623439371585846,0.6028538346290588,0.07817427814006805,9.223301887512207
8.98,0.023031098768115044,0.08975929766893387,-0.03058624640107155,0.7959422469139099,0.2254294753074646,9.727473258972168
9.0,0.03720831498503685,0.09812462329864502,-0.015200476162135601,0.7141883969306946,0.1928199827671051,10.35354995727539
9.02,0.0037124769296497107,0.0724472850561142,0.025616437196731567,0.5027442574501038,0.3368941843509674,10.788395881652832
9.040000000000001,-0.006917505990713835,0.03675982356071472,0.03752772882580757,0.22330616414546967,0.5087699294090271,10.27742862701416
9.06,-0.01605055294930935,0.05940137431025505,0.01907622441649437,-0.032225608825683594,0.2005169689655304,9.140718460083008
9.08,-0.045304737985134125,0.058962371200323105,-0.019144613295793533,-0.040864091366529465,0.19932852685451508,9.236922264099121
9.1,-0.054581526666879654,0.03917524218559265,-0.04287572205066681,0.031072774901986122,0.48141348361968994,9.891125679016113
9.120000000000001,0.01219213753938675,-0.0426403172314167,-0.03509780764579773,0.19182680547237396,0.22039201855659485,10.168901443481445
9.14,-0.02714322693645954,-0.07909322530031204,-0.024682655930519104,0.27545055747032166,-0.15667015314102173,10.342876434326172
9.16,0.017742177471518517,-0.09721414744853973,0.002613690448924899,-0.01565973274409771,-0.2882814109325409,10.040114402770996
9.18,0.04541323333978653,-0.10431955009698868,0.02934919111430645,-0.09432412683963776,-0.5628659725189209,9.265432357788086
9.200000000000001,0.0784827470779419,-0.12354052811861038,0.022920619696378708,0.023395903408527374,-0.7086065411567688,8.690187454223633
9.22,0.03464419022202492,-0.10733587294816971,0.008853046223521233,0.1611241102218628,-0.3615982234477997,9.05713939666748
9.24,0.008049316704273224,-0.0470864363014698,-0.020888429135084152,0.39060837030410767,-0.031790584325790405,10.387472152709961
9.26,-0.04063013195991516,0.005725682247430086,-0.07339485734701157,0.8749486207962036,0.6357306838035583,10.448681831359863
9.28,-0.017783040180802345,0.02097102254629135,-0.08209613710641861,1.050167202949524,0.7084698677062988,9.9974365234375
9.3,-0.04361288622021675,0.057531196624040604,-0.06171298772096634,1.0458033084869385,0.31230470538139343,9.83009147644043
9.32,-0.10799694061279297,0.08588796108961105,-0.024813659489154816,1.3714179992675781,0.6302844285964966,9.909818649291992
9.34,-0.10663121938705444,0.09221088141202927,0.024902978911995888,1.4594544172286987,0.9876726865768433,9.45007610321045
9.36,-0.08711308240890503,0.0624980591237545,0.052591972053050995,0.845079243183136,0.366355299949646,9.553524017333984
9.38,-0.08877277374267578,0.051031723618507385,0.059922751039266586,0.15334394574165344,-0.39864662289619446,10.195723533630371
9.4,-0.12186609208583832,0.0544281043112278,0.02399374544620514,-0.12139011919498444,-0.2792958915233612,10.294816017150879
9.42,-0.0077435621060431,0.008710654452443123,-0.00615941546857357,-0.12523652613162994,-0.13989681005477905,10.236673355102539
9.44,0.005129015073180199,-0.0822623148560524,-0.016945794224739075,0.21478840708732605,-0.5691295266151428,9.38386058807373
9.46,0.04067923128604889,-0.13860514760017395,-0.047294292598962784,0.31945887207984924,-0.7395123839378357,9.015691757202148
9.48,0.027568398043513298,-0.1306435465812683,-0.06211624667048454,-0.3140304386615753,-0.9008804559707642,9.695466995239258
9.5,-0.005870805587619543,-0.08298739790916443,-0.05175402760505676,-1.213969349861145,-0.32052257657051086,10.385892868041992
9.52,0.06333012878894806,-0.047772083431482315,-0.010440235957503319,-1.2953499555587769,0.21988219022750854,10.191949844360352
9.540000000000001,0.009401391260325909,0.014598078094422817,0.0066690631210803986,-0.7005443572998047,0.5811386108398438,9.439603805541992
9.56,-0.06653763353824615,0.010762949474155903,0.008856037631630898,1.3600964546203613,0.6153420805931091,8.768208503723145
9.58,-0.10127414017915726,-0.012856947258114815,-0.013233600184321404,2.415797472000122,0.7862733006477356,9.161518096923828
9.6,-0.043762434273958206,-0.029199447482824326,-0.04628315195441246,2.895664691925049,0.5735681653022766,10.355937004089355
9.620000000000001,-0.031686801463365555,-0.0481678806245327,-0.03870359808206558,1.8200411796569824,-0.16970816254615784,11.268501281738281
9.64,-0.029025521129369736,-0.007156828884035349,-0.003473169170320034,0.45365142822265625,-0.5994327068328857,10.413167953491211
9.66,-0.03236175328493118,0.04394616559147835,0.03525890037417412,0.2120845764875412,-0.3109736442565918,9.068438529968262
9.68,0.02353028394281864,0.05344528704881668,0.046994101256132126,0.357735276222229,-0.24785764515399933,8.662347793579102
9.700000000000001,0.03195279836654663,0.033569373190402985,0.038697388023138046,0.2642248868942261,-0.7744757533073425,9.062963485717773
9.72,0.031091272830963135,0.0868472084403038,0.00982796773314476,0.23638100922107697,-1.0035560131072998,10.052495002746582
9.74,0.08646640181541443,0.0941629484295845,-0.01096788328140974,0.3768205940723419,-0.7700265049934387,10.63454818725586
9.76,0.07287707924842834,0.046244967728853226,-0.025554437190294266,0.4464142918586731,-0.016866857185959816,9.847482681274414
9.78,0.08275937288999557,0.022542191669344902,-0.027593910694122314,0.3678610920906067,0.7714633941650391,9.405305862426758
9.8,0.034924499690532684,0.06571660190820694,-0.021338332444429398,0.267977774143219,0.8694511651992798,9.829185485839844
9.82,0.044816240668296814,0.04605337604880333,0.01909041218459606,-0.014381066896021366,0.3899756073951721,10.13000202178955
9.84,0.05324272811412811,0.023075928911566734,0.02959081530570984,-0.2558394968509674,-0.3631455600261688,10.32560920715332
9.86,-0.018036868423223495,-0.018061276525259018,0.00691702077165246,-0.03409382700920105,-0.09803569316864014,10.198431015014648
9.88,0.03453422710299492,-0.06736014783382416,-0.01696731708943844,0.3484346270561218,0.3759801685810089,9.482297897338867
9.9,-0.00038799652247689664,-0.08360302448272705,-0.021614618599414825,0.47891488671302795,0.40346667170524597,8.642024040222168
9.92,-0.01762421615421772,-0.08773739635944366,-0.020211366936564445,0.3510265350341797,0.24250678718090057,8.913660049438477
9.94,0.013581214472651482,-0.08005261421203613,0.007869728840887547,0.26980525255203247,-0.05100415274500847,10.193142890930176
9.96,0.013275742530822754,-0.0668417289853096,0.017734713852405548,0.3744100332260132,-0.22708247601985931,10.734353065490723
9.98,-0.03397750109434128,-0.042341213673353195,0.0048389132134616375,0.6588472723960876,0.022479841485619545,9.69869613647461
10.0,-0.028436163440346718,-0.01298426277935505,-0.004859552253037691,0.7817403674125671,0.27053168416023254,8.745505332946777
10.02,0.016907846555113792,-0.0318419449031353,0.002612333744764328,0.8482527136802673,0.1762325018644333,9.048259735107422
10.040000000000001,0.026396004483103752,-0.04950648546218872,0.010178391821682453,0.7381159067153931,-0.0024000273551791906,9.942161560058594
10.06,0.017568465322256088,-0.02963344193994999,0.027786793187260628,0.28527888655662537,-0.5952394604682922,11.331453323364258
10.08,0.013106453232467175,0.010574862360954285,0.023491086438298225,0.15287472307682037,-0.9512268304824829,11.203683853149414
10.1,0.044766783714294434,0.03188501298427582,0.01683286391198635,0.4675155580043793,-0.1743941605091095,9.628989219665527
10.120000000000001,0.047033533453941345,0.05198756977915764,-0.0034883860498666763,0.8065221905708313,0.03616669401526451,8.62761402130127
10.14,-0.012708649970591068,0.06371128559112549,-0.0302756205201149,1.0809569358825684,0.15008100867271423,9.071395874023438
10.16,-0.009966867975890636,0.05986332893371582,-0.045579832047224045,1.1703170537948608,0.4419487416744232,9.979178428649902
10.18,0.015185212716460228,0.05553875118494034,-0.05191975459456444,0.8985998034477234,0.4707586169242859,10.42602252960205
10.200000000000001,0.008771469816565514,0.06084330007433891,-0.02037125453352928,0.6149801015853882,0.05858416110277176,9.97670841217041
10.22,-0.04924154281616211,0.05019478127360344,-0.008044726215302944,0.5349518656730652,0.1760272979736328,9.25137710571289
10.24,-0.09017754346132278,-0.002657178323715925,-0.014801372773945332,0.41390442848205566,0.3871177136898041,8.703007698059082
10.26,-0.042861051857471466,-0.04406246542930603,-0.018001878634095192,0.3551274836063385,0.4249611794948578,9.105569839477539
10.28,-0.018283093348145485,-0.06321181356906891,-0.011112491600215435,0.45736274123191833,0.10658397525548935,10.170674324035645
10.3,-0.0062011051923036575,-0.11215437203645706,-0.004831709433346987,0.10520116984844208,-0.287329763174057,10.27539348602295
10.32,-0.002642623847350478,-0.13862702250480652,0.007485159207135439,-0.5345326662063599,-0.37240681052207947,10.107560157775879
10.34,0.008203571662306786,-0.12389302253723145,0.014064283110201359,-0.7332250475883484,-0.5869945287704468,9.985671997070312
10.36,-0.00737835094332695,-0.10554834455251694,0.0043072206899523735,-0.6438228487968445,-0.646074116230011,10.022008895874023
10.38,0.054130274802446365,-0.04772192984819412,-0.01917373016476631,-0.8263948559761047,-0.4246370792388916,10.356231689453125
10.4,0.04331512749195099,0.01060445886105299,-0.02395222708582878,-0.9954123497009277,0.35366353392601013,10.437132835388184
10.42,0.04306997358798981,0.002521015703678131,-0.010347449220716953,0.8787924647331238,0.531984269618988,10.288553237915039
10.44,-0.010491723194718361,-0.04083399102091789,-0.008888470008969307,2.144629955291748,0.5073404312133789,9.502644538879395
10.46,0.005776828620582819,-0.004675229080021381,0.002458759117871523,2.6318602561950684,0.18306058645248413,9.363458633422852
10.48,-0.0023942256812006235,0.007978102192282677,0.00453942222520709,2.578615427017212,-0.10149901360273361,9.470293998718262
10.5,-0.00966793205589056,-0.012669851072132587,0.015339033678174019,1.8844388723373413,-0.15780922770500183,9.93907642364502
10.52,-0.06486763805150986,0.02998938038945198,0.02188396267592907,0.7701112627983093,0.014017234556376934,10.521029472351074
10.540000000000001,-0.06081811711192131,0.054170042276382446,-0.0028186552226543427,0.27800992131233215,0.3468113839626312,9.581199645996094
10.56,-0.06455811858177185,0.02849135734140873,-0.03671376407146454,0.22954842448234558,-0.018803266808390617,8.20548152923584
10.58,-0.04434207081794739,-0.006492285989224911,-0.030379315838217735,0.32381492853164673,0.28990307450294495,7.636687755584717
10.6,0.03516025096178055,-0.032092224806547165,-0.012164920568466187,0.18564322590827942,-0.2568173110485077,10.781512260437012
10.620000000000001,-0.01336857583373785,-0.02488499879837036,-0.0036375634372234344,-0.3129562735557556,-0.5672844052314758,11.781609535217285
10.64,0.0261097252368927,-0.021220749244093895,0.02119404450058937,-0.5549828410148621,-0.5044844746589661,10.716278076171875
10.66,0.016413221135735512,0.030579397454857826,0.029701419174671173,-0.5313942432403564,-0.2930786609649658,9.270210266113281
10.68,0.053594283759593964,0.04079507663846016,0.025633040815591812,-0.10627816617488861,-0.0522291362285614,8.426005363464355
10.700000000000001,0.05905628204345703,-0.005965332966297865,0.022589804604649544,1.3166472911834717,0.0688973143696785,8.964502334594727
10.72,0.04191134124994278,-0.07656403630971909,-0.005708416923880577,1.7944633960723877,0.1613336056470871,10.262906074523926
10.74,0.05294055864214897,-0.0864449217915535,-0.016343627125024796,1.1590205430984497,0.2972172200679779,11.122889518737793
10.76,0.027921847999095917,-0.06351994723081589,-0.01980293169617653,0.4605492055416107,0.3385307490825653,9.714676856994629
10.78,0.007952825166285038,-0.05887681990861893,-0.010437220335006714,0.34853532910346985,0.04244733601808548,8.295392036437988
10.8,-0.06683091819286346,-0.05732328072190285,0.007653609849512577,0.38633137941360474,0.15994352102279663,8.720382690429688
10.82,0.049763474613428116,0.029018530622124672,0.030337944626808167,0.6792863607406616,-0.06747619807720184,10.586082458496094
10.84,0.0527905598282814,0.10576809197664261,0.032298892736434937,1.2253551483154297,-0.2843073010444641,11.210073471069336
10.86,0.03572377562522888,0.047626134008169174,0.020746057853102684,1.466704249382019,-0.14862346649169922,10.433205604553223
10.88,0.06246790662407875,-0.030758801847696304,-0.0023289232049137354,0.7689274549484253,-0.15975956618785858,8.866809844970703
10.9,0.02646334283053875,0.01799013279378414,-0.021605234593153,0.03733126074075699,-0.07330348342657089,9.46322250366211
10.92,0.021993128582835197,0.03860162943601608,-0.022637387737631798,-0.024260301142930984,0.17582671344280243,10.073789596557617
10.94,0.033463720232248306,-0.008281808346509933,-0.04050969332456589,0.0007114683976396918,0.36591851711273193,10.415986061096191
10.96,0.01335793174803257,-0.010978261940181255,-0.018998369574546814,0.3742850720882416,0.09444916993379593,10.166387557983398
10.98,-0.02388910762965679,-0.019817473366856575,-0.010265018790960312,0.7812167406082153,0.26535001397132874,9.493069648742676
11.0,-0.04258027300238609,-0.04255267232656479,-0.008570128120481968,0.8163319826126099,0.43931886553764343,9.160609245300293
11.02,-0.0762970969080925,-0.046120673418045044,-0.024909235537052155,0.6043609976768494,0.5528450012207031,8.773411750793457
11.040000000000001,-0.10189662873744965,0.01068208646029234,-0.019213054329156876,0.4957517087459564,0.3704676032066345,9.127240180969238
11.06,-0.13234619796276093,0.04700426384806633,-0.023701932281255722,0.6170905828475952,0.2870861291885376,9.624337196350098
11.08,-0.08980531245470047,0.04482688754796982,-0.008225821889936924,0.7676355838775635,-0.09168481826782227,10.257686614990234
11.1,-0.08419935405254364,0.0870804712176323,0.010317684151232243,1.058905839920044,-0.31871670484542847,10.617622375488281
11.120000000000001,-0.10095725953578949,0.1182037964463234,0.006024054251611233,1.3367997407913208,-0.17378847301006317,10.087711334228516
11.14,-0.05554137006402016,0.0673297867178917,-0.005362098105251789,1.2518444061279297,-0.1338232010602951,9.010249137878418
11.16,-0.049119479954242706,0.006690171081572771,-0.023242104798555374,0.8022528886795044,-0.1925419420003891,8.821208000183105
11.18,-0.014188403263688087,0.004765146877616644,-0.021778268739581108,0.1218058317899704,-0.15070083737373352,9.445197105407715
11.200000000000001,-0.007048690691590309,-0.0008524091099388897,-0.032177120447158813,-0.29798623919487,0.04985975846648216,10.523475646972656
11.22,-0.04955991730093956,-0.053238872438669205,-0.022181253880262375,-0.6297664046287537,0.12410151213407516,10.646872520446777
11.24,-0.05378543213009834,-0.037934474647045135,-0.022273564711213112,-0.8175389170646667,-0.18356622755527496,10.930840492248535
11.26,-0.05751572921872139,0.015504535287618637,-0.002724067773669958,-0.660556972026825,-0.4072023630142212,10.121129035949707
11.28,-0.07196319103240967,-0.01562637649476528,0.015366416424512863,0.2709738612174988,-0.24607551097869873,9.138618469238281
11.3,-0.07274969667196274,-0.07881363481283188,0.04225914180278778,1.3099818229675293,-0.035713788121938705,9.04210090637207
11.32,-0.04448987543582916,-0.08439794927835464,0.024132587015628815,1.5614500045776367,-0.06747262924909592,9.568876266479492
11.34,-0.03716980293393135,-0.07201726734638214,0.012721385806798935,1.0492132902145386,0.1963311731815338,10.669594764709473
11.36,0.05650123953819275,-0.11333514004945755,0.035171426832675934,0.5153043270111084,-0.19088804721832275,10.362876892089844
11.38,0.05786505341529846,-0.10200248658657074,0.03959895297884941,0.3360125720500946,-0.6001680493354797,9.546843528747559
11.4,0.0930563285946846,-0.051517412066459656,0.0296426173299551,0.5148047804832458,-0.9890114068984985,8.988397598266602
11.42,0.09410983324050903,-0.032724495977163315,0.00496652303263545,0.8836814165115356,-0.9905821681022644,9.029818534851074
11.44,0.11233874410390854,-0.019698720425367355,-0.01591869257390499,1.158894658088684,-0.4856329560279846,9.218449592590332
11.46,0.051559850573539734,-0.017974548041820526,-0.032257404178380966,1.1140646934509277,-0.044897500425577164,10.028836250305176
11.48,0.008344771340489388,0.02228730358183384,-0.06334252655506134,0.7933453917503357,0.5579595565795898,10.45252799987793
11.5,0.047722455114126205,0.060006752610206604,-0.038250043988227844,0.7309107184410095,0.6558581590652466,10.291104316711426
11.52,0.06593899428844452,0.0794813260436058,0.006750738248229027,0.9183297157287598,0.3694480061531067,9.854962348937988
11.540000000000001,0.0007085386896505952,0.09929686784744263,0.047145482152700424,1.1234241724014282,0.46322089433670044,8.993651390075684
11.56,-0.06427472829818726,0.10624954849481583,0.05474456399679184,0.9939190149307251,0.6328526139259338,8.855024337768555
11.58,-0.08622502535581589,0.08608442544937134,0.03380345553159714,0.7962713241577148,0.4276423752307892,9.30174732208252
11.6,-0.08934163302183151,0.10416075587272644,-0.023122968152165413,0.4900130033493042,-0.03752082586288452,9.975482940673828
11.620000000000001,-0.10291223227977753,0.09211522340774536,-0.07262630015611649,0.23608359694480896,-0.020382223650813103,10.211799621582031
11.64,-0.09531321376562119,0.07983860373497009,-0.045450370758771896,0.12007974833250046,0.012525908648967743,9.741644859313965
11.66,-0.0733686238527298,0.08790364116430283,-0.001660009496845305,0.2480926215648651,-0.16934552788734436,9.189897537231445
11.68,-0.07003097236156464,0.10178359597921371,0.02722882479429245,0.4464155435562134,-0.2969301640987396,9.216275215148926
11.700000000000001,-0.04642888903617859,0.05245119333267212,0.05256670340895653,0.4154025912284851,-0.41634365916252136,10.496570587158203
11.72,-0.029413247480988503,0.02607777714729309,0.027445076033473015,0.21492531895637512,-0.5644864439964294,10.842611312866211
11.74,-0.0005499484832398593,0.023485973477363586,-0.013937080278992653,-0.041488442569971085,-0.5480327010154724,10.05784797668457
11.76,-0.00045736919855698943,0.014603394083678722,-0.027396678924560547,-0.2250831574201584,-0.2858291268348694,10.058868408203125
11.78,0.02217748761177063,-0.04010583460330963,-0.018969012424349785,-0.026967599987983704,-0.13491439819335938,9.913664817810059
11.8,0.06245233118534088,-0.04721337929368019,0.013499211519956589,0.23197618126869202,-0.2217240184545517,9.656270980834961
11.82,0.08107581734657288,-0.046910349279642105,0.039858873933553696,0.717501699924469,-0.4045412540435791,9.37391471862793
11.84,0.0657268613576889,-0.08964767307043076,0.022267114371061325,0.9198466539382935,-0.4888535439968109,9.404653549194336
11.86,0.002674148418009281,-0.13843801617622375,0.0062106759287416935,0.7252204418182373,-0.132560595870018,9.866365432739258
11.88,0.019738199189305305,-0.08800429105758667,-0.02657233737409115,-0.014117761515080929,0.1720924824476242,10.34426498413086
11.9,-0.00044997522491030395,0.01008126325905323,-0.04468635469675064,-0.32063066959381104,0.5029125809669495,10.023521423339844
11.92,0.01555558294057846,0.014947938732802868,-0.04603663086891174,0.16280871629714966,0.43800556659698486,9.298493385314941
11.94,0.0037717996165156364,-0.013235393911600113,-0.032015684992074966,0.818366527557373,0.14544983208179474,9.612565994262695
11.96,0.0299953855574131,0.01948719657957554,-0.009363029152154922,1.4433883428573608,-0.05028877034783363,10.108196258544922
11.98,0.07296200841665268,0.03451460599899292,0.039981164038181305,1.6538478136062622,-0.16696396470069885,9.773317337036133
12.0,0.055641207844018936,-0.009438391774892807,0.03949003294110298,1.4794000387191772,-0.5028138160705566,8.989567756652832
12.02,0.043127018958330154,-0.03790982440114021,0.04312954843044281,0.9171999096870422,-0.3273737132549286,9.204617500305176
12.040000000000001,0.04971155896782875,0.0046183206140995026,0.022639663890004158,0.03816894814372063,-0.1531757116317749,10.065844535827637
12.06,0.006017093081027269,0.04580676555633545,-0.0078481025993824,-0.3957928717136383,0.020159190520644188,10.242025375366211
12.08,0.021994315087795258,0.017536716535687447,-0.017279166728258133,-0.10433908551931381,0.40987351536750793,9.890740394592285
12.1,0.009950683452188969,-0.02330460585653782,0.002991038840264082,0.3331319987773895,0.20372872054576874,9.5910062789917
12.120000000000001,-0.01754535362124443,-0.047909799963235855,0.009400248527526855,0.49809980392456055,0.17849582433700562,9.561675071716309
12.14,-0.01378580927848816,-0.05722526088356972,0.008133436553180218,0.28955143690109253,0.00635048421099782,9.558162689208984
12.16,-0.014998375438153744,-0.06258119642734528,-0.017439162358641624,0.1685090959072113,0.09999702125787735,9.657341957092285
12.18,-0.06362366676330566,-0.03470712900161743,-0.014007856138050556,0.30643779039382935,-0.14117345213890076,10.135199546813965
12.200000000000001,-0.09950154274702072,0.01696190983057022,-0.009798350743949413,0.8799549341201782,-0.030751200392842293,9.840920448303223
12.22,-0.05752737820148468,0.014010499231517315,-0.010746265761554241,1.214186668395996,0.013379799202084541,9.279699325561523
12.24,-0.028119301423430443,0.024840854108333588,-0.02046358399093151,1.1623786687850952,-0.17841632664203644,9.436002731323242
12.26,-0.0018081464804708958,0.05706522613763809,-0.010789665393531322,0.9145100712776184,-0.3466174900531769,10.388409614562988
12.280000000000001,0.009878814220428467,-0.012757436372339725,0.002411549910902977,0.48408299684524536,-0.41981181502342224,10.725619316101074
12.3,-0.02432183176279068,-0.00910033006221056,-0.008304285816848278,0.07149015367031097,-0.3035213351249695,10.385753631591797
12.32,-0.0008533632499165833,0.012895980849862099,-0.0286689605563879,0.07614204287528992,0.02249235473573208,9.600837707519531
12.34,-0.021254729479551315,0.014280738309025764,-0.05061611905694008,0.15290264785289764,0.008250138722360134,9.339027404785156
12.36,-0.018862226977944374,-0.003270520828664303,-0.0284628514200449,0.19999626278877258,-0.05627568066120148,9.300904273986816
12.38,-0.057121772319078445,0.004293536767363548,0.00717422179877758,0.24000804126262665,0.03621705621480942,9.7680025100708
12.4,-0.035038672387599945,0.0002512135251890868,0.028161734342575073,0.34453684091567993,-0.07748257368803024,10.405685424804688
12.42,-0.010351658798754215,0.009589449502527714,0.04366938769817352,0.505121111869812,-0.30885541439056396,10.196249008178711
12.44,-0.012587993405759335,-0.021265909075737,0.039816390722990036,0.809333086013794,-0.26078417897224426,9.727957725524902
12.46,-0.017746340483427048,-0.03356758877635002,0.014296398498117924,0.9094125628471375,-0.2625236213207245,9.354400634765625
12.48,0.011314596980810165,-0.0030467791948467493,-0.012948891147971153,0.9026035666465759,-0.2868490517139435,9.56403636932373
12.5,0.007549013942480087,0.02165433019399643,-0.03258344903588295,0.8141949772834778,-0.3531734347343445,9.69694995880127
12.52,0.04948360472917557,0.04591427370905876,-0.008663337677717209,0.7400244474411011,-0.5356940031051636,9.496005058288574
12.540000000000001,0.06066698208451271,0.046926967799663544,0.023605160415172577,0.8453472256660461,-0.4065384268760681,9.309014320373535
12.56,0.06680216640233994,0.03540641814470291,0.0346069373190403,0.8791954517364502,-0.17833591997623444,9.642412185668945
12.58,0.034387409687042236,0.0342511385679245,0.034718822687864304,0.7457221150398254,0.08819229155778885,9.559520721435547
12.6,0.035627566277980804,0.019258635118603706,0.01335759274661541,0.41126930713653564,0.1233290284872055,9.532878875732422
12.620000000000001,0.05009016394615173,0.015487565658986568,-0.023699870333075523,-0.05710437521338463,0.23527538776397705,9.873964309692383
12.64,0.04237404838204384,0.023602910339832306,-0.04068833962082863,-0.14961086213588715,0.12644803524017334,10.111711502075195
12.66,0.014465125277638435,0.009704938158392906,-0.04350573942065239,0.1258287876844406,0.14798973500728607,9.689138412475586
12.68,-0.0363900400698185,-0.031204581260681152,-0.0042657204903662205,0.4224976599216461,0.28814488649368286,9.37757396697998
12.700000000000001,-0.02409149520099163,-0.07908123731613159,0.018811970949172974,0.4358246326446533,0.14592775702476501,9.42520809173584
12.72,0.014818213880062103,-0.1277153044939041,0.01428251899778843,0.2149244099855423,-0.22089341282844543,9.73693561553955
12.74,-0.057941194623708725,-0.16894958913326263,0.0036999969743192196,0.034273676574230194,-0.3050437867641449,10.217206001281738
12.76,-0.07423931360244751,-0.1474960595369339,-0.026213008910417557,-0.300751268863678,0.030732914805412292,10.7178316116333
12.780000000000001,-0.0407530777156353,-0.07539986073970795,-0.039157941937446594,-0.6412559747695923,0.062176525592803955,10.743156433105469
12.8,0.004954169038683176,-0.007004678249359131,0.007974940352141857,-0.08762116730213165,-0.4245021343231201,9.855329513549805
12.82,-0.029572665691375732,0.015341158956289291,0.06093408539891243,0.6472890377044678,-0.4639890491962433,9.593879699707031
12.84,0.038428839296102524,0.046062566339969635,0.10236652940511703,1.130178451538086,-0.474371999502182,9.393891334533691
12.86,0.005675121676176786,0.06865614652633667,0.11064764857292175,1.72959566116333,-0.2649138271808624,8.925122261047363
12.88,0.024825753644108772,0.054002583026885986,0.10049761086702347,2.2989470958709717,-0.09531526267528534,8.842123031616211
12.9,0.040848106145858765,0.023846149444580078,0.04903903976082802,2.3594279289245605,-0.021649513393640518,9.430597305297852
12.92,0.060219865292310715,0.013112077489495277,-0.006873537320643663,1.7871707677841187,-0.15704140067100525,10.006052017211914
12.94,0.009058987721800804,0.07567038387060165,-0.069017194211483,0.29576101899147034,-0.05249292030930519,11.067487716674805
12.96,0.014434640295803547,0.12591752409934998,-0.08217685669660568,-0.3178044557571411,0.3694659471511841,10.320178031921387
12.98,0.05714339390397072,0.11303462833166122,-0.03807967156171799,-0.1591516137123108,0.012209753505885601,9.252824783325195
13.0,0.04463164135813713,0.11723560094833374,0.020109133794903755,0.41741305589675903,-0.04849691689014435,9.083734512329102
13.02,0.01617993600666523,0.11548259854316711,0.05513307452201843,0.8835325241088867,0.03320184350013733,9.496477127075195
13.040000000000001,0.0009426031028851867,0.0797443613409996,0.046605080366134644,0.9543583989143372,-0.24683189392089844,9.752279281616211
13.06,0.027720393612980843,-0.004011704120784998,0.01208680309355259,0.4934975802898407,-0.49038106203079224,10.055685997009277
13.08,0.07116403430700302,-0.04212457686662674,-0.008290131576359272,0.08209845423698425,-0.34445634484291077,9.836630821228027
13.1,0.05575713887810707,-0.042081594467163086,-0.004095789045095444,-0.2342974990606308,-0.15428058803081512,9.601223945617676
13.120000000000001,0.0738029032945633,-0.03589202091097832,-0.013849491253495216,-0.46381643414497375,0.015025926753878593,9.923417091369629
13.14,0.10430219024419785,0.015576423145830631,-0.02296227216720581,-0.4956120550632477,0.33048105239868164,10.028919219970703
13.16,0.03807299956679344,0.037648871541023254,-0.02921837382018566,-0.046945374459028244,0.13164612650871277,9.659445762634277
13.18,0.00012048090866301209,0.018876006826758385,-0.018813779577612877,0.86155766248703,0.18131378293037415,9.272266387939453
13.200000000000001,0.02021622657775879,0.010897134430706501,-0.009972594678401947,1.281654715538025,0.223332017660141,9.442423820495605
13.22,-0.017735861241817474,0.04416194558143616,0.0005783086526207626,1.2527871131896973,0.136224165558815,9.75734806060791
13.24,0.01189344096928835,0.06924019753932953,-0.015081454999744892,1.139888882637024,0.09587424993515015,9.939602851867676
13.26,-0.03051093779504299,0.05236981064081192,-0.022723760455846786,1.0224320888519287,0.26684653759002686,10.008578300476074
13.280000000000001,-0.0212559774518013,0.060076240450143814,-0.008192148059606552,0.656590461730957,0.0009992839768528938,10.42129135131836
13.3,-0.011747372336685658,0.08495550602674484,0.012852046638727188,0.39246729016304016,-0.22412601113319397,10.370569229125977
13.32,0.01269137766212225,0.04265739023685455,0.01298020500689745,0.27065637707710266,-0.1926744133234024,9.266777038574219
13.34,-0.030643628910183907,0.018115412443876266,0.0071865711361169815,-0.14006945490837097,-0.2665943205356598,8.97741985321045
13.36,-0.0319419763982296,-0.01172136515378952,-0.00152320705819875,-0.38095855712890625,0.010307790711522102,9.790349960327148
13.38,-0.03230052441358566,0.016098003834486008,-0.022771527990698814,-0.5278409719467163,0.05764271318912506,10.267035484313965
13.4,-0.06384717673063278,0.03788677603006363,-0.036564555019140244,-0.2544991075992584,0.26107606291770935,10.172024726867676
13.42,-0.09308993071317673,0.054418228566646576,-0.021821830421686172,0.40139663219451904,0.38945111632347107,9.710151672363281
13.44,-0.08454400300979614,0.06064118072390556,-0.003043514210730791,1.034764051437378,0.17685474455356598,9.353997230529785
13.46,-0.06454838812351227,0.07313717901706696,0.019763728603720665,1.234264612197876,-0.10977113991975784,9.02151107788086
13.48,-0.05905552953481674,0.10601694136857986,0.022262025624513626,1.0592089891433716,-0.47769463062286377,9.643993377685547
13.5,-0.04658183827996254,0.10272809863090515,0.018060237169265747,0.7361354231834412,-0.5438644289970398,10.407360076904297
13.52,-0.044478628784418106,0.06538653373718262,0.0034414485562592745,0.2044512927532196,-0.40996265411376953,10.721487998962402
13.540000000000001,-0.07683447003364563,0.06364628672599792,-0.02557661198079586,-0.1323884129524231,0.14450377225875854,10.41701889038086
13.56,-0.007969123311340809,0.10285082459449768,-0.020718475803732872,-0.16386176645755768,0.11379389464855194,9.7105712890625
13.58,-0.0053730071522295475,0.07017834484577179,-0.010031640529632568,0.013309958390891552,-0.31550607085227966,9.225298881530762
13.6,-0.042739611119031906,-0.013635560870170593,0.01162766758352518,0.0732644572854042,-0.4212433993816376,8.86989974975586
13.620000000000001,-0.00814030971378088,-0.02139662392437458,0.025735117495059967,-0.03212914988398552,-0.34525370597839355,9.28657054901123
13.64,-0.012433537282049656,-0.015815913677215576,0.051091331988573074,-0.23880915343761444,-0.2881121337413788,9.944846153259277
13.66,0.016324186697602272,-0.03526998311281204,0.049122340977191925,-0.36085259914398193,-0.0730535015463829,10.134500503540039
13.68,0.023780595511198044,-0.07815111428499222,0.040503405034542084,-0.25694599747657776,0.2171054482460022,10.148151397705078
13.700000000000001,0.04025329649448395,-0.09161260724067688,0.016535406932234764,0.06815574318170547,-0.05616476386785507,10.069209098815918
13.72,0.0476832389831543,-0.08702383190393448,0.009536925703287125,0.27604126930236816,-0.5017330646514893,9.986211776733398
13.74,0.034696221351623535,-0.07370086759328842,0.010215242393314838,0.37169232964515686,-0.6678302884101868,9.841917037963867
13.76,0.01879613846540451,-0.07313085347414017,0.001920976210385561,0.5122727155685425,-0.36931344866752625,10.116010665893555
13.780000000000001,0.004050759598612785,-0.07330410182476044,-0.0012311526807025075,0.6371247172355652,0.07223091274499893,9.67985725402832
13.8,0.02434835396707058,-0.03610335290431976,-0.003624592674896121,0.5740088224411011,0.2904107868671417,9.430452346801758
13.82,0.06669773161411285,0.024897148832678795,-0.0137472627684474,0.5299675464630127,0.23715604841709137,9.263404846191406
13.84,0.09787478297948837,0.07700535655021667,-0.019097210839390755,0.47125816345214844,-0.06397739052772522,9.416301727294922
13.86,0.05518258735537529,0.10981636494398117,-0.013907449319958687,0.643325686454773,-0.5613005757331848,9.669049263000488
13.88,0.04774758964776993,0.09936650842428207,-0.016863960772752762,0.9665499329566956,-0.665198564529419,10.093318939208984
13.9,0.03618501499295235,0.07888063788414001,0.005096381530165672,1.3600598573684692,-0.2663898766040802,9.796968460083008
13.92,0.07138429582118988,0.08608917146921158,0.016718540340662003,1.3473021984100342,0.2045551985502243,9.549589157104492
13.94,0.09892930835485458,0.05455866828560829,0.041506946086883545,0.7411655783653259,0.10886730253696442,9.942011833190918
13.96,0.02160993590950966,-0.00621964642778039,0.014025378972291946,0.03408553823828697,0.04382181912660599,10.050491333007812
13.98,-0.028850622475147247,-0.038421761244535446,-0.023813700303435326,-0.25452175736427307,0.6450548768043518,10.01517105102539
14.0,0.03233552724123001,-0.06995701044797897,-0.029686737805604935,-0.38345572352409363,0.7480519413948059,9.731757164001465
14.02,-0.03396338224411011,-0.10006719827651978,-0.010324365459382534,-0.3724437355995178,0.26477545499801636,9.471619606018066
14.040000000000001,-0.03456468507647514,-0.08954136073589325,-0.0003185321984346956,-0.6486095190048218,0.11517465114593506,9.419515609741211
14.06,-0.04683578386902809,-0.07856513559818268,0.001048157922923565,-0.7338141202926636,0.13256804645061493,9.7100830078125
14.08,-0.05211354419589043,-0.07675138115882874,-0.007337329443544149,-0.7069718837738037,0.09800957888364792,9.85314655303955
14.1,-0.03577057644724846,-0.05141127482056618,-0.0065371207892894745,-0.6099789142608643,-0.09760753810405731,9.865461349487305
14.120000000000001,0.002861039014533162,-0.012884266674518585,-0.0043115499429404736,-0.17757725715637207,-0.21084029972553253,9.640795707702637
14.14,0.0418023057281971,-0.03307315707206726,0.001974760089069605,1.0606456995010376,-0.42271578311920166,9.5386323928833
14.16,0.07472816854715347,-0.04970356822013855,-0.001460692030377686,1.5693820714950562,-0.7075082063674927,9.965288162231445
14.18,0.07214953750371933,-0.02852764166891575,-0.009229999035596848,1.5855530500411987,-0.6974989771842957,9.934052467346191
14.200000000000001,0.0738719254732132,-0.011594587005674839,-0.007589138112962246,1.3459781408309937,-0.3638848662376404,9.80516529083252
14.22,0.09981042146682739,-0.008435423485934734,-0.00772389629855752,0.9933270215988159,0.026415608823299408,9.522811889648438
14.24,0.0571872852742672,0.01435420848429203,-0.003064750460907817,0.625266969203949,0.4209887683391571,9.884117126464844
14.26,-0.0013565501431003213,0.020136913284659386,-0.012213245034217834,0.4729563891887665,0.6291958689689636,9.838824272155762
14.280000000000001,0.05847236141562462,0.02231506258249283,-0.014295251108705997,0.4547344446182251,0.4465194046497345,9.618941307067871
14.3,0.015315326862037182,-0.01622132956981659,-0.008671384304761887,0.16671222448349,0.076439768075943,9.898722648620605
14.32,-0.03853876516222954,-0.05949327349662781,-0.008431104011833668,-0.39784765243530273,0.22892986238002777,10.533578872680664
14.34,-0.07731776684522629,-0.07116910070180893,-0.010349711403250694,-0.614820122718811,0.3265683650970459,10.138638496398926
14.36,-0.07982977479696274,-0.08594906330108643,-0.011526559479534626,-0.5569348335266113,0.3188953697681427,9.398488998413086
14.38,-0.06350266933441162,-0.13233940303325653,0.0022299375850707293,-0.3004295229911804,0.012503445148468018,9.567255020141602
14.4,-0.10394852608442307,-0.10616564750671387,-0.0017486083088442683,-0.019791843369603157,0.10056241601705551,10.593565940856934
14.42,-0.06903769075870514,-0.07023218274116516,-0.018069354817271233,0.47200286388397217,0.24033775925636292,10.402134895324707
14.44,-0.08397844433784485,-0.10054298490285873,-0.03046727180480957,0.9375929832458496,-0.08712337911128998,9.047009468078613
14.46,-0.08529385179281235,-0.11522074043750763,-0.021414540708065033,1.1293140649795532,-0.13394352793693542,8.733890533447266
14.48,-0.06445012986660004,-0.0874122902750969,-0.010852484032511711,1.2181791067123413,-0.1585325300693512,9.485213279724121
14.5,-0.03932536393404007,-0.04878111183643341,-0.01301808375865221,1.3731474876403809,-0.16328461468219757,9.994563102722168
14.52,-0.06732843071222305,-0.0676063597202301,-0.007828538306057453,1.250746726989746,-0.3325268626213074,9.910633087158203
14.540000000000001,-0.04096834361553192,-0.07491407543420792,-8.034315396798775e-05,0.945549488067627,-0.3053279221057892,10.028200149536133
14.56,-0.004640912637114525,-0.025767220184206963,0.004401336424052715,0.6353839635848999,-0.24956515431404114,9.450151443481445
14.58,-0.03125826269388199,0.0022424235939979553,0.005625033285468817,0.25342613458633423,-0.24374918639659882,9.447188377380371
14.6,-0.03367979824542999,0.0067040217109024525,-0.004268846474587917,0.07208054512739182,-0.17868061363697052,9.669782638549805
14.620000000000001,-0.03314919024705887,-0.026127466931939125,-0.0020587483886629343,0.2817581295967102,0.1945783644914627,10.0123929977417
14.64,-0.021114332601428032,-0.016407929360866547,-0.0012754466151818633,0.6330645680427551,-0.049032922834157944,10.356439590454102
14.66,-0.033122092485427856,-0.030822761356830597,0.005478761624544859,0.8223677277565002,-0.10778599232435226,9.915152549743652
14.68,-0.024784302338957787,-0.033955201506614685,0.0058492193929851055,0.703111469745636,-0.1446976661682129,9.768511772155762
14.700000000000001,-0.049034006893634796,-0.012272386811673641,-0.017957674339413643,0.42397263646125793,-0.12764960527420044,9.764909744262695
14.72,-0.011344107799232006,0.024153944104909897,-0.009965541772544384,0.31967049837112427,-0.17685344815254211,9.825929641723633
14.74,-0.03914786875247955,0.04667014628648758,-0.0009150521946139634,0.5900797247886658,-0.4701429009437561,9.824339866638184
14.76,-0.0184562336653471,0.09391190111637115,0.023034291341900826,0.9171842336654663,-0.4721657931804657,9.867989540100098
14.780000000000001,0.010884598828852177,0.09053251147270203,0.046400442719459534,1.14820396900177,-0.40804868936538696,9.665048599243164
14.8,0.05661890655755997,0.08843611925840378,0.05893343687057495,1.3515448570251465,-0.3197755217552185,9.297775268554688
14.82,0.07109438627958298,0.08463887125253677,0.03882100433111191,1.3210865259170532,-0.09514863789081573,9.421513557434082
14.84,0.10144610702991486,0.0559251569211483,0.020129036158323288,1.0193665027618408,-0.22397975623607635,9.55699348449707
14.86,0.0920020192861557,0.02591233141720295,-0.0037724028807133436,0.42946919798851013,-0.21254566311836243,9.997864723205566
14.88,0.13898873329162598,0.006296671461313963,-0.01732400432229042,0.06531834602355957,-0.43517905473709106,9.963844299316406
14.9,0.10351987928152084,-0.04546323046088219,-0.009355658665299416,0.0021327915601432323,-0.4518723487854004,9.250603675842285
14.92,0.11493753641843796,-0.08237332105636597,-0.0037503282073885202,-0.028328603133559227,-0.1879182904958725,9.000944137573242
14.94,0.11603433638811111,-0.062224380671978,0.005987073294818401,-0.4047639071941376,0.04360957443714142,9.977286338806152
14.96,0.09217902272939682,-0.028829608112573624,0.015248839743435383,-0.7377495765686035,0.28002986311912537,10.730799674987793
14.98,0.041781555861234665,0.016503432765603065,-0.0015620812773704529,-0.751945972442627,0.771687388420105,10.243020057678223
15.0,0.026937535032629967,-0.0027787545695900917,-0.030099501833319664,0.04957167059183121,0.5354869365692139,9.562047958374023
15.02,-0.021223759278655052,-0.021425310522317886,-0.06603732705116272,1.5954220294952393,0.33263033628463745,9.10920238494873
15.040000000000001,-0.018925746902823448,-0.01353134773671627,-0.05660077556967735,2.0950756072998047,0.22505363821983337,9.626803398132324
15.06,-0.0766698494553566,0.011980018578469753,-0.03488434851169586,1.6671425104141235,0.2565578520298004,9.666025161743164
15.08,-0.10915345698595047,0.02195829525589943,-0.01731807179749012,0.8815790414810181,0.30401089787483215,9.985336303710938
15.1,-0.08261474967002869,0.07812371104955673,0.010579264722764492,0.41587361693382263,0.27715975046157837,10.072786331176758
15.120000000000001,-0.10299693048000336,0.10976972430944443,0.035050563514232635,0.6802452206611633,0.2477022409439087,9.911813735961914
15.14,-0.07322012633085251,0.11206647008657455,0.046761952340602875,1.0680843591690063,-0.12224038690328598,9.679887771606445
15.16,-0.06438662856817245,0.07791000604629517,0.026965243741869926,1.0260884761810303,-0.22839981317520142,9.757275581359863
15.18,0.0075028808787465096,0.05717724934220314,0.014011907391250134,0.48786765336990356,-0.6622608304023743,10.312904357910156
15.200000000000001,-0.0021147618535906076,0.008523698896169662,-0.026265019550919533,-0.3238014280796051,-0.6793379783630371,10.105484008789062
15.22,0.06173503026366234,0.009406606666743755,-0.01424473524093628,-0.5073893666267395,-0.5645780563354492,9.758463859558105
15.24,0.09894730895757675,-0.006431424058973789,0.009513231925666332,-0.3351236581802368,-0.6769598722457886,9.494611740112305
15.26,0.10233282297849655,-0.04072026163339615,0.02194845676422119,0.028590939939022064,-0.5732104182243347,9.28154468536377
15.280000000000001,0.13692539930343628,-0.05991600081324577,0.013465391471982002,0.36613404750823975,-0.24265530705451965,9.483636856079102
15.3,0.07393406331539154,-0.10115867853164673,-0.0026801612693816423,0.5074191093444824,0.16037429869174957,10.117147445678711
15.32,0.09467431902885437,-0.12265145033597946,-0.016204260289669037,0.292632520198822,0.5299413204193115,10.439574241638184
15.34,0.10610600560903549,-0.09047248959541321,-0.03548436611890793,0.2840496003627777,0.6302148699760437,9.69659423828125
15.36,0.046765632927417755,-0.03475228324532509,-0.023843828588724136,0.5645819902420044,0.42531970143318176,8.973221778869629
15.38,0.04689348116517067,0.034217800945043564,0.0011158341076225042,0.883015513420105,0.3958241939544678,9.111650466918945
15.4,-0.029921656474471092,0.07322782278060913,0.015450107865035534,1.3663166761398315,0.5073622465133667,9.682548522949219
15.42,-0.04528984799981117,0.10439158976078033,0.02406272664666176,1.665703535079956,0.5094696879386902,10.194899559020996
15.44,-0.11917976289987564,0.1326192319393158,-0.002606248250231147,1.5928940773010254,0.2611338794231415,10.134574890136719
15.46,-0.14033713936805725,0.12210528552532196,-0.01530314702540636,0.9425246119499207,0.08709409832954407,10.144110679626465
15.48,-0.06990592926740646,0.11377651989459991,0.0025320376735180616,0.3534005880355835,-0.0017613641684874892,10.543797492980957
15.5,-0.05689466744661331,0.11259288340806961,0.021275589242577553,0.08588825166225433,-0.3392367959022522,10.517653465270996
15.52,-0.08405690640211105,0.1119282990694046,0.025332583114504814,0.15312670171260834,-0.13209088146686554,9.74691390991211
15.540000000000001,-0.04991796985268593,0.04756803438067436,0.03459785133600235,0.13518042862415314,-0.059524208307266235,9.028508186340332
15.56,0.016272047534585,0.005655867047607899,0.0152124660089612,0.0018205784726887941,-0.46137043833732605,8.89399528503418
15.58,-0.003285040147602558,-0.012852692045271397,0.0032210422214120626,-0.21283631026744843,-0.676791250705719,9.113274574279785
15.6,0.0051473695784807205,-0.010829213075339794,-0.017489448189735413,-0.4997677505016327,-0.2976636290550232,9.884835243225098
15.620000000000001,0.07739762216806412,-0.00443709222599864,-0.027287684381008148,-0.6436690092086792,0.07904842495918274,10.720702171325684
15.64,0.02306974306702614,0.027170179411768913,-0.025048214942216873,-0.3936980366706848,0.21572227776050568,10.254915237426758
15.66,0.04018111154437065,0.034198030829429626,-0.00931071862578392,0.2015644907951355,0.1331115961074829,9.5371732711792
15.68,0.010769638232886791,0.03202527016401291,-0.015071098692715168,0.6718600988388062,0.1492275446653366,8.937094688415527
15.700000000000001,-0.04529239237308502,0.06126759201288223,-0.017741134390234947,1.0546144247055054,0.1534433662891388,9.209196090698242
15.72,-0.054983485490083694,0.06314973533153534,-0.0372668020427227,1.3832731246948242,0.09227199852466583,9.920762062072754
15.74,-0.09917499125003815,0.007691777776926756,-0.022379884496331215,1.5337826013565063,0.3495665192604065,10.213773727416992
15.76,-0.12412747740745544,-0.029409481212496758,-0.005693057551980019,1.296904444694519,0.5506731867790222,9.874785423278809
15.780000000000001,-0.12414798140525818,-0.03041386976838112,0.028813721612095833,0.6312407851219177,0.36371293663978577,9.468658447265625
15.8,-0.1473350077867508,-0.007255340926349163,0.03699721023440361,-0.01620556227862835,0.11224167048931122,9.470355033874512
15.82,-0.06692533940076828,0.006859983317553997,0.04868823289871216,-0.3232617974281311,0.0038249134086072445,9.821123123168945
15.84,-0.05046408995985985,-0.006907870061695576,0.05159134790301323,-0.33665013313293457,-0.4187338650226593,10.057498931884766
15.860000000000001,-0.034289028495550156,-0.0007412079139612615,0.06431037187576294,0.02318454161286354,-0.5297156572341919,9.882240295410156
15.88,0.0647861659526825,0.002383377170190215,0.06521959602832794,0.22674062848091125,-0.765654444694519,9.871881484985352
15.9,0.045832112431526184,0.014820818789303303,0.03872174397110939,0.11266407370567322,-0.951826274394989,9.711282730102539
15.92,0.11502818018198013,-0.0002423427940811962,0.010393870063126087,0.14458788931369781,-0.790757417678833,9.514877319335938
15.94,0.07167104631662369,-0.015132277272641659,0.007280324585735798,0.25829392671585083,-0.5432387590408325,9.63803768157959
15.96,0.07294152677059174,0.0051987203769385815,0.010417098179459572,0.3455345332622528,-0.22239932417869568,10.264936447143555
15.98,0.10706813633441925,-0.02368180640041828,0.01595211587846279,0.5621633529663086,-0.08185223489999771,10.515361785888672
16.0,0.11662553995847702,-0.06701663136482239,0.005725595634430647,0.665658175945282,0.29800623655319214,10.049017906188965
16.02,0.08296141028404236,-0.08073960244655609,-0.007174836006015539,0.43077337741851807,0.5231218338012695,9.406731605529785
16.04,0.03965716063976288,-0.07202056795358658,-0.02522396296262741,0.1940816193819046,0.5541340112686157,9.045234680175781
16.06,0.022184574976563454,-0.040405936539173126,-0.021026793867349625,0.1141330674290657,0.41777342557907104,9.364119529724121
16.080000000000002,-5.202308966545388e-05,-0.036624159663915634,-0.006106188520789146,0.2648578882217407,0.259823739528656,9.70858097076416
16.1,-0.008038201369345188,-0.0429304875433445,0.003910575062036514,0.45152315497398376,0.1073613092303276,9.943177223205566
16.12,-0.054419104009866714,-0.019077476114034653,0.023420939221978188,0.3762013912200928,-0.0013534979661926627,9.929469108581543
16.14,-0.06925053894519806,-0.010076937265694141,0.017168888822197914,0.18418589234352112,0.11392156779766083,9.867377281188965
16.16,-0.019576886668801308,0.008663974702358246,-0.00020613464585039765,0.28127607703208923,0.16035722196102142,10.148234367370605
16.18,0.016750628128647804,0.011015576310455799,-0.02778034284710884,0.5786277651786804,-0.22699886560440063,10.311144828796387
16.2,0.044873569160699844,0.042021915316581726,-0.03567652776837349,0.8582039475440979,-0.5907688140869141,9.599921226501465
16.22,0.006228872574865818,0.05356216058135033,-0.03475772216916084,1.1533071994781494,-0.5516542792320251,8.72612190246582
16.240000000000002,0.010329456999897957,0.061574991792440414,-0.02356208860874176,1.2791738510131836,-0.49898576736450195,8.812360763549805
16.26,0.06845545023679733,0.08001897484064102,-0.002635686192661524,1.1677762269973755,-0.282795250415802,9.908979415893555
16.28,0.04119127243757248,0.053187932819128036,0.02680649608373642,0.681561291217804,-0.10787816345691681,11.35657787322998
16.3,0.06573402881622314,-0.001190176117233932,0.03504070267081261,0.2442232370376587,-0.019604692235589027,11.0545072555542
16.32,-0.001310687861405313,0.021243233233690262,0.019344380125403404,0.04522785171866417,0.2684708535671234,9.501764297485352
16.34,0.08957934379577637,0.03258582204580307,0.0026228006463497877,-0.3938468098640442,0.4973423182964325,9.078146934509277
16.36,0.0487435907125473,0.0017019767547026277,-0.004349027760326862,-0.5755645036697388,0.23368944227695465,9.784669876098633
16.38,0.011006660759449005,-0.037158820778131485,-0.0010068375850096345,-0.2800135612487793,0.47741326689720154,10.260454177856445
16.4,0.015937035903334618,-0.02229706197977066,0.005769561510533094,0.29435861110687256,0.12054865062236786,9.357035636901855
16.42,0.016885006800293922,-0.03625279292464256,0.010488882660865784,0.7163327932357788,-0.3505221903324127,8.814237594604492
16.44,-0.03311474993824959,-0.10000079870223999,-0.001786113833077252,0.8603243827819824,-0.18403245508670807,9.167176246643066
16.46,-0.05239252373576164,-0.12700754404067993,-0.004029112868010998,0.6651270389556885,0.28930577635765076,9.746644973754883
16.48,-0.057130347937345505,-0.09906212985515594,-0.022932151332497597,0.20987868309020996,0.4795674681663513,9.754812240600586
16.5,-0.0008802036172710359,-0.021473368629813194,-0.022991783916950226,-0.31758201122283936,0.3314792215824127,10.277261734008789
16.52,-0.018135925754904747,0.04395023733377457,-0.0022912260610610247,-0.2119101583957672,-0.18513529002666473,10.220246315002441
16.54,-0.06830620765686035,0.055592987686395645,0.04023785516619682,0.47664743661880493,-0.21627996861934662,9.90893268585205
16.56,-0.00431290315464139,0.034968212246894836,0.0715402290225029,0.9903863072395325,-0.4026648998260498,9.894694328308105
16.580000000000002,0.0009333659545518458,0.044472236186265945,0.08730675280094147,1.1505123376846313,-0.3707394599914551,9.890620231628418
16.6,0.053979963064193726,0.07130724936723709,0.08510242402553558,1.0453565120697021,-0.3063000738620758,10.179020881652832
16.62,0.08877256512641907,0.033317554742097855,0.06031767651438713,0.8866285681724548,-0.2859009802341461,9.999920845031738
16.64,0.1062982976436615,0.01143814530223608,0.006009610369801521,0.5998988747596741,-0.14395323395729065,9.2642240524292
16.66,0.0770789161324501,0.03813778981566429,-0.042337581515312195,0.2583152651786804,0.011521756649017334,8.91740608215332
16.68,0.051723185926675797,0.05513843894004822,-0.05275620147585869,0.24299156665802002,0.05977872014045715,9.065293312072754
16.7,0.07086960226297379,0.01870785281062126,-0.018499985337257385,0.27484753727912903,0.215741366147995,9.803498268127441
16.72,0.03723703324794769,-0.01712125353515148,0.0041339462623000145,0.06129140406847,0.28572332859039307,10.818486213684082
16.740000000000002,0.00350972474552691,-0.03209579363465309,-0.00822632946074009,-0.35007143020629883,0.6083393692970276,10.756317138671875
16.76,-0.052280161529779434,-0.02150717005133629,-0.026745622977614403,-0.3464963734149933,0.7542829513549805,9.914063453674316
16.78,-0.07816766947507858,-0.01228128932416439,-0.04191003739833832,0.11688687652349472,0.7454140186309814,8.942994117736816
16.8,-0.09237801283597946,-0.005346684716641903,-0.029019048437476158,0.729289710521698,0.4622291326522827,8.869396209716797
16.82,-0.08877722918987274,-0.006714656017720699,0.010945127345621586,1.131211280822754,0.107907734811306,9.628769874572754
16.84,-0.09947622567415237,0.015809666365385056,0.038317713886499405,1.2192583084106445,-0.09378644078969955,9.967415809631348
16.86,-0.04891134425997734,0.0276636965572834,0.044742897152900696,1.0589767694473267,-0.3024405241012573,9.6012544631958
16.88,-0.0290409866720438,0.038960859179496765,0.05081203952431679,0.6790294051170349,-0.5662406086921692,9.633338928222656
16.9,0.025722144171595573,0.04460524395108223,0.023728154599666595,0.3828095495700836,-0.7157491445541382,9.390620231628418
16.92,0.023699777200818062,0.05442434549331665,-0.0058122663758695126,0.28216543793678284,-0.5527478456497192,9.405184745788574
16.94,0.022439781576395035,0.06633571535348892,-0.030794112011790276,0.1694268137216568,-0.4600871205329895,10.176493644714355
16.96,-0.0007121098460629582,0.09364176541566849,-0.04405742138624191,-0.0809522494673729,0.21187281608581543,10.635228157043457
16.98,-0.004552509635686874,0.09374041855335236,-0.02573702298104763,-0.1453426033258438,0.5733533501625061,10.417521476745605
17.0,0.021177347749471664,0.07590425759553909,0.011923281475901604,0.0011227799113839865,0.1425067037343979,9.833964347839355
17.02,0.009441608563065529,0.09127328544855118,0.030868804082274437,0.14861419796943665,0.22958111763000488,9.769698143005371
17.04,0.0008308981196023524,0.10850286483764648,0.021719636395573616,0.4067613184452057,0.39628100395202637,9.82752513885498
17.06,0.003957405220717192,0.0642823651432991,0.0208306722342968,0.47443047165870667,0.032863013446331024,9.955368041992188
17.080000000000002,0.013110487721860409,0.04204019159078598,0.008056306280195713,0.39144983887672424,-0.11032623052597046,9.82088851928711
17.1,0.03500037640333176,0.06576000899076462,0.00431662006303668,0.24712856113910675,-0.43928712606430054,9.707817077636719
17.12,0.020551608875393867,0.04982081800699234,0.0006417418480850756,0.11533604562282562,-0.689380407333374,9.969232559204102
17.14,0.07578463852405548,0.013008791953325272,-0.015263295732438564,0.14844171702861786,-0.4335021674633026,9.87404727935791
17.16,0.02466749958693981,0.023981858044862747,-0.017072713002562523,-0.06293844431638718,-0.01924094744026661,9.923871040344238
17.18,0.028269443660974503,0.02429778315126896,-0.008133498020470142,-0.1993294060230255,0.38473838567733765,9.979901313781738
17.2,0.015553319826722145,-0.0192148108035326,-0.015886392444372177,-0.11475688219070435,0.5999008417129517,9.907608985900879
17.22,-0.014571590349078178,-0.06843864917755127,-0.022209053859114647,0.08607495576143265,0.4903634488582611,9.29141616821289
17.240000000000002,0.024221908301115036,-0.060150306671857834,-0.031401194632053375,0.07599442452192307,0.4299581050872803,8.924651145935059
17.26,-0.04884432256221771,-0.07839139550924301,-0.015138673596084118,-0.04775506258010864,0.24912747740745544,9.181803703308105
17.28,-0.03243613988161087,-0.07821127027273178,-0.01320604421198368,-0.09396857023239136,0.1508941650390625,9.96683406829834
17.3,-0.04134797677397728,-0.08167513459920883,-0.0071229226887226105,0.02316187135875225,-0.154715895652771,10.881318092346191
17.32,-0.00676208920776844,-0.0481584407389164,0.010232670232653618,0.2770416736602783,-0.3531643748283386,10.5576753616333
17.34,0.011332145892083645,-0.035295598208904266,0.025011081248521805,0.6434211134910583,-0.3634670376777649,9.46252155303955
17.36,-0.028561463579535484,-0.061279602348804474,0.0034148043487221003,0.8111026883125305,-0.052560288459062576,8.954877853393555
17.38,-0.02146577462553978,-0.04412984848022461,-0.013569521717727184,0.5872094631195068,0.31255510449409485,9.745355606079102
17.400000000000002,0.015155750326812267,0.025418411940336227,-0.02429400570690632,0.39884987473487854,0.1657973974943161,10.436141967773438
17.42,0.0009832379873842,0.04982132837176323,-0.01258270163089037,0.6604770421981812,-0.010191143490374088,10.070282936096191
17.44,0.034096214920282364,0.024586662650108337,-0.008174506016075611,0.9552739858627319,-0.20328888297080994,9.62631893157959
17.46,-0.014914439991116524,0.030906178057193756,-0.0021276006009429693,1.006949543952942,-0.049802783876657486,9.051960945129395
17.48,-0.020441174507141113,0.045643772929906845,-0.003390335012227297,0.6525436043739319,0.21346409618854523,9.027018547058105
17.5,-0.08122870326042175,0.02720591612160206,-0.011525756679475307,0.1618497520685196,0.25475406646728516,9.095294952392578
17.52,-0.0422537624835968,0.03707493469119072,-0.016641292721033096,-0.20560289919376373,0.24501892924308777,10.207233428955078
17.54,-0.05960310995578766,0.04806612432003021,-0.021964186802506447,-0.22622662782669067,0.27302244305610657,10.365548133850098
17.56,-0.06515371054410934,0.03830946981906891,-0.012983151711523533,-0.20994700491428375,0.1600089967250824,9.52277660369873
17.580000000000002,-0.0589253306388855,0.003425853094086051,0.038683872669935226,-0.09201498329639435,-0.07113596796989441,9.35084056854248
17.6,-0.05311685428023338,-0.02644946053624153,0.07126609236001968,-0.14903324842453003,-0.3081243634223938,10.176939010620117
17.62,0.041657704859972,-0.04737168923020363,0.06849396228790283,-0.18621233105659485,-0.39631783962249756,10.848169326782227
17.64,0.027900388464331627,-0.05022517591714859,0.03301503136754036,-0.09615446627140045,-0.15004940330982208,10.111937522888184
17.66,0.023432806134223938,-0.0527338869869709,-0.011736436747014523,0.05004873499274254,0.016918357461690903,8.983466148376465
17.68,0.06957408040761948,-0.04054606705904007,-0.019708963111042976,0.27334123849868774,-0.06392298638820648,9.031331062316895
17.7,0.10427530854940414,-0.02581414394080639,-0.010207554325461388,0.5138479471206665,-0.4486784338951111,10.096453666687012
17.72,0.08335544914007187,-0.016517851501703262,0.010583647526800632,0.7533440589904785,-0.7269303202629089,10.675054550170898
17.740000000000002,0.08485347777605057,-0.010827623307704926,0.021311074495315552,0.8475449681282043,-0.36798468232154846,10.254744529724121
17.76,0.09188912063837051,-0.004148665815591812,0.016089146956801414,0.8980635404586792,0.10680467635393143,9.370625495910645
17.78,0.06455670297145844,0.021495498716831207,-0.006935142446309328,0.7412568926811218,0.6280942559242249,8.866362571716309
17.8,-0.0021533763501793146,0.03807220607995987,-0.028252577409148216,0.5587539076805115,0.9555988311767578,9.49827766418457
17.82,-0.005495835095643997,0.05802816525101662,-0.03043806366622448,0.41230401396751404,0.7422960996627808,10.197633743286133
17.84,-0.015749452635645866,0.048423804342746735,-0.034908611327409744,0.4000130891799927,0.1813630312681198,9.918209075927734
17.86,-0.06770738959312439,0.04888768494129181,-0.01924421824514866,0.4262270927429199,0.1356603503227234,9.397029876708984
17.88,-0.0478651262819767,0.033740878105163574,0.012056027539074421,0.3025330901145935,0.2197587788105011,9.18086051940918
17.900000000000002,-0.05385033041238785,-0.036788489669561386,0.03708167001605034,0.02126603201031685,0.10848167538642883,9.839265823364258
17.92,-0.06702453643083572,-0.07437945902347565,0.039118748158216476,-0.19969947636127472,-0.06538870930671692,10.354373931884766
17.94,-0.02583126164972782,-0.09033947438001633,0.019455373287200928,-0.3186712861061096,-0.0759577676653862,10.441526412963867
17.96,-0.05765378847718239,-0.0962277352809906,0.00028551663854159415,-0.5710906982421875,-0.0604269802570343,9.955134391784668
17.98,-0.0069455234333872795,-0.07041788846254349,-0.015162159688770771,-0.6168408989906311,-0.07967827469110489,9.249293327331543
18.0,0.04871320351958275,-0.06143384426832199,-0.018254967406392097,-0.4093083143234253,-0.2544229328632355,9.077046394348145
18.02,0.004101122729480267,-0.05500143766403198,-0.0007598462398163974,-0.11117850989103317,-0.2512347996234894,9.547452926635742
18.04,0.013141370378434658,-0.026973802596330643,0.023339783772826195,0.2835991680622101,-0.03975802659988403,10.058782577514648
18.06,0.02460061013698578,-0.048198338598012924,0.04173168167471886,0.9104778170585632,0.03454097732901573,10.283093452453613
18.080000000000002,-0.03841894492506981,-0.08159255981445312,0.0422615222632885,1.3632508516311646,0.1656917929649353,10.049911499023438
18.1,0.03430532291531563,-0.09460947662591934,0.022294066846370697,1.4741073846817017,0.3347030580043793,9.362444877624512
18.12,-0.028159985318779945,-0.09876571595668793,-0.002542568603530526,1.255780577659607,0.3249608278274536,8.780990600585938
18.14,-0.014578540809452534,-0.07282572984695435,-0.019577227532863617,0.5899494290351868,0.24061189591884613,9.512496948242188
18.16,0.025966094806790352,-0.04046469181776047,-0.027705440297722816,0.14302635192871094,0.04895629733800888,10.666878700256348
18.18,0.03818065673112869,-9.5605559181422e-05,-0.0019034348661080003,-0.060237232595682144,-0.4981096386909485,10.835098266601562
18.2,0.016566231846809387,0.03280124440789223,0.02474769577383995,0.014669983647763729,-0.4498826861381531,10.042430877685547
18.22,0.037573546171188354,0.05056639388203621,0.012587728910148144,0.22921089828014374,-0.07774852216243744,9.513443946838379
18.240000000000002,-0.0001663310977164656,0.08147644251585007,-0.014161339029669762,0.4742167890071869,0.07941814512014389,9.736230850219727
18.26,-0.016457345336675644,0.11569885909557343,-0.043566424399614334,0.7022937536239624,-0.011260305531322956,9.790993690490723
18.28,0.00029191828798502684,0.09326378256082535,-0.05938640236854553,0.8647863864898682,0.10943718999624252,9.66415786743164
18.3,-0.012976044788956642,0.08547230809926987,-0.05918120965361595,1.0295414924621582,0.34649258852005005,9.303927421569824
18.32,-0.02607099525630474,0.09038877487182617,-0.03108718805015087,1.0435956716537476,0.3545643389225006,9.627520561218262
18.34,-0.01797346957027912,0.07270976155996323,-0.008710145950317383,0.8236328959465027,0.4078501760959625,10.035517692565918
18.36,-0.04490746557712555,0.05243370309472084,0.025258798152208328,0.2718197703361511,0.4392971694469452,9.92623233795166
18.38,-0.07855356484651566,0.09037961065769196,0.014642426744103432,-0.20168979465961456,0.1029123067855835,10.177891731262207
18.400000000000002,-0.06133068725466728,0.133652001619339,0.017172561958432198,-0.16367965936660767,-0.2583829462528229,9.974400520324707
18.42,-0.09201235324144363,0.1317177563905716,0.013967450708150864,0.2903132140636444,-0.2001982480287552,9.319005966186523
18.44,-0.08307754248380661,0.1235552579164505,0.005853844340890646,0.6693434119224548,-0.020209841430187225,8.693150520324707
18.46,-0.05190182104706764,0.12536334991455078,0.01115368865430355,0.740404486656189,0.011919766664505005,9.08077335357666
18.48,0.0003325984871480614,0.13927999138832092,0.0015532075194641948,0.4877856969833374,-0.11935124546289444,10.108715057373047
18.5,0.01880534738302231,0.12395502626895905,0.0056941150687634945,-0.010236464440822601,-0.46752941608428955,10.59199333190918
18.52,-0.006090800277888775,0.09619899839162827,0.0057467082515358925,-0.06463125348091125,-0.2861357629299164,9.692680358886719
18.54,-0.04850345104932785,0.06945087760686874,-0.004527668002992868,0.13686543703079224,0.047143206000328064,9.065108299255371
18.56,0.011513855308294296,0.041032228618860245,-0.0016962932422757149,0.15920348465442657,0.2061377763748169,9.665119171142578
18.580000000000002,0.05929207056760788,0.006830563768744469,0.01563228853046894,-0.12580175697803497,-0.15665437281131744,10.339980125427246
18.6,0.02629302814602852,-0.015613540075719357,0.035703323781490326,-0.472768634557724,-0.23281562328338623,10.674662590026855
18.62,0.0548323355615139,0.0025697466917335987,0.044588930904865265,-0.9137623310089111,-0.18889907002449036,9.962763786315918
18.64,0.024876365438103676,-0.010341109707951546,0.03429180756211281,-0.9882380366325378,0.01446533016860485,9.49120044708252
18.66,0.055965691804885864,-0.0036690430715680122,0.032042961567640305,-0.7553752064704895,-0.10690734535455704,9.401617050170898
18.68,0.07585882395505905,-0.008784778416156769,0.024309838190674782,-0.5319420695304871,-0.21050888299942017,9.890935897827148
18.7,0.06751741468906403,-0.05501963570713997,0.004160743672400713,-0.25931382179260254,-0.18524599075317383,10.68452262878418
18.72,0.12140902876853943,-0.05655966326594353,-0.030610423535108566,0.006962655112147331,-0.012632397934794426,10.378434181213379
