time,gyrX,gyrY,gyrZ,accX,accY,accZ
0.0,-0.0817951187491417,-0.012130744755268097,-0.04990003630518913,-0.5740212202072144,-0.3314460813999176,10.03463077545166
0.02,-0.04489341378211975,-0.0028881505131721497,-0.011861988343298435,-0.927912712097168,-0.08718777447938919,10.23909854888916
0.04,0.019798481836915016,0.06542716920375824,0.04712047800421715,-1.1703323125839233,-0.3649217188358307,9.870501518249512
0.06,0.041169438511133194,0.07250529527664185,0.06463433802127838,-1.0360018014907837,-0.7286791801452637,9.876977920532227
0.08,0.03990604355931282,0.016435246914625168,0.05776744708418846,-0.8411722183227539,-1.1145719289779663,9.509395599365234
0.1,0.023373622447252274,0.0140851940959692,-0.0034938848111778498,-0.9084386825561523,-1.0606389045715332,9.051200866699219
0.12,0.027713289484381676,0.0741690993309021,-0.03955133631825447,-0.8468752503395081,-0.5547122955322266,9.068175315856934
0.14,0.009121552109718323,0.0880560651421547,-0.05468142405152321,-0.6164681911468506,0.023361897096037865,9.215044021606445
0.16,0.04088573530316353,0.05331996828317642,-0.03798632696270943,-0.4240041971206665,0.1552472859621048,9.834704399108887
0.18,0.05854024738073349,0.039336033165454865,-0.01660493202507496,-0.4867984354496002,-0.18606305122375488,10.670385360717773
0.2,0.053359255194664,0.041902173310518265,0.023745715618133545,-0.2809898555278778,-0.38824549317359924,10.615645408630371
0.22,0.05027429386973381,0.029305193573236465,0.04938521236181259,-0.23488663136959076,-0.40927860140800476,9.535685539245605
0.24,0.04698832333087921,-0.023496797308325768,0.06491720676422119,-0.081184022128582,-0.3971768021583557,9.372201919555664
0.26,-0.002049858681857586,-0.06117665767669678,0.030493659898638725,-0.1377338021993637,-0.23783627152442932,9.987778663635254
0.28,0.01325812004506588,-0.08660949021577835,-0.00730997696518898,-0.06707184761762619,0.07965626567602158,10.05594253540039
0.3,-0.008308268152177334,-0.07827629148960114,-0.03658164292573929,-0.16578172147274017,0.14185775816440582,9.337621688842773
0.32,-0.04351560026407242,-0.03269326314330101,-0.03596916049718857,-0.6351566314697266,-0.2646391987800598,9.050146102905273
0.34,-0.015464612282812595,0.05394529178738594,-0.007620625197887421,-1.0318442583084106,-0.5730581879615784,9.916227340698242
0.36,0.0062458631582558155,0.10317814350128174,0.011269173584878445,-0.8973492383956909,-0.7701802253723145,10.19648265838623
0.38,0.025393983349204063,0.0614287406206131,0.02447976917028427,-0.6534650921821594,-0.5344489812850952,9.98543930053711
0.4,0.05910058692097664,0.016953226178884506,0.03340580686926842,-0.3479250371456146,-0.4524814486503601,9.799562454223633
0.42,0.09048604965209961,0.05015695095062256,0.009189817123115063,-0.18226315081119537,-0.43656378984451294,10.14941120147705
0.44,0.07881652563810349,0.045969635248184204,0.013453536666929722,-0.19258417189121246,-0.45455941557884216,10.371038436889648
0.46,0.045899420976638794,-0.010417942889034748,0.021670876070857048,-0.39729392528533936,-0.2352345734834671,10.325403213500977
0.48,0.027404148131608963,-0.024541841819882393,0.020240377634763718,-0.6328862309455872,0.04289041459560394,9.540262222290039
0.5,0.022477278485894203,-0.04027592018246651,0.0164547860622406,-0.8510856032371521,0.1008656919002533,9.398439407348633
0.52,-0.01538383960723877,-0.07592926174402237,0.001707275165244937,-0.9577072858810425,0.28413787484169006,9.623481750488281
0.54,-0.03884704038500786,-0.06805188953876495,-0.0015221720095723867,-0.9292815923690796,0.179360032081604,9.92177963256836
0.56,-0.017395805567502975,-0.04780196025967598,-0.01441812515258789,-0.7955716848373413,-0.1265137791633606,10.271529197692871
0.58,0.020606687292456627,-0.04954021796584129,-0.019126303493976593,-0.6982343196868896,-0.2730404734611511,9.720616340637207
0.6,-0.028946727514266968,-0.04975614324212074,-0.022474605590105057,-0.6624812483787537,-0.31615230441093445,9.13219928741455
0.62,0.017042433843016624,-0.027129285037517548,-0.011272095143795013,-0.5795267224311829,-0.3571464717388153,9.388121604919434
0.64,-0.002384428633376956,0.0008457211079075933,-0.007191948127001524,-0.6201103329658508,-0.6151512265205383,10.595391273498535
0.66,0.04914206638932228,0.02047763578593731,-0.01769845560193062,-0.12607954442501068,-0.7141458988189697,10.586396217346191
0.68,0.032535847276449203,0.02589556574821472,-0.0383547879755497,0.43248113989830017,-0.7166416645050049,9.766529083251953
0.7000000000000001,0.0394035279750824,0.07480143755674362,-0.05243399366736412,0.8093814253807068,-0.5358549356460571,8.706363677978516
0.72,0.004814584739506245,0.1301908940076828,-0.086234450340271,0.8192850351333618,-0.17355653643608093,8.326345443725586
0.74,0.04410020634531975,0.16849948465824127,-0.09330925345420837,0.6085205078125,0.24371834099292755,9.02906322479248
0.76,0.015051702968776226,0.12629014253616333,-0.03725871816277504,0.30643826723098755,0.35752367973327637,10.602975845336914
0.78,-0.03924029320478439,0.013853817246854305,0.007295724470168352,-0.3196989893913269,-0.03673937916755676,11.699942588806152
0.8,-0.03515715152025223,0.011369206942617893,0.02104109898209572,-0.7407135963439941,-0.23577436804771423,10.770626068115234
0.8200000000000001,-0.03912127763032913,0.06029437482357025,0.014966906048357487,-0.5274403095245361,0.038263510912656784,9.781818389892578
0.84,-0.011915803886950016,0.026590969413518906,0.04068532958626747,-0.6863162517547607,0.23485319316387177,8.754171371459961
0.86,-0.019653882831335068,-0.05458138510584831,0.07074780017137527,-0.9713354706764221,0.0059083313681185246,8.514206886291504
0.88,-0.012103455141186714,-0.09814391285181046,0.06418079137802124,-1.0207109451293945,-0.4170418679714203,9.191201210021973
0.9,-0.019696688279509544,-0.08053237944841385,0.02771967276930809,-1.2226638793945312,-0.6465900540351868,10.121757507324219
0.92,-0.017013266682624817,-0.0563800223171711,-0.00734347477555275,-1.1686018705368042,-0.5077636241912842,10.1111478805542
0.9400000000000001,-0.027981415390968323,-0.024706726893782616,-0.018500717356801033,-1.151938557624817,-0.27553173899650574,10.000666618347168
0.96,-0.004273022059351206,-0.022142469882965088,-0.02368197776377201,-0.8131659626960754,-0.17370545864105225,9.765593528747559
0.98,-0.028132695704698563,-0.010731998831033707,-0.04588192328810692,-0.4288305938243866,-0.18045231699943542,9.572212219238281
1.0,0.005936786066740751,0.01856401190161705,-0.024273289367556572,-0.23231720924377441,-0.25878727436065674,9.344720840454102
1.02,0.0306153055280447,0.046054862439632416,-0.002128694672137499,-0.1707800030708313,-0.413257896900177,9.267704963684082
1.04,0.006436455063521862,0.06553264707326889,0.005491598509252071,-0.21696099638938904,-0.5919240713119507,10.189814567565918
1.06,0.022741267457604408,-0.006524765398353338,0.009762933477759361,-0.42105332016944885,-0.5136334896087646,10.760223388671875
1.08,0.015459086745977402,-0.048940081149339676,0.016207445412874222,-0.4177637994289398,-0.15902185440063477,10.506441116333008
1.1,0.018572740256786346,-0.024198180064558983,0.012915040366351604,-0.25584688782691956,0.1012360081076622,9.63753604888916
1.12,0.03475575894117355,-0.01667160354554653,0.04037483036518097,-0.39487147331237793,-0.0488128587603569,9.552165985107422
1.1400000000000001,0.023592662066221237,-0.008557472378015518,0.03885410353541374,-0.4843249022960663,-0.14749877154827118,9.487115859985352
1.16,0.04742322862148285,-0.0459337942302227,0.014634422957897186,-0.4122433662414551,-0.13484159111976624,9.43018913269043
1.18,0.05128560587763786,-0.03439674526453018,-0.0006463655736297369,-0.3036453425884247,-0.16569779813289642,8.999784469604492
1.2,0.06596329063177109,-0.006773887202143669,0.0018830125918611884,-0.20623497664928436,-0.45558878779411316,9.057010650634766
1.22,0.1024269163608551,-0.01744811236858368,0.007587131578475237,-0.19076740741729736,-0.8824642896652222,10.098159790039062
1.24,0.06091587617993355,-0.030441805720329285,-0.004024364519864321,-0.3595665395259857,-0.7369024753570557,10.767599105834961
1.26,0.03450622409582138,0.011422396637499332,-0.020323200151324272,-0.5577664971351624,0.1396070420742035,10.35957145690918
1.28,0.026665017008781433,0.05067785456776619,-0.020908087491989136,-0.5085387229919434,0.761774480342865,9.896759986877441
1.3,-0.01148818526417017,0.009475900791585445,0.0031924336217343807,-0.5119035840034485,0.4643411338329315,9.778926849365234
1.32,-0.014866293407976627,-0.01254177838563919,-0.023270828649401665,-0.6230850219726562,0.03932294622063637,9.630250930786133
1.34,-0.03973156213760376,0.011084874160587788,-0.04722486063838005,-0.5577041506767273,0.0584276057779789,9.671420097351074
1.36,-0.07916975021362305,-0.03815995529294014,-0.02536127343773842,-0.5439455509185791,0.24789094924926758,9.993376731872559
1.3800000000000001,-0.07076770067214966,-0.07843384146690369,0.011897512711584568,-0.582190215587616,-0.12447308003902435,9.816603660583496
1.4000000000000001,-0.01523206103593111,-0.03217596560716629,0.016046790406107903,-0.6419801115989685,-0.624678373336792,9.87600040435791
1.42,0.02153310924768448,-0.01604314334690571,0.0014658499276265502,-0.5953477025032043,-0.8292509317398071,9.604645729064941
1.44,0.018372830003499985,-0.06714779883623123,0.027889836579561234,-0.695122241973877,-0.6137672662734985,9.741087913513184
1.46,0.03397415578365326,-0.07458886504173279,0.025194810703396797,-0.8695529699325562,-0.4833065867424011,10.394673347473145
1.48,0.028807980939745903,-0.02771369367837906,0.007924607954919338,-0.9757366180419922,-0.42373552918434143,10.944518089294434
1.5,0.052414409816265106,-0.02537270449101925,0.016411514952778816,-0.8473881483078003,-0.19226476550102234,10.372861862182617
1.52,0.0782419890165329,-0.04555191472172737,0.011063188314437866,-0.5570652484893799,0.05418223515152931,8.98956298828125
1.54,0.016858242452144623,-0.042217597365379333,0.0026095642242580652,-0.037745364010334015,0.09932031482458115,8.534863471984863
1.56,0.04459323361515999,-0.0017715818248689175,-0.0046392218209803104,0.11598457396030426,0.10754068940877914,9.86152172088623
1.58,0.014798605814576149,-0.024553561583161354,-0.006461238022893667,0.16533255577087402,0.14294041693210602,10.766751289367676
1.6,0.031489040702581406,-0.04794783145189285,-0.0110058868303895,0.23635423183441162,0.10296783596277237,9.7367582321167
1.62,-0.04079056903719902,-0.003011110005900264,-0.003073155414313078,0.08746574074029922,-0.00377920875325799,8.863985061645508
1.6400000000000001,-0.04940714314579964,0.04391900449991226,0.0034402289893478155,0.10001357644796371,0.0579398050904274,9.27010726928711
1.6600000000000001,-0.04160001128911972,0.03280949220061302,0.012946230359375477,0.17784148454666138,0.05137846618890762,9.835193634033203
1.68,-0.0056800455786287785,0.028793301433324814,0.017453031614422798,0.12319160252809525,-0.12489869445562363,9.81328296661377
1.7,-0.021432198584079742,0.048650920391082764,0.005960677284747362,-0.019462723284959793,-0.3979508876800537,9.607425689697266
1.72,0.0014224046608433127,0.010181643068790436,-0.014386742375791073,-0.024899784475564957,-0.5509843230247498,9.52715015411377
1.74,-0.052685581147670746,-0.015004630200564861,-0.03164975717663765,0.1532796025276184,-0.2654433846473694,9.703276634216309
1.76,-0.03732195869088173,-0.02089191973209381,-0.027831899002194405,-0.17483218014240265,0.1643710732460022,10.141916275024414
1.78,-0.022897733375430107,-0.011800971813499928,0.0052822912111878395,-0.9444102644920349,-0.01805827021598816,10.17335319519043
1.8,-0.02849465422332287,-0.010465048253536224,0.020575063303112984,-1.2579755783081055,-0.27253469824790955,9.859684944152832
1.82,0.026712821796536446,0.001914766151458025,0.00436390470713377,-1.4748724699020386,-0.3563207983970642,10.007433891296387
1.84,0.046482186764478683,0.03668755292892456,0.01875942014157772,-1.3254213333129883,-0.4188196361064911,10.56264591217041
1.86,0.09750507771968842,0.035254620015621185,0.03495438024401665,-0.9036518335342407,-0.6006625294685364,10.200019836425781
1.8800000000000001,0.10489744693040848,-0.0038758935406804085,0.03250006213784218,-0.6875136494636536,-0.6114709973335266,9.325175285339355
1.9000000000000001,0.12133244425058365,-0.03932990878820419,0.03459107130765915,-0.5431159138679504,-0.5972867012023926,9.305642127990723
1.92,0.15740391612052917,-0.05332423374056816,0.016161281615495682,-0.37640199065208435,-0.16654884815216064,10.119336128234863
1.94,0.14103293418884277,-0.09061752259731293,-0.0010861627524718642,-0.20649971067905426,0.1530919224023819,10.27583122253418
1.96,0.1135038211941719,-0.10911205410957336,-0.01762438379228115,-0.16424082219600677,0.21589022874832153,9.580270767211914
1.98,0.06164637953042984,-0.086858831346035,-0.018239175900816917,-0.10786274075508118,0.2777451276779175,9.174419403076172
2.0,0.008142754435539246,-0.0635039433836937,-0.026437826454639435,0.05549343675374985,0.37502196431159973,9.497456550598145
2.02,-0.0016943151131272316,-0.06180097162723541,-0.02108570747077465,0.029163777828216553,0.6405870318412781,9.9775390625
2.04,-0.04810026288032532,-0.05059212073683739,-0.02234005182981491,-0.027603279799222946,0.6849703192710876,9.846375465393066
2.06,-0.09517170488834381,-0.017218729481101036,-0.039194460958242416,0.10029935836791992,0.5604640245437622,9.661334991455078
2.08,-0.12053089588880539,-0.021091289818286896,-0.016860855743288994,0.20740334689617157,0.27421697974205017,9.556387901306152
2.1,-0.1426619589328766,0.00545007549226284,0.0127588314935565,-0.006331820040941238,0.02727442793548107,10.04655933380127
2.12,-0.11182606220245361,0.010676191188395023,0.020916882902383804,-0.22076605260372162,-0.26347044110298157,10.158108711242676
2.14,-0.09947855770587921,-0.04248673841357231,0.040505457669496536,-0.41646939516067505,-0.39714789390563965,9.5845308303833
2.16,-0.05233127996325493,-0.05620554834604263,0.039815504103899,-0.5005947947502136,-0.36083924770355225,9.217411994934082
2.18,0.015483724884688854,-0.019522981718182564,0.04436837136745453,-0.45308437943458557,-0.5931649804115295,9.897369384765625
2.2,0.011454086750745773,-0.023198766633868217,0.02168438211083412,-0.3394913971424103,-0.945255696773529,10.438013076782227
2.22,-0.01157083734869957,-0.010031850077211857,-0.005210308823734522,-0.2835817039012909,-0.7791776061058044,9.988105773925781
2.24,-0.012011948972940445,0.0064816842786967754,-0.01780051738023758,-0.3481661379337311,-0.2117549479007721,9.339247703552246
2.2600000000000002,0.002545130904763937,0.02198632061481476,-0.023993300274014473,-0.3196077048778534,0.32341066002845764,9.258164405822754
2.2800000000000002,-0.007636000402271748,-0.01336397510021925,-0.0114100631326437,-0.2706233263015747,0.5578000545501709,9.690289497375488
2.3000000000000003,-0.021996792405843735,-0.02791995368897915,0.004536981228739023,-0.08041184395551682,0.4532134532928467,10.178956031799316
2.32,-0.03834247961640358,-0.03791934996843338,0.028434941545128822,-0.016388965770602226,0.04144719988107681,10.2952299118042
2.34,-0.00460045738145709,-0.03989573195576668,0.04024913161993027,-0.028818722814321518,-0.3536752760410309,9.544027328491211
2.36,0.010982012376189232,-0.06303425878286362,0.03698747605085373,-0.15400059521198273,-0.5711822509765625,9.095646858215332
2.38,0.029834873974323273,-0.016624661162495613,0.02337302453815937,-0.6399515867233276,-0.71705162525177,9.958176612854004
2.4,0.051811520010232925,0.05487727373838425,-0.005403888877481222,-0.6371520757675171,-0.7661795616149902,10.454721450805664
2.42,0.05804537981748581,0.046017952263355255,-0.03744186833500862,-0.566573977470398,-0.4304543733596802,9.591851234436035
2.44,0.04244562238454819,0.043215829879045486,-0.07260487973690033,-0.2147543728351593,0.03336650878190994,9.146987915039062
2.46,0.030313026160001755,0.06573798507452011,-0.08733870834112167,0.07294923812150955,0.41020461916923523,9.706762313842773
2.48,0.00014321692287921906,0.07363568991422653,-0.06327448785305023,0.4210861921310425,0.3566271662712097,10.426376342773438
2.5,-0.0004028608382213861,0.029419614002108574,-0.018491830676794052,0.384621262550354,0.14869314432144165,10.557697296142578
2.52,-0.013924968428909779,0.014351464807987213,0.018177347257733345,-0.1421671062707901,-0.038858938962221146,9.970565795898438
2.54,-0.09358777105808258,0.0409666933119297,0.044845934957265854,-0.5515146255493164,0.03478357568383217,9.388765335083008
2.56,-0.11537374556064606,0.058188263326883316,0.035553447902202606,-0.8502996563911438,0.12589046359062195,9.302714347839355
2.58,-0.16710366308689117,0.08869362622499466,0.005726988427340984,-0.7950958013534546,0.15583541989326477,9.659098625183105
2.6,-0.1339620053768158,0.12966082990169525,-0.03541713207960129,-0.30501696467399597,-0.03341106325387955,9.67289924621582
2.62,-0.16226308047771454,0.14071136713027954,-0.040143683552742004,0.39693549275398254,-0.16880954802036285,9.468713760375977
2.64,-0.15677809715270996,0.12919308245182037,-0.02282755821943283,0.7631226181983948,-0.3410382568836212,9.180649757385254
2.66,-0.10149043053388596,0.13062460720539093,0.02009366825222969,0.6131186485290527,-0.34289973974227905,9.146812438964844
2.68,-0.08262927085161209,0.14768356084823608,0.042219411581754684,0.021706951782107353,-0.4187142550945282,9.42186164855957
2.7,-0.06350213289260864,0.14572669565677643,0.051899347454309464,-0.05691235512495041,-0.624317467212677,9.946066856384277
2.72,-0.05239463225007057,0.11174550652503967,0.03951229527592659,-0.14460104703903198,-0.6431911587715149,10.100297927856445
2.74,-0.01059275958687067,0.06847255676984787,0.019916407763957977,-0.5360512733459473,-0.4653555750846863,10.197094917297363
2.7600000000000002,0.0023289318196475506,0.07481419295072556,0.03180772811174393,-0.8756245374679565,-0.4979279041290283,10.123297691345215
2.7800000000000002,0.04115471616387367,0.0636034905910492,0.03757239133119583,-0.8378901481628418,-0.7789412140846252,9.937809944152832
2.8000000000000003,0.042297568172216415,0.01815824583172798,0.04951482638716698,-0.8795920014381409,-1.1086108684539795,9.918042182922363
2.82,0.09226353466510773,-0.01718582585453987,0.048462267965078354,-0.8900824189186096,-1.050277829170227,10.167173385620117
2.84,0.09072353690862656,-0.004126209765672684,0.06609182804822922,-1.1743690967559814,-0.4978795647621155,10.0228853225708
2.86,0.10677306354045868,0.008773752488195896,0.09074660390615463,-1.7476025819778442,-0.22872544825077057,10.047274589538574
2.88,0.11571531742811203,-0.007586273364722729,0.05711308494210243,-2.007355213165283,-0.29583966732025146,9.838265419006348
2.9,0.12006385624408722,0.011967752128839493,0.021078219637274742,-1.8294191360473633,-0.08437204360961914,10.077289581298828
2.92,0.10279612243175507,0.02738015539944172,-0.0033285091631114483,-1.3031691312789917,0.0021244334056973457,10.38019847869873
2.94,0.08076068013906479,0.03894245624542236,-0.0023037479259073734,-1.050212025642395,0.018705125898122787,10.210491180419922
2.96,0.06040138006210327,0.014854474924504757,-0.02166851982474327,-0.3254052400588989,0.06590090692043304,9.439238548278809
2.98,0.09236156195402145,-0.028883544728159904,-0.03665788471698761,0.3963610529899597,0.15122587978839874,8.784826278686523
3.0,0.09033471345901489,-0.06915684789419174,-0.0016916913446038961,0.41257351636886597,0.09535285085439682,8.831655502319336
3.02,0.10545515269041061,-0.08755826950073242,0.02127249166369438,0.08698391914367676,-0.20552998781204224,9.425151824951172
3.04,0.04124130308628082,-0.04687344655394554,0.018760818988084793,-0.3012844920158386,-0.5265616774559021,10.21178150177002
3.06,0.027487721294164658,0.03880726546049118,-0.0016809067456051707,-0.551112174987793,-0.27460068464279175,10.08115291595459
3.08,0.025063665583729744,0.08539016544818878,-0.03224379941821098,-0.6089828610420227,0.1030992940068245,9.562578201293945
3.1,-0.07393071055412292,0.07497908920049667,-0.056171808391809464,-0.3848138749599457,0.40642327070236206,9.258248329162598
3.12,-0.04186217859387398,0.1241416335105896,-0.05577883496880531,-0.22738808393478394,0.47769615054130554,9.868738174438477
3.14,-0.09416770935058594,0.1603308618068695,-0.039680954068899155,-0.19995374977588654,0.4234252870082855,10.452433586120605
3.16,-0.10489750653505325,0.12880033254623413,-0.004773129243403673,-0.08907189965248108,0.29095926880836487,10.510344505310059
3.18,-0.07931508868932724,0.09589368104934692,0.018487371504306793,-0.23944245278835297,0.021907778456807137,9.854594230651855
3.2,-0.11244510114192963,0.10776076465845108,0.008222430944442749,-0.4289311468601227,-0.3848813772201538,9.250032424926758
3.22,-0.04533865675330162,0.06639038771390915,-0.019032835960388184,-0.4931815564632416,-0.3779458701610565,9.673956871032715
3.24,-0.0029370575211942196,-0.03150470182299614,-0.027706898748874664,-0.42993879318237305,-0.3787980079650879,9.678400039672852
3.2600000000000002,0.03356761485338211,-0.07540760189294815,-0.018525058403611183,-0.6374234557151794,-0.8542762994766235,9.408376693725586
3.2800000000000002,-0.0059686582535505295,0.0022983073722571135,-0.0055759623646736145,-1.5211155414581299,-1.1631320714950562,9.811723709106445
3.3000000000000003,0.008719864301383495,0.037838395684957504,-0.005825255066156387,-1.819933533668518,-0.6453700065612793,10.489824295043945
3.3200000000000003,0.018039729446172714,0.019183022901415825,0.003549747634679079,-1.6573803424835205,0.11609316617250443,9.991877555847168
3.34,0.015501324087381363,0.029862290248274803,0.02486664615571499,-1.0763120651245117,0.2740480303764343,9.511319160461426
3.36,0.05276075005531311,0.007945924066007137,0.030219286680221558,-0.6937445998191833,-0.04455319419503212,9.465030670166016
3.38,0.04609100893139839,-0.020942969247698784,0.017875317484140396,-0.4954789876937866,-0.39551669359207153,9.535158157348633
3.4,0.044691167771816254,-0.05217914655804634,0.009211968630552292,-0.42949366569519043,-0.4966621398925781,9.806869506835938
3.42,0.09196561574935913,-0.09606436640024185,-0.006847200449556112,-0.6225236654281616,-0.44306647777557373,9.957625389099121
3.44,0.028656499460339546,-0.10485310852527618,-0.02214818261563778,-0.7965283393859863,-0.3287157118320465,10.230846405029297
3.46,0.035619571805000305,-0.091843381524086,-0.04208005592226982,-0.9937496185302734,-0.11149021983146667,10.090935707092285
3.48,0.0173345934599638,-0.05284614861011505,-0.06813616305589676,-1.0228065252304077,0.2428702712059021,9.766735076904297
3.5,-0.019366510212421417,-0.04781298711895943,-0.0827643945813179,-1.00397527217865,0.4142703413963318,9.13692569732666
3.52,-0.04936354234814644,-0.04442113637924194,-0.06330496817827225,-0.5727734565734863,0.39392128586769104,9.166207313537598
3.54,-0.07489846646785736,-0.01740444079041481,-0.035450566560029984,-0.3865443468093872,0.35902824997901917,9.632719039916992
3.56,-0.09899874776601791,0.009838437661528587,-0.020051101222634315,-0.5108397603034973,0.18675193190574646,10.52199935913086
3.58,-0.1474258303642273,-0.07315697520971298,-0.00817424152046442,-0.5113958716392517,-0.071405790746212,10.73749828338623
3.6,-0.15642061829566956,-0.11263900250196457,0.011563468724489212,-0.3861021399497986,-0.23112177848815918,9.775565147399902
3.62,-0.13217958807945251,-0.11356516182422638,0.006693199742585421,-0.44271978735923767,-0.279222697019577,8.971134185791016
3.64,-0.1294126957654953,-0.13685324788093567,-0.000601701729465276,-0.4288824796676636,-0.2870422899723053,9.02856159210205
3.66,-0.09885726124048233,-0.18338236212730408,-0.0004459090414457023,-0.3729223608970642,-0.3397183120250702,9.471720695495605
3.68,-0.09835773706436157,-0.18693511188030243,0.0029728845693171024,-0.27801942825317383,-0.5199405550956726,9.81116771697998
3.7,-0.08813679218292236,-0.16252213716506958,-0.01667112670838833,-0.4565339982509613,-0.7844817042350769,10.57168197631836
3.72,-0.10669447481632233,-0.14595864713191986,-0.02049458771944046,-0.5742344260215759,-0.7597395181655884,10.477347373962402
3.74,-0.1013791561126709,-0.1388779729604721,0.002808850957080722,-0.49232569336891174,-0.39798328280448914,9.766216278076172
3.7600000000000002,-0.055584173649549484,-0.08949768543243408,0.03650066629052162,-0.4211204946041107,-0.07886510342359543,8.855048179626465
3.7800000000000002,0.018436092883348465,-0.08692406117916107,0.06669565290212631,-0.3614552319049835,0.0017112422501668334,9.15853214263916
3.8000000000000003,0.04456336796283722,-0.11964628845453262,0.08882938325405121,-0.29138004779815674,-0.4061139225959778,9.866896629333496
3.8200000000000003,0.04685737192630768,-0.0975571796298027,0.079269178211689,-0.11602633446455002,-1.0427762269973755,10.149884223937988
3.84,0.07068178802728653,-0.0668163001537323,0.03520311042666435,-0.16755659878253937,-1.3073070049285889,9.863718032836914
3.86,0.1073044165968895,-0.03160571679472923,-0.014669803902506828,-0.2626546323299408,-1.136148452758789,9.654407501220703
3.88,0.024007361382246017,-0.006659104023128748,-0.03750649839639664,-0.3796694576740265,-0.5964882373809814,9.810989379882812
3.9,0.029587820172309875,0.0025812259409576654,-0.05084913596510887,-0.2892836928367615,0.004399059806019068,10.485579490661621
3.92,0.039806343615055084,-0.03141777589917183,-0.038293659687042236,-0.22499123215675354,0.1805972307920456,10.875569343566895
3.94,-0.010075749829411507,-0.04581303149461746,-0.009493310935795307,-0.183905228972435,0.2253093272447586,9.531639099121094
3.96,-0.014564153738319874,-0.05505327135324478,-0.003921640571206808,-0.10129879415035248,0.440636545419693,9.200757026672363
3.98,-0.04925096780061722,-0.051276836544275284,-0.004655011463910341,-0.06444784998893738,0.28970813751220703,9.77917194366455
4.0,-0.06609272211790085,-0.07542113959789276,0.013607804663479328,-0.09275460243225098,0.026249269023537636,10.24162483215332
4.0200000000000005,-0.030865013599395752,-0.08250905573368073,0.027188768610358238,-0.17182576656341553,-0.37708693742752075,10.162239074707031
4.04,-0.050123825669288635,-0.0472533144056797,0.0397728830575943,-0.15322113037109375,-0.884345293045044,9.493378639221191
4.0600000000000005,0.031179143115878105,0.013254109770059586,0.04366853088140488,0.1477910280227661,-1.1119672060012817,8.600950241088867
4.08,0.025145497173070908,0.01305516716092825,0.04135363548994064,0.18581724166870117,-1.0081830024719238,8.781798362731934
4.1,0.06292224675416946,-0.014493037946522236,0.027175407856702805,0.24429796636104584,-0.8109721541404724,10.049793243408203
4.12,0.04279918223619461,-0.05612949654459953,0.015587827190756798,0.26333317160606384,-0.5249345302581787,11.136353492736816
4.14,0.1112937331199646,-0.04559657350182533,0.018129630014300346,0.0062204888090491295,-0.29294443130493164,10.63366413116455
4.16,0.1278463900089264,-0.030619679018855095,0.03954813629388809,0.027497325092554092,-0.505990743637085,9.413249015808105
4.18,0.08098753541707993,-0.11335419863462448,0.02345258742570877,-0.18391795456409454,-0.4854625463485718,9.075878143310547
4.2,0.05780542269349098,-0.1183486133813858,-0.0021713890600949526,-0.6064954400062561,-0.03918296471238136,9.810135841369629
4.22,0.04850034415721893,-0.033149320632219315,-0.022382745519280434,-1.1563308238983154,0.32585611939430237,10.970100402832031
4.24,0.054126229137182236,-0.03168726712465286,-0.0030135123524814844,-1.1167200803756714,0.30284637212753296,10.784825325012207
4.26,0.04691678285598755,-0.03514385223388672,0.0013590020826086402,-0.9114460945129395,-0.02874372899532318,9.50747013092041
4.28,0.020846299827098846,-0.0332782082259655,-0.0004726476618088782,-0.4938431978225708,-0.2907247543334961,8.893413543701172
4.3,-0.00561399944126606,-0.04056669399142265,0.0060803149826824665,-0.0765533298254013,-0.30965137481689453,9.16013240814209
4.32,0.01044655591249466,-0.07205241173505783,0.00727271381765604,0.7094175815582275,-0.1623755842447281,9.588852882385254
4.34,0.008457701653242111,-0.12427055835723877,0.02048644609749317,0.7977078557014465,-0.2970341145992279,9.70771598815918
4.36,0.002716104732826352,-0.1042199432849884,0.02080281637609005,0.45526161789894104,-0.488083153963089,9.806975364685059
4.38,-0.01129415538161993,-0.07618224620819092,0.0051259323954582214,0.01277999859303236,-0.30175793170928955,9.866080284118652
4.4,0.01295435894280672,-0.05528876185417175,0.012111696414649487,-0.17029595375061035,-0.10515382885932922,9.957801818847656
4.42,0.011410755105316639,0.0005985304596833885,0.006950052455067635,-0.02957816794514656,0.019329650327563286,9.976081848144531
4.44,0.01594402827322483,0.01810341700911522,0.009181276895105839,0.11375050246715546,-0.1262432038784027,9.441104888916016
4.46,0.03827013447880745,0.024645373225212097,0.018685847520828247,0.3660626709461212,-0.4658888578414917,9.423866271972656
4.48,0.02387264370918274,0.04017716273665428,0.027065657079219818,0.5974268317222595,-0.5001431107521057,10.091443061828613
4.5,0.014758219011127949,0.04803722724318504,0.03527992218732834,0.538273811340332,-0.36278194189071655,10.16348648071289
4.5200000000000005,-0.02014300227165222,0.043354373425245285,0.004396794363856316,0.14122362434864044,-0.03129638358950615,9.873433113098145
4.54,-0.023704882711172104,0.024435119703412056,-0.029815683141350746,-0.27730315923690796,0.1664792001247406,9.512887954711914
4.5600000000000005,-0.05507415905594826,0.001756385900080204,-0.02856992371380329,-0.3790416419506073,0.19801682233810425,9.6437406539917
4.58,-0.07375338673591614,0.0026013250462710857,-0.027723873034119606,-0.4210670590400696,0.16411957144737244,10.032181739807129
4.6000000000000005,-0.06955042481422424,0.06243712082505226,-0.011805886402726173,-0.5542948246002197,0.09509049355983734,10.410371780395508
4.62,-0.00712298508733511,0.04877855256199837,0.012598886154592037,-0.3403889834880829,-0.048398591578006744,10.144630432128906
4.64,-0.07294686138629913,0.00782619509845972,0.032601043581962585,0.0027337472420185804,-0.5604879856109619,9.749419212341309
4.66,-0.020479612052440643,0.010497905313968658,0.018268493935465813,0.1913428157567978,-0.7727170586585999,9.434320449829102
4.68,-0.032752834260463715,0.00240282597951591,-0.007935602217912674,0.21605856716632843,-0.6405690312385559,9.705483436584473
4.7,-0.033177826553583145,-0.02885865420103073,-0.020529478788375854,0.01973998174071312,-0.40653207898139954,10.113173484802246
4.72,-0.01849331334233284,-0.021809140220284462,-0.0151640884578228,-0.42526185512542725,-0.11915273219347,10.234773635864258
4.74,-0.01705203764140606,-0.04884050413966179,-0.0022981958463788033,-0.6297817826271057,-0.23568424582481384,10.343452453613281
4.76,0.04279056191444397,-0.10338262468576431,0.017661012709140778,-0.5946328043937683,-0.5575798153877258,10.160685539245605
4.78,0.05229185149073601,-0.11065360903739929,0.01423679105937481,-0.30521345138549805,-0.622641384601593,9.236404418945312
4.8,0.03468482941389084,-0.0897069200873375,-0.0008877053624019027,-0.08033622801303864,-0.5224907994270325,9.051981925964355
4.82,0.04818042740225792,-0.09366288036108017,-0.02153772860765457,0.05134745314717293,-0.3339464068412781,9.71851921081543
4.84,0.02874821238219738,-0.09800389409065247,-0.03858986869454384,0.0209922194480896,-0.09961819648742676,10.20698356628418
4.86,0.020597033202648163,-0.0804746225476265,-0.039951812475919724,-0.041578516364097595,-0.059311144053936005,10.189643859863281
4.88,0.0057668788358569145,-0.07391313463449478,-0.047364987432956696,-0.10695741325616837,0.0021544797345995903,9.721755027770996
4.9,-0.043631065636873245,-0.05489615723490715,-0.025418102741241455,0.005320014897733927,0.05794478952884674,9.269990921020508
4.92,-0.022023461759090424,0.007183615583926439,-0.014465805143117905,0.04850996658205986,-0.13103169202804565,9.3015775680542
4.94,-0.093410424888134,0.05998566746711731,-0.018091265112161636,0.0534621886909008,-0.32000532746315,9.62677001953125
4.96,-0.13663506507873535,0.07212618738412857,-0.030667714774608612,0.13522619009017944,-0.30465057492256165,10.039750099182129
4.98,-0.09115935117006302,0.03956000134348869,-0.03811493515968323,0.9500572681427002,-0.040221307426691055,10.134613037109375
5.0,-0.12481759488582611,0.002253857674077153,-0.041620075702667236,1.3978140354156494,0.2360559105873108,9.533777236938477
5.0200000000000005,-0.14202158153057098,0.058575935661792755,-0.007678293623030186,1.1146105527877808,0.07035268098115921,9.010224342346191
5.04,-0.12884576618671417,0.08426333963871002,0.002500269329175353,0.5194941759109497,-0.39378777146339417,9.379739761352539
5.0600000000000005,-0.06293848156929016,0.08093063533306122,0.012789943255484104,-0.028899958357214928,-0.8921363353729248,9.852096557617188
5.08,-0.049850404262542725,0.08357756584882736,0.017604459077119827,-0.4263460040092468,-1.1034384965896606,10.023483276367188
5.1000000000000005,-0.01650455966591835,0.09390311688184738,0.03689837083220482,-0.4174500107765198,-0.9609719514846802,9.831406593322754
5.12,-0.05942660570144653,0.08778619021177292,0.025829825550317764,-0.1768724024295807,-0.884589672088623,10.154000282287598
5.14,0.009046677500009537,0.07072083652019501,2.5301420464529656e-05,-0.0638551339507103,-0.6927220225334167,10.10230827331543
5.16,-0.01357241440564394,0.05038813501596451,-0.015358704142272472,-0.0705738291144371,-0.308724045753479,9.891627311706543
5.18,-0.00836930051445961,0.037738408893346786,-0.005885516759008169,-0.3381672203540802,-0.20361526310443878,9.898365020751953
5.2,0.034871168434619904,0.04535934701561928,0.0035998267121613026,-0.6199843287467957,-0.23852387070655823,10.19814682006836
5.22,0.03408777713775635,0.01497706025838852,0.044038306921720505,-0.6348632574081421,-0.3804984390735626,9.980483055114746
5.24,0.06995449960231781,-0.015925323590636253,0.044441573321819305,-0.4448663592338562,-0.7582638263702393,9.56041145324707
5.26,0.07116720080375671,-0.029546888545155525,0.03748227283358574,-0.18835368752479553,-0.7902564406394958,9.171221733093262
5.28,0.11900144815444946,-0.03830971196293831,0.008551154285669327,0.03642630577087402,-0.6937026381492615,9.557367324829102
5.3,0.10718876868486404,-0.02234005369246006,0.0030853282660245895,-0.008683500811457634,-0.6122980117797852,10.29675006866455
5.32,0.12053321301937103,-0.0004952040617354214,-0.007858358323574066,0.003170460695400834,-0.6534919142723083,10.545482635498047
5.34,0.1121208444237709,-0.008950106799602509,-0.0011679432354867458,0.0008671441464684904,-0.7630285620689392,10.269410133361816
5.36,0.12264850735664368,-0.003609224921092391,0.0033294586464762688,0.008018995635211468,-0.5034031271934509,9.299049377441406
5.38,0.10742079466581345,0.008184739388525486,-0.0005983633454889059,0.06707441061735153,0.03738550841808319,8.394495010375977
5.4,0.0895252600312233,0.03277207911014557,-0.0065234010107815266,0.26668256521224976,0.2917209565639496,8.730610847473145
5.42,0.038933925330638885,0.03138677403330803,-0.01993160881102085,0.2752813398838043,0.35614022612571716,10.109068870544434
5.44,0.02325005643069744,0.01883024349808693,-0.03789442405104637,0.1380033642053604,0.43316707015037537,10.551409721374512
5.46,-0.03709813579916954,0.027548247948288918,-0.05028802156448364,-0.1427479237318039,0.3568620979785919,9.991029739379883
5.48,-0.09517514705657959,0.019756270572543144,-0.05116508901119232,-0.2893305718898773,0.4282117486000061,9.656168937683105
5.5,-0.12282444536685944,0.006628098431974649,-0.04108055308461189,-0.304126113653183,0.4219195246696472,10.209061622619629
5.5200000000000005,-0.10155132412910461,-0.0055939811281859875,-0.01656564697623253,-0.2959258258342743,-0.00372090726159513,10.38709545135498
5.54,-0.06644966453313828,-0.019682345911860466,-0.01736501231789589,-0.3234723210334778,-0.6215431690216064,10.192760467529297
5.5600000000000005,-0.11157175898551941,-0.051666345447301865,-0.01585325226187706,-0.35469087958335876,-0.9058986902236938,9.92253589630127
5.58,-0.06267576664686203,-0.08008579909801483,0.0019450248219072819,-0.28838977217674255,-0.815804660320282,9.669427871704102
5.6000000000000005,-0.053740449249744415,-0.10946271568536758,0.015445679426193237,-0.25926482677459717,-0.7391284108161926,9.232481956481934
5.62,-0.03017314337193966,-0.1297578662633896,0.013649960979819298,-0.32313820719718933,-0.6314659714698792,9.502808570861816
5.64,-0.012569085694849491,-0.11983339488506317,-0.003182709449902177,-0.43217307329177856,-0.5997769832611084,9.726006507873535
5.66,-0.013544685207307339,-0.13203227519989014,-0.012631930410861969,-0.5327033996582031,-0.6383680105209351,10.277681350708008
5.68,0.0005585862090811133,-0.12616129219532013,-0.006913089193403721,-0.5907555818557739,-0.4855692386627197,10.550745010375977
5.7,-0.0013133445754647255,-0.12509116530418396,0.0029665015172213316,-0.35662221908569336,-0.1592223346233368,10.006378173828125
5.72,-0.013026762753725052,-0.08841193467378616,0.03380343317985535,0.11930467188358307,-0.0450778491795063,9.6127290725708
5.74,0.0150778628885746,-0.10199948400259018,0.0233819168061018,0.8717542290687561,-0.21534289419651031,9.8051176071167
5.76,-0.008542913012206554,-0.13024476170539856,0.00960767362266779,0.9742944240570068,-0.4196859896183014,10.360487937927246
5.78,0.024172332137823105,-0.11919446289539337,0.0020487073343247175,0.6364061236381531,-0.7064468860626221,10.364595413208008
5.8,-0.019495168700814247,-0.08251553773880005,-0.011564402841031551,0.321790874004364,-0.8782159686088562,9.746729850769043
5.82,0.01900724694132805,-0.03436420485377312,-0.00123162183444947,0.19164539873600006,-0.8023659586906433,9.40015697479248
5.84,-0.00606333464384079,0.007443907205015421,-0.027123618870973587,0.346516489982605,-0.3996441960334778,9.086730003356934
5.86,-0.034712161868810654,0.03304461017251015,-0.02261151745915413,0.4855544865131378,0.010909614153206348,8.920851707458496
5.88,-0.03376680985093117,0.05548640340566635,-0.031067440286278725,0.6929774880409241,0.23176471889019012,9.281777381896973
5.9,-0.1369408667087555,0.09731168299913406,-0.02581026963889599,0.9062917828559875,0.2512805461883545,9.681194305419922
5.92,-0.1306300312280655,0.11165328323841095,-0.039472829550504684,1.0140560865402222,0.1997927874326706,9.476160049438477
5.94,-0.16307726502418518,0.12397001683712006,-0.015018475241959095,0.8264808058738708,0.07356001436710358,8.991424560546875
5.96,-0.18531019985675812,0.12271401286125183,0.021350445225834846,0.32550543546676636,-0.13616685569286346,9.134204864501953
5.98,-0.11291325837373734,0.12465164065361023,0.03254079818725586,-0.19269904494285583,-0.49661073088645935,10.37246036529541
6.0,-0.12011445313692093,0.09979495406150818,0.02988876961171627,-0.516420304775238,-1.1076314449310303,11.326604843139648
6.0200000000000005,-0.07040387392044067,0.07010284066200256,-0.00917892251163721,-0.4165877103805542,-1.5417718887329102,11.61766242980957
6.04,-0.015802793204784393,0.0055181183852255344,-0.0602300688624382,-0.24471978843212128,-1.390081763267517,9.79179573059082
6.0600000000000005,-0.01444516982883215,-0.04157610982656479,-0.08049798011779785,-0.3265600800514221,-0.8447785973548889,8.318333625793457
6.08,-0.011049755848944187,-0.07774896919727325,-0.06071425601840019,-0.5203011631965637,-0.7552379965782166,8.310447692871094
6.1000000000000005,-0.0005650215898640454,-0.14920125901699066,-0.038368165493011475,-0.4919179677963257,-0.6239365935325623,9.467021942138672
6.12,-0.031817544251680374,-0.14828461408615112,0.010337653569877148,-0.5215688347816467,-0.4634653329849243,10.36571216583252
6.140000000000001,-0.036272890865802765,-0.0896347388625145,0.04850224032998085,-0.6864965558052063,-0.39907220005989075,10.758898735046387
6.16,-0.04935586825013161,-0.08786246180534363,0.032590534538030624,-0.43754392862319946,-0.516678512096405,10.217232704162598
6.18,-0.05874694883823395,-0.1089552640914917,0.004832663107663393,-0.15966714918613434,-0.48368871212005615,8.898778915405273
6.2,-0.02948446199297905,-0.04003598913550377,-0.019419021904468536,-0.029076091945171356,-0.5095751285552979,8.820831298828125
6.22,-0.007933591492474079,0.005976147949695587,-0.025037046521902084,-0.03583100810647011,-0.9366760849952698,9.616355895996094
6.24,0.010831201449036598,-0.023477988317608833,-0.0033298409543931484,0.6367241740226746,-1.067246913909912,10.290675163269043
6.26,0.0499265231192112,-0.04946861043572426,0.014202143996953964,1.0742287635803223,-0.7293062210083008,10.24379825592041
6.28,0.0019038668833673,-0.004187234211713076,0.047907717525959015,0.901845395565033,-0.5590198040008545,9.997807502746582
6.3,0.010423057712614536,0.026325389742851257,0.05503199249505997,0.677594780921936,-0.4795534908771515,9.738504409790039
6.32,0.010421110317111015,0.0086438013240695,0.03904876857995987,0.3918634355068207,-0.47362977266311646,9.387941360473633
6.34,0.017401693388819695,0.031585123389959335,-0.017295081168413162,0.3272022008895874,-0.54694002866745,9.246657371520996
6.36,-0.020615121349692345,0.0727558434009552,-0.030059488490223885,0.3473220765590668,-0.5735517144203186,9.734498977661133
6.38,0.030928317457437515,0.04763207212090492,-0.008440843783318996,0.36373370885849,-0.6075109243392944,10.511724472045898
6.4,0.06174284592270851,0.04251490533351898,0.04490632936358452,0.268690824508667,-0.9002025127410889,10.449409484863281
6.42,0.047919489443302155,0.08034345507621765,0.06754790991544724,0.375213086605072,-1.0954731702804565,9.571005821228027
6.44,0.07756001502275467,0.04653272032737732,0.03641455993056297,0.34657353162765503,-0.9933127164840698,9.35822868347168
6.46,0.028266767039895058,-0.02667074277997017,-0.008807491511106491,-0.05671868100762367,-0.36380535364151,9.28116226196289
6.48,0.019799385219812393,-0.07351397722959518,-0.026486456394195557,-0.14410141110420227,-0.07611552625894547,10.053693771362305
6.5,0.042008884251117706,-0.09448166191577911,-0.046892065554857254,-0.21715757250785828,-0.013940942473709583,11.085681915283203
6.5200000000000005,0.03908659890294075,-0.08367516100406647,-0.053677503019571304,-0.6118934154510498,-0.344824880361557,10.427619934082031
6.54,0.034946009516716,-0.054272573441267014,-0.042643580585718155,-0.950593888759613,-0.6939152479171753,9.631793022155762
6.5600000000000005,0.040943682193756104,-0.06468451768159866,-0.015482166782021523,-0.7090399861335754,-0.8020187020301819,9.2839937210083
6.58,0.04433564469218254,-0.05980941280722618,0.03246811777353287,-0.24970202147960663,-0.7498974800109863,9.47533893585205
6.6000000000000005,0.0007402092451229692,0.012224423699080944,0.05877158045768738,-0.4362875521183014,-0.5347613096237183,9.822892189025879
6.62,0.021673360839486122,0.09449462592601776,0.050226010382175446,-0.3397594392299652,-0.2949296236038208,10.054157257080078
6.640000000000001,0.01473633199930191,0.04044169560074806,0.008209140971302986,0.9681364297866821,-0.3703746199607849,9.865958213806152
6.66,0.027639135718345642,-0.030104726552963257,-0.024048184975981712,1.8046351671218872,-0.4614676237106323,9.787666320800781
6.68,-0.03429223969578743,0.019994590431451797,-0.045892391353845596,1.63741934299469,-0.5683359503746033,9.768292427062988
6.7,-0.020575549453496933,0.07657518237829208,-0.02769525907933712,1.2231346368789673,-0.6263329982757568,9.962357521057129
6.72,-0.013208848424255848,0.07062870264053345,0.008750011213123798,0.3079066872596741,-0.357400506734848,10.169005393981934
6.74,-0.041011177003383636,0.0878581553697586,0.017596157267689705,-0.4521304666996002,-0.015479518100619316,9.931039810180664
6.76,-0.05084601417183876,0.1507071852684021,0.0071010529063642025,-0.4386371970176697,0.03191239386796951,9.703973770141602
6.78,-0.04506361484527588,0.11952077597379684,-0.004792593885213137,0.021715890616178513,-0.37562116980552673,9.811494827270508
6.8,-0.0780067890882492,0.06546308845281601,0.012274123728275299,0.4736734628677368,-0.8567662239074707,9.114205360412598
6.82,-0.036788053810596466,0.03209135681390762,-0.006548589561134577,0.7958509922027588,-0.9043651819229126,8.569108963012695
6.84,-0.008001865819096565,0.0007773719844408333,-0.016386523842811584,0.1823691725730896,-0.924952507019043,9.76572036743164
6.86,0.012412723153829575,-0.06913968175649643,-0.014506331644952297,-0.07942073047161102,-0.9915546774864197,10.675033569335938
6.88,0.041722606867551804,-0.08739285171031952,0.008571757934987545,-0.32706418633461,-0.9034209251403809,9.661853790283203
6.9,0.03536456450819969,-0.017856350168585777,0.01471623219549656,-0.8916225433349609,-0.9092274904251099,9.461591720581055
6.92,0.05110721290111542,-0.0029643008019775152,-0.00744493305683136,-1.1929590702056885,-0.8932446241378784,10.391905784606934
6.94,0.03661862015724182,-0.041200313717126846,-0.03498050197958946,-0.9404674172401428,-0.41480177640914917,10.092145919799805
6.96,0.012431461364030838,-0.024044660851359367,-0.04429015517234802,-0.5442892909049988,-0.0019285035086795688,9.137053489685059
6.98,-0.02225588634610176,0.01002289168536663,-0.017975090071558952,-0.24368511140346527,0.016617724671959877,9.165173530578613
7.0,0.029591146856546402,-0.030584989115595818,0.026731349527835846,0.5077288150787354,-0.3504942059516907,10.020108222961426
7.0200000000000005,-0.034914471209049225,-0.0703640952706337,0.04190528020262718,1.062567949295044,-0.8022428750991821,10.462390899658203
7.04,-0.0022474497091025114,-0.059895217418670654,0.010816819034516811,0.9336215257644653,-0.7449033856391907,10.430557250976562
7.0600000000000005,-0.07396091520786285,-0.019035864621400833,-0.027283860370516777,0.29085373878479004,-0.21693862974643707,9.276337623596191
7.08,-0.07352820783853531,-0.037589915096759796,-0.03076300583779812,-0.11889305710792542,-0.2048528790473938,9.05278491973877
7.1000000000000005,-0.024608206003904343,-0.02606838382780552,-0.03263445571064949,-0.29790422320365906,-0.7412017583847046,9.792956352233887
7.12,-0.0022659143432974815,0.011169780977070332,-0.021242137998342514,-0.026727916672825813,-1.092210054397583,11.000252723693848
7.140000000000001,-0.05731501057744026,-0.009306077845394611,0.0017514871433377266,0.5986936688423157,-0.9485082626342773,11.003864288330078
7.16,-0.0406009703874588,-0.0234867874532938,0.01666049286723137,0.859649658203125,-0.4214732348918915,9.489487648010254
7.18,0.024964017793536186,-0.000793799408711493,0.026017408818006516,0.7103817462921143,-0.1876617670059204,8.527542114257812
7.2,0.05176780745387077,-0.007199692539870739,0.00039303439552895725,0.26555582880973816,-0.5585727095603943,8.903493881225586
7.22,-8.542414434487e-05,-0.06496401876211166,-0.0005755324382334948,-0.1213134154677391,-0.804804265499115,9.737918853759766
7.24,0.04107666015625,-0.07781565934419632,0.006418930366635323,-0.49422508478164673,-0.9485562443733215,10.192806243896484
7.26,0.02647758089005947,-0.05694635212421417,0.028632380068302155,-0.565704345703125,-1.0905838012695312,10.000968933105469
7.28,0.027825159952044487,-0.028660960495471954,0.04854529723525047,-0.3436872065067291,-1.0907108783721924,9.646968841552734
7.3,0.036996662616729736,-0.05330457538366318,0.0302379559725523,0.08409573137760162,-0.7703481316566467,9.37724494934082
7.32,0.07541496306657791,-0.07419729232788086,0.001137213665060699,0.4672638177871704,-0.40016016364097595,9.234319686889648
7.34,0.027549391612410545,-0.046320609748363495,-0.02619979903101921,0.5835219025611877,-0.22312277555465698,9.492313385009766
7.36,0.018166394904255867,-0.03979157656431198,-0.04314712807536125,0.6259344816207886,-0.23236677050590515,9.608333587646484
7.38,-0.01552464161068201,-0.04904120787978172,-0.03816545754671097,0.42344367504119873,-0.29699957370758057,9.8690824508667
7.4,-0.05252603068947792,-0.042648009955883026,-0.025607367977499962,0.2617756724357605,-0.20994912087917328,9.913046836853027
7.42,0.01802639663219452,-0.023293020203709602,0.024056563153862953,0.14233677089214325,-0.1824600100517273,9.6881103515625
7.44,0.007216269616037607,-0.008111784234642982,0.057061705738306046,0.24660541117191315,-0.671454906463623,9.359047889709473
7.46,0.0051600257866084576,0.010305971838533878,0.0656115710735321,0.42583927512168884,-1.2512516975402832,9.675602912902832
7.48,0.0592866949737072,0.02351514995098114,0.02473255805671215,0.4583904445171356,-1.3956161737442017,10.406829833984375
7.5,0.012733690440654755,0.041158776730298996,-0.025790167972445488,0.27034667134284973,-0.8713266849517822,10.885388374328613
7.5200000000000005,0.07055389881134033,0.05123967304825783,-0.05750708281993866,0.03930216655135155,-0.1024937629699707,10.011515617370605
7.54,0.02568027935922146,0.048445362597703934,-0.05315510928630829,-0.012338586151599884,0.18885155022144318,8.942181587219238
7.5600000000000005,0.013319224119186401,0.027512202039361,-0.029732290655374527,0.13019587099552155,-0.08207464218139648,9.311285972595215
7.58,-0.02772749401628971,0.016210801899433136,-0.0004493407905101776,0.2715854048728943,-0.41767069697380066,10.011513710021973
7.6000000000000005,-0.007687751669436693,0.0014337243046611547,0.023013608530163765,0.320712685585022,-0.6645638942718506,10.252630233764648
7.62,-0.08851279318332672,-0.010294759646058083,0.030423415824770927,0.24723021686077118,-0.5891920924186707,9.834076881408691
7.640000000000001,-0.07957970350980759,-0.03704654425382614,0.011232160963118076,-0.06758690625429153,-0.2834358811378479,10.197225570678711
7.66,-0.06076553091406822,-0.027945611625909805,-0.004857080988585949,-0.12372003495693207,-0.1964603066444397,10.3821382522583
7.68,-0.011771135963499546,-0.03452687710523605,-0.003613121574744582,-0.07781312614679337,-0.61590975522995,9.812398910522461
7.7,0.009267146699130535,-0.03441478684544563,-0.0028330418281257153,-0.017796367406845093,-1.349921703338623,9.060651779174805
7.72,0.009568748064339161,-0.020644910633563995,0.014794803224503994,0.130524143576622,-1.4904249906539917,9.263203620910645
7.74,0.052005570381879807,0.009050151333212852,0.006077492609620094,0.20284011960029602,-1.0568162202835083,10.008035659790039
7.76,0.06895595788955688,-0.0018779590027406812,-0.0008644958725199103,0.42050015926361084,-0.4884352385997772,10.347322463989258
7.78,0.05514482408761978,-0.013667412102222443,-0.003904686076566577,0.36768391728401184,-0.0896712988615036,9.905047416687012
7.8,0.05775586888194084,-0.0010994663462042809,-0.01957576535642147,0.23961910605430603,-0.24328075349330902,9.961426734924316
7.82,0.056318122893571854,0.016261044889688492,-0.015133628621697426,0.3647720515727997,-0.71141117811203,10.150870323181152
7.84,0.04916289821267128,0.025505170226097107,0.0029614462982863188,0.501756489276886,-0.8026901483535767,9.497631072998047
7.86,0.06293720006942749,-0.015360834077000618,0.004316962789744139,0.5178298950195312,-0.6415825486183167,8.84181022644043
7.88,0.003673972561955452,-0.006057219114154577,0.023753363639116287,0.43812114000320435,-0.40758639574050903,9.274154663085938
7.9,-0.009447302669286728,0.01588214375078678,0.023851027712225914,0.3398817777633667,-0.2977181077003479,10.051395416259766
7.92,0.04014042764902115,0.008067109622061253,0.025677666068077087,0.0425586923956871,-0.36458685994148254,10.516682624816895
7.94,0.09125489741563797,0.0018628862453624606,0.04083048552274704,-0.03773189336061478,-0.5205627083778381,10.221244812011719
7.96,0.07032226026058197,-0.010963904671370983,0.030050277709960938,-0.022775407880544662,-0.8374214172363281,9.9558744430542
7.98,0.06324149668216705,0.00313268112950027,0.005562841426581144,0.06103985756635666,-1.138409972190857,9.710787773132324
8.0,0.07765953242778778,-0.007705765310674906,-0.027143694460392,0.08026421070098877,-0.8644217848777771,9.296072006225586
8.02,0.040670961141586304,-0.02605856955051422,-0.018188027665019035,0.07541512697935104,-0.3452821373939514,9.572452545166016
8.040000000000001,0.021405359730124474,-0.02626684308052063,0.007166364695876837,-0.02950340323150158,0.053845182061195374,10.02784252166748
8.06,0.02465261146426201,-0.04366794601082802,0.0015685363905504346,-0.007656295318156481,0.17944253981113434,10.178019523620605
8.08,0.002771911211311817,-0.054705072194337845,0.00311583885923028,0.15165981650352478,0.11789269000291824,9.840922355651855
8.1,-0.03848988190293312,-0.03521556779742241,-0.0076940422877669334,0.28263726830482483,-0.08626160770654678,9.699102401733398
8.120000000000001,-0.028536086902022362,-0.03561876714229584,-0.024070100858807564,0.4027549624443054,-0.4010467231273651,9.686811447143555
8.14,-0.0015220883069559932,-0.04928550124168396,-0.012969586998224258,0.3937191665172577,-0.7577697038650513,9.620075225830078
8.16,-0.0690404549241066,-0.03034001961350441,-0.007123222108930349,0.1868998408317566,-0.9932727813720703,9.930510520935059
8.18,-0.021916911005973816,-0.0060327788814902306,0.005494348239153624,0.0846148431301117,-0.817919909954071,10.030290603637695
8.2,-0.022149745374917984,-0.014456246979534626,0.013524964451789856,0.1763436496257782,-0.5491370558738708,9.925338745117188
8.22,-0.017064804211258888,-0.04581150412559509,0.0023453575558960438,0.3653329610824585,-0.347819983959198,9.903043746948242
8.24,0.041412822902202606,-0.04710666462779045,-0.026730448007583618,0.4535742700099945,-0.29429906606674194,9.786168098449707
8.26,0.07738730311393738,-0.01687486097216606,-0.028514226898550987,0.4797956943511963,-0.383127361536026,9.667054176330566
8.28,0.04496487230062485,0.0038677838165313005,-0.01461063139140606,0.6682323217391968,-0.5684359669685364,9.677206039428711
8.3,-0.00455155223608017,-0.000273338780971244,0.0033845326397567987,0.8027600049972534,-0.661144495010376,9.528236389160156
8.32,-0.003173740115016699,-0.015130129642784595,0.021032802760601044,0.8811689615249634,-0.6005651950836182,9.035445213317871
8.34,0.057423338294029236,4.356981662567705e-05,0.025841692462563515,0.7482725977897644,-0.4105989933013916,8.96908950805664
8.36,0.03914487361907959,0.0032484426628798246,0.03205309808254242,0.5798152089118958,-0.33994078636169434,9.166803359985352
8.38,0.06244939565658569,0.014373359270393848,0.0459221787750721,0.36162903904914856,-0.46932679414749146,9.289249420166016
8.4,0.10041098296642303,0.05887860432267189,0.024709615856409073,0.3298971951007843,-0.6225186586380005,9.620779037475586
8.42,0.08314081281423569,0.10552976280450821,0.018908493220806122,0.2413625568151474,-0.827154815196991,10.145696640014648
8.44,0.09555751830339432,0.11523351073265076,-0.03192361071705818,-0.007538057863712311,-0.8570778965950012,10.154841423034668
8.46,0.07785805314779282,0.13715210556983948,-0.05644776672124863,-0.07879940420389175,-0.5076999068260193,9.790568351745605
8.48,0.08028989285230637,0.13430389761924744,-0.06420504301786423,0.14108358323574066,0.046811968088150024,9.454191207885742
8.5,0.09014876931905746,0.14206816256046295,-0.04058985412120819,0.19255517423152924,0.18528686463832855,9.664546966552734
8.52,0.059370603412389755,0.09702219069004059,-0.00643450440838933,0.36530572175979614,0.0760001391172409,10.54085922241211
8.540000000000001,0.014562563970685005,0.05336708948016167,-0.0036139690782874823,0.19806790351867676,-0.17966897785663605,10.783559799194336
8.56,-0.003802795195952058,0.007958609610795975,0.00020019143994431943,0.012154965661466122,-0.05636034160852432,9.95698070526123
8.58,-0.054181963205337524,-0.04167673736810684,0.00672262953594327,0.04399704560637474,0.21797558665275574,9.205995559692383
8.6,-0.08003996312618256,-0.08356226235628128,0.018422730267047882,-0.055470824241638184,0.3830481767654419,9.226595878601074
8.620000000000001,-0.1321825236082077,-0.09800909459590912,0.026464514434337616,-0.24504996836185455,0.14088459312915802,9.958928108215332
8.64,-0.1084529384970665,-0.08993257582187653,0.006295951548963785,-0.7989801168441772,-0.2119227945804596,10.589293479919434
8.66,-0.07358232140541077,-0.0701625645160675,0.026016024872660637,-0.8596087694168091,-0.28483083844184875,10.198476791381836
8.68,-0.01848938688635826,-0.057919953018426895,0.021369993686676025,-0.6624931693077087,-0.5854172110557556,10.090970039367676
8.700000000000001,-0.036631304770708084,-0.043210215866565704,0.005828819237649441,-0.40648752450942993,-1.0327717065811157,9.612016677856445
8.72,0.025953207165002823,-0.04415770247578621,0.00022137898486107588,-0.2751440703868866,-1.1786473989486694,9.06977367401123
8.74,0.014153718948364258,-0.02368871122598648,-0.019855955615639687,0.4230055809020996,-1.072222352027893,9.127679824829102
8.76,0.041094228625297546,-0.03230346366763115,-0.024693626910448074,0.8643774390220642,-0.7148047685623169,10.018131256103516
8.78,0.0898967906832695,-0.020113322883844376,-0.04115993529558182,1.0295857191085815,-0.39494022727012634,10.853134155273438
8.8,-0.0021498980931937695,-0.02242579497396946,-0.049869105219841,0.8931570053100586,-0.04476497694849968,10.623103141784668
8.82,-0.018517805263400078,-0.03489062562584877,-0.034535691142082214,0.6801311373710632,0.17590343952178955,9.763106346130371
8.84,-0.00036426729639060795,-0.006982329301536083,-0.010219496674835682,0.7045522332191467,0.09769563376903534,9.154443740844727
8.86,0.008722266182303429,0.019541898742318153,0.031698767095804214,0.7549643516540527,-0.05490630120038986,9.110642433166504
8.88,0.014418503269553185,0.03490227833390236,0.0578322634100914,0.8044949769973755,-0.22796699404716492,9.360719680786133
8.9,5.4721254855394363e-05,0.06444227695465088,0.051167745143175125,0.7629250884056091,-0.6155530214309692,9.798262596130371
8.92,0.05532091483473778,0.09612569212913513,0.037265513092279434,0.5848129987716675,-0.9694122076034546,9.7759370803833
8.94,0.08773893117904663,0.1556261032819748,0.004780352581292391,0.2917553186416626,-0.9644162058830261,9.580360412597656
8.96,0.07936085760593414,0.167686328291893,-0.024949029088020325,0.19500267505645752,-0.7041963934898376,9.73726749420166
8.98,0.09990625083446503,0.17281538248062134,-0.05721237137913704,0.07200415432453156,-0.42939233779907227,9.59260082244873
9.0,0.06642207503318787,0.18691040575504303,-0.06970424950122833,-0.1356830894947052,-0.2535761594772339,9.850515365600586
9.02,0.10198323428630829,0.1808369904756546,-0.03924672678112984,-0.0542852021753788,-0.0041731479577720165,10.551690101623535
9.040000000000001,0.05294368416070938,0.14819206297397614,0.004688317887485027,0.038011759519577026,0.04740769788622856,10.669856071472168
9.06,-0.012757837772369385,0.118014857172966,0.03537527844309807,0.07621633261442184,0.0059668803587555885,9.709737777709961
9.08,0.004553853068500757,0.08829107880592346,0.03700607642531395,-0.01312847901135683,-0.04416081681847572,8.95345687866211
9.1,-0.01666666939854622,0.016013124957680702,0.022921035066246986,0.02144521102309227,0.035700634121894836,8.768420219421387
9.120000000000001,-0.0139181949198246,-0.06089213863015175,0.002794322557747364,0.016943568363785744,0.0104070995002985,9.533495903015137
9.14,0.0019719016272574663,-0.0695006474852562,-0.006354106590151787,-0.22890198230743408,-0.3160960078239441,10.04368782043457
9.16,0.015595494769513607,0.001629064092412591,0.0016056288732215762,-0.9902270436286926,-0.5735461115837097,10.407567024230957
9.18,0.0027313069440424442,0.03355398401618004,0.0219875480979681,-1.2644131183624268,-0.7354262471199036,10.615132331848145
9.200000000000001,0.07401954382658005,-0.018626894801855087,0.03487963601946831,-0.935610830783844,-0.48049455881118774,10.195716857910156
9.22,0.06940153986215591,0.00408262899145484,0.045350536704063416,-0.7070842385292053,-0.4258098602294922,9.296648979187012
9.24,0.07395734637975693,0.0824739933013916,0.036193761974573135,-0.648005485534668,-0.3652450740337372,9.652807235717773
9.26,0.08264128118753433,0.030864283442497253,-0.0024190805852413177,0.057311780750751495,-0.6563947796821594,10.282727241516113
9.28,0.09591351449489594,-0.059679266065359116,-0.032786644995212555,0.9349385499954224,-0.10439416021108627,9.881593704223633
9.3,0.08762669563293457,-0.07698571681976318,-0.030045898631215096,1.2103585004806519,0.049782201647758484,9.62051010131836
9.32,0.05658787116408348,-0.06720255315303802,-0.005507875699549913,0.7260969281196594,-0.13394016027450562,9.867568016052246
9.34,0.0609460175037384,-0.07000682502985,-0.006969377864152193,0.08493763208389282,-0.26140618324279785,9.778645515441895
9.36,0.0784684270620346,-0.07607003301382065,-0.005451343022286892,-0.3677956461906433,-0.13660061359405518,9.637758255004883
9.38,0.042208779603242874,-0.03588155284523964,-0.009413566440343857,-0.4693380892276764,0.03544314205646515,9.903742790222168
9.4,-0.004576814826577902,0.02484111487865448,-0.027434246614575386,-0.2144613265991211,0.26442959904670715,10.280401229858398
9.42,-0.07137823849916458,-0.006181363016366959,-0.05322915315628052,0.24605481326580048,0.3867240846157074,10.100332260131836
9.44,-0.06777842342853546,-0.05811266228556633,-0.04787791520357132,0.4679122567176819,0.4719772934913635,8.969278335571289
9.46,-0.09451700747013092,-0.03147044777870178,-0.018482575193047523,0.1930561661720276,0.16708141565322876,8.937559127807617
9.48,-0.12166384607553482,0.011092271655797958,-0.0021886012982577085,-0.0912017896771431,-0.3169843256473541,10.152764320373535
9.5,-0.0979514792561531,-0.022035006433725357,-0.00335521949455142,-0.11045584827661514,-0.3374996483325958,10.448346138000488
9.52,-0.10714566707611084,-0.053042154759168625,0.004770704545080662,-0.06753111630678177,-0.03325466066598892,9.866971015930176
9.540000000000001,-0.05814512446522713,-0.017886759713292122,0.020645443350076675,0.04967617616057396,-0.09278427064418793,9.112410545349121
9.56,-0.08228549361228943,0.016948001459240913,0.026332538574934006,0.296411395072937,-0.7184909582138062,8.942797660827637
9.58,-0.012461916543543339,0.03763582557439804,0.006556961685419083,0.5418392419815063,-1.2005983591079712,9.150660514831543
9.6,0.01391568686813116,0.000812855432741344,-0.0015904108295217156,0.6120774149894714,-1.0400973558425903,10.325709342956543
9.620000000000001,-0.014047115109860897,-0.018995707854628563,0.01984027773141861,0.13712933659553528,-0.7006539106369019,11.134799003601074
9.64,0.019811760634183884,-0.05430212989449501,0.03183238208293915,-0.46400660276412964,-0.5518220663070679,11.50320053100586
9.66,0.07657888531684875,-0.09571116417646408,0.027728600427508354,-0.6240266561508179,-0.32117944955825806,10.30598258972168
9.68,0.08073173463344574,-0.06558152288198471,0.0064539602026343346,-0.4908525049686432,-0.18932101130485535,8.751543998718262
9.700000000000001,0.07032879441976547,-0.07601680606603622,-0.015718728303909302,-0.3856391906738281,-0.2382088154554367,8.709023475646973
9.72,0.05164869502186775,-0.10828825831413269,-0.05203773453831673,-0.19745494425296783,-0.20813843607902527,9.44262981414795
9.74,0.03501647338271141,-0.1213982105255127,-0.056224413216114044,0.31901460886001587,-0.025420034304261208,9.756302833557129
9.76,0.015003710985183716,-0.03376614674925804,-0.022532690316438675,0.7232952117919922,-0.06215692311525345,9.64735221862793
9.78,-0.008197934366762638,0.007588579785078764,0.022397078573703766,1.0022341012954712,-0.10837237536907196,9.35781192779541
9.8,-0.0030305436812341213,0.0186918992549181,0.0459427610039711,0.8317467570304871,-0.10478152334690094,9.364927291870117
9.82,0.007761533372104168,0.021219784393906593,0.0446045882999897,0.6068925857543945,-0.0746678039431572,10.251959800720215
9.84,0.024938926100730896,0.04688749834895134,0.026882417500019073,0.426344633102417,-0.13141749799251556,10.467537879943848
9.86,0.007391813211143017,0.07278098165988922,0.0005106112803332508,0.37093982100486755,-0.39596328139305115,9.968939781188965
9.88,0.03558323159813881,0.07573787868022919,-0.012485641054809093,0.30493441224098206,-0.7115349769592285,9.502032279968262
9.9,0.06127369403839111,0.0402158685028553,-0.0200143251568079,0.11720983684062958,-0.7114196419715881,9.694801330566406
9.92,0.016279427334666252,-0.009528111666440964,-0.02350706420838833,-0.07047944515943527,-0.13573698699474335,9.609254837036133
9.94,0.016767015680670738,-0.004458859097212553,-0.021352775394916534,-0.05126150697469711,0.32193371653556824,9.470104217529297
9.96,-0.03986033797264099,0.012121404521167278,-0.005596134811639786,-0.13557840883731842,0.5601112842559814,9.534626960754395
9.98,-0.0679825022816658,-0.017355624586343765,-0.008139379322528839,-0.2819962501525879,0.41458773612976074,9.897717475891113
10.0,-0.08665089309215546,-0.013895397074520588,-0.011946558952331543,-0.36240705847740173,0.05071812868118286,9.629865646362305
10.02,-0.11515887826681137,0.011923239566385746,-0.035540319979190826,-0.36603832244873047,-0.09358352422714233,9.631739616394043
10.040000000000001,-0.09608422219753265,0.01387599017471075,-0.03582819551229477,-0.4436868727207184,-0.07218858599662781,10.583717346191406
10.06,-0.08857939392328262,-0.018925096839666367,-0.0069083720445632935,0.0021041042637079954,-0.36710643768310547,10.676562309265137
10.08,-0.0998234823346138,-0.04001154750585556,0.022568227723240852,0.3662238121032715,-0.9480181336402893,9.998333930969238
10.1,-0.0707608163356781,-0.013878680765628815,0.012582455761730671,0.3237452507019043,-1.1073174476623535,8.951334953308105
10.120000000000001,-0.011426735669374466,-0.032714564353227615,0.04647378623485565,0.2646041214466095,-0.6808626651763916,9.18997859954834
10.14,0.014589019119739532,-0.07129066437482834,0.0543181337416172,0.186573788523674,-0.4075307250022888,9.642217636108398
10.16,0.006931638810783625,-0.04845342040061951,0.03413921222090721,0.12356819212436676,-0.47980156540870667,9.8430757522583
10.18,0.05355607718229294,0.01840681955218315,-0.021861499175429344,0.20152811706066132,-0.5766588449478149,9.769152641296387
10.200000000000001,0.011931180953979492,0.041650015860795975,-0.03832796961069107,0.437235027551651,-0.5645747184753418,9.767213821411133
10.22,0.01235376950353384,0.05307689309120178,-0.02844124287366867,0.6600774526596069,-0.40132227540016174,10.135546684265137
10.24,-0.004281408619135618,0.06210818141698837,-0.009507383219897747,0.7875552177429199,-0.0018195791635662317,10.36316204071045
10.26,-0.010537235997617245,0.06874505430459976,0.03838365525007248,0.6602858901023865,0.3928426206111908,10.018980026245117
10.28,-0.03995047137141228,0.05849950760602951,0.05464145168662071,0.13615736365318298,0.31057208776474,9.354177474975586
10.3,-0.05194636806845665,0.024919185787439346,0.035559460520744324,-0.09343159943819046,-0.1496850699186325,9.296398162841797
10.32,-0.02447519265115261,-0.0062614548951387405,0.011441170237958431,-0.24879230558872223,-0.4913972318172455,9.877548217773438
10.34,0.027005644515156746,-0.0045422581024467945,0.0022853449918329716,-0.5466504096984863,-0.5483989119529724,10.69892692565918
10.36,-0.0003538514720275998,0.0019142533419653773,-0.0010918374173343182,-0.6223137378692627,-0.7788216471672058,10.871047973632812
10.38,0.03459254279732704,-0.0672854483127594,0.0050747571513056755,-0.29166069626808167,-1.0333573818206787,10.01563835144043
10.4,0.06321188062429428,-0.04050930589437485,0.0006457007839344442,-0.19623352587223053,-0.6633713841438293,8.602498054504395
10.42,0.003287223167717457,0.007059828378260136,-0.026952015236020088,0.23346561193466187,-0.03530865162611008,8.819134712219238
10.44,0.012026047334074974,-0.026849227026104927,-0.012266917154192924,0.6480688452720642,0.3700220286846161,10.011811256408691
10.46,0.014457258395850658,-0.01674022525548935,-0.023710887879133224,0.6981039643287659,0.4224356710910797,10.157889366149902
10.48,-0.007113191764801741,0.050159335136413574,-0.00910478550940752,0.7843303680419922,0.09120889008045197,9.52391529083252
10.5,-0.05715745687484741,0.02933335304260254,-0.0004637111851479858,0.5121963024139404,-0.35480231046676636,9.644723892211914
10.52,-0.08270135521888733,0.04447179660201073,-0.0007959192153066397,0.2005724012851715,-0.28063201904296875,10.137622833251953
10.540000000000001,-0.05262286588549614,0.08885146677494049,0.0007265423191711307,0.13858583569526672,-0.28437232971191406,9.93142318725586
10.56,-0.08439028263092041,0.09817736595869064,0.006462894380092621,0.2860194146633148,-0.4247453212738037,9.702789306640625
10.58,-0.023776721209287643,0.05067765712738037,0.003875435097143054,0.11589071899652481,-0.6087972521781921,9.438082695007324
10.6,-0.06095760688185692,0.02740766480565071,-0.011452664621174335,0.0066218082793056965,-0.6132186651229858,9.566755294799805
10.620000000000001,-0.030529439449310303,-0.00940504390746355,-0.023747628554701805,-0.013991704210639,-0.4399268329143524,10.052553176879883
10.64,-0.0074893757700920105,-0.019183741882443428,-0.006717310287058353,-0.3206663727760315,-0.30517348647117615,10.52964973449707
10.66,0.03501569852232933,-0.010093308053910732,0.02088618278503418,-0.7204631567001343,-0.5424125790596008,10.11946964263916
10.68,-0.04962749779224396,-0.005875696893781424,0.02545313537120819,-0.5126929879188538,-0.7509255409240723,9.308568000793457
10.700000000000001,0.015360613353550434,-0.002662748098373413,-0.0018380859401077032,-0.6664617657661438,-0.5113340616226196,9.349249839782715
10.72,-0.03723391890525818,0.04146542027592659,-0.023283202201128006,-0.6898277401924133,-0.01835748925805092,10.07735538482666
10.74,-0.044388435781002045,0.011449497193098068,-0.0015813094796612859,-0.025811506435275078,0.21149007976055145,10.213120460510254
10.76,0.00981161929666996,-0.02770811878144741,0.017043646425008774,0.5372154116630554,-0.25627028942108154,9.799700736999512
10.78,0.010481285862624645,0.0251423679292202,0.024440299719572067,0.833930253982544,-0.7824751734733582,9.959948539733887
10.8,0.033585865050554276,0.04884045571088791,0.029507650062441826,1.0340765714645386,-1.0023856163024902,9.880058288574219
10.82,0.043363723903894424,0.0024921970907598734,0.034552596509456635,0.7274459004402161,-0.8477586507797241,9.313929557800293
10.84,0.07306959480047226,0.004739104770123959,0.033289823681116104,0.07012675702571869,-0.6969059705734253,9.003045082092285
10.86,0.10836538672447205,0.0918540433049202,0.014937388710677624,-0.30189332365989685,-0.49284231662750244,9.621115684509277
10.88,0.0798100084066391,0.11244585365056992,-0.0011561964638531208,-0.1780375838279724,-0.3806605339050293,10.287202835083008
10.9,0.0859571099281311,0.07509118318557739,-0.013108340092003345,0.2786194682121277,-0.17321360111236572,10.017064094543457
10.92,0.05759119614958763,0.05593486875295639,-0.02350074239075184,0.3529443144798279,-0.119596466422081,9.81766414642334
10.94,0.01824568398296833,0.04701780527830124,-0.010747697204351425,0.019170716404914856,0.1990218609571457,9.998345375061035
10.96,0.024351151660084724,0.029152151197195053,0.01257259864360094,-0.26973024010658264,0.3413156270980835,10.018412590026855
10.98,-0.019204063341021538,-0.04320984706282616,0.021565750241279602,-0.09414936602115631,0.35623371601104736,9.247444152832031
11.0,-0.06995773315429688,-0.10178563743829727,0.013140704482793808,-0.12622284889221191,-0.07047460973262787,8.98717212677002
11.02,-0.08824557065963745,-0.1267862170934677,-0.02129615657031536,-0.2920932173728943,-0.42521756887435913,9.648297309875488
11.040000000000001,-0.0994129553437233,-0.09347641468048096,-0.04340237006545067,-0.8692585825920105,-0.16757316887378693,10.69328784942627
11.06,-0.09049656242132187,-0.06488610059022903,-0.030286874622106552,-1.0137985944747925,-0.017862534150481224,10.195222854614258
11.08,-0.029310565441846848,-0.0560448132455349,-0.007841324433684349,-0.6791573762893677,-0.3231571912765503,9.20805549621582
11.1,0.003506472334265709,-0.03891697898507118,0.004759544972330332,-0.5938056111335754,-0.9157785177230835,9.40286636352539
11.120000000000001,0.00033964222529903054,0.042635370045900345,0.009538644924759865,-0.5360177159309387,-1.1783907413482666,10.282811164855957
11.14,0.0017654336988925934,0.05140552669763565,0.017958248034119606,0.36107340455055237,-1.1224173307418823,10.423179626464844
11.16,0.029446527361869812,0.0025866420473903418,0.0016492316499352455,1.3127470016479492,-0.6002435088157654,9.536067008972168
11.18,0.04104351997375488,0.0346122570335865,-0.030584508553147316,1.2944542169570923,-0.30419814586639404,8.745586395263672
11.200000000000001,0.0782645121216774,0.06439386308193207,-0.056311000138521194,1.1510684490203857,-0.19451475143432617,9.140739440917969
11.22,0.0035864701494574547,0.022526316344738007,-0.04979432746767998,0.8029740452766418,-0.02979951910674572,10.145814895629883
11.24,-0.02528451383113861,-0.02156669832766056,-0.010300105437636375,0.2751823365688324,0.24429278075695038,10.818997383117676
11.26,-0.001197837176732719,-0.02686421573162079,0.019394364207983017,-0.1445465385913849,-0.016475722193717957,9.986041069030762
11.28,0.008334709331393242,-0.010532177053391933,0.03671051561832428,-0.12585169076919556,-0.32294371724128723,9.145663261413574
11.3,0.02058086358010769,-0.019207509234547615,0.043875791132450104,-0.1139482855796814,-0.374119371175766,9.628430366516113
11.32,-0.01263309083878994,-0.04681730642914772,0.014737216755747795,-0.1671648472547531,-0.6184045672416687,10.781390190124512
11.34,-0.018685802817344666,-0.05401917174458504,-0.01520377304404974,-0.4301340878009796,-0.445569783449173,10.122556686401367
11.36,-0.008789078332483768,-0.001904296688735485,-0.02869912050664425,-0.9211217164993286,-0.06750393658876419,9.306299209594727
11.38,0.0316004753112793,0.010457951575517654,0.01572020910680294,-0.7861673831939697,-0.3050183355808258,9.381912231445312
11.4,0.01069285161793232,-0.013090756721794605,0.02900857850909233,-0.6483084559440613,-0.8280209302902222,10.183588027954102
11.42,0.040188077837228775,-0.009697485715150833,0.037722088396549225,-0.7362026572227478,-0.9072851538658142,10.859387397766113
11.44,0.03415700048208237,0.0015919205034151673,0.011049162596464157,-0.3435092866420746,-0.545583963394165,10.118243217468262
11.46,0.00416947016492486,-0.028682099655270576,-0.04320412874221802,0.8418013453483582,-0.11350014060735703,9.077481269836426
11.48,0.05172838270664215,-0.05340733006596565,-0.03816749155521393,1.3601399660110474,-0.006056818179786205,8.784981727600098
11.5,0.059888917952775955,-0.07118941843509674,-0.04100637137889862,1.1249727010726929,-0.20783200860023499,9.549842834472656
11.52,0.03864006698131561,-0.04727446660399437,0.008224312216043472,0.37081143260002136,-0.26672518253326416,10.151272773742676
11.540000000000001,0.07066705077886581,-0.015718070790171623,0.04168017953634262,-0.13300278782844543,-0.28112855553627014,9.970111846923828
11.56,0.045476656407117844,-0.019051264971494675,0.06122300401329994,-0.23473604023456573,-0.4013305902481079,9.599997520446777
11.58,0.03117644041776657,-0.004414291586726904,0.031642135232686996,0.05628269165754318,-0.39367881417274475,9.887205123901367
11.6,0.018056318163871765,0.03352699056267738,-0.03043248876929283,0.29921770095825195,-0.2835574448108673,10.217391967773438
11.620000000000001,-0.038119152188301086,0.06293505430221558,-0.05867109075188637,0.556040346622467,-0.1371975839138031,10.132399559020996
11.64,-0.04208194836974144,0.026435472071170807,-0.050495851784944534,0.4413573443889618,-0.07643421739339828,9.619589805603027
11.66,-0.0744132548570633,-0.04058277979493141,-0.027841517701745033,0.050328318029642105,-0.013794848695397377,9.281702995300293
11.68,-0.043408751487731934,-0.05989332124590874,-0.02174757793545723,-0.20895078778266907,0.01062921341508627,9.679615020751953
11.700000000000001,-0.06445743143558502,-0.0401010736823082,0.008524253033101559,-0.5243701934814453,-0.056670576333999634,10.48904800415039
11.72,-0.07952529937028885,-0.06662042438983917,0.04152591899037361,-0.6923272013664246,-0.6560233235359192,10.49782657623291
11.74,-0.05268310755491257,-0.08557455986738205,0.05608370527625084,-0.4890473186969757,-0.803038477897644,9.829219818115234
11.76,-0.023295434191823006,-0.05287063866853714,0.020347213372588158,-0.2834973633289337,-0.6538240909576416,9.08508586883545
11.78,-0.02287546545267105,-0.03346078097820282,-0.021062927320599556,0.2013762891292572,-0.4544995129108429,8.940006256103516
11.8,0.02407277747988701,-0.07286640256643295,-0.037466563284397125,0.7949226498603821,-0.33300861716270447,9.23127555847168
11.82,0.048594340682029724,-0.06416571885347366,-0.04131019487977028,0.7366304993629456,-0.473201185464859,10.45736312866211
11.84,-0.02580437809228897,-0.0017256002174690366,-0.004839299246668816,0.5737624764442444,-0.649385392665863,10.664971351623535
11.86,0.008983617648482323,0.014122221618890762,0.029807014390826225,0.5500089526176453,-0.3236802816390991,9.862318992614746
11.88,-0.001030498999170959,-0.02464030310511589,0.060351934283971786,0.3652993142604828,-0.11587074398994446,8.810641288757324
11.9,0.006917893886566162,0.03156441077589989,0.04280899092555046,0.2821303606033325,0.021453315392136574,9.52026653289795
11.92,0.008227341808378696,0.05732586979866028,-0.005256148520857096,0.29616647958755493,-0.4233720302581787,10.578526496887207
11.94,0.030883334577083588,0.0076425401493906975,-0.035571929067373276,0.26673823595046997,-0.8188595771789551,10.706031799316406
11.96,0.018510963767766953,0.0002255641302326694,-0.05147860199213028,0.12207932025194168,-0.7809628844261169,8.970850944519043
11.98,-0.00953621231019497,0.03727337345480919,-0.0006695755873806775,0.07240097969770432,-0.5780017971992493,8.747504234313965
12.0,0.051003504544496536,0.029414847493171692,0.01880769245326519,-0.08736772835254669,-0.46058034896850586,10.026774406433105
12.02,0.05593188852071762,-0.0036276099272072315,0.019616933539509773,-0.1821570247411728,-0.14014998078346252,10.151238441467285
12.040000000000001,0.0393625944852829,0.050634708255529404,0.011074962094426155,-0.0897650346159935,0.1815401315689087,9.52121639251709
12.06,0.054168179631233215,0.06773582845926285,0.013041394762694836,0.4515772759914398,-0.03587856888771057,9.301182746887207
12.08,0.01177822146564722,0.013447139412164688,-0.007681503426283598,0.7056676149368286,-0.4590323269367218,9.525910377502441
12.1,0.007315837778151035,-0.007483507506549358,-0.016700053587555885,0.6674922704696655,-0.43693608045578003,9.795707702636719
12.120000000000001,0.01718045026063919,0.07589096575975418,-0.0037991488352417946,0.2996494472026825,-0.2930770814418793,10.360746383666992
12.14,0.02716628834605217,0.07369291037321091,0.03852890804409981,0.020537694916129112,-0.3916809856891632,10.87405014038086
12.16,0.06605662405490875,0.03039524517953396,0.03598424047231674,-0.2576264441013336,-0.4835969805717468,9.823749542236328
12.18,0.008593177422881126,0.004497431218624115,0.011356367729604244,-0.22777944803237915,-0.2848670780658722,8.750839233398438
12.200000000000001,0.025233527645468712,0.027481820434331894,-0.011042910628020763,-0.1176634207367897,-0.20237652957439423,8.978275299072266
12.22,0.011037501506507397,-0.0055617280304431915,-0.020017463713884354,-0.0776883214712143,-0.20243433117866516,10.674548149108887
12.24,0.004321256652474403,-0.07140422612428665,-0.03299218416213989,-0.012317023240029812,-0.20871911942958832,11.069209098815918
12.26,0.008159993216395378,-0.03819829970598221,-0.02691292203962803,-0.158309206366539,-0.11329229176044464,9.627708435058594
12.280000000000001,-0.009794524870812893,0.019344743341207504,-0.015921546146273613,-0.494106262922287,-0.19325445592403412,8.91537857055664
12.3,-0.02224217914044857,-0.048505157232284546,0.0005968655459582806,-0.7012153267860413,-0.15887439250946045,9.938139915466309
12.32,-0.06593740731477737,-0.06039305031299591,0.025754163041710854,-0.6647650599479675,0.0022393856197595596,11.17764663696289
12.34,-0.05588614568114281,-0.023387910798192024,0.023853536695241928,-0.044404905289411545,-0.1457427740097046,10.601119995117188
12.36,-0.07078119367361069,-0.04961121827363968,0.008541724644601345,0.860947847366333,0.06272151321172714,9.429322242736816
12.38,-0.09268942475318909,-0.11391555517911911,0.0031130604911595583,1.13773775100708,-0.01528688333928585,8.706929206848145
12.4,-0.0788353681564331,-0.08551151305437088,0.0009542746702209115,0.9384819269180298,-0.3157820999622345,9.496210098266602
12.42,-0.011335423216223717,-0.022891473025083542,0.008001943118870258,0.59088134765625,-0.7825854420661926,9.806736946105957
12.44,-0.05772380530834198,0.0017710531828925014,0.026476416736841202,0.2456301599740982,-1.0018829107284546,9.421182632446289
12.46,0.020485032349824905,0.02999860607087612,0.031286273151636124,-0.019530368968844414,-0.9905897974967957,8.76978588104248
12.48,0.04405423253774643,0.11667805165052414,0.025533340871334076,0.18701936304569244,-0.9277490973472595,9.267217636108398
12.5,0.08179359138011932,0.14806178212165833,0.01650363765656948,0.7456978559494019,-0.8274672627449036,10.232794761657715
12.52,0.1036049872636795,0.08632125705480576,-0.02936890721321106,0.8677668571472168,-0.5188614726066589,10.543916702270508
12.540000000000001,0.09296063333749771,0.10251796245574951,-0.029855582863092422,0.2670572102069855,-0.36785757541656494,10.410794258117676
12.56,0.1316777467727661,0.09878533333539963,-0.008519111201167107,-0.031788069754838943,-0.4585179090499878,10.297628402709961
12.58,0.05577009543776512,0.02797013334929943,0.012940404936671257,-0.26394954323768616,-0.5579884648323059,10.213454246520996
12.6,0.092012420296669,-0.0419938750565052,0.017658058553934097,-0.4024408757686615,-0.16410082578659058,9.683000564575195
12.620000000000001,0.0665741115808487,-0.035858940333127975,-0.003615241264924407,-0.45670709013938904,0.15191256999969482,9.479789733886719
12.64,0.03808499872684479,0.005950850900262594,-0.026575028896331787,-0.5805788040161133,0.13744525611400604,9.479578971862793
12.66,-0.011794671416282654,0.0033274823799729347,-0.06828882545232773,-0.5974259972572327,0.10019092261791229,9.33482837677002
12.68,-0.03136516734957695,0.02448233589529991,-0.09838356822729111,-0.41112521290779114,0.12915003299713135,9.085904121398926
12.700000000000001,-0.04653394594788551,0.06790955364704132,-0.10846073925495148,0.31743258237838745,0.16374297440052032,9.08322811126709
12.72,-0.12579356133937836,0.09336942434310913,-0.05126892402768135,0.8764736652374268,0.12008552253246307,9.717531204223633
12.74,-0.11741684377193451,0.09438660740852356,0.03751419857144356,1.0594865083694458,0.09720076620578766,10.448253631591797
12.76,-0.07420903444290161,0.12035887688398361,0.0840948224067688,0.7017561197280884,-0.26838743686676025,10.479046821594238
12.780000000000001,-0.11951391398906708,0.12860079109668732,0.08872329443693161,0.2967645227909088,-0.5928381085395813,10.473724365234375
12.8,-0.07770367711782455,0.040154606103897095,0.023100340738892555,-0.06434473395347595,-0.7920829653739929,9.988855361938477
12.82,-0.05980987101793289,0.029446087777614594,-0.04409969970583916,-0.31558215618133545,-0.49552446603775024,9.10606575012207
12.84,-0.06630169600248337,0.05946246534585953,-0.07642755657434464,-0.21049922704696655,-0.42385974526405334,9.472006797790527
12.86,-0.057390958070755005,0.0007488319533877075,-0.06636451929807663,-0.27867379784584045,-0.4968577027320862,9.992212295532227
12.88,-0.01034854631870985,-0.018380679190158844,-0.0326080359518528,-0.4711094796657562,-0.5106365084648132,9.79969596862793
12.9,-0.027388468384742737,0.04162723571062088,0.024231305345892906,-0.684144914150238,-0.6931967735290527,9.859220504760742
12.92,0.03264540433883667,0.04048055037856102,0.06906412541866302,-0.7692391872406006,-0.6206413507461548,10.028353691101074
12.94,0.01305436622351408,0.010152798146009445,0.07679221034049988,-0.4632366895675659,-0.7136468291282654,9.174129486083984
12.96,-0.04198550432920456,0.007100916933268309,0.02363669127225876,0.0483747199177742,-0.5552487373352051,9.139453887939453
12.98,-0.0033596795983612537,-0.014097359031438828,-0.03337676450610161,0.33881551027297974,-0.21800373494625092,9.524495124816895
13.0,0.0029201586730778217,0.0047220648266375065,-0.07178124785423279,0.18710318207740784,-0.07754655182361603,10.535956382751465
13.02,0.042061783373355865,0.01065640989691019,-0.06157003715634346,-0.13897450268268585,-0.5086754560470581,11.145750045776367
13.040000000000001,0.062115930020809174,-0.03675871714949608,-0.00282488064840436,-0.1103741005063057,-0.9699949026107788,10.180896759033203
13.06,0.0013660822296515107,-0.07724038511514664,0.04173022508621216,0.008921540342271328,-0.6775322556495667,8.557403564453125
13.08,0.05422046408057213,-0.09250696003437042,0.06626684218645096,-0.007880899123847485,-0.20573288202285767,8.21329116821289
13.1,0.030523957684636116,-0.0946190357208252,0.056040771305561066,-0.07544650137424469,-0.026244008913636208,9.567011833190918
13.120000000000001,0.012752886861562729,-0.10139431804418564,0.011332973837852478,-0.25579169392585754,-0.09454913437366486,11.045093536376953
13.14,-0.004263042006641626,-0.10468871146440506,-0.03541959822177887,-0.46359696984291077,-0.08323340117931366,11.347077369689941
13.16,0.03830673173069954,-0.041944414377212524,-0.04151506349444389,-0.6828358173370361,-0.28262925148010254,10.093429565429688
13.18,0.034103523939847946,-0.012760650366544724,-0.015144390985369682,-0.6320765018463135,-0.6093177795410156,9.260727882385254
13.200000000000001,0.01752377673983574,-0.0349571667611599,0.0021791821345686913,-0.14024847745895386,-0.7996971607208252,9.011758804321289
13.22,0.05824938416481018,-0.07020062208175659,0.001483776024542749,0.5917862057685852,-0.6957455277442932,9.193428039550781
13.24,0.008166058920323849,-0.05487224459648132,0.0003693948674481362,0.9344795942306519,-0.2874892055988312,9.821219444274902
13.26,0.024061448872089386,-0.03840121254324913,0.009104340337216854,0.8193274140357971,-0.08666293323040009,10.540372848510742
13.280000000000001,0.03132203593850136,0.006609656848013401,-0.004111864138394594,0.48212340474128723,-0.1613972783088684,10.21739387512207
13.3,-0.0013608867302536964,0.04717069864273071,-0.021049177274107933,0.16662974655628204,-0.1905086636543274,9.526239395141602
13.32,0.008462619967758656,0.02319498360157013,-0.00247663795016706,0.05784459784626961,-0.14842408895492554,9.781167984008789
13.34,-0.023136813193559647,-0.028363509103655815,0.008046791888773441,-0.06442141532897949,-0.20914848148822784,9.916484832763672
13.36,0.0142417186871171,0.016182176768779755,0.03624856844544411,0.12402373552322388,-0.5021522045135498,9.56862735748291
13.38,0.028504036366939545,0.050351835787296295,0.03647271916270256,0.2398969531059265,-0.6029007434844971,9.945694923400879
13.4,0.10410615801811218,-0.018303213641047478,0.02318859100341797,-0.005035753827542067,-0.6685216426849365,10.394946098327637
13.42,0.021080907434225082,-0.03027132712304592,0.007230526302009821,-0.37584811449050903,-0.5740577578544617,10.349200248718262
13.44,0.07399748265743256,0.0032880783546715975,-0.03027801588177681,-0.5722066760063171,-0.5250829458236694,9.52784538269043
13.46,0.062486402690410614,-0.00241981353610754,-0.020168060436844826,-0.6223227381706238,-0.18480810523033142,8.986948013305664
13.48,0.046199094504117966,-0.05788470059633255,0.007314022164791822,-0.27649685740470886,-0.05038786306977272,9.357991218566895
13.5,0.01995711587369442,-0.0445757657289505,0.01460648700594902,0.1530974805355072,-0.17517907917499542,9.940530776977539
13.52,-0.00468610180541873,-0.050999715924263,0.0021018802653998137,0.6709412932395935,-0.07610505074262619,10.379733085632324
13.540000000000001,-0.008237634785473347,-0.0685255154967308,0.003445463255047798,0.8004804253578186,0.1354595273733139,10.032184600830078
13.56,-0.03957011178135872,-0.07089827954769135,-0.01171464379876852,0.5757336616516113,0.24737128615379333,9.58803939819336
13.58,0.014396663755178452,-0.038516219705343246,-0.024977268651127815,0.2450888305902481,-0.02037874236702919,9.232987403869629
13.6,0.024929622188210487,-0.017471794039011,-0.012359670363366604,-0.1387089043855667,-0.30570849776268005,9.344775199890137
13.620000000000001,0.07296786457300186,0.027951857075095177,0.029361072927713394,-0.32671287655830383,-0.6548753976821899,9.361210823059082
13.64,0.061324067413806915,0.06462175399065018,0.05766010284423828,-0.09609232097864151,-1.1857043504714966,9.798763275146484
13.66,0.06562492996454239,0.07046175003051758,0.04182882606983185,0.48705005645751953,-1.2313027381896973,9.91250991821289
13.68,0.026932930573821068,0.07835856080055237,0.0011416123015806079,0.9304571151733398,-0.3603784739971161,9.581669807434082
13.700000000000001,-0.004623062908649445,0.09692370891571045,-0.03811763599514961,0.9470784068107605,0.5393738150596619,9.1625394821167
13.72,-0.04782329499721527,0.09525404125452042,-0.04677945375442505,0.7478311657905579,0.8733503818511963,9.163520812988281
13.74,-0.12282633781433105,0.07332808524370193,-0.04768803343176842,0.40503376722335815,0.7742518782615662,9.434272766113281
13.76,-0.1760072112083435,0.046094443649053574,-0.04127760976552963,0.23227843642234802,0.4167117178440094,9.8289794921875
13.780000000000001,-0.17443959414958954,0.03413067385554314,-0.03180479258298874,-0.1636863648891449,0.09471818059682846,10.553262710571289
13.8,-0.13237303495407104,0.06371649354696274,0.030851706862449646,-0.26722437143325806,-0.2809295356273651,10.893279075622559
13.82,-0.12209487706422806,0.013481980189681053,0.07344979047775269,-0.4285808801651001,-1.1851308345794678,10.378570556640625
13.84,-0.08080298453569412,-0.013813555240631104,0.03516050800681114,-0.8864874243736267,-1.5033373832702637,9.567390441894531
13.86,-0.038683969527482986,0.035101111978292465,-0.02173040434718132,-0.9647800326347351,-1.0451933145523071,9.52058219909668
13.88,-0.06716671586036682,0.0489877425134182,-0.032788559794425964,-0.6645320653915405,-0.6654732823371887,9.816937446594238
13.9,-0.02059679478406906,0.015751006081700325,-0.03503904864192009,-0.34113064408302307,-0.2731165885925293,9.852843284606934
13.92,-0.03023357130587101,0.01941072940826416,-0.015637842938303947,-0.07307174801826477,-0.21099327504634857,9.260798454284668
13.94,-0.005323400720953941,0.06298764050006866,0.01635713316500187,0.10954193025827408,-0.2711309492588043,8.911770820617676
13.96,-0.01976679265499115,0.05993643030524254,0.029444042593240738,0.03407257795333862,-0.43064025044441223,9.235319137573242
13.98,-0.03659669682383537,0.04831067472696304,0.05317182093858719,0.052364565432071686,-0.40237313508987427,9.749658584594727
14.0,-0.015419851057231426,0.0466877743601799,0.02072804607450962,0.13688503205776215,-0.4576397240161896,10.79572868347168
14.02,-0.01183388289064169,0.04380049929022789,-0.017364196479320526,0.09764359891414642,-0.46251624822616577,11.164451599121094
14.040000000000001,0.011597971431910992,0.059462398290634155,-0.04434880241751671,0.14736048877239227,-0.4914107322692871,10.62787914276123
14.06,-0.0004102482052985579,0.08055715262889862,-0.006002943962812424,0.218375563621521,-0.6192551851272583,8.906652450561523
14.08,-0.02155815064907074,0.05177703872323036,0.022121593356132507,0.1564740538597107,-0.6735876202583313,8.87647533416748
14.1,-0.0035528780426830053,0.015555513091385365,0.019131209701299667,-0.14102312922477722,-0.4864255487918854,9.774367332458496
14.120000000000001,-0.006694512441754341,0.08658841997385025,0.0006019199499860406,-0.28324025869369507,-0.06388653069734573,10.159662246704102
14.14,0.031770382076501846,0.11749617755413055,-0.0011805479880422354,-0.17111554741859436,-0.152430921792984,10.332612991333008
14.16,0.031219352036714554,0.0662531927227974,-0.006073601543903351,-0.16139072179794312,-0.6092434525489807,9.952005386352539
14.18,0.037300560623407364,0.07013701647520065,-0.003944110125303268,-0.16701136529445648,-0.8864279985427856,9.61412525177002
14.200000000000001,-0.03072402998805046,0.07631764560937881,-0.012339895591139793,-0.09049995243549347,-0.6010115742683411,9.842013359069824
14.22,0.043767642229795456,0.0535067617893219,0.027679651975631714,-0.19803652167320251,-0.24323463439941406,10.461262702941895
14.24,0.020120900124311447,0.022979093715548515,0.04363047331571579,-0.48884302377700806,-0.28818604350090027,10.40456771850586
14.26,0.046448566019535065,0.04083160310983658,0.023768486455082893,-0.4347517192363739,-0.5644781589508057,9.12978458404541
14.280000000000001,0.0442163459956646,0.035799361765384674,-0.0048765274696052074,-0.49003222584724426,-0.5832868814468384,8.724395751953125
14.3,0.0514773391187191,-0.015285646542906761,-0.02220167964696884,-0.43789082765579224,-0.6298892498016357,9.390069007873535
14.32,0.05558834597468376,-0.007255082949995995,-0.012797788716852665,-0.38349202275276184,-0.567318320274353,10.235522270202637
14.34,0.04489775374531746,0.06214010342955589,0.006810210645198822,-0.19153058528900146,-0.4146536886692047,10.180472373962402
14.36,0.03931211680173874,0.05476442351937294,0.008755218237638474,-0.016154179349541664,-0.1604209542274475,9.20595932006836
14.38,0.025192884728312492,0.0627589076757431,0.02249554544687271,-0.20039106905460358,-0.06791738420724869,9.007390975952148
14.4,0.00675430241972208,0.09766688197851181,0.01010049693286419,-0.1218847706913948,-0.0679255872964859,10.495965957641602
14.42,0.0276747178286314,0.07202688604593277,0.0036717047914862633,0.1206393614411354,-0.5045199990272522,11.238758087158203
14.44,0.02628452144563198,0.03612424433231354,-0.0023856430780142546,0.028819328173995018,-0.5285775661468506,10.220757484436035
14.46,0.04857446625828743,0.06945818662643433,0.010976789519190788,-0.2160642296075821,-0.4991249740123749,8.937628746032715
14.48,0.06497436761856079,0.09395968168973923,0.03298494964838028,-0.40635770559310913,-0.5307869911193848,9.388127326965332
14.5,0.05925813317298889,0.0030385502614080906,0.04401903972029686,-0.5564590692520142,-0.6407899856567383,10.011301040649414
14.52,0.07288011163473129,-0.012080218642950058,0.03532278165221214,-0.7766937017440796,-0.3815554976463318,10.151487350463867
14.540000000000001,0.03934427723288536,0.05510760098695755,0.01347152516245842,-0.9983550906181335,-0.03138977289199829,9.959692001342773
14.56,0.047975581139326096,0.07445670664310455,-0.012470285408198833,-0.863731861114502,0.012304318137466908,9.67309284210205
14.58,0.001156805781647563,0.03816446661949158,-0.041799385100603104,-0.38315674662590027,0.10394776612520218,8.97860050201416
14.6,0.030436167493462563,0.046031586825847626,-0.0435761995613575,0.16919787228107452,0.154587060213089,8.758321762084961
14.620000000000001,-0.04068831354379654,0.0413801483809948,-0.011908498592674732,0.34676000475883484,-0.1820964366197586,9.762360572814941
14.64,-0.039066512137651443,0.008899437263607979,0.0075036524794995785,0.009676706977188587,-0.4813411235809326,11.112878799438477
14.66,-0.014545873738825321,-0.030258772894740105,0.030572645366191864,-0.4827529191970825,-0.4458591938018799,11.076319694519043
14.68,0.03300884738564491,-0.032802194356918335,0.04158415272831917,-0.49029290676116943,-0.4760074019432068,9.664387702941895
14.700000000000001,0.028347747400403023,-0.059991732239723206,0.015315350145101547,-0.37314924597740173,-0.6642553210258484,8.148968696594238
14.72,0.027732711285352707,-0.12542767822742462,-0.019539035856723785,-0.2068215012550354,-0.6684277057647705,8.50525188446045
14.74,-0.01399778388440609,-0.1585462987422943,-0.07115764170885086,-0.22548136115074158,-0.33027875423431396,9.841530799865723
14.76,-0.020433830097317696,-0.1226176768541336,-0.0665973350405693,-0.5443680286407471,0.18134906888008118,10.304516792297363
14.780000000000001,-0.06221332773566246,-0.1069917231798172,-0.043822549283504486,-0.7020175457000732,0.2589738070964813,9.96284008026123
14.8,-0.11441737413406372,-0.08093263953924179,-0.031576164066791534,-0.9019399881362915,0.09984757006168365,9.196892738342285
14.82,-0.12925218045711517,-0.04447057470679283,-0.011024026200175285,-0.8583967685699463,0.19712522625923157,9.217334747314453
14.84,-0.16885948181152344,0.014100982807576656,0.00828116200864315,-0.43159249424934387,0.11857610940933228,10.24124813079834
14.86,-0.13499274849891663,0.06155460700392723,0.0037529875990003347,-0.404157429933548,-0.4070820212364197,10.584692001342773
14.88,-0.08495179563760757,0.03854551911354065,-0.003746914444491267,-0.16402022540569305,-0.831417441368103,10.080294609069824
14.9,-0.05381731688976288,-0.013169296085834503,0.0026139498222619295,0.16466045379638672,-1.1478873491287231,9.396599769592285
14.92,-0.01667349971830845,-0.036589473485946655,-0.008407781831920147,0.44171610474586487,-1.438106656074524,9.207948684692383
14.94,0.024449683725833893,-0.04781130328774452,-0.005010736640542746,0.12623272836208344,-1.4319267272949219,9.90852165222168
14.96,0.032687824219465256,-0.04066777229309082,-0.009644887410104275,-0.2856022119522095,-0.7289663553237915,10.599455833435059
14.98,0.02814135141670704,-0.06459525972604752,-0.013556884601712227,-0.34243273735046387,0.05694059655070305,9.790899276733398
15.0,0.0332641527056694,-0.04036002233624458,-0.025460176169872284,-0.15488198399543762,0.15856289863586426,8.97315788269043
15.02,0.0037200232036411762,0.027923567220568657,-0.02960151620209217,-0.0413498654961586,-0.014851506799459457,8.81926155090332
15.040000000000001,-0.03865993395447731,0.04817721247673035,-0.019562853500247,0.14804762601852417,-0.2866305708885193,9.39775562286377
15.06,0.022424452006816864,0.04752400517463684,-0.006597199011594057,0.14155486226081848,-0.47648218274116516,10.404731750488281
15.08,-0.03247251361608505,0.04967423900961876,0.0234658345580101,-0.0693759098649025,-0.41951653361320496,10.54521369934082
15.1,0.04953821748495102,-0.012682639993727207,0.03514048084616661,-0.20321109890937805,-0.6282027363777161,10.420675277709961
15.120000000000001,0.017781561240553856,-0.06496517360210419,0.01976682059466839,0.06821497529745102,-1.0611242055892944,10.13559341430664
15.14,0.016407407820224762,-0.07017521560192108,0.00436865771189332,0.035892095416784286,-0.9765558838844299,9.551249504089355
15.16,0.044559311121702194,-0.0671408474445343,-0.0112313786521554,-0.573864221572876,-0.4770892560482025,9.695578575134277
15.18,0.02586754783987999,-0.08547762781381607,-0.011309307999908924,-1.1233934164047241,0.0020193136297166348,9.805060386657715
15.200000000000001,0.029418550431728363,-0.05842716619372368,-0.01692812144756317,-1.5402506589889526,0.32445868849754333,9.790302276611328
15.22,0.05774971470236778,-0.017145825549960136,0.0022761188447475433,-1.2795735597610474,0.03154655173420906,10.216382026672363
15.24,0.03639698028564453,-0.013910847716033459,0.029493018984794617,-0.7424056529998779,-0.6064669489860535,9.86235237121582
15.26,0.016993964090943336,0.004567516967654228,0.03281162679195404,-0.7278714776039124,-0.6171162128448486,9.667474746704102
15.280000000000001,0.01603006199002266,0.010309073142707348,0.01119355857372284,-0.06594342738389969,-0.6478923559188843,10.209300994873047
15.3,-0.05090266466140747,-0.02514706552028656,-0.009568010456860065,0.5265412926673889,-0.46953698992729187,10.207489967346191
15.32,0.022903211414813995,-0.046374138444662094,-0.015142420306801796,0.6398240923881531,-0.15171904861927032,9.749672889709473
15.34,-0.003805263666436076,-0.0803704559803009,0.005760698579251766,0.6112603545188904,-0.1592082530260086,9.306557655334473
15.36,-0.029459767043590546,-0.07194118946790695,0.013815945014357567,0.3951151967048645,-0.2172831892967224,9.008373260498047
15.38,-0.015965107828378677,-0.020466674119234085,0.013415156863629818,0.21636821329593658,-0.25099819898605347,9.015074729919434
15.4,-0.05418700352311134,0.039995789527893066,-7.633429049747065e-05,0.15998008847236633,-0.33218854665756226,9.446928977966309
15.42,-0.023245051503181458,0.06480930000543594,-0.0031586012337356806,0.11679574102163315,-0.49148494005203247,9.835020065307617
15.44,-0.04739609733223915,0.09190870821475983,0.007544676307588816,0.06015373393893242,-0.43827396631240845,10.024797439575195
15.46,-0.032638199627399445,0.08926045894622803,0.002435785485431552,0.08814343065023422,-0.3345282971858978,10.192543983459473
15.48,-0.03458963707089424,0.04318230599164963,0.010505973361432552,-0.09712854772806168,-0.3258551359176636,10.490530014038086
15.5,-0.019403843209147453,0.03469916433095932,0.01291782595217228,-0.10709141939878464,-0.505626916885376,10.460919380187988
15.52,0.02983096055686474,0.02074163779616356,0.0386931411921978,-0.0909760594367981,-0.8565776944160461,9.769143104553223
15.540000000000001,0.027473049238324165,-0.015831908211112022,0.03421108424663544,-0.039985135197639465,-0.9223313927650452,9.192516326904297
15.56,0.00542585551738739,-0.025110406801104546,0.015448521822690964,-0.46648985147476196,-0.6959494948387146,9.150919914245605
15.58,0.044354017823934555,-0.014292223379015923,-0.017916757613420486,-0.9561765789985657,-0.4493579864501953,9.90506362915039
15.6,0.02305321767926216,0.012951274402439594,-0.026674997061491013,-1.3696696758270264,-0.22912894189357758,10.413657188415527
15.620000000000001,0.029626663774251938,0.0301031693816185,-0.025536851957440376,-0.8700873851776123,-0.21875566244125366,10.096476554870605
15.64,-0.007547544315457344,0.03007344715297222,-0.02632153034210205,-0.38687804341316223,-0.28121235966682434,9.112743377685547
15.66,0.009666001424193382,0.04277057573199272,-0.02441183291375637,-0.2513276934623718,-0.22249934077262878,9.305899620056152
15.68,0.019325392320752144,0.05754730850458145,0.015254736877977848,-0.3439178168773651,-0.20402206480503082,10.683263778686523
15.700000000000001,0.06576977670192719,0.0375266969203949,0.05424119904637337,-0.3135768175125122,-0.4546920359134674,10.875425338745117
15.72,0.027725720778107643,0.054376281797885895,0.04750565066933632,-0.06272352486848831,-0.657591700553894,9.577920913696289
15.74,0.018148887902498245,0.06886249035596848,0.020887238904833794,-0.2194623202085495,-0.6051332354545593,9.066183090209961
15.76,0.04001184180378914,0.026350852102041245,0.011349852196872234,-0.06959370523691177,-0.5678294897079468,9.58506965637207
15.780000000000001,-0.003025093348696828,-0.004364042077213526,-0.008738778531551361,0.2155103087425232,-0.4378986656665802,9.904634475708008
15.8,-0.03916062042117119,0.05098457634449005,-0.030527787283062935,0.44136255979537964,-0.03403479605913162,10.2606782913208
15.82,-0.06293829530477524,0.018290337175130844,-0.04457145184278488,0.33452633023262024,0.3525381088256836,9.870338439941406
15.84,-0.10447699576616287,-0.052633583545684814,-0.014710494317114353,-0.06193782389163971,0.3863718509674072,9.169326782226562
15.860000000000001,-0.1029549241065979,-0.025500860065221786,0.0003382514405529946,-0.41380444169044495,-0.03204230219125748,9.082404136657715
15.88,-0.09853937476873398,0.011031845584511757,0.002186093246564269,-0.6203818321228027,-0.4997659921646118,10.20470142364502
15.9,-0.0698162242770195,-0.027597874402999878,0.014679601415991783,-0.7919105887413025,-0.893466055393219,10.623784065246582
15.92,-0.050318434834480286,-0.050333332270383835,0.02407223731279373,-0.6320713758468628,-1.0217254161834717,10.021060943603516
15.94,0.010888153687119484,-0.04508917033672333,0.02289447747170925,-0.3180253505706787,-1.1937094926834106,8.937650680541992
15.96,0.043538276106119156,-0.040480270981788635,0.014038044027984142,-0.29142701625823975,-1.2812280654907227,9.129794120788574
15.98,0.03347266837954521,-0.009822903200984001,0.011616749688982964,-0.5336669087409973,-1.0892972946166992,10.192375183105469
16.0,0.07679441571235657,-0.006606644485145807,0.007053147070109844,-0.47441405057907104,-0.486760675907135,10.375961303710938
16.02,0.08621776103973389,-0.0328134149312973,0.012231319211423397,-0.2539370059967041,-0.08389879018068314,9.463080406188965
16.04,0.03902694210410118,-0.06805631518363953,0.014227195642888546,-0.053021010011434555,0.07425305992364883,8.826423645019531
16.06,0.016015851870179176,-0.041786305606365204,-0.005454301834106445,-0.10414808243513107,0.05036003515124321,9.3107271194458
16.080000000000002,-0.03596849367022514,-0.05061358958482742,-0.014304098673164845,-0.17923466861248016,-0.06787443906068802,10.459442138671875
16.1,-0.02239283174276352,-0.0788552463054657,-0.042319703847169876,-0.31934991478919983,-0.04791346937417984,10.866875648498535
16.12,-0.029905488714575768,-0.0732942521572113,-0.025217371061444283,-0.5093560814857483,-0.2928415834903717,9.991369247436523
16.14,-0.028435880318284035,-0.03405369818210602,-0.0021747048012912273,-0.525065541267395,-0.6765604615211487,9.865480422973633
16.16,-0.03299679979681969,-0.03987354785203934,0.023584501817822456,-0.6567643284797668,-0.7909340858459473,9.700325012207031
16.18,-0.03640228509902954,-0.029585115611553192,0.0424576960504055,-0.5608834028244019,-0.714297890663147,9.989087104797363
16.2,0.03002738393843174,-0.05199214071035385,0.03710351511836052,-0.13965913653373718,-0.5854707956314087,9.90008544921875
16.22,-0.005962238181382418,-0.0676058828830719,0.005288957618176937,0.42952895164489746,-0.32348915934562683,9.649026870727539
16.240000000000002,0.007569063454866409,-0.016224684193730354,-0.008503628894686699,0.6479032635688782,-0.18607977032661438,9.525793075561523
16.26,0.03625556081533432,0.00770803727209568,-0.007888509891927242,0.697013795375824,-0.4780535101890564,9.83059024810791
16.28,0.04713766276836395,0.025263188406825066,0.012362182140350342,0.3935947120189667,-0.9211995601654053,9.846903800964355
16.3,-0.014651314355432987,0.0484808012843132,0.008835826069116592,-0.013353819958865643,-0.836764931678772,9.319890022277832
16.32,0.013749022036790848,0.10066615790128708,0.002310697454959154,-0.19173124432563782,-0.2763660252094269,9.092068672180176
16.34,-0.027655886486172676,0.1322227269411087,0.012362740933895111,0.07700544595718384,0.2808811664581299,9.718633651733398
16.36,0.0045352536253631115,0.11527492105960846,0.009204466827213764,0.4120325744152069,0.2805989384651184,10.43825626373291
16.38,-0.029068274423480034,0.0628441721200943,0.0034191650338470936,0.3633370101451874,-0.3035639822483063,10.013903617858887
16.4,-0.0642254650592804,0.0406385101377964,-0.01445670984685421,0.2123814821243286,-0.5771712064743042,8.821582794189453
16.42,-0.0648748129606247,0.01175118237733841,-0.03590613976120949,0.27220219373703003,-0.3994387984275818,8.928705215454102
16.44,-0.07320146262645721,-0.0485493429005146,-0.020432401448488235,-0.0635281428694725,-0.2997626066207886,10.06195068359375
16.46,-0.07675836980342865,-0.08415202051401138,-0.011177060194313526,-0.5846272110939026,-0.6308475732803345,10.246332168579102
16.48,-0.06006595492362976,-0.02378651313483715,-0.014000678434967995,-1.1571037769317627,-0.6431747674942017,9.983237266540527
16.5,-0.023802299052476883,0.03569778800010681,-0.004725050646811724,-1.4065494537353516,-0.5480049848556519,9.936687469482422
16.52,-0.005099561996757984,0.029973959550261497,-0.007762359455227852,-1.2401361465454102,-0.4897735118865967,9.856521606445312
16.54,0.007365931291133165,0.0029297219589352608,0.003079612273722887,-0.6952939629554749,-0.8408913612365723,9.773551940917969
16.56,-0.015943655744194984,0.030429504811763763,0.010685441084206104,-0.22085872292518616,-1.0644738674163818,9.958221435546875
16.580000000000002,0.03855317085981369,0.06730428338050842,0.029611127451062202,-0.09291615337133408,-0.8773292303085327,9.77791690826416
16.6,0.015466142445802689,0.02495422028005123,0.03225168585777283,-0.014411456882953644,-0.34036651253700256,9.631795883178711
16.62,0.013375986367464066,-0.03104163147509098,0.009683866985142231,0.11154592782258987,-0.22535638511180878,9.42911434173584
16.64,0.014236168004572392,-0.010544665157794952,-0.008093605749309063,-0.0830296128988266,-0.24281060695648193,9.647339820861816
16.66,-0.007560119964182377,-0.0045282477512955666,-0.03080233372747898,-0.45495834946632385,-0.20551064610481262,10.227450370788574
16.68,-0.013824583031237125,-0.03518597036600113,-0.02359631471335888,-0.7195060849189758,-0.2409728765487671,10.116312980651855
16.7,0.0003514136769808829,-0.012693080119788647,-0.002073730109259486,-0.548622727394104,-0.5018545389175415,9.766383171081543
16.72,0.028251616284251213,0.005249992944300175,0.02988572232425213,-0.21504880487918854,-0.8616133332252502,9.886968612670898
16.740000000000002,0.07461623847484589,0.06395576894283295,0.07758698612451553,-0.032336704432964325,-0.8311609029769897,9.304770469665527
16.76,0.07249515503644943,0.05974207818508148,0.07892195135354996,0.29544004797935486,-0.9144819378852844,9.026148796081543
16.78,0.09188645333051682,0.04442790150642395,0.04651125520467758,0.18727095425128937,-0.889906108379364,9.496648788452148
16.8,0.11171325296163559,0.05944875627756119,-0.02851530723273754,0.2034802883863449,-0.26886820793151855,10.146281242370605
16.82,0.09219042956829071,0.06705085933208466,-0.04368525370955467,-0.04141584038734436,0.2812560796737671,10.765799522399902
16.84,0.08152440190315247,0.08285576850175858,-0.033457256853580475,-0.363566130399704,-0.03867117688059807,10.188089370727539
16.86,0.05057735741138458,0.08971510082483292,-0.023712651804089546,-0.44718772172927856,-0.5404562950134277,9.953144073486328
16.88,0.01344364695250988,0.03667302057147026,-0.016727332025766373,-0.5598133206367493,-0.2925875186920166,9.900107383728027
16.9,-0.059261504560709,0.04522323980927467,-0.03722531348466873,-0.5881889462471008,0.2607609033584595,9.748204231262207
16.92,-0.05516713112592697,0.09262452274560928,-0.046882450580596924,-0.3859679400920868,0.4254128932952881,9.499248504638672
16.94,-0.07955727726221085,0.06406767666339874,-0.034157395362854004,-0.21956446766853333,0.08699517697095871,9.65563678741455
16.96,-0.04946937784552574,-0.015497548505663872,-0.01743018813431263,-0.1018865630030632,-0.3556206226348877,9.66654109954834
16.98,-0.06581585854291916,-0.06319672614336014,-0.012610245496034622,-0.09739451110363007,-0.6907544732093811,9.713164329528809
17.0,-0.0035438083577901125,-0.03308410197496414,0.03561718389391899,-0.4109251797199249,-1.0431320667266846,9.721003532409668
17.02,0.031302258372306824,0.012121654115617275,0.07670123130083084,-0.602527916431427,-1.143580436706543,9.502758026123047
17.04,0.039152584969997406,-0.02048746682703495,0.0802425891160965,-0.8001769185066223,-1.3664568662643433,10.407012939453125
17.06,0.08234098553657532,-0.01657569780945778,0.028277000412344933,-1.0400323867797852,-0.9957147836685181,10.535638809204102
17.080000000000002,0.029211148619651794,0.05324074253439903,-0.03589155524969101,-1.0413334369659424,-0.19241929054260254,9.880833625793457
17.1,0.0648338571190834,0.05608002841472626,-0.07727618515491486,-0.9698392748832703,0.37056711316108704,9.271421432495117
17.12,0.004638670012354851,0.032896947115659714,-0.07507988810539246,-0.4480115473270416,0.3784967064857483,9.53654670715332
17.14,-0.06963646411895752,-0.004301522858440876,-0.03439384326338768,-0.009885008446872234,0.2143915444612503,9.72887134552002
17.16,-0.041881099343299866,-0.004883232060819864,0.026443008333444595,-0.07806174457073212,-0.08741530776023865,9.978616714477539
17.18,-0.044443387538194656,-0.002511299680918455,0.06802612543106079,-0.10667939484119415,-0.3726922273635864,9.608787536621094
17.2,-0.04694589227437973,0.0022277713287621737,0.06707626581192017,-0.36087411642074585,-0.47945818305015564,9.623148918151855
17.22,-0.08043486624956131,0.0010183959966525435,0.030107926577329636,-0.32302433252334595,-0.7148183584213257,9.990386009216309
17.240000000000002,0.013243344612419605,0.0009538026060909033,-0.03438977524638176,-0.38647231459617615,-0.996867835521698,10.031258583068848
17.26,0.05151383578777313,0.05242094770073891,-0.05900753661990166,-0.2315787374973297,-0.9354124069213867,9.438486099243164
17.28,0.0498688705265522,0.07080535590648651,-0.03915484622120857,0.20730461180210114,-0.7494571805000305,9.204833030700684
17.3,-0.0042305756360292435,0.052011825144290924,-0.005024705547839403,0.2894327938556671,-0.5522935390472412,9.332416534423828
17.32,0.018380867317318916,0.021589290350675583,0.018909530714154243,0.17694273591041565,-0.21895116567611694,9.829252243041992
17.34,-0.009204738773405552,0.01993957906961441,0.017462309449911118,-0.1760893315076828,0.052904728800058365,10.211579322814941
17.36,-0.01808152161538601,-0.00667733047157526,-0.001076699118129909,-0.2608722150325775,0.2147684097290039,10.58343505859375
17.38,-0.04039284214377403,-0.028460556641221046,0.0038276975974440575,-0.3612188994884491,0.02266622893512249,10.15545654296875
17.400000000000002,-0.047690264880657196,0.014095551334321499,-0.015464024618268013,-0.5497634410858154,-0.16515782475471497,9.418210983276367
17.42,-0.02342241257429123,0.001567117520608008,-0.007383560296148062,-1.0579982995986938,-0.5192981958389282,8.798892974853516
17.44,-0.011537052690982819,-0.04585334286093712,0.009439108893275261,-1.2507188320159912,-0.7739971280097961,9.454294204711914
17.46,0.03467632085084915,-0.0694618821144104,0.020966438576579094,-1.162045955657959,-0.9004161953926086,10.182329177856445
17.48,-0.04696694016456604,-0.04012472555041313,0.0010671745985746384,-0.9488721489906311,-0.7772091031074524,10.631431579589844
17.5,0.010474449023604393,-0.022934669628739357,-0.00520056439563632,-0.6664081811904907,-0.5318905711174011,10.118321418762207
17.52,0.019852306693792343,-0.02146930806338787,-0.012581240385770798,-0.7114555835723877,-0.2819536626338959,9.457673072814941
17.54,0.00346821965649724,-0.04688131809234619,-0.009616405703127384,-0.7973993420600891,-0.0866217166185379,9.31215763092041
17.56,-0.05479220300912857,-0.059524621814489365,-0.021915797144174576,-0.8842315673828125,0.06725499778985977,10.0339937210083
17.580000000000002,0.016602760180830956,-0.09400889277458191,-0.01908387616276741,-0.9358468651771545,0.07146777212619781,10.108092308044434
17.6,0.01852942444384098,-0.10146287083625793,0.012129298411309719,-0.6291660070419312,-0.23264749348163605,9.911382675170898
17.62,-0.0442795529961586,-0.08413681387901306,0.03137872740626335,-0.16350452601909637,-0.5744870901107788,9.934261322021484
17.64,-0.056884706020355225,-0.0895138755440712,0.035673029720783234,0.34815144538879395,-0.7536384463310242,9.767748832702637
17.66,-0.01987329125404358,-0.10683759301900864,0.022710153833031654,0.43702608346939087,-0.717982292175293,9.637483596801758
17.68,0.039874784648418427,-0.07724834233522415,-0.008370637893676758,0.3716217875480652,-0.5343745350837708,9.45179557800293
17.7,0.010763849131762981,-0.023748362436890602,-0.010875040665268898,0.36902710795402527,-0.37026143074035645,9.275655746459961
17.72,0.016666486859321594,-0.021112440153956413,-0.004805194213986397,0.4058002829551697,-0.4253249168395996,9.352462768554688
17.740000000000002,0.0687570869922638,-0.01290739607065916,0.007800496648997068,0.395376056432724,-0.7451220154762268,9.489791870117188
17.76,0.13766154646873474,0.04358590766787529,0.02584436535835266,0.22579510509967804,-0.9851042032241821,9.515507698059082
17.78,0.13233044743537903,0.04602653533220291,0.039424289017915726,0.12462803721427917,-1.0273648500442505,9.514153480529785
17.8,0.12917952239513397,0.010282797738909721,0.027452299371361732,-0.0007252228679135442,-0.7742987871170044,10.210630416870117
17.82,0.13381440937519073,-0.021467119455337524,0.005676896311342716,0.10780903697013855,-0.3420325815677643,10.723861694335938
17.84,0.09530279785394669,0.00016663954011164606,-0.022529738023877144,-0.031301338225603104,0.2561813294887543,10.35185718536377
17.86,0.05273284763097763,-0.024676617234945297,-0.04254152998328209,-0.3863265812397003,0.6285245418548584,9.517899513244629
17.88,0.045940566807985306,-0.11309313774108887,-0.025700656697154045,-0.8548772931098938,0.6340758800506592,9.320680618286133
17.900000000000002,0.010528584942221642,-0.14287365972995758,-0.013529333285987377,-0.9280832409858704,0.19563978910446167,10.031249046325684
17.92,-0.019967030733823776,-0.10882361978292465,-0.01604153960943222,-1.1216057538986206,-0.323417603969574,10.319893836975098
17.94,-0.03553121164441109,-0.08397453278303146,-0.024464871734380722,-1.1923832893371582,-0.5035396218299866,10.565271377563477
17.96,-0.0752856433391571,-0.059164244681596756,-0.024304930120706558,-1.059388518333435,-0.4316491484642029,10.130297660827637
17.98,-0.08726761490106583,-0.08493612706661224,-0.032638296484947205,-0.8993900418281555,-0.15508326888084412,9.522043228149414
18.0,-0.035053953528404236,-0.07763796299695969,-0.03264527767896652,-0.7362445592880249,0.12282086908817291,9.409075736999512
18.02,-0.07005137950181961,-0.08273544162511826,0.010656703263521194,-0.23547101020812988,0.0812389999628067,9.329473495483398
18.04,-0.0650339350104332,-0.11159828305244446,0.03677873685956001,0.4390609562397003,-0.40971481800079346,9.264763832092285
18.06,-0.051851797848939896,-0.09569674730300903,0.02964695170521736,0.3814842402935028,-0.7859318256378174,10.196405410766602
18.080000000000002,-0.03449701517820358,-0.03969276323914528,0.028446052223443985,0.40679606795310974,-0.8563060164451599,10.69994831085205
18.1,0.006624782457947731,0.0022775172255933285,0.04460080340504646,0.3968867361545563,-0.6825456619262695,9.736873626708984
18.12,-0.0013566308189183474,0.025485115125775337,0.037724144756793976,0.6068262457847595,-0.43776166439056396,8.466329574584961
18.14,0.027099598199129105,0.03280364349484444,0.017527801916003227,0.89795982837677,-0.4757286012172699,8.726897239685059
18.16,0.07588519901037216,0.0811052918434143,-0.004253731574863195,0.8678767681121826,-0.7015520930290222,9.570940971374512
18.18,0.111159548163414,0.13362058997154236,0.0008844487019814551,0.6743208765983582,-0.7511820793151855,10.101092338562012
18.2,0.1595052182674408,0.1586875170469284,0.0041501885280013084,0.40617460012435913,-0.9166128635406494,9.848947525024414
18.22,0.18577677011489868,0.13021330535411835,0.009086032398045063,0.18863269686698914,-1.0417813062667847,10.334970474243164
18.240000000000002,0.10077434778213501,0.02615302987396717,-0.016517560929059982,-0.33503472805023193,-0.583189845085144,11.61853313446045
18.26,0.04035531356930733,-0.027981949970126152,-0.03768561780452728,-0.1802230179309845,0.3881421685218811,10.694812774658203
18.28,-0.0013065992388874292,0.023872749879956245,-0.02077437937259674,-0.3382412791252136,0.9844748377799988,8.747081756591797
18.3,-0.020228568464517593,-0.00965671706944704,0.002188777783885598,-0.5366392135620117,0.9389918446540833,8.597611427307129
18.32,-0.08627282083034515,-0.13249225914478302,0.023396678268909454,-0.9625229835510254,0.46599772572517395,8.867605209350586
18.34,-0.0637042447924614,-0.15582405030727386,0.011492982506752014,-0.9698973298072815,-0.14158248901367188,10.272581100463867
18.36,-0.04824000969529152,-0.061567164957523346,0.007586411666125059,-0.9424185156822205,-0.7727746963500977,10.838645935058594
18.38,-0.07393161952495575,-0.009854835458099842,0.017243700101971626,-0.6092198491096497,-0.8114215135574341,10.216778755187988
18.400000000000002,0.029069015756249428,-0.0415986105799675,-0.010190465487539768,-0.2691936790943146,-0.622805118560791,9.335649490356445
18.42,0.04046278074383736,-0.03618520125746727,-0.008820898830890656,-0.37983256578445435,-0.4200058877468109,9.317086219787598
18.44,0.043456096202135086,-0.02774805948138237,0.004358445759862661,-0.5394248366355896,-0.600821852684021,10.084211349487305
18.46,0.016460124403238297,-0.03192787244915962,0.010490636341273785,-0.5701470375061035,-0.6594893932342529,10.470685005187988
18.48,0.07176873832941055,-0.011193759739398956,0.011208622716367245,-0.28074631094932556,-0.43578040599823,9.991388320922852
18.5,-1.8202930732513778e-05,-0.018555672839283943,0.014561930671334267,0.2838037610054016,-0.2123275250196457,9.480359077453613
18.52,0.015769030898809433,-0.04319364205002785,0.02224016934633255,0.17902503907680511,-0.04927476868033409,9.497282028198242
18.54,0.016219550743699074,-0.03647758066654205,-0.014295529574155807,0.09616298973560333,-0.08342669159173965,9.758845329284668
18.56,0.03205018490552902,-0.010759410448372364,-0.05710773169994354,0.2860315144062042,-0.12239056825637817,10.223956108093262
18.580000000000002,0.02791466936469078,0.0006114398129284382,-0.06911566108465195,0.3774198293685913,-0.01916314661502838,9.970061302185059
18.6,0.007166214752942324,0.00827237032353878,-0.0555017851293087,0.4573653042316437,0.06272799521684647,9.51129150390625
18.62,-0.020997967571020126,0.013321329839527607,-0.030879421159625053,0.5047023296356201,0.1267627626657486,9.105348587036133
18.64,0.002128054853528738,-0.0017037919024005532,0.020774230360984802,0.5215639472007751,0.003522531595081091,9.326443672180176
18.66,0.016254430636763573,0.019821276888251305,0.05687319487333298,0.29008135199546814,-0.4557293951511383,10.022746086120605
18.68,0.06282561272382736,0.057451069355010986,0.07067299634218216,0.20107145607471466,-0.9532684683799744,10.387518882751465
