time,ax,ay,az,wx,wy,wz
1700844105.019412,0.03302737203563833,0.01732073063259191,9.806619267664537,-0.0002164342704219926,0.0014622245835870773,-0.0007474465993796
1700844105.02939,-0.06639549396705187,0.0321263040445074,9.859083055967664,-0.0005192956576412564,0.00017997839352077683,-0.0004926395951402
1700844105.0393689,0.03019278987345738,0.14385961359947225,9.846480062231965,-0.0030588325690789064,0.0010557790218998324,-0.0008335226913545
1700844105.0493903,-0.06829370933969468,-0.11406066485983117,9.786024897878958,-0.00041985150330822436,-9.010279375882066e-05,-0.001228374359161
1700844105.0595393,0.02876336108795173,0.06287043838425853,9.80989588581471,-0.0007588325144794058,0.00037444070543630304,-7.204803401647406e-05
1700844105.0694766,-0.02520872303822505,0.054420640574280976,9.832169879580567,-0.001506867681441783,9.615452930298771e-05,-0.0002847726456452
1700844105.0794146,-0.0629010511069437,-0.09790073803150968,9.806915623967644,0.0012587917288270124,-0.0011514400937255706,0.000179392530154
1700844105.089514,-0.011602165689900579,0.18443186276052054,9.887770891072256,-0.002549951052776025,-0.0011790082101725383,-0.0002501318114441
1700844105.099383,0.10789187624069191,-0.000944859970492783,9.741186262573017,-0.0006772517825129165,0.0005871461503966495,0.0016795814270521
1700844105.1093838,-0.05774244990120501,-0.02066342465731724,9.836639641550901,-0.00027231799368659585,-0.00040861740033738727,0.0009099260904263
1700844105.1194391,0.08708558928049688,-0.07556031837482388,9.731350831975673,0.0018216872101920463,0.001596322980372208,0.000905094068767
1700844105.1293757,-0.0002166669472358757,0.057561998718742485,9.832535513384112,0.0012811281419415628,0.001334824793448761,0.0010257758666198
1700844105.1398149,-0.11434056393784468,0.1189124994665033,9.905460902183668,-0.00137388039636131,-0.0007409196523081057,-0.0005127584328506
1700844105.1494513,0.12083251140660704,0.06595475850542117,9.767088358060992,-0.0011708547065305461,0.0011720203068810277,0.0013439084985661
1700844105.1594348,-0.14342391200893026,0.07085755492180892,9.923586102257907,-0.0019252218191004988,-0.0019359986959788854,0.0013677600771556
1700844105.1694674,0.1050410381139561,0.018694699271594624,9.762036672271298,-0.0017557295512253086,0.0004113175027128311,0.0012165111955623
1700844105.1799064,-0.08027641369015699,-0.06487600419614577,9.831156754963693,-0.0009279605089936224,-0.0006604493463971605,-0.0007344119250406
1700844105.1894698,-0.0804410710794369,-0.11073801225139045,9.820949186512403,0.00125953704885963,-0.0019959690485552703,-0.0017339046345655
1700844105.1996915,0.1612054429802533,0.15079884600109478,9.765941835768169,-0.000868366322268356,0.0012845209184541128,-0.0008282947120819
1700844105.209385,-0.03069117941659476,-0.1323653783935568,9.783784782254733,0.002627834505745408,0.0005197185516036528,-0.0001998304389048
1700844105.2193754,-0.0852838094426037,0.08367057150008002,9.877666388690274,0.0018909666171264483,-0.0015436974474810205,0.0009728852427001
1700844105.2293792,0.0745395140903158,0.08462780926878521,9.798171444666616,0.0006005263907480807,4.177146518126197e-05,0.0010458955192375
1700844105.2393918,-0.08339593507790273,-0.03372943747791921,9.838648667801069,0.0011634191029211104,-0.0013436649187531736,2.591740925753219e-05
1700844105.2495017,0.08963362669644709,0.12053031503637439,9.806734036937447,-0.0005934343974276307,0.00022058071782671658,0.0006696461903998
1700844105.2596085,-0.015715452365959923,0.016786979807493673,9.823189449839878,5.7758015115252425e-05,-0.0003817897776891648,0.001496281311884
1700844105.2694125,-0.027935967431859887,-0.00821297236669454,9.819167406426935,0.00018664472298247236,-0.0005743984692246904,0.0010783177684429
1700844105.2794423,-0.026792364467475308,-0.08531797786060494,9.781275094078964,0.0014070405931163386,-0.000144497196011952,-0.0008830666076023
1700844105.2894,0.11420421562523529,0.04702266493269913,9.760935642012736,0.001349668217828681,0.0021346436382554228,-4.934483436910706e-05
1700844105.29951,-0.11701347241190008,0.16184659420799002,9.93864211102162,-0.0009085866490476878,-0.0007345792540898446,0.0012373816687981
1700844105.3094032,-0.027683311569028504,-0.14366066004267425,9.775714095077289,0.0026196346592290034,-0.0011410031377377232,0.0012526554172295
1700844105.3194108,-0.11092321452268133,0.10117749703123836,9.912005654817188,-0.001180903412323556,-0.002086467627965088,-0.0025940846418593
1700844105.3293953,0.20948933381706375,0.15818846347621532,9.746479570579345,-0.0009704304885972077,0.0004515422444190501,0.0030888538575168
1700844105.3394268,-0.16896519056781514,-0.09276808487529752,9.858204666986595,-0.00122151323422813,-0.0010899865450549882,-0.0018859076546136
1700844105.3494625,0.008177443430884623,0.035082040832090995,9.80834836865383,-0.0002663478546555057,-0.0014084910340604075,0.000171202275706
1700844105.359439,-0.01316169841246672,-0.0493939427672332,9.79887973508606,0.00045896661021796405,-0.0010437868562352625,-0.0011877842945609
1700844105.3702734,-0.018925172425919987,0.05867778878548024,9.845819497562077,-0.00044217583303302396,-0.0015254638991091484,-0.0015632905298475
1700844105.3797257,0.07339085982377665,0.051938896307320404,9.790910254060655,-0.0017870095345105777,0.00045564721010724285,-0.0029148279456053
1700844105.3894126,0.11359886311388542,-0.012568732814565015,9.751582684079725,0.00033751655643584483,0.001962166065197398,-0.0006561616202448
1700844105.399407,-0.1480732910622515,-0.050204919774553936,9.874132633968584,0.002529856156056955,-0.0014274793931828517,0.0005962616094989
1700844105.40942,0.08480821963313452,0.02149702076989997,9.772232052358383,0.0021975571992902086,0.0007793841134664984,-0.0004948650486399
1700844105.4194813,-0.11572145259438996,0.17655780120259904,9.93045639528955,-8.082296816839634e-05,-0.0022097973708455837,0.0013740991242598
1700844105.429438,0.07780016344406943,-0.14501084322728272,9.71359060184708,0.0014021954990280478,0.0009540871748610236,-0.0025389557005469
1700844105.4393823,-0.049144458973182585,0.09472199530691286,9.865313158182014,0.0011052896783245545,-0.0004682147806323394,-0.0002512452075821
1700844105.449471,0.0534849716037904,0.02410619112730064,9.797957941987686,0.0005818960126557103,0.0007976332829657283,-0.0008767169667039
1700844105.4594276,0.06434715154131201,0.08790971528062547,9.81593226516578,-6.705743554745373e-05,0.0016771698064116786,0.0005612331341039
1700844105.4694967,-0.1183307969571725,0.10543385652293163,9.898643132737906,-0.0014185829353074188,-0.0008336783934167334,0.001139409386124
1700844105.479474,0.0036626989677417156,-0.11155435362291677,9.773477007104058,-8.155900760328742e-05,0.00013863733109973798,-0.0013949025189135
1700844105.4894226,-0.04223537592813836,0.1179251340680637,9.875449498962052,-0.0019032400481153655,-0.0010136124814828348,-0.0003592828753967
1700844105.4994645,-0.04646904591191067,-0.10716797990019862,9.796817287668961,0.0006944046173435509,-0.0017273685320348766,-0.0006159488577027
1700844105.5094032,0.12096623334471066,0.06487018816639446,9.765152358183514,-0.0010937505345671498,0.0014223504734849528,-0.0024771084310118
1700844105.5194032,-0.14335386866575892,0.04900547478717826,9.896047847650197,-0.0002629875399220797,-0.002283551384395492,0.0001041590702156
1700844105.529391,0.14260422724216118,0.010858859361687751,9.733322675600746,0.0002537057000631085,0.0008225909257604523,0.0004457524017566
1700844105.5394669,0.06553595604013619,0.08155105528210015,9.799479597524616,-0.0014741010887141623,0.0025578228366094024,-0.0005470413481448
1700844105.5494514,-0.10794320874562222,-0.06566690034419646,9.856232320343336,0.0006385219585984246,4.1793330979449374e-07,7.620792606802387e-05
1700844105.5594275,-0.1047451405757329,0.04248212722747006,9.879743681652982,-0.0005844947396845589,-0.0016252992116374979,-0.0014377477811281
1700844105.5695996,0.0799822983482524,0.09567051100422112,9.794733085655215,-0.0011749530626928265,-0.00029276838955218565,0.0001846167550324
1700844105.5851011,-0.025466642210272308,0.007870237850170667,9.83148318102944,0.00022799639202308446,-0.001808588461466869,0.0020491213770951
1700844105.5895095,0.2759720653748742,0.04736513760036632,9.676379842643446,-0.0006727931255223613,0.001242054292175802,0.0007419192523598
1700844105.5994124,-0.12604491999831366,-0.07819865340445904,9.854797914305573,0.0005047821305766205,-0.0008824814028011974,-0.0010905542177711
1700844105.6095622,0.06230174567544744,0.03693083199086534,9.78533574429016,0.0017389646296454783,-0.0003534668237606523,0.0020524740219484
1700844105.6195295,-0.02485987468966227,0.040018449072709586,9.832286736533689,-0.0002603909053348489,0.00043441361396588077,-0.0008681532227997
1700844105.6294613,-0.1058152649574153,0.011317171195426442,9.867974312438319,-0.00010988638253849914,-0.0016908724547360363,-0.0012879914603759
1700844105.6394944,0.1166140591237623,0.19297961320422735,9.811976803700968,-0.0020384650855366066,-0.0001262517180161896,0.0018189185765008
1700844105.6494608,-0.04410687658622508,-0.14775224320114264,9.782953272927616,0.0009607633631380362,-0.00044214360357670244,0.0002989781176806
1700844105.6594677,0.04564518133435693,0.05045555947816164,9.808559220381566,0.0008415400520929322,0.000366998446107985,0.0009874209761987
1700844105.669596,-0.16447032877588927,0.053167172166047015,9.929863172611956,-0.0008731920125525557,-0.002647893670776235,-0.0006271270569045
1700844105.6794653,0.04763318448399392,0.008140288493501253,9.7815693276133,-0.00040120798254466704,-0.0016968265618231815,-0.0004140372504111
1700844105.6899247,0.11470281205956023,-0.19370139083064733,9.673309290218059,0.0037987066388596087,0.0013515538365579235,-0.0015379483112697
1700844105.699664,-0.08158828804195958,0.2098314921913647,9.916151401239098,0.000928725444300978,-0.0008094624925036901,0.0001309733023303
1700844105.7094712,0.0340709463420545,-0.02526570843576203,9.786785641338572,0.00087731111164642,0.0004958976598931575,-0.0017156416317079
1700844105.7194824,0.07898153614413007,0.1320841012348219,9.81478616006482,-0.0007528753737339953,0.0018682723520455705,-0.0008715136674795
1700844105.729429,-0.09675705656690096,0.13408005545223764,9.909014410057264,-0.0021737075276155064,-0.000620610032072294,0.0008510695014051
1700844105.7494566,0.003058902006034034,-0.035296314588313664,9.777884411536215,-0.0006098130591845716,0.0006322297925434162,-0.0002952026435737
1700844105.7594483,0.009165916254772716,0.1175246896748629,9.835387526911465,-0.001076975951000862,0.00012484098743414829,0.0028090810636426
1700844105.7695427,-0.09269647377231668,-0.10347765128962105,9.825475697256412,-0.00041387210384096997,-0.000365406736808077,-0.0009858715813238
1700844105.7795634,0.06050208305903639,-0.02597429751133098,9.774524400947644,0.0009816221836169991,0.000746600194892336,-0.0004047268186327
1700844105.789458,-0.07526077574935235,0.1889839733595728,9.91960542211919,-0.0014629113761096212,-0.0013861419872450767,0.0015808528522397
1700844105.799845,0.13043903287591183,-0.02972611589162863,9.725983075392104,-0.0007513911222329025,0.001950604298378855,0.0009427097801021
1700844105.809464,-0.14275257528265303,-0.04407917427413097,9.88177266244658,0.0002794027044425398,-0.0007166991902106586,0.0002632175281546
1700844105.8194578,0.03493678059976367,0.16302650101189442,9.85119480615973,-0.0021494852465286504,-0.00017357472452562227,0.0013707532314951
1700844105.8294868,-0.06396767631646466,-0.15067249530250992,9.798231560213926,0.000484665653011918,-0.0009383509153568738,1.6988022621135224e-06
1700844105.839507,0.03608002966900247,0.13303327814791277,9.824356887131625,-0.0018514631655048683,8.162405140130113e-05,-0.0003562949597467
1700844105.849634,-0.05480054498329863,-0.051011602790145265,9.819103101057307,-0.00011435519630740592,-0.0008735369357088574,-0.0001253328984235
1700844105.8595088,-0.011690844400105496,0.14841825523456126,9.871677254429182,-0.002143516758731233,-0.0013984406418738164,0.0011524555855798
1700844105.8695655,-0.09463985110029965,-0.1637040131231239,9.810226175785958,0.0009238994597185738,-0.0030077488016517135,-0.000380495726094
1700844105.879481,0.14875936272219067,0.17976770993384533,9.787216898990499,-0.002469487420560611,0.00034165465917128883,-0.0005343390395496
1700844105.889527,-0.07491429849220019,-0.2329683567158689,9.77350958480955,0.0023093159107393803,-0.0008009078325563895,-0.0015416964189712
1700844105.8996923,0.03162371201744323,0.2077935734811439,9.862468939728833,-6.146110014722802e-05,-0.0009454333265033767,0.0012727713445569
1700844105.9095232,0.05233841136188124,-0.06509882036597849,9.759034427566817,0.0015728278738303461,0.0004303204264176078,0.0008566591830826
1700844105.9194725,-0.05248888570908098,0.07119576645673405,9.84714890079368,-0.0013124260613875478,0.00080694078346624,-0.0022591724292938
1700844105.9296038,0.003619556657352578,-0.12261854782342914,9.761626208766518,0.0029191428745144687,0.0004392672568387837,-0.0004311764961671
1700844105.9399288,-0.04888107787411815,0.22558611032632886,9.919619572989808,-0.001120559288388936,-0.000795681387769592,0.0002613588556782
1700844105.9502146,0.04808993476979035,-0.011157617084961225,9.77565284691888,-0.0006291887701277261,0.0006471316008140799,-0.000261669966821
1700844105.959503,-0.07291120646855047,0.044243105701523205,9.859946289520177,-0.0010211058369663409,-0.0005825858458466781,-0.0005455335368965
1700844105.9695785,0.006005275669870112,0.057316474099176694,9.820268076442513,-0.0010151308148568512,-0.0009137717627294864,0.0007169548888127
1700844105.9795492,0.047882018103026065,0.103647170150922,9.826623309023903,-0.0029541447006735935,0.00026864001154602006,0.0005571466870974
1700844105.9895527,-0.11701327356228154,-0.29376051388976826,9.772979237932512,0.0025644736568780674,-0.001430453436308515,-0.0017756523331259
1700844105.9995852,0.11044874061313065,0.20753320807734535,9.817041687030065,-0.0007238178565742114,0.0006981566509255817,-0.0004520506946933
1700844106.009535,0.05576120606097766,-0.03356356828437846,9.770378984803356,0.00040269230326780964,0.0018787118192194004,-0.0001875472836759
1700844106.019539,-0.09255802600557218,0.07101187703228211,9.879295269786688,0.00014603559668831451,-0.00026779787219447404,0.001158774376418
1700844106.029553,0.012276361452206978,-0.07228249632631019,9.773127936653832,0.0011883716531910565,0.0008158913759028622,-0.0009296130621437
1700844106.0395603,0.06034960334338424,0.1571335795625238,9.825143490282993,-0.0007633220658656758,0.0015788172681328156,0.0009509193012859
1700844106.0495138,-0.21232820835559238,-0.1851465934362882,9.855858574834992,0.002482547057659972,-0.0019512610972457363,-0.0012186903506149
1700844106.0595498,0.05538077179643875,0.1844095985133163,9.839590098947859,-0.00128185599593996,-0.00045928984806250443,-0.0016094887861613
1700844106.069666,0.09559407853649302,0.057472450046240735,9.775128999001138,-0.0001978107628532966,0.0005379810412771727,0.0017995262286062
1700844106.0795276,-0.02800082401115328,-0.13079079137935007,9.783603084765069,0.0005167089459868248,0.0014398559279754546,-0.0026745537062738
1700844106.0895429,-0.028968599543531582,0.12494784294246403,9.864677202619198,-0.0001989251187686949,4.847335290296732e-05,-0.0001156433601495
1700844106.0995977,-0.0285861854769502,0.19626714192234682,9.89780471442354,-0.0029079493465363044,-0.001094449843405959,0.0016669117147471
1700844106.1165483,-0.0026150066167496796,-0.08354593280185488,9.788705936089531,-2.532472685357278e-05,-0.000768106502021841,0.0006085487956083
1700844106.1195188,-0.11930578350295559,-0.09962738746334522,9.64519429939049,0.0009775353556391287,-0.0011141823782482804,0.0011736645945716
1700844106.1296062,-1.261837879675152,-0.11768768257187295,10.186845328103654,0.0024631495225082073,-0.030925424698540246,-0.0121896787779037
1700844106.1395774,1.248397550754927,-0.7285475314701437,10.013567014794404,0.006056082788148953,-0.036441975912608136,-0.0405891043366496
1700844106.1495364,3.0764977254704218,-0.5549370392797286,9.575405842465466,0.012334567473334257,-0.012084091824829193,-0.0586192709626261
1700844106.1595223,2.1136007479441306,-0.004129069764191045,9.779650507100259,0.012008985884934773,-0.003461327147682214,-0.0577370067359511
1700844106.1695442,0.883498606497595,-0.17390944959660645,9.801337597221213,0.018332227639492382,-0.016143559206682884,-0.0569855449022357
1700844106.1798916,2.9067387240950158,-0.3777097934454129,9.668045993171582,0.02802381901766456,-0.0073707253620388345,-0.0563319091917578
1700844106.189544,3.029173542661673,0.3763752298749709,9.23611000040733,0.022646062045819357,0.012486975251653067,-0.0577159588457648
1700844106.1995442,2.055432464342589,-0.6794325226356606,9.443157345915203,0.02088575776497456,0.018919956467481642,-0.0489971255184714
1700844106.209577,0.7557853003304587,-0.9404305260317404,10.033874515773977,0.030977766700289705,0.00976603694467022,-0.0426832800032202
1700844106.2195137,0.8805946116802811,0.9803955467557945,10.652023308091866,0.022043069975385656,0.003293590959935097,-0.0410971072734896
1700844106.229529,0.39808506313394837,-1.796084264597599,11.157565843002958,0.016183941947937805,-0.010458975871522854,-0.0566032183589045
1700844106.2396414,2.436291437708221,-1.8139548466317237,9.11371818875759,0.038569979612984084,0.009576148311130647,-0.0695825842441622
1700844106.2495365,1.7139211091035162,-1.1561578212760046,9.493185082184528,0.05859488294569574,0.022130304957645643,-0.0561006878735129
1700844106.25956,1.5255413945899956,1.994151383703061,9.238716084930601,0.03879222641545759,0.039167210075856176,-0.0353513275505606
1700844106.269562,-0.07623046077865785,0.6079441342991199,9.921712331003395,0.03241570317402542,0.04046438766588216,-0.0181202692212168
1700844106.2795177,-2.309567647507605,-0.4709038109929609,9.914179697021924,0.05045686755740996,0.005103744867656725,0.0097091375617678
1700844106.2895305,-1.3641359027438702,1.7008761473275364,10.402532234731563,0.045135771942157024,-0.030374959425950105,0.0429190183757241
1700844106.299597,1.5230859088963513,4.737372667371544,10.624015419655251,0.0036430092214967407,-0.03152391180586841,0.0731630223570759
1700844106.3095355,1.9968586580364975,2.8457642434477672,10.457481039096699,-0.03665893064841917,-0.01312393452329641,0.0821236344753201
1700844106.319595,0.9889260802119,-1.491842773097094,10.030299859836669,-0.010152035054724213,-0.0066041079049600545,0.0779482844053204
1700844106.3295414,1.522045888981987,-2.1277311030340322,9.31982055245518,0.022203578581944872,0.0065210930278294605,0.0651020156918461
1700844106.339538,1.8541759307694905,-0.16294177667743467,8.16443030961394,0.03275938364958192,0.03481357395520866,0.0547028119443352
1700844106.349646,-0.10277652485673476,0.9685082976809324,8.920044272193094,0.021518175550150703,0.03316002932319186,0.0580016682623322
1700844106.359547,-1.3177233747769088,0.6026693164524284,9.650929985030148,0.011527793694077809,0.01064077569543715,0.0764275613008435
1700844106.3695393,-1.7935714652994166,0.1708902889822203,10.501411470128716,0.012982182125725779,-0.02013461101071611,0.106540416437238
1700844106.379805,-2.5750366526291164,0.5813689303741366,11.196609367165411,0.004638361008839737,-0.06586381208724507,0.1282689469633992
1700844106.3895576,-0.09060738732697027,-0.08839356539223112,10.61672917471058,0.010203195977062905,-0.0879919397370109,0.1566669392167027
1700844106.3995428,2.836467593321194,1.2513011689879403,9.45442465071086,0.0054157430276306085,-0.06642072602285293,0.1818795698462422
1700844106.4095275,4.567692820024372,1.8354665172166362,9.664388894444304,-0.010625552138929621,-0.0209594715544927,0.2079248028574879
1700844106.4195516,3.1997731496415756,0.8175488426704783,9.319052576603145,-0.014950464381457796,0.016650127675664435,0.226221208530515
1700844106.429513,0.6797858964587915,-0.6476778905822576,9.277412685320531,-0.0024561997268868546,0.028576096575598783,0.2368740486679967
1700844106.4395244,-2.1944477053041953,-0.5927275110225516,9.991056850900806,0.009707755177164223,0.0002791384171439373,0.2317878502188618
1700844106.4495175,-0.6199407241427236,-1.393214491929052,9.757977118380577,0.02958972729237245,-0.014111783013463153,0.2210022556363041
1700844106.4595332,-0.14709890659267896,1.8329399937940083,9.240709969559836,0.01955487364129971,-0.015493597113326445,0.2130646156845982
1700844106.4695551,1.4441671238953933,-1.0732052846379576,9.782260026533104,0.02047238654941223,-0.0049587936238405655,0.2161091911374028
1700844106.4795816,1.1217485636550937,0.030336445965966137,9.65048301098603,0.033433975011186265,0.006399611309739172,0.2211020636139805
1700844106.489578,2.171309716234807,1.1445569660826382,10.015555317799388,0.03343693786096574,0.031200442769700677,0.2228120910702641
1700844106.499761,-0.30055120268755003,2.099794661749154,9.967400714479922,-0.002268299649538333,0.03746546674081621,0.2247625487624104
1700844106.5096784,-0.2722596335598165,-2.027108506589859,9.895565894329723,0.02855400132163147,0.02459741981356857,0.2376776086865361
1700844106.519503,-0.5424196251778749,-0.8078383875860027,9.215185398192187,0.0412736281634992,0.015006986128104968,0.2519478696165975
1700844106.5295973,0.9833616519199548,1.0401289002317482,9.010368655474373,0.048037697584321803,0.026154559041036893,0.2703077989397939
1700844106.5395174,-0.06431280914236187,1.4642541744464321,10.30605007173965,0.025864762427048767,0.021886490987554144,0.2796686189948018
1700844106.5495954,0.46697736096056935,1.9410777373239316,9.700456078947333,0.009834202672820584,0.03258052196221225,0.2850138145266469
1700844106.5595276,0.7386469725563741,0.5529500891206595,11.017705991193488,-0.0018788551915452508,0.04231664883433493,0.2837841707049306
1700844106.5695846,-1.5895380325349593,0.8716353637895861,10.116080824158978,-0.01051410040928728,0.03646453758773955,0.272855450469106
1700844106.5795696,-0.6597106521912004,-0.986669712943016,10.428731908573008,-0.003514685816243446,0.025341675657740214,0.2606527107535298
1700844106.5895555,-1.283016351073851,-1.0663741581335306,8.763619562812663,0.0069153516615634405,0.026406590605116357,0.2342801141320164
1700844106.599617,-0.5955082621236836,0.2708686712212286,9.18034536316777,0.014124188060027673,0.022846599390608416,0.2171250032959874
1700844106.609537,-1.5439506260927942,-0.526609204416076,9.76686090952065,0.0024757518413632915,0.01509097601500895,0.1979178386507924
1700844106.6196358,-0.2747490022001429,-1.4676247014229515,9.377571155715952,0.030179461204010674,0.010467859029430975,0.1856761472998555
1700844106.6295283,1.1023688521748702,1.3523365375039484,10.55450682146357,0.018371888304393805,0.027616882142362725,0.1752992021618779
1700844106.6395657,-0.40893388529828034,2.2252549220695834,10.455609871639663,-0.005892980235719033,0.030496668319752566,0.1679947572527821
1700844106.6496005,-0.4723316748111294,0.1184688708709002,10.581387191875837,-0.009041649148765533,0.020143791377661726,0.1602986055193837
1700844106.6596105,-0.2658726539992285,-0.5890038109757264,8.825776232782925,-0.0011329074250099234,0.017221471136676353,0.1652368354378636
1700844106.6696112,0.5509299225668552,-0.627973105093654,9.025333813743423,0.019004728282445208,0.011208354688998058,0.1843803870259221
1700844106.6795769,1.0919318250413348,1.54815075329229,9.397839211144245,0.01029534019971928,0.016559141122198476,0.2032658803044255
1700844106.689566,1.1431032314081218,1.5420943389144677,10.072195609936118,-0.00797828348391096,0.02411373548764478,0.22345172341451
1700844106.6996317,0.9145231844716581,-0.7511673388132003,9.78366646687947,0.01300088504048916,0.022647636105562086,0.2350849854527409
1700844106.709582,0.712386640014315,0.7753729370516076,9.62003518824476,0.014265850328669213,0.021547065773511686,0.2532567578135427
1700844106.7196836,0.6929329562149943,2.0144668979808737,9.766929843334973,0.0011391280929670693,0.015949651881956337,0.2768278318224843
1700844106.7296271,0.5696120281978524,-0.1874573379938571,9.598553513910167,0.009824984012973674,0.008174497682805277,0.2914474802790578
1700844106.7395902,0.664825550626811,0.4198703995834919,9.401306906030754,0.016377546960344234,0.0029482615387278347,0.3042639690218862
1700844106.7495725,1.9459658441506802,-0.19921496746276843,9.467772635897513,0.0297855495025845,0.01168528751030539,0.3172821002779897
1700844106.7596242,0.8913589011781927,1.0724473637432987,9.525738611712853,0.029367773939598236,0.01066573591429773,0.3236801224528249
1700844106.7695713,1.846755089533181,2.3484657872878176,10.153071744077398,0.01289178602590244,0.023059993787131704,0.3287113505183156
1700844106.7796333,0.5636274043004835,3.282776852117571,10.984615172021321,-0.02317756092232731,0.02530005669138518,0.3184586065588887
1700844106.789611,0.38795298037505943,1.544615305731749,10.811214873605302,-0.044917107397425354,0.029611694698485118,0.2970657842932637
1700844106.7996051,-1.5195598977717915,-0.3829480650972313,10.398543952032124,-0.04835601863813101,0.013757866135644533,0.26665799792394
1700844106.8096108,-1.8854624509870956,-0.11535845326801131,9.53787176154937,-0.04842349610927792,-0.005410919351036785,0.2416457432089741
1700844106.8195376,-1.1386636489491666,-1.6640337399527845,9.460438929112536,-0.05398653951842326,-0.017913381349445416,0.2381676631747181
1700844106.8295228,-1.434644054282916,-4.011265387148414,8.743169498078347,-0.010401003862201049,-0.030392142550306395,0.232398827630132
1700844106.8395154,-0.6691988448807162,-3.558963526132177,9.363155262370643,0.024892352965545015,-0.03752911837487107,0.2179726707516606
1700844106.8495178,1.0854160490999878,0.7948780915182931,9.943936045167234,0.015640015981959358,-0.010438328962077375,0.2040400701342518
1700844106.859513,-1.2628382288688131,2.0723816680094345,11.31471318035691,-0.029898816171128946,-0.005981498520523485,0.1654499220429356
1700844106.869538,-2.540122174668205,-0.7699337103191463,10.454613945905301,-0.034090939334414545,-0.017222354259542,0.132646550494283
1700844106.8795354,-2.863838282696659,-3.3656659537342994,10.033073610216388,-0.003666231582533636,-0.04607046152288691,0.1106776046334202
1700844106.8898416,-0.042027633829058234,-2.171037011055157,8.581110935937419,0.027383554580975872,-0.04432611998064892,0.1086048978148396
1700844106.8996792,0.4917977120010732,0.7987918104180217,8.240593573616598,0.029124249278145643,-0.02702314961616852,0.1139276969014103
1700844106.9096289,0.205136384848158,2.8677367952763824,9.548900555594495,-0.0018252511330434946,-0.027365945412390527,0.135608677822202
1700844106.919541,0.9794583465871348,4.621444943127649,10.835376545646012,-0.04711179017293024,-0.00875375436256357,0.1544249105034764
1700844106.9296167,1.249602130898744,-0.5013124014340993,11.355162377605456,-0.04015493249436684,0.004915337214165287,0.1715393709717686
1700844106.9395158,1.0646654965771893,-0.35291362904048607,9.42722331985012,-0.01874451850246588,0.02914182809187292,0.1816016780911381
1700844106.9495652,0.10902618718436549,2.0881093392825805,9.562259640882031,-0.03379087090614275,0.03330935610360663,0.2016475545941289
1700844106.9596834,-0.05543895731013062,1.4491386083349536,9.083460114202026,-0.048666002603269955,0.037184263016744726,0.2260819571791585
1700844106.96958,-0.6547173273071618,-0.7738866620893632,9.41415652009679,-0.04011215216030757,0.03333176185182579,0.2415688979206975
1700844106.9796522,0.2760732792793262,-0.190189790062296,9.942651539295825,-0.03179396351414746,0.0350693040235786,0.2635907429037984
1700844106.990171,0.7082184102483348,-0.20565020289871108,10.224712865563578,-0.0226150740454352,0.05208404792648712,0.2670854824362691
1700844106.9995563,-1.3316403130325223,0.6348368039527832,10.287020098650158,-0.026497202319344035,0.04418511834053964,0.2586498754797872
1700844107.0096252,-0.7548637624949266,-0.2630377632077431,9.64274768695286,-0.02310323520304205,0.03701063546438668,0.2566537457285817
1700844107.019828,-0.42879821654660055,-0.17054473918906995,9.47303739768096,-0.02254421057530911,0.03696731182163747,0.2512492435751851
1700844107.0295048,0.4578171687144048,0.2755074754925433,9.615767132548834,-0.018078125675884356,0.040425730448996756,0.2561488347826894
1700844107.039831,1.5537672772196807,-1.0445802016902068,9.428316523681826,-0.010067841193627521,0.06412628700248313,0.2593836980639394
1700844107.0497162,0.32321547882456425,1.9224241365985915,9.88575824140527,-0.021182205209872653,0.07342388173993777,0.2647507088957723
1700844107.0595734,0.10909635206512044,0.4304417934008056,11.006543282846941,-0.0287148873841253,0.0733878605458448,0.2653797465144094
1700844107.069561,-1.6722364299625718,0.9757976826962746,10.302874034441375,-0.04284106677018922,0.06483131553290104,0.2483026581583912
1700844107.0795689,-1.1530328540570598,0.7006659355084938,10.76926125097407,-0.04472987794241316,0.04502036572509264,0.239708517747968
1700844107.0895388,-1.336942161847628,-0.3872662222766839,9.658261259661002,-0.06257511457969665,0.03973359499581582,0.23780759151563
1700844107.0995266,-0.9273805945736677,-1.4730033757077208,9.384645939927807,-0.03388940220992544,0.02810867177153956,0.2358417856274541
1700844107.109609,-0.49968392663030753,-2.763484099009774,9.240668900947943,-0.01361761010665952,0.026343787329271062,0.224456881242841
1700844107.1195438,-0.09025483266159273,-0.3505783598898405,8.797190362217686,-0.0016382809566077097,0.03499272874591827,0.2194415080128605
1700844107.1295369,-0.9539692162919184,-1.0318906136526595,10.31760202623121,0.010374656411890592,0.02212746871489767,0.2078990685521062
1700844107.1396265,-1.4065328339933458,-0.4012956766628064,9.657845398296821,0.013251591872401932,0.009166645645680913,0.19713595982179
1700844107.1496763,0.196790584115628,-0.5568992376304862,10.052739887120447,0.026991719123135575,0.007658841055712136,0.1927082585869725
1700844107.159619,0.5338242709792981,2.4144312338882745,9.770415312753272,-0.006525628223373943,0.021232616589361705,0.1929300325690205
1700844107.1696155,1.5625915836840139,-1.739680074218099,9.788592882290281,0.003261575141050891,0.04155629719739692,0.2028247463284428
1700844107.179628,1.3831888271795374,-2.506637486461751,9.055322426007631,0.03091179975069377,0.06433186040676211,0.2032906907378132
1700844107.189597,-0.03215554911038145,-0.7243540861925496,8.967154615723745,0.0496624178641337,0.07173930719502114,0.2067601877032216
1700844107.2020612,-2.867473129422966,1.5050528778268972,10.220342757274357,0.03348646947586559,0.043776810607241944,0.1951727616368229
1700844107.2095857,-6.642753863126511,1.5142277347093966,12.200773411683329,0.0011327609148446517,-0.019952363999914947,0.1717630523024495
1700844107.219777,-1.2632201233940634,-1.3210436225346798,10.223937587670756,0.026704630758757203,-0.05313426149388366,0.1697369116125996
1700844107.229637,2.3891858331588947,-0.953133239106205,8.937933063039281,0.028059780902510694,-0.02203406858446907,0.1807432370959218
1700844107.2396238,3.1207083971070513,1.4104990588971162,8.761926005057212,0.03472708514647007,0.012564246547458734,0.2178914445219929
1700844107.2496047,2.5770140225395433,1.3499656913129858,10.417861502267487,0.010325570640957444,0.046149483396363745,0.2308322685538228
1700844107.259595,-2.1331093715231404,3.2555696376755128,10.3693127831793,0.002201402542319156,0.027047288912018647,0.228989471751302
1700844107.2695718,-0.5781117431870749,-1.6704165315844233,11.528390072965905,-0.0015543035822199308,0.0031357483282065187,0.22686107929334
1700844107.2796085,0.37536753500639736,3.6860599837807104,8.322237683854732,-0.01247664558646402,0.018859404613159318,0.2342138486681874
1700844107.2896445,1.4894338350706717,-1.1360473079119922,10.691919414493725,-0.021442228684524882,0.019403018023371427,0.2557734149275716
1700844107.2996614,0.4061228355433119,1.9419813590939248,8.124956273922573,-0.03714051672913433,0.04412465843832724,0.265669216471761
1700844107.3095696,1.0186535897307116,-3.052491777438329,10.718437451775605,0.0014796732163056727,0.03905490531985585,0.2824605899630483
1700844107.319599,-1.5538751924371643,0.9518956461864063,8.943253183470889,-0.02341808104809271,0.04303040200273645,0.2732099490939076
1700844107.3295896,-1.3000797347166617,-0.8876481679334234,10.268577595476833,0.017322211596056427,0.016309922946503515,0.2730494039832051
1700844107.3396366,-2.8534797336561835,-1.1415411274579732,10.248394422142841,-0.0093283249387033,-0.009061726760865352,0.2507711547194417
1700844107.349571,0.9595564242095276,0.8045535032274672,8.70550904987014,0.02030352067857919,-0.0006249967535308586,0.2514469521819051
1700844107.3597832,0.18872849990334276,-3.378153401509925,10.12303204085616,0.025218168661572275,-0.002411264019064822,0.2467398839770253
1700844107.369611,0.6166555494283706,2.933187626496122,8.234972394832004,0.01856222943624784,0.01805861103071905,0.2546007531462605
1700844107.3796215,0.376514555798662,-2.6830840168192758,11.058072519021877,0.040947175329116035,0.008711282841635791,0.266015281039327
1700844107.3895626,-1.3305788725087897,4.0278302286755565,9.600378232594192,0.00020771341041684086,0.012097837077481681,0.2572248178301747
1700844107.399573,1.303695395455927,-1.4321983654071004,11.59055556199844,0.025411947219560187,0.008067802957902477,0.2601593929110463
1700844107.409618,-0.7295322716609971,1.1900764705264875,8.475012044359707,0.006908273065400207,0.026436337029365976,0.2369415956316884
1700844107.4238448,0.35752171504127234,0.051512747824556615,9.777132956394627,0.03405062534930631,0.0221022908367899,0.2397460686741765
1700844107.4295423,-1.445847677800874,0.7245000917950498,9.575543343828587,0.011070863796143492,0.015463781172498118,0.2405301975785191
1700844107.4395509,3.0783538207964574,0.0895699148102901,9.011969369953107,0.057032438920189256,0.04792562458586945,0.2593461471377309
1700844107.4496734,-0.3218532024807568,3.4676363175400065,11.404144052019513,-0.0012071579383792527,0.050894708948978906,0.2532952028094228
1700844107.459567,-1.0779400273792203,4.440265493955517,10.253477337974795,-0.031838968942389155,0.0477780348998525,0.2392147975741322
1700844107.469598,-0.31021671486233066,-3.8752020727429515,11.2154351850762,-0.008512538851587221,0.03353122324101155,0.2225480573950703
1700844107.4796698,-1.0192146258289367,0.5162831133176725,7.708108755668457,-0.0004363237926935941,0.03781492618386737,0.2200038927374775
1700844107.489602,1.6246462776508468,-1.9903211570793247,9.922735942920053,0.02778880120483605,0.04052048943574821,0.2299210327444966
1700844107.4995842,-1.5374783431809658,1.1229931926015908,8.676727076780068,0.008415465769836357,0.04632087520907146,0.224944313126653
1700844107.5095792,-1.05676093362744,1.6059862945780292,11.154661452320177,-0.003241720617894287,0.022656790746096424,0.2256963002263005
1700844107.5196247,-0.9019252086265688,-1.595850398471863,9.963909137593566,-0.005577992491205702,0.01943582591136689,0.217064787703603
1700844107.5295932,-0.7508165047304975,0.05749053124470898,9.90996464069182,0.004808233046976402,0.011099023519223915,0.2091368186055119
1700844107.539585,1.351000808862005,-0.8889998942570657,9.994271480068319,0.014949403115317384,0.024279016678347604,0.2145479368744786
1700844107.54958,-2.022177521711821,2.4412037474789536,9.761034607594913,-0.014239951117848641,0.019174408619063665,0.1999980556546147
1700844107.5595932,-0.6050744002916723,-0.2424766251235733,10.855451631077935,-0.003926877239036032,-0.003377906983340954,0.1944148736773427
1700844107.5696354,-1.1135502725452138,0.25703300332555074,9.522466079667515,-0.018610659589831914,-0.00943401639227135,0.1968874531565602
1700844107.579641,1.3687436248609819,-0.32821986983847584,9.941888612993033,0.009255967404424206,-0.004484480776927258,0.2105299281655247
1700844107.5896294,0.9168280357140265,0.4208450885513513,9.725925518633025,-0.00012589423621788118,0.0032326934854110213,0.2305243807612355
1700844107.5995896,1.1150848310964663,2.088766269050796,8.901741093878812,0.0005757074387073206,0.020734554807261687,0.2426449107705052
1700844107.609584,-0.09599168983330876,0.87605471124762,10.634841851766923,-0.024482262493520788,0.004468345829830561,0.2614140706835683
1700844107.6195924,0.60273296221715,-0.22953223274838072,8.305855599053682,0.0070145449756820735,0.017102443654604466,0.2754184799967702
1700844107.6296444,-1.172384676050434,-0.17066851005186842,10.64541406780152,-0.0067432290579830965,-0.004522378468091524,0.2738729017554219
1700844107.639582,-0.5027186634968559,-1.8936799043998573,8.139673903274325,0.030755687533934026,-0.00017013697473287144,0.2841213839827474
1700844107.6497655,-2.678915138351904,-0.1114622749686527,10.61917637308646,0.024623316366461756,-0.03266870862197653,0.2747845845995839
1700844107.6595817,-1.2238302045721252,0.5764130270889326,10.194922358567476,0.01853613475035163,-0.037058787539161996,0.2577415304957326
1700844107.669628,-1.4354463562758248,1.1287408480698304,11.17928525928572,-0.009515011089550692,-0.04320094925616821,0.2332377779065068
1700844107.679834,-0.04420304312062427,-2.563525997326484,10.080141706682326,0.008416884757455875,-0.03497234262525974,0.2038150626002247
1700844107.689593,-0.5760884805998048,-1.9484668706339914,8.586789715012264,0.03573760824891525,-0.02566280692428057,0.1882138150511677
1700844107.6995995,-1.1803017179952264,0.2431965950378889,9.324799382056282,0.026389081289774033,-0.036055367209349584,0.1841210770188267
1700844107.7097292,0.9026579552220911,-0.31615520828888094,9.327478574816208,0.029719311739261324,-0.02051354969252943,0.1955758529482777
1700844107.7197237,-1.6090389013641497,1.7357027949497614,10.188975372838257,0.017357937847698977,-0.03660559047435238,0.197185237961858
1700844107.7295809,1.3937249157182856,0.5145227240559944,10.614354721798563,-0.001876366814391082,-0.02182244722564336,0.201568161207288
1700844107.7395732,-0.6838087342508236,-1.0438906080202344,9.560717426414946,0.022749298893941623,-0.021810088421243237,0.192137231188863
1700844107.7495966,0.01508612818196312,-0.436800127264929,9.723306665269531,0.024941985786987045,-0.03080326493410694,0.1928091841517384
1700844107.7596476,1.5099546962740102,0.15409942566282364,9.058455136540209,0.04000366585959702,-0.00758104302046547,0.2095117914257939
1700844107.76965,-1.682935898118461,3.734826416040302,10.666550282464833,-0.004150892792410189,-0.035361925856207246,0.208432843047231
1700844107.7796035,1.6199267303466438,-1.230235446354123,9.7552154177892,0.00615178511131968,-0.016467403074550097,0.2083958434639866
1700844107.7896173,-0.7922474693736788,-0.16130878757277692,9.144039826979846,0.02476323657238865,-0.023605730742943393,0.2067310559330876
1700844107.7996857,2.22176034179103,0.6442414205344476,10.0929507454169,0.014080995332761142,-0.008095442151013207,0.2131428765831883
1700844107.8096645,-0.05541527956890624,4.190452038090765,9.89212816857527,-0.012457263594355512,0.010697469640598938,0.206605558353513
1700844107.8196783,-3.8208957433681423,1.481418172173622,12.149081412876997,-0.06098113734187386,-0.0431040159368482,0.1771238046465809
1700844107.829916,0.94589987112498,-3.2975893059194394,9.00768298261939,-0.01061204761949373,-0.03442514052481385,0.1728394823847706
1700844107.839755,-1.0674824776908878,0.036003868022419505,8.88188752284163,-0.003682654912440269,-0.047503737206483536,0.1757921474753316
1700844107.8498518,0.6024659370383767,0.8244641188306789,9.40306964257731,-0.012353638073786564,-0.04863542890258664,0.1913621174870427
1700844107.8600442,1.4614181214965938,-0.5584192247197737,9.70893421458896,-0.0015122661049921048,-0.028722399147982525,0.2077999311266835
1700844107.8698575,-1.3277987593088239,1.601042874881539,10.206772142196932,-0.011517779519855378,-0.050491448267647746,0.2007860737620289
1700844107.8802743,2.350764576130893,-0.4563055969609595,10.33670890977332,-0.016080576623467464,-0.01992763835921206,0.212435801583379
1700844107.8899672,-1.5243640728846874,0.44055833528448335,9.475545517256919,-0.013439802961232756,-0.028045102241994205,0.2074727463303502
1700844107.8996737,-0.5297900130379116,-1.1048254744369994,9.582875024991472,-0.0195716705193648,-0.03974761693456947,0.2180483686505253
1700844107.911056,1.0432865923549575,-2.093319894995934,8.937062545260686,0.01800458780496749,-0.0201468520257485,0.232280065375417
1700844107.9196315,-1.410297775231642,3.0415302755308926,10.769059822585579,-0.013093187723029157,-0.0291956050768393,0.2208955782233174
1700844107.9296205,0.5319438143166956,0.5103705836691869,10.74911617128692,-0.024534825433283194,-0.013421562358968405,0.2084275978384907
1700844107.9396188,-1.914214853621081,-0.6207225405641245,10.569968555971117,-0.02692543829712008,-0.026401417013071398,0.1896142857848103
1700844107.9495978,0.6300107660681307,-0.6231267605163894,9.669727366518412,-0.01095713933981142,-0.02410206958818298,0.1866282718954976
1700844107.9596076,1.5491254985336806,1.1118273638882665,8.89929658850944,-0.020344042517682664,0.005919610701965161,0.1990054148016865
1700844107.969671,-0.6513276797757848,-0.01908786614981841,9.770445907052588,-0.023834744671355147,0.00412880549816145,0.1960180002032216
1700844107.979687,-1.8446950657623986,-0.4569174394506028,9.175227941268714,-0.01893501609606926,-0.0069257839516301345,0.1958539235173161
1700844107.9896855,-2.9417393251842814,-2.8653061424049397,9.905715714200289,0.00914612603087609,-0.043695648091125056,0.1942654001294072
1700844108.0143752,-0.15441924643600935,-0.6252409673776095,9.410259844613137,0.023645399814352912,-0.045337784634793314,0.1867747652111943
1700844108.0197396,2.9624722970119235,2.6896064045336576,9.989681454203287,0.013818873351928405,-0.021666001126378,0.1946375566302235
1700844108.020581,7.123030165140892,24.72068660558951,14.789362683969824,-0.039723692560416295,-0.0008241182080373341,0.1722132759867604
1700844108.029606,-1.9530619297394374,-2.763098040178778,9.928749945674243,-0.011670628103784185,-0.018582470896367047,0.1525046276627476
1700844108.0395885,-1.1135181823315852,-3.292002560425154,8.189229813518033,0.015066062898629669,-0.03099426442261619,0.1494513350306447
1700844108.0496094,0.8301704011866334,-1.072356345346203,7.682909731222748,0.05189966244479137,-0.016380362273883127,0.1627780544339116
1700844108.0596058,1.0928411140140717,1.7383019831903017,10.904698986395626,0.022830690749834397,-0.016840326498356446,0.1810138719855244
1700844108.069602,1.7559150211743964,5.698655878097635,10.855589969012357,-0.02068473121997202,0.026173431539778007,0.1764247613726552
1700844108.080041,-2.698782241724309,-1.8785819751214656,13.1875580915614,-0.034458356913081196,-0.01875920884599225,0.1528387265978749
1700844108.0899336,1.3089930966075107,-2.172310637954123,7.279653800194366,0.015911155936645074,0.002087859570370345,0.1466461467324193
1700844108.100602,1.672336510406269,-2.323978948582134,8.627019558098878,0.030148582712495646,0.020831144377304312,0.1577763306675847
1700844108.109611,-0.22256367374796854,2.735037104237393,8.477308683784583,0.01583687892035821,0.022562908177997405,0.1769196140347416
1700844108.119701,1.998455835653553,-0.9782517799129947,11.273247460867625,0.031725591511129914,0.028445759278766074,0.1792124706088002
1700844108.1296656,-2.9827600734086475,5.736791863021513,10.208927724662042,-0.028502659540565037,0.020773742204949798,0.1627173322020466
1700844108.139754,-1.0839210917556883,-2.9813897583651463,12.664270633930363,-0.007926398001222558,-0.032958006045243377,0.155388449388593
1700844108.1496985,2.045488947022432,1.3028013853855893,7.160015827777552,-0.00779411502590614,0.006433412293564669,0.1579530733405049
1700844108.159654,3.1633284907506076,-1.0522509347673967,9.58982738175173,0.014816187853488606,0.032280440697073316,0.1832789527951176
1700844108.1697302,-1.1149377323305218,2.3724878572332773,8.477582655823355,-0.02096428489472007,0.031252847356121514,0.1938150274334843
1700844108.179765,1.2454590998344872,-3.150925483923069,9.95960198077333,0.022482798648162036,0.03380414947667334,0.1982905017910893
1700844108.1896243,-3.8503893029738494,2.481016099927685,10.166515818739882,-0.008916657496779392,-0.0022354075664872946,0.2011801051674779
1700844108.1996603,-0.10826138736785301,-0.6310365368386185,11.83525324119161,0.01008207298558146,-0.01891397332341152,0.1858241754351552
1700844108.209643,-2.2765104565892145,2.583042802947359,10.42569252053355,-0.03441413319466652,-0.027482871894836752,0.1582703190623219
1700844108.2196405,1.7285780697958337,-1.0931813484723318,9.683382926750626,-0.007892282421751242,-0.02026160753254792,0.1591199534712727
1700844108.2297952,0.1366043290161234,-0.2187099892640085,8.525323520194567,-0.017867607981190692,-0.0029725676649287364,0.1560089784441884
1700844108.2396288,0.2997408001083015,-1.1096716430211506,8.644159173778947,0.010266118191252447,-0.0013778468742094015,0.1771294521866734
1700844108.2496805,-1.4293435589053263,0.5797615846484426,10.220662534052014,-0.003149356875638158,-0.02141171313384305,0.1860528486548359
1700844108.2596548,0.41669623867052186,1.0918342760511557,10.229531801085562,0.007566830578873863,-0.01892465295453824,0.1923200088320668
1700844108.269696,-0.6528785823199841,3.5475940185745536,11.93001203717999,-0.045917816826404646,-0.02107933142613688,0.1848752396880086
1700844108.2796776,-0.7928354418808583,-3.0359436556686394,9.276490718014394,-0.010600678124147042,-0.03193421209805251,0.173981268960088
1700844108.2897036,0.013824772250033762,-2.2648618029899854,8.005358899021601,0.02115276105808078,-0.02832124444844157,0.1763997423230107
1700844108.3012433,0.16964914261879394,1.2298458067390086,8.65078793639535,0.01847356057992907,-0.028458731533760693,0.1939671086846287
1700844108.309694,1.4152848737067876,3.8010548811298754,11.022718075489868,-0.016706943860801186,-0.018980060279852433,0.2006510096369679
1700844108.3196516,0.6273663564107829,2.0469334551176326,11.081847466331718,-0.036883475369815205,0.0005843892853355728,0.1838759976206715
1700844108.3297062,-2.2078739635167857,-0.16737800019409116,11.253966547009217,-0.050160203067421055,-0.02404832827105866,0.163294349866956
1700844108.3396337,1.1082324022280043,-4.041786626647941,8.708724574937158,0.003881126645107743,-0.018059676404610734,0.1588188904105122
1700844108.3496368,0.2824126580253537,-0.6218972075444377,7.168821105920578,0.020741998522877697,7.68254117241699e-05,0.1663370477734501
1700844108.3596616,-0.06418999789653815,0.13287742859891802,9.29210324044135,0.017779767525474253,-0.007183191163940456,0.1675129729090626
1700844108.3697865,0.05224353470489028,2.3135520982375297,10.249435605281832,-0.004732115919173865,0.0008158556419221683,0.1677370714722569
1700844108.3797655,-0.5437513846680744,1.8919213444668668,12.765301021477745,-0.0335013858958141,-0.006056164294831,0.1582434671698506
1700844108.3896146,-0.5712065827192077,-1.0123077945194368,10.953814437077666,-0.03028796688630273,-0.008298330232952207,0.1386156725464757
1700844108.3996327,1.8356417821465598,-4.018703812408874,8.457524064782014,0.02348518310368332,0.011302382660872372,0.1405030387221272
1700844108.409655,0.3165114197915378,-0.5829477701031406,6.754682934795606,0.037021541064631375,0.028960498555229267,0.1514508324442799
1700844108.419704,-2.0268787347213277,1.0137657405638256,8.401001983325001,0.031773787600017284,0.0010154413434371467,0.1669275062857564
1700844108.4297,-0.6217740872790889,2.802435304086211,11.000629128097128,-5.0944756511380035e-05,-0.013068229041110798,0.1927989917574818
1700844108.439726,-2.882166614235019,4.500515739254836,13.38282225754877,-0.05114416113744235,-0.04197121846074945,0.174912323313802
1700844108.4497013,1.607825811195849,-4.292824776316908,12.164729754947604,-0.014424641436021823,-0.04374727610658461,0.161397029715627
1700844108.4597092,3.4825304646389204,-0.13182262471258652,7.650066320140026,0.022008599352745392,0.014717297411205026,0.1678869324503834
1700844108.4697,1.9942577371114314,2.5494607369539284,9.032597377332293,-0.006706013751322711,0.03544179904371544,0.1917408453999455
1700844108.479686,-0.16374899240720137,1.5314342352176116,8.039314274687314,-0.014005520605390639,0.04379613432363017,0.2114286022959645
1700844108.4898882,-1.9800008746541236,-0.4268672641501242,10.020742418837775,-0.011871923292233043,0.009867903061090966,0.2223784076748784
1700844108.4997394,-0.25239795721379615,-1.5520484159070915,9.422843865795496,0.0181462473513508,0.003796218206855825,0.232176442700475
1700844108.509666,0.43485019763203364,-0.6491003356541918,10.574917411461676,0.035435639071613415,0.002742790639287418,0.2293969440041478
1700844108.524582,1.6091489093163178,3.619114217510122,10.574384027319269,0.0013211673302476149,0.03388663830481805,0.2278430807171757
1700844108.5296934,-0.28939082228906965,2.3565506980967728,11.012731066133867,-0.025498982894889735,0.04069455378205583,0.2064869153080876
1700844108.5397303,-2.242253429431854,-1.1204102085239667,9.441973250308974,-0.020517081817759658,0.024006236902932222,0.1816254752455647
1700844108.5496988,-2.106522671737164,-2.662402058397336,8.573448220546922,0.019829299390906815,0.001912636502827107,0.1827367740450795
1700844108.5597332,-2.499369682130002,-0.7071330583262614,9.24596538187495,0.03586845443335151,-0.028126855141511243,0.1920429515419896
1700844108.5697074,0.31359075454107244,2.036838128740144,10.561460885926152,0.025323435388609584,-0.030940496165911456,0.2154159593163426
1700844108.5796976,2.3555256594493965,5.041767845054229,11.66455685714248,-0.03500345494858819,0.003196904271709372,0.2331391471205647
1700844108.5896769,1.266884575983594,0.317380164262865,10.92702244220813,-0.0485613533094058,0.029349389200880843,0.2304579364834721
1700844108.5996983,-1.1292129242092168,-3.5883150772619183,8.775340507573405,-0.004256901949352401,0.02341295865287697,0.2283009039936955
1700844108.6096652,-2.1606195731145883,-3.3276730621822432,7.363515029328277,0.042866241942783004,0.007979120310111693,0.2242126363097127
1700844108.6197672,-2.088457439726334,0.9141477959314416,9.204522166893662,0.048530566826053285,-0.026602319129968965,0.2339985566912587
1700844108.6297448,0.676917315688185,4.565152851540455,10.862620432208397,-0.007747832982571661,-0.024088657477506534,0.244736542063802
1700844108.6396642,1.5352498364810978,2.004295668330214,11.37645052353051,-0.04711658365795785,0.0021140655132718504,0.2227197187720234
1700844108.6497626,0.44862556449395974,-2.871750680534576,10.712274020584381,-0.022582277468438633,0.01591464571207693,0.1938093202887471
1700844108.6597145,-1.0253109534732576,-2.6725617493441924,9.163344689600468,0.012848616595922423,0.01211771431135082,0.1793891983805592
1700844108.6696966,-1.8132247851059866,-2.2348498929975777,8.376397033161588,0.039628415324540846,0.00020830796120876536,0.1750401305733616
1700844108.6796842,-2.613089346460586,-1.1508483936700464,8.73385488200311,0.05898667328884479,-0.030401627414844257,0.1757535683690007
1700844108.6897156,-1.7972476686319299,1.546439790925377,9.417145797471541,0.04619699915775335,-0.05144917901074699,0.1945981728611882
1700844108.699818,-0.8452341983807957,3.929476851216724,11.562514081394873,-0.00503997663019602,-0.0692296599059971,0.2083759653149541
1700844108.7097695,1.9863444976553508,1.5509263766727306,11.50829679400167,-0.037621515910861734,-0.04258570646483257,0.1979134875117238
1700844108.7198975,2.7357192867386346,-2.8426847223632663,10.416328891964268,-0.004846052290462066,-0.004361916798704153,0.1861860948382313
1700844108.729745,1.1945909285633578,-2.762250411710673,8.782868847369405,0.03677505375203558,0.019040983021533727,0.1799704479752476
1700844108.739692,-0.7680499408113182,-1.136830318149082,8.623775211840307,0.05553138904402437,0.01705173522434861,0.1853843825636799
1700844108.7496767,-2.074822945234719,-0.4792173101417308,9.307837463108822,0.0700291325498706,-0.01157166195098347,0.1905335831223424
1700844108.7597249,-1.6405803068584521,2.2944679673955584,9.71573937625499,0.054242024776885056,-0.037579797573198286,0.1984363692580159
1700844108.7697165,0.7400958472281829,3.501438254498027,10.741663713828972,0.010950102604499372,-0.03635924658009981,0.2115499722538884
1700844108.7806842,1.3799888016097772,1.6364488325632665,10.96340559358143,-0.013890874916156945,-0.021087660007909844,0.2036714601097996
1700844108.7897036,3.2169551458399193,-1.6640420691698532,9.29400794174527,0.002662301219225282,0.01803234279513053,0.2056228267727788
1700844108.7999742,1.0660411104390297,-3.7936618379932363,8.719626740788486,0.055409065994038754,0.0350826000177244,0.2093165862141545
1700844108.809729,-0.05956577392127058,-0.8976801758580218,8.867745060823008,0.08489010085461694,0.03222415124356874,0.2165964442072804
1700844108.8197272,-0.11742797996868608,2.7840218777185672,9.850545837709879,0.06072715823017918,0.024533297946989933,0.2300454574404652
1700844108.829704,0.9271901510418915,4.438285174040698,10.653309789203856,0.01150473668059806,0.027585362864995355,0.2349657463608677
1700844108.8397207,2.2361557736068716,4.5518359022353705,10.484615150802373,-0.04528784621681406,0.051293090005432605,0.2333345460472996
1700844108.8496642,2.4472414815882737,-0.23413181737964808,9.584474226511263,-0.05878158758499317,0.08444866684622838,0.2230851697503026
1700844108.8598788,0.421967167050803,-3.767343799269045,8.410874561215882,0.002946728945008743,0.09017534689467484,0.2191699343501027
1700844108.8697865,-0.60889540656961,-1.8205567504851858,9.163411549237582,0.024504748080920184,0.07252565666947405,0.2240797030507023
1700844108.8797188,0.24362342267013706,0.5114542275298182,9.529402749977777,0.03990467685153983,0.0684517796688003,0.2294219481526311
1700844108.889771,0.2517666820691086,1.4685496484688505,10.951895399629224,0.017023384681970666,0.056655617023438215,0.2256483631907399
1700844108.8997304,1.5644336379495818,3.1350785290940877,10.571735843411737,-0.0196993001026224,0.0779040911512594,0.2234623628436024
1700844108.9097712,-0.22540556388838584,0.23639265596840925,10.818966929363262,-0.026419220734638062,0.0701254436587128,0.2062292593298848
1700844108.919876,-0.41320790639727084,-0.6238639577077116,9.60028018981877,-0.02999067322332387,0.06658401676162007,0.1913501369534428
1700844108.9296784,-1.387097720694571,-2.712107135843406,9.198182451374919,0.004912339723511137,0.051743551208574434,0.1919451850233967
1700844108.9396677,-2.7962270972025633,-4.237432967971932,8.858861580975866,0.04149583378870058,0.012384102019526111,0.189163108426183
1700844108.949717,0.05564528584358375,-1.5586311528992371,8.295580338269085,0.07877054358379908,0.01277566933704055,0.1999985175906117
1700844108.959665,-0.4347237820043799,4.264297363715026,11.423965259176832,0.03264069875925486,-0.0013603817953750142,0.21019848163709
1700844108.9697213,0.30663017796853076,4.629511353390165,11.096014832325476,-0.041443369638923234,0.01504063138258218,0.1810398596106465
1700844108.9797244,-0.22128336931656944,-2.296591730377725,11.30830795724763,-0.038829742100777276,0.0160233196073962,0.1635398166953023
1700844108.9897578,-0.39253604932576214,-4.264418355795467,9.381213240512317,0.027284606689223598,0.010596632770647634,0.1523532765685017
1700844108.9997346,1.7498515421046685,-0.8026536958371231,9.177041503120225,0.044465128469470705,0.02786648250318128,0.168340508895963
1700844109.0097177,-0.3587289679085612,3.3915398420681395,9.093466815744245,0.01865222304618104,0.030025577362153815,0.181173880654424
1700844109.019778,-1.0722746789092592,1.7452905375623249,10.144227975100847,-0.013647141847412359,0.010011599561007634,0.1940005617915089
1700844109.029698,-1.3823153137966415,1.5803531895117608,9.107558634673751,-0.0219929656624024,-0.008208553405276608,0.2203476327238972
1700844109.0397284,0.7451913226937197,-3.662689048042177,9.653259747782709,0.010794616467629017,-0.006538205021146137,0.2415596293984349
1700844109.0497217,-0.7244075024646095,-0.49069125299144756,8.525317120341288,0.03918334003562381,-0.0026160862044695226,0.2526933151064809
1700844109.059684,0.8514636306441327,0.2998657402673526,10.663692286730168,0.043047805782610554,0.0021219898136305222,0.2722861963091786
1700844109.0697422,-2.3092542329621795,4.477330472266708,10.864529399067077,-0.008217527471196057,-0.008605066552606521,0.2606905597029622
1700844109.0797849,-0.5311562411015719,-2.0469401629005306,10.208037990203882,0.004774667363626108,-0.012985014671066934,0.2546951371012624
1700844109.0898612,-2.6255391571221582,-1.3577740199102264,9.077389390420825,0.018439944013896797,-0.030033545942581414,0.247196932393163
1700844109.0997589,-0.48065982186061756,-4.15911474742687,8.944478736526523,0.08388207637188054,-0.035847056600516805,0.2484513121424611
1700844109.1099677,-1.602779306097855,2.5140760567043077,10.007488635297367,0.05386221958451182,-0.044346434505646994,0.2473683702526982
1700844109.119888,0.22802715672470572,3.205284569219557,10.997229932414887,0.03397942579591237,-0.03617988352236691,0.2409876036225255
1700844109.129707,0.12876166340779407,2.1179475826906904,11.185165175871424,-0.020519842912539887,-0.02909404356827695,0.2207926857052739
1700844109.1397212,1.0965391951132986,-0.7961310413887571,8.54575298411578,0.011672599877752236,-0.004610772648334535,0.2197914021788533
1700844109.1497734,-0.23060937528924413,-3.6792477324202824,9.028707476750121,0.03366581964271134,-0.008087444136716686,0.2173513221321995
1700844109.1697898,0.4785280903441169,-1.0654792411702803,10.374787632824045,0.05398297177068996,-0.016505144657407905,0.2270519780693944
1700844109.1798062,-1.1516531044847444,6.732320147428801,10.716630512820434,-0.010420385636072262,-0.021259548731542614,0.2250910895644124
1700844109.189711,1.710976544683485,-0.4085182524116079,11.091138186756009,-0.017256721314507843,-0.010189762442326222,0.2343549477635319
1700844109.199726,-0.7242263749873297,-0.6207999889359489,8.958727241054781,-0.012439964042615187,-0.014309718633742996,0.2335661249934132
1700844109.20972,1.1980050013892638,-2.1650993690829177,9.024441025369175,0.04205967036727579,-0.008293583153288,0.255103518324941
1700844109.219685,-0.6422523361428552,-0.049645471374602325,9.305424831190274,0.02879429765845739,-0.020406032818542773,0.2563338177977498
1700844109.229669,1.2091452781008074,3.012673379787174,9.748655701329067,0.032381546554282464,-0.008884673172701653,0.2635436552344258
1700844109.2397463,2.1377140511623836,1.045535784163411,10.864114332310434,-0.0038145852243509216,0.006139382896377998,0.2605009871302541
1700844109.249732,1.0992638152955967,4.829159172730159,9.832762235761807,-0.04203021168581679,0.02937757531444349,0.2483970570145543
1700844109.2597375,2.2306403017953262,-3.1433065389446186,9.500521040699077,-0.017264981157369408,0.04348669561158702,0.2497495013056691
1700844109.269764,-1.4055082478359542,0.07920763205429533,7.8096500065949055,-0.015087080705530958,0.04004594131478332,0.2516324418364461
1700844109.2797089,-0.249729607810878,-0.08246997191426281,10.21133907000391,0.018245441636628546,0.014657664154101009,0.2688124078093465
1700844109.2898805,0.16566106722258436,1.1294151285499727,10.629177054467922,-0.0089181145543043,0.006715517163331288,0.2749244468985494
1700844109.2996814,1.7333617726639614,4.43595212414859,11.02309516378828,-0.044741526509920464,0.026613590845417815,0.2654457884608205
1700844109.3097124,2.6762446458924614,-2.999185403704665,9.359251223668851,-0.022533983072222333,0.056025587816680475,0.266998608666509
1700844109.319711,-0.03844246736098307,2.215717647974149,9.111228340407363,-0.043310306249400576,0.06414843877369904,0.261680175620168
1700844109.329691,1.687140761606985,-0.5559001022275896,9.060737667375655,-0.016475740816234985,0.07073456245901097,0.274711181479543
1700844109.3397105,-0.5670403271821917,0.19014048812322373,8.636949521557995,-0.043241372408277065,0.07778410413496809,0.2712052958784993
1700844109.3497338,-0.07661746585535043,1.7252772090774984,10.027765695301639,-0.033241323945798276,0.07136977682346844,0.2689124244032796
1700844109.359876,-0.5893007191152921,-1.744922547404752,9.596665192383012,-0.031020709316959702,0.06898251238467755,0.2721478837309773
1700844109.3697767,-2.18600325513347,0.7065238502231139,10.665515931992388,-0.046121468597202384,0.049613797707303856,0.2592790323077138
1700844109.379886,-1.4986995184302598,-1.0489500812094823,10.372918434443271,-0.0029829971885296583,0.027336249648491455,0.2564542787848409
1700844109.389732,-1.4973837685499416,-1.1635841178827109,10.400406859108509,-0.021723719485934715,0.014646201544868063,0.2432548451004918
1700844109.399734,-1.1187192106128268,2.788383340621716,10.518216448027047,-0.02628598288028309,0.008686289342412704,0.2349444675026829
1700844109.40973,-0.5250042489448931,-0.9254958878312438,10.33261605928628,-0.03991001198240692,0.0016172135656188449,0.228469361620992
1700844109.4197104,-0.6439854966698465,0.752494090406101,9.069849942293775,-0.04508563334916637,0.010435842533627561,0.2201735722599919
1700844109.4298513,-0.8352299047559432,-2.4095026401262163,9.80687498258269,-0.012857936805590811,-0.0034869835503385477,0.2129109549103673
1700844109.4397233,-0.7979621265018527,-0.9105765684355679,8.840921760126774,-0.009593330601763228,-0.0018093355124318394,0.2116317200241978
1700844109.44971,-0.7507573323692555,-0.5666256009149996,10.023362671615041,0.011061331342343031,-0.008965514996236016,0.2089939611731465
1700844109.4599175,-1.0502026887278897,1.2743808021602068,10.227522971204575,-0.014262925894405998,-0.016280813683607197,0.2076305049239094
1700844109.4698696,0.4924498384265317,0.13992206405487784,10.291667497807012,-0.013217158578884882,-0.0050866646702629114,0.2034515189705784
1700844109.4798992,0.09143662787479072,-0.23009230135070682,10.174995257895445,-0.007196853704363028,-0.0028534552060438807,0.2003107714234288
1700844109.4897835,1.075617691210242,1.8300709631183811,10.023640937675522,-0.022722293692386746,0.018468173515298298,0.1948534893570836
1700844109.5000048,0.9712968047792475,2.191757314909575,10.479963894908671,-0.05112632097359973,0.03393240215775627,0.1861582743702824
1700844109.5097263,0.5781244911966481,1.0005167149212388,9.663984164716316,-0.06702900990114859,0.0487486553141538,0.1810095804511006
1700844109.5197127,1.1353307739085992,-0.8380126037732805,9.313557756614298,-0.05704610431219201,0.06585623931011961,0.1810907321749623
1700844109.5297358,-0.30684751718016223,-0.3789183976219521,8.982418046223868,-0.04596566533928252,0.07331307799538843,0.180005763727277
1700844109.5397365,-0.17005901166956403,1.2822650915498266,9.931285641548541,-0.054441746638977245,0.07015264587398959,0.1900821673451359
1700844109.5497906,-0.6280284541975513,0.8853127954754327,9.818907944359156,-0.05977334865702685,0.06877533974869443,0.1927973228274281
1700844109.5597217,-3.645381555127181,1.6193015277415503,10.85297936230601,-0.09001173402226341,0.0291359877125345,0.1886487948475773
1700844109.5698533,-4.138295173798663,-2.641463300294802,10.073889108866759,-0.054664653932603176,-0.029211726688160584,0.1951189386425908
1700844109.5799022,-2.1018610097875543,-3.382684621685429,9.950956984564886,-0.025100178273334054,-0.06501734113254269,0.1887078481493886
1700844109.5899377,0.6485444912704005,0.5465723847731722,9.331398959287345,-0.013325981767890082,-0.0629929089093675,0.1921561258612568
1700844109.5998185,2.0423105592354696,-1.9047188235283214,9.294829442002666,0.0023459456541572213,-0.04787875363397863,0.2036846178351338
1700844109.6097238,1.7852191135754876,2.968905547234705,10.270914828940489,-0.035309798841209106,-0.02549464027314107,0.1964958655415471
1700844109.6197224,1.9814780186069565,1.0094309103571717,10.125180245868668,-0.03347691944489503,-0.005582933152711208,0.2133395868121083
1700844109.629816,-0.005448813802567184,-1.6813435418988274,9.622764496184768,-0.04245188420213375,-0.0031160772999317982,0.21341674502477
1700844109.639749,0.2107791258408339,-0.685823814553483,8.68292876887075,-0.001899849982369652,-0.008184001646064636,0.23326577718839
1700844109.6501803,0.3764448879710738,-2.116598248831509,8.819793295554236,0.012622148094497194,-0.012203671017644113,0.2549607353983815
1700844109.6597688,0.008779447192264447,2.553418317923584,9.132061398921682,-0.007807692627892034,-0.0067843149305321536,0.2588978904066976
1700844109.6697838,0.8393991969378942,-0.6841044678766841,10.339942747885305,-0.0004323689922725259,-0.006636232299551809,0.2702654200373586
1700844109.679804,-0.19157349071115218,-0.4458575185415856,9.23027763112844,-0.006631652241283333,0.0048854059193293,0.2678209441481526
1700844109.6898897,-0.35288242999445807,-0.7036599114357394,10.142901379799321,0.023037838687018496,-0.0075059750125231256,0.2713686722098287
1700844109.6998093,-0.6558284168977898,-1.0726513833150302,9.215613069870301,0.0214019978796827,-0.007263022905026441,0.2729877727805074
1700844109.709847,-1.3843674365291354,1.7025429515312516,10.209696104224099,0.00950782953378595,-0.018839796866794826,0.2666230696021016
1700844109.719952,-1.1756163381018514,-1.0940210381196982,10.131491817970662,0.02263371741500011,-0.03631625180356644,0.2647179561434682
1700844109.7298565,-0.7943673356979357,0.4760089813129705,9.59092134346183,0.011595847494652065,-0.03295352859633737,0.25261591847524
1700844109.7397904,0.21747902949082862,0.8306849128401687,10.633509779642072,0.015762217418108043,-0.0345823858223477,0.2509852248011525
1700844109.7497828,0.5666245918697729,0.4122462788687499,9.434630668106843,0.0035080860954381796,-0.014992144840227727,0.2463861751137669
1700844109.7602828,-0.02118969710777575,2.0613915302946446,10.473267222350636,-0.004004037572442396,-0.011703851959181041,0.239549090224355
1700844109.7703447,-0.2190157971223275,0.16320373563482815,10.0395921065664,-0.01191144912487747,-0.013106526695970067,0.2375849830685551
1700844109.7798872,0.12804420615542872,0.14352520839850327,9.154356157465108,-0.005560333813449306,-0.0012223975532652588,0.2284990447340901
1700844109.789892,-0.279160693569492,0.13139468325947926,9.797847530350554,0.006756076549470537,-0.004531373681478079,0.2252199548064168
1700844109.79993,0.3371162109723265,0.6548181590741734,9.615542283010713,-0.007094725340704276,0.004518440313059058,0.2224970954237874
1700844109.809806,0.5213491560881618,1.6692866987882249,10.130724205169832,-0.0066354428424149365,0.014932530142402771,0.216284473496526
1700844109.81981,-0.12919446729871698,-0.41618227414049325,9.906214389080949,-0.008922773315199133,0.01770303923154823,0.2115106182871754
1700844109.829794,-0.06315344192934767,1.0227649965766652,9.760587439757815,-0.015458696367465975,0.025754096929211975,0.206243266421407
1700844109.8399043,0.21028474126914903,-2.1934243194628182,9.40732416974504,0.020208923998511548,0.021279488353916378,0.207620938378423
1700844109.8498182,-0.028156850725665983,1.6428973815516588,9.2295315000867,-0.002514567140404857,0.032272850995504324,0.21188325162515
1700844109.8598225,1.3780629940145264,0.11459965029006643,10.396173842316838,0.011606886953014954,0.039160316930580426,0.2155411439715321
1700844109.8699017,0.20755585057499773,0.5686172845494138,9.833155546486498,-0.00399568503049082,0.052444630929794234,0.2112274068175252
1700844109.8797882,0.7769474048159968,1.6828994621546114,10.745667748724713,-0.010790125263807605,0.0597795455850611,0.2143562632380421
1700844109.8898425,-0.4975655615715935,-0.25361196010053627,10.198907254885745,-0.01635055827549158,0.05749270550087946,0.20101799543485
1700844109.899896,-0.9236634402680859,0.4721450874852048,9.485341651546321,-0.011111413417247145,0.05119064580549059,0.1989943432389195
1700844109.9097774,-1.0197368643573066,0.1793288787019126,10.13297101308378,-0.014390427057448483,0.030163135431753137,0.200696905213445
1700844109.9197984,-0.03473160894093563,0.7919119700765196,9.41647835941689,-0.017965773549493098,0.0315893905879243,0.1989214020548756
1700844109.9299777,1.4129848620442433,0.7719400322819872,10.17339290774986,-0.018087722538623292,0.04272558309277771,0.2020171778975422
1700844109.9398985,0.09837033094095025,-0.12046746282853939,9.268670090340235,-0.019201796108960178,0.0523376859233177,0.1990962075768406
1700844109.9499,0.5916722374836354,0.31347573428429637,10.07412514871752,-0.0150289353024031,0.050170915421883226,0.2099273103056843
1700844109.9597871,0.7306492383205271,0.9249740226655503,9.65423942274346,-0.018098595811216884,0.06065562878790274,0.2237755703507359
1700844109.969834,-0.24838765242193422,1.7592226998593294,10.953997614176957,-0.03828203954879787,0.0570383220747935,0.2170508551178868
1700844109.9798098,-0.12994759628352717,0.08415749410561511,9.807625565141482,-0.03493933056797549,0.054778741213270685,0.211998482304662
1700844109.989935,-0.8066003239064803,-0.6159883430249314,9.007210960072644,-0.02746666718397137,0.04803594462422092,0.2200372266350682
1700844109.9998217,-0.31034125188311207,-0.9137625468700538,9.596065583211299,-0.015142724149322868,0.036779431544781443,0.2340333211003239
1700844110.009946,0.04880517174485201,0.9578585387930473,9.607743456590207,-0.01762706766820569,0.035565576361497764,0.2512943642912801
1700844110.0198534,-0.5651728619253,-0.9798224288548724,9.973257957315012,-0.009293245988046907,0.033497779238325635,0.2503076839028295
1700844110.0298517,-0.7231397471257,-0.04410354335543457,9.814950555488062,-0.0064299085480625795,0.024139058531910295,0.259500433760732
1700844110.0399969,-0.8780573119991518,-0.5186777674695491,9.94584030116034,-0.006878776476081885,0.015283375474360362,0.2652639048872884
1700844110.0498364,-0.4200049780092145,-0.6226157600729237,9.601175357641283,-0.008065262982992105,0.016401583401579416,0.2748936312972005
1700844110.0598068,-0.777643620422126,-1.4324646060346673,9.716967782939708,0.0003176537722527942,0.013654499280532582,0.2764125960646565
1700844110.0698476,-1.0145174949888127,-1.8601215218480052,9.507636106441229,0.020847444386973522,0.007926397452305651,0.2711656885920461
1700844110.079785,-2.0137024461273785,-1.1721377579694543,9.888811366912293,0.029432164391915688,-0.0008185092771026551,0.2496926682768757
1700844110.0898714,-2.9442450726648257,0.09131330025557685,10.544549792719616,0.02400590298581228,-0.028959163038664717,0.2210993814049656
1700844110.0998058,-1.8994623787693266,-0.18748813686452168,10.203869369226014,0.016934072126118218,-0.04350103316107971,0.1983818459092076
1700844110.1097865,-1.770689619864846,0.07355170961801476,9.920307705024962,0.009174970686227647,-0.05307097807533668,0.1856425004778798
1700844110.119826,-1.5307365129706179,-0.5397678024606843,10.334361005292225,0.007355858975781532,-0.06787265276841167,0.1847219216404851
1700844110.1298954,-0.24149216330073295,-0.9535239717811207,9.606935513791477,0.014459985947155127,-0.0646269598432653,0.1861223923741276
1700844110.139828,0.31514117354670723,0.019430430587869214,9.515979686565615,0.028890741136016473,-0.05529058037747096,0.1877724128542836
1700844110.1498148,0.9711343453921086,0.7669608136387186,10.034512468258072,0.019935824988874303,-0.03984888469748479,0.1904343413887913
1700844110.159906,0.18771528826465603,1.0163714477992203,9.224135056366578,0.020551545734071853,-0.025499955178269983,0.1903012740193303
1700844110.1698644,-0.255204717209132,0.3591646514743607,10.040262635210345,0.025005705916681876,-0.03254696884560769,0.1962223398266728
1700844110.179832,-0.15222076133224652,1.2109972315819413,9.559667920766692,0.013815223754088425,-0.02702672740318071,0.1996253478108342
1700844110.1900887,0.25374778862340747,1.0898134551534908,10.288664874072074,0.017608532681987386,-0.031044325577555803,0.1998545425711567
1700844110.199832,0.4781505692341639,0.27986385555026516,9.461002132308217,0.007887207663736202,-0.02042520089925976,0.2072563218651707
1700844110.209846,0.6793127572974123,2.1100241350158213,10.11336809198005,-0.009825929159643938,-0.013461512456300423,0.22440706666097
1700844110.2198052,0.8806308506356852,0.40338540587346056,10.606001426789723,-0.007144513294250606,-0.006042841168604732,0.221568857389539
1700844110.2298162,0.1731398636141849,0.08513346160208277,9.812370997466118,-0.018017429058273863,0.007260431276311911,0.2174891429720814
1700844110.2397923,0.16205084608596299,-0.33805307711584714,9.939048446468158,-0.007152632911248255,0.009354913307729348,0.2028456526575978
1700844110.2497857,-0.4158579848616889,-0.7558218298560009,9.0365358095518,-0.0007738544640017975,0.014043020879184036,0.1858109730063374
1700844110.259807,0.020225343393039975,-0.572711597194034,9.201439721760407,-0.006550572078067116,0.02536000161794738,0.1757081794320042
1700844110.269802,0.23415435858904846,-2.924448927498619,9.438163966156525,0.020845008027940204,0.03390518617941442,0.1547120111761983
1700844110.2798042,0.11831709862555145,-2.528802135681286,8.811024609178558,0.04971905983961188,0.05108206600080108,0.1277231621323521
1700844110.2898808,-0.4945571424731353,0.4315158082062368,10.151268767667277,0.049429520965003595,0.05459150476048443,0.1084980862914021
1700844110.299938,-2.044018552990702,0.771522099441686,10.652036063451746,0.03906162484034501,0.04044609177432469,0.0782927918015416
1700844110.310079,-1.1104540466740673,1.8138541898578426,10.635184809201887,0.03538192327869921,0.02551825705069473,0.050932009774297
1700844110.3199148,0.01179104986839598,1.4642160324768863,9.724955760347578,0.03339636461662271,0.02459853721178789,0.0394163700519497
1700844110.3298502,-0.6455512633257424,2.997045723132181,9.014155058464041,0.001257178844300623,0.024362661540775727,0.048872803407758
1700844110.3398683,0.12825062772944654,4.474546361638598,10.390163947400723,-0.04851192410045701,0.01593929793185197,0.0812526765047009
1700844110.3497996,2.412324431815665,-0.08092622296566065,10.29738468096905,-0.05000437652850843,0.03860907497099736,0.1269687163411076
1700844110.3598309,1.3653007294595143,-1.9852704628761548,10.031932355292316,-0.021995353386990785,0.05700103788418694,0.1553893285571034
1700844110.3698378,-1.823897526033503,-0.8508791845890764,9.854609225740312,0.005866563402191806,0.03546806962575005,0.1519592153607304
1700844110.3798337,-1.435732645005787,1.8622822673794055,10.120902790645337,-9.766679905080508e-05,0.009335068780843947,0.1415928500472004
1700844110.3898244,0.6078603885948808,1.495643536733472,9.509237448821462,-0.013357475842119899,0.008430537766893124,0.1380574750481541
1700844110.3998566,0.6504920236097623,1.586385091604038,9.039900395662439,-0.029132047034355704,0.01574634393037717,0.1368746357737477
1700844110.4098248,1.7379239021765729,0.16135438621544726,9.456967226398612,-0.014055848091218502,0.020185328097378635,0.1577764200745518
1700844110.4198296,2.9808851307642805,-0.7564659678583334,8.80335600530577,-0.014386037258924409,0.052445937011988415,0.2006466286955769
1700844110.4298408,2.375308899039949,-0.47749632301030925,9.35627588648759,0.011295225273057118,0.06765207018848399,0.2435751753626759
1700844110.439813,0.6622921445958336,-0.16404018198730386,9.856421535487922,0.02215817948877955,0.06931088882783276,0.2517738538561757
1700844110.4498277,1.2263078198532302,1.523110544655559,9.45591196107435,0.022746799143015323,0.07508739258182862,0.2644242244540151
1700844110.4598038,0.4294562732760031,1.8423032021346948,9.83656748163812,0.010254243764362247,0.07199840832086048,0.2728131311713155
1700844110.4698431,-0.3218974682343772,1.7912938774766276,9.86719979306235,-0.0012417914580895937,0.06044403977709037,0.2794395881472524
1700844110.4798417,0.6470092674169918,0.8454077541052839,10.403348477895916,0.0014615408414133367,0.050633059090626424,0.2929543155013021
1700844110.4909732,1.0305042414351897,0.6919116510059461,9.55506867922524,0.0046027894829996025,0.05737301537111509,0.3049826520262654
1700844110.5001197,1.570605399385546,0.9863222178268128,9.451289576559313,0.005836599783071099,0.06747312255991476,0.3234043615637715
1700844110.5103824,0.2130790562825282,0.6043658849813786,9.329665277954946,0.005374646123813402,0.06675879691934664,0.3412957983790334
1700844110.519819,-0.6674490512327698,-0.00815419735071817,9.649137770880914,0.010009336135110158,0.05429722515648468,0.3638427155791219
1700844110.529925,-0.864394477335429,-0.1359834191179799,9.596889129915043,0.01576771017399271,0.03638254663418898,0.3870099085150655
1700844110.539851,-0.9372834212998751,-0.2783712735209829,9.691467927118143,0.01603018733375159,0.027010225441858292,0.3980902331648763
1700844110.549801,-0.16249996139212455,0.3229759836030778,10.534240573034863,0.008633950958444965,0.02432052945597567,0.4205314117251332
1700844110.559831,0.6089348793932445,0.30088704155811213,10.963790208413457,-0.001122093133758164,0.042137740050596374,0.4126039939700063
1700844110.5698938,-1.7052703127002617,-1.3157004597576194,10.107129521931109,0.017300928956659332,0.04160062442844146,0.3722031014738973
1700844110.5799038,-3.8534916794815652,0.39987518025912167,10.012003967275465,-0.0018524186406401154,0.019668608699166656,0.3159310417948659
1700844110.5898254,-3.1056689944667735,-0.29520507977334637,10.474843665127466,-0.007897059096080674,-0.007481140031229554,0.2784088748274739
1700844110.6017776,-2.1043347908370995,-1.4003106392786235,10.113074648030018,-0.0007563840396728166,-0.020299204715589637,0.23967746372804
1700844110.6098244,-0.872021740829795,-1.5198597246467431,9.42775216275074,0.01582200599622205,-0.01194392969898873,0.207759385067075
1700844110.614879,-1.077008126210738,0.26419441878948663,9.833387145977316,0.006606027796447386,-0.0072963765072782535,0.1869754987536366
1700844110.6298292,-1.1018794466003814,0.5294843026279545,9.481272804961664,-0.0029646843350591492,-0.002329832479863595,0.1783104735194142
1700844110.6351478,-1.6655487530612023,1.1250290600471102,10.52151002003533,-0.018918520846661756,-0.01030882061074172,0.1895623999415333
1700844110.6488645,-1.2401724501961175,-1.5607692329969618,9.737094128127236,-0.003245669769097632,-0.018540136692773546,0.2068678336916859
1700844110.6588163,-1.120295247492589,-1.772434136012399,9.49350197061985,0.01880618339476307,-0.025309820992911503,0.2154873954831059
1700844110.678865,0.3998947186303851,0.18691963462314887,9.60497114566215,0.02807199527907757,-0.018203956035163643,0.2394727068720753
1700844110.6888986,-0.4526360868657559,1.4487431571143796,10.24149007080751,0.010707683840935867,-0.018752858445823275,0.2433482902823384
1700844110.6993473,0.2211272525634829,0.30240770622558416,10.315208901169543,0.008925893328586978,-0.011033440483366914,0.2308595972834523
1700844110.7093656,-0.3489847105789727,0.242551310871648,10.402219293644809,0.008299547212194594,-0.00997300473435894,0.2157648998080189
1700844110.718868,0.05502256637471121,0.3664380877206763,9.93731693200887,0.009502520932851033,-0.007936355999322785,0.2032424407778676
1700844110.728976,0.6780192248413661,0.5449188808286668,9.042695715065138,0.008925975880597745,0.009098188477293927,0.1938455748139317
1700844110.7388513,-0.22938480247935275,-0.5859575399554643,9.293737803220766,0.010932242501470183,0.008964498720225783,0.1905411082087452
1700844110.748867,0.6916985312159618,0.9659155300577302,9.254527114653595,0.013695944147873826,0.02017902217961515,0.2014204608975346
1700844110.7596035,0.2011720061764879,1.5215176849831784,11.083831769921561,-0.0030093031931470726,0.024917167130791087,0.1942397701321538
1700844110.768857,-1.682557894144931,2.0971824821955467,10.599341949689261,-0.01906978661632322,0.015095376151830122,0.1762104081688817
1700844110.7788608,0.7033172726507452,-1.7422018025447048,10.126708833720553,0.004187960763206191,0.013658748931099328,0.1656201380072529
1700844110.7889853,-0.05990845726642779,3.9329034638784184,8.651989938943997,-0.01864593314891693,0.027310714061326864,0.1677597808419163
1700844110.7988553,-0.31462726834129723,2.066851767595169,10.946111391390835,-0.052582736768013116,0.0109621670430168,0.1872233795700963
1700844110.808993,-0.8874951816480501,0.41613638562191174,9.031395218446601,-0.0454098564913444,0.006206010163965246,0.202110786992162
1700844110.8188653,-0.1496008458481738,-0.6641090878519067,10.512977663286964,-0.028505687163148812,-0.0126084901041389,0.2238483029185231
1700844110.8288782,0.37798279903635756,1.3425861348233457,8.994855175599385,-0.039052504492025256,-0.008791350492298079,0.2532765763579305
1700844110.8388374,1.657683079547619,-1.3025318605557177,9.763646394675533,-0.015256739972467848,-0.00022726812160097094,0.2788741486845906
1700844110.848856,-0.2761685712888197,1.7316441652728103,9.122307461244525,-0.029107709953075312,-0.0010095405765676937,0.2980228858767446
1700844110.8588865,0.33231106328536353,-1.3291982132155284,9.710789921800423,-0.014776760492709876,-0.006559442304873417,0.3176628249464925
1700844110.868844,-0.5487733487033292,-0.10625495373568207,9.287764387708513,-0.00636340957078818,-0.014373662018194596,0.3311638730345662
1700844110.8788316,-0.5024491634302645,-1.510261420603576,9.795213507991745,0.009490874671335069,-0.02335150158020466,0.3348267870722707
1700844110.8888896,0.12142911565485492,0.8691870528660389,9.659007272915138,0.003578214167193499,-0.022079461018211444,0.3348206775961812
1700844110.8989809,0.3899572750172985,0.04620412390723409,10.35547355343171,-0.005166733341188164,-0.011852842442050692,0.3300341265974935
1700844110.9089046,-0.8995656315284708,-0.3006935008036589,9.839149269451033,-0.003096766545582607,-0.014633457889247418,0.3128283220110829
1700844110.9188108,-1.4836456381183631,-2.3062664765040783,9.61441052794544,0.014103917112191717,-0.020404998917180745,0.2891898649512227
1700844110.928934,-1.8552422001246098,-0.9124941759634604,9.435473859428763,0.026751073399128012,-0.037483020425726536,0.2758134799776967
1700844110.938851,-1.1006467998821494,-1.7421139667131051,9.207781057296632,0.03943146736692226,-0.033744508951030865,0.25315462525472
1700844110.9488811,-2.416936810166419,-0.8305619956629469,9.735273754183376,0.05060697468716054,-0.04834969225253712,0.2359072613297398
1700844110.9588976,-1.198371153308386,-0.31327121929762275,10.407240479924898,0.047434081574162554,-0.0497400497920004,0.219112386065572
1700844110.9689226,-2.03207384058629,1.217914055014642,11.097534203737236,0.03863293003922045,-0.056583066346495674,0.1916651773034031
1700844110.9789157,-1.2406565571554147,0.77381075362251,11.231445321535615,0.01821520563511999,-0.06127075389216997,0.166332189994901
1700844110.988968,0.8625018954094033,-0.7926170285828328,8.836651367777328,0.036622803433693105,-0.03657517823736908,0.1514405804453786
1700844110.9988909,-0.592646667620626,1.969400718309636,9.16130604594969,0.02871262850792835,-0.02897571691490327,0.148843933898061
1700844111.008892,-1.3084704793999673,2.03810420254941,10.431550729417042,-0.008566513332208158,-0.045556648960646144,0.1543166535674031
1700844111.0189085,3.2867001510996188,-2.749823583261889,8.70276585242772,0.04315506477930446,-0.006466437113867536,0.1661906885682042
1700844111.028892,-0.8033859374760511,3.4891560179384933,9.97972226072163,0.021368027788093588,0.00014522608038135387,0.1749832230387623
1700844111.0388744,-0.30981543761215596,1.9649121002277254,11.062871397212414,-0.011055963676608061,-0.01223108399968863,0.1838331269799168
1700844111.0488508,0.5785997081249469,-1.9376286885735645,9.15616934139761,0.01854201405731876,0.0005445986887118681,0.1826737123309071
1700844111.058984,-0.2333946893883044,1.4809608320520773,9.630412914330396,0.02726227752734595,-0.008441573720686431,0.191421021777242
1700844111.068866,0.1190732962606114,2.15236142974431,10.02473293610532,-0.017506262096014153,-0.00023145992022153265,0.1950844722567494
1700844111.07891,-0.7215046144074682,-0.2863968903502577,10.053299768789486,0.0038937149624496885,-0.014059643119251218,0.1977741318522389
1700844111.1014032,0.4791208114339272,-0.7865571885437652,10.029781900897438,0.018840439683191962,-0.017030375320842117,0.2087531435070927
1700844111.102311,11.85411139532567,18.219757999365854,8.383631552538588,-0.008225372009325889,0.0026289253699165456,0.2205177741824086
1700844111.1088383,1.2444690186215952,-2.146782000500516,10.07429366191243,0.022713059224783085,-0.002138924762801496,0.231978659587949
1700844111.1188526,1.9527389324710034,2.848102969254465,9.13577969521579,-0.014640228776856175,0.03632395280927443,0.2419783073244984
1700844111.128908,0.37280296196242885,0.5540760702365626,10.893421874470969,-0.0026729413908350213,0.03641655430417293,0.2410181957064564
1700844111.1388998,-3.3411690722039578,-0.6806064744414967,10.339464825730335,-0.021941388318654848,0.004162630570327261,0.2191890525399144
1700844111.148853,0.4259095000953685,0.6099986181532108,9.781432059841064,-0.0029239358952409386,-0.005683005110316557,0.2356615411816533
1700844111.159073,-0.31659637188847756,-0.9416061897412003,9.846624871481888,-0.022831453227682146,-0.009904516856062523,0.2439195262967045
1700844111.1688912,0.26293003366298956,1.8096652345149349,8.89112199579964,-0.017180826652581138,-0.008530645998846183,0.2557808953104909
1700844111.1790094,0.14837775649688786,-2.370765078063864,10.630987390048329,-0.010607105628850104,-0.020534583520550632,0.269934912282079
1700844111.1891809,-0.5235630388742075,3.5177273263416593,8.926771213262267,-0.03438722712673678,-0.012802080177145198,0.2763999896822866
1700844111.1988592,0.1466643265043739,-2.4630505374528013,11.767034640198503,-0.017180450808226305,-0.035751581093046284,0.2791245179949697
1700844111.2088883,-0.13148685459165646,2.4871578970316675,8.572829550196625,-0.04332020359706682,-0.014750309635768143,0.2734660404501851
1700844111.2188687,1.6657161209540665,-2.0278515102370664,10.702857293789377,-0.01172238518846266,-0.02042627366461691,0.2811899977503713
1700844111.2288675,0.34853433979759857,1.1594739048261953,8.140597322236744,-0.03479092453325309,0.00783113756164233,0.2807391482172902
1700844111.2389655,0.5729113813561044,-1.8860313530518757,9.987246991082,0.007714413972778713,0.0030239266703045264,0.2777546542464192
1700844111.248922,0.2576467845991865,-2.5176754843669404,8.709025960405928,0.022666070062309297,0.018999477513121168,0.269812990981191
1700844111.2589295,-0.22459989326260107,3.75988223469276,9.250423845876384,0.028416470811548893,0.022583132632491718,0.2708382206736501
1700844111.2690394,-2.1166957086983005,-1.2780357370293045,11.071680423474735,0.00950261332499056,-0.0002871360549088816,0.2477435963927205
1700844111.2789423,0.06089704952871259,0.787960773436469,7.9001998166105905,0.04088287498313131,0.02765324855653614,0.2269235896645482
1700844111.2888942,-3.856014291157948,1.9710791264124214,11.368904994988958,0.0038323665165274252,-0.01918649116761198,0.220558469253629
1700844111.2989273,0.6091522033516424,-3.843255098555703,8.062547371434327,0.03824124040218372,0.004325619449653846,0.2275349396048482
1700844111.3089445,0.26571866326206284,2.067044058420403,10.012312666394697,0.06456114991777645,0.008659821013319559,0.2260336178122456
1700844111.3188758,-1.8576110556095913,4.397073067693902,11.320866086222829,-0.009970065315302416,0.006550165499342602,0.2160531925736363
1700844111.3289125,-0.39258180459455067,1.8580243366252642,11.23148416146904,-0.023257135446398867,0.00792529973417176,0.2102513360558446
1700844111.3389332,-2.6142768881178022,-2.3902605393134806,9.894701924605064,0.004108597221373706,-0.015136635150201841,0.1864104169188435
1700844111.3489058,0.045651985893406806,0.922117471690055,9.412345096068991,-0.007133947238716025,-0.01015468059892763,0.1938779401360447
1700844111.358962,-0.5034151582718275,0.5554469107247596,9.168341177785104,0.018757619756873855,-0.01730456901377339,0.2195823984919484
1700844111.3688953,-1.5678520957375595,1.2113703401268714,10.936105788505863,-0.02481176156441313,-0.039425914769445354,0.2229717868147786
1700844111.378906,1.5284420081606356,-2.1701608594589494,9.022078830487324,0.04750362391906766,-0.025356355673890798,0.2452237057267125
1700844111.3894022,-1.2339796345679352,2.8071212262127285,10.989882611081153,-0.014445509180414824,-0.043898217474272576,0.2497973191319401
1700844111.3989215,3.5777831350527687,-3.9890486127620273,8.348002061950023,0.06710697580515093,-0.010900234557662519,0.2583489614306386
1700844111.4092307,-1.0768022721970143,4.362022276120786,10.052989892055527,0.0012833149130701575,-0.01903095774856215,0.2598616975127156
1700844111.418884,2.433685474604051,-0.3897969097976058,9.082747104535054,0.028942808591751516,0.0019153314866555136,0.2649299102602895
1700844111.4288669,-1.6838068059317963,1.265775967147617,10.529124314167738,-0.008153628127162508,-0.019273838190185834,0.2489687847672398
1700844111.4389503,3.670337214923329,-4.908809653828803,7.768897838651947,0.0591323780921596,0.015455279073065478,0.2630327242194112
1700844111.4498036,0.5674558306965647,-1.536829694581373,7.379005261437991,0.11066711245544181,0.03803144803160627,0.2760209935484822
1700844111.4588797,-3.300958419203429,5.472548538026795,11.271406259782164,0.04344771295599678,0.0017507435776659087,0.2714955108939107
1700844111.4689014,0.24071319469390515,3.2833528264659257,11.223682454851975,0.013932285593236922,0.003790745749152395,0.2711189287482198
1700844111.4790025,-2.786612551949875,2.156960641177259,11.958289880173432,-0.039881870486889466,-0.014071268566075107,0.2255779999075825
1700844111.4889188,0.27906248778547166,-2.694638334062859,9.87061301037081,0.00500305453456284,0.0026830321300939947,0.2013347494183476
1700844111.4989407,-3.959863983612753,-0.7078957067466799,10.508302452995482,-0.010825172426426123,-0.03266365992446757,0.1759110736428197
1700844111.508882,0.34195769771180307,-4.739353983348009,8.141034823359954,0.06687835993613284,-0.024089508119421694,0.1775434362469609
1700844111.5189004,-3.9219001444700123,2.702398984567962,9.606604990133222,0.042654804590023264,-0.05479877200628134,0.1775211739121373
1700844111.528946,0.8835445462963109,0.7201960134449762,10.3056078164455,0.023375170720538185,-0.055066559780272334,0.1875104504404957
1700844111.5389192,0.26914669956613835,2.7113379551672625,9.67895682009055,0.01853998567651697,-0.02895161892895147,0.1924028294859822
1700844111.5489128,-1.0047870903232143,2.386750309607666,11.627258973782176,-0.026610566813320864,-0.04559276510283211,0.1882640468655522
1700844111.5590026,1.801230192369483,-2.6705346621571837,8.473466704631985,0.015672163738155994,-0.007767601672229613,0.188490261393636
1700844111.5689557,-3.8976610990644707,-0.2134052920344613,9.935691203775768,0.027712797941105795,-0.056387469154602965,0.189082165318578
1700844111.5789893,1.9516017259313267,-1.0795529121789254,9.289123510875422,0.043968489173233254,-0.04289415633668852,0.2050278234063084
1700844111.589009,-1.6559461493955832,1.1213165839987573,9.900217234575388,0.05470618922543203,-0.05610440584769167,0.2077190774260457
1700844111.5990932,1.2349862226702126,5.049135582649791,11.756056118947024,-0.013593890258391212,-0.0613955684702357,0.1999562131939824
1700844111.6090713,4.3978659447463375,-0.7615719761137221,8.969243486588425,-0.000468930865453543,0.0017035864033254397,0.1962942230282719
1700844111.6189225,-0.43125470852722136,1.1871259442314224,9.781353325126778,-0.01743694268546709,-0.005548722692236273,0.1809562491951878
1700844111.6288996,4.466635480165021,-2.593739168122211,8.025604013530979,0.01535145148799465,0.04352850168827234,0.1900269734440739
1700844111.6389065,0.038768690886249436,0.7599307379716883,8.464143387128573,0.03816669144249411,0.05428084899259727,0.2056814330397542
1700844111.6489005,-1.3206970993181941,3.0790530491602413,11.207049640181879,-0.01057908522432604,0.01642917368145747,0.2151040333090718
1700844111.65889,1.8843836759305386,1.3093951654175415,8.98998425913443,-0.0027478639671556543,0.04062947745332397,0.2329968261300023
1700844111.6689236,-1.1515835216761503,0.5743176159061225,11.575425057938844,-0.024781286582508548,0.00961728808433192,0.2344061779557164
1700844111.6789093,1.632745090851823,-1.1807161326259796,8.118994040859908,0.009419168988327294,0.03399330740425738,0.2433263110695775
1700844111.6889532,0.4301267429961729,-1.7968174904961254,9.941362723777127,0.03180970545259536,0.026811329361707315,0.2682029205141957
1700844111.6989155,1.2842216025107276,-1.0843037346374853,8.415800903860665,0.06658499416005906,0.04017378648459334,0.2849774258910115
1700844111.7089567,1.440339400022105,3.2148000367656047,10.067244755125529,0.051725697678844565,0.051442299446876734,0.3164664107142385
1700844111.7189026,1.6352624134739469,4.693622065368959,9.737178735604544,0.004110160938005684,0.07312176820765136,0.3206002908526357
1700844111.7289171,1.1340724196102903,0.27641231178307146,9.846802410269833,-0.005379038357977556,0.08949800742059623,0.3094182210741933
1700844111.739016,-0.08359434228995966,0.26456919153136904,8.793384899351873,0.00064977113931127,0.09040836515824129,0.3102978366194661
1700844111.7489574,-0.11751960237982916,-2.211195331277615,9.402096992050883,0.030991380376610117,0.08642649032296654,0.3102100687800344
1700844111.7590475,-1.2599308472190551,-0.02691608983568779,10.145551897309401,0.03067366222037259,0.06651704055812228,0.3045377629576619
1700844111.7689743,2.0158233602905917,2.291373060693804,10.1556013628717,0.023177991524179417,0.09147971412061003,0.2931385832606252
1700844111.7789028,0.1273395472303017,1.1764984988852478,10.640318143602805,-0.008101961318952602,0.1036302987242735,0.2660824256716664
1700844111.788919,-2.112211940372904,2.3428428000164554,10.03027158621323,-0.03013521056752412,0.09458823799635134,0.24830963190183
1700844111.8055315,-2.67782303807592,-2.064174752324683,10.449990239274747,-0.0219212145167681,0.054191286302070193,0.2370271133957799
1700844111.8095896,-5.435575633885421,-4.623895421256912,9.42983882952553,0.010041741654337409,0.02581227540027994,0.2275714921532567
1700844111.8190055,-0.6569496993077507,-1.0165387311576157,9.681245723957378,0.03873865420259515,0.02046963519894387,0.2326442646561558
1700844111.8289125,-1.7376401882256212,4.308254241564454,10.335398052769118,-0.010335949769730844,0.01618121714172756,0.2365341084776814
1700844111.838897,-0.18170826832892262,2.2652581738780273,11.29971879984652,-0.03927344337224035,0.023257638474538003,0.2331191199599202
1700844111.8488953,-1.7916398019714277,-0.9334092852560756,10.155873449284543,-0.03371059914696108,0.018166841014857237,0.2240471142111714
1700844111.8589203,-0.6449441817340698,-3.1167654732508345,8.930429263232888,0.015761521687017922,0.018426122113185554,0.2179107713280614
1700844111.8689456,-0.7805456429182582,-1.2391365676171449,8.679540108615486,0.03130021315920175,0.019505746887061345,0.2156537073431904
1700844111.8789918,-0.4725938605580652,1.1245227063431853,9.104666243448001,0.03792047452327324,0.025292354732688305,0.2130411761580403
1700844111.8890636,-0.5418232175035111,3.1065717768595498,11.021486980944918,-0.002042351618200926,0.02448800507842871,0.204237331706136
1700844111.8989725,-2.1378565743969267,3.6007554262926056,10.951488459185747,-0.04271304841058597,0.011952182610682776,0.1925591128645833
1700844111.9090214,-0.960160952231544,-3.982469702510013,10.469442282179832,-0.011683528595520427,0.00029868843836912016,0.173169051366895
1700844111.918942,-1.9513142242198303,-3.4270999723112,7.991177589735397,0.03631618313149248,-0.010237712848244554,0.1596298414050038
1700844111.928949,0.6016394873385666,-1.4604649164423331,8.748364495356714,0.06964742442232622,-0.003155084790213228,0.169158031302541
1700844111.9389749,0.05819644279922644,2.6354539779670865,9.63365390119638,0.0435912704518062,0.00045658812063615776,0.1794053959427769
1700844111.9490125,0.1306643299761405,5.751885005216264,11.321231458080245,-0.016590659556143313,0.008633540744810335,0.1883958327351506
1700844111.9590082,-1.784505443738438,1.0124278907902367,11.77326107738143,-0.05025566051854496,-0.00977882103421484,0.1791794198332722
1700844111.9689612,-1.2931228899554499,-5.299180300614754,9.14316330050216,0.01018278653986676,-0.02219743833729942,0.1672563749133046
1700844111.979057,0.19607734127029042,-1.514547695013114,8.597058208112415,0.053588997182619516,-0.026685714956752597,0.1763177710352833
1700844111.9891987,0.4713690112819062,2.5427538726029293,9.351540823848453,0.027445246105325154,-0.024240233696078,0.1978040682850773
1700844111.9990735,1.084445765242794,4.39123134840671,10.823041617734326,-0.01899487239882307,-0.010359752050985598,0.2017959701596196
1700844112.0089726,-0.7501293850475039,1.5378161849917333,10.792595065921072,-0.03915543014338351,-0.0201708865410923,0.1955523836193974
1700844112.01909,-0.27639602894100934,-4.688007383610739,8.948845217575444,0.0036868699083162627,-0.020487355475347174,0.1847728389082844
1700844112.0289805,-0.5640713126368929,-4.239819138852311,8.144071344728534,0.06259392395998674,-0.023352539720874477,0.1716659861384327
1700844112.0389683,0.16034695319974634,-1.1879424284715525,8.361267133818107,0.09677662592119998,-0.019405196606321545,0.1671301173745091
1700844112.0489516,1.0439442092141642,4.918821204468577,10.900295485306012,0.04866322264747344,-0.002071005443276763,0.1602545874892171
1700844112.058954,-0.6884100846809063,8.441198168177122,12.596167099355757,-0.056640138043334703,0.011469682376021877,0.1367953764973576
1700844112.0689814,-1.497227816947908,-1.5251157250877245,12.510057299976358,-0.07823776475122454,-0.008501985447874633,0.1065240251599247
1700844112.0791116,0.5277828845292147,-8.58372746358084,6.851532663305312,0.044044396217948645,0.007445522167322072,0.0831604721723492
1700844112.0889573,0.2963253168668695,-4.530795164529297,6.209303900863125,0.1085454358673267,0.02570887313554185,0.0872640433488781
1700844112.0989988,-2.267261800050641,2.3314329983038746,8.295008339245875,0.09415648817096345,0.008492142274486187,0.0950544374762471
1700844112.109029,0.00892336696328049,5.386042145864672,11.474511075690387,0.03909165052070071,-0.00020599731632269823,0.1072601276217396
1700844112.1190062,-1.774575657013318,9.79004771891221,13.207921112468568,-0.08154040877189768,0.009402516975551441,0.1104140328942235
1700844112.128969,-3.683275740414535,-3.6112751185646434,13.890947337251724,-0.07627491872248741,-0.05268000463946759,0.0991206290899212
1700844112.1389554,3.838772582907883,-11.17451439497023,6.355106627279999,0.07897709699488956,-0.012857692236821575,0.0820604982553418
1700844112.1489162,3.05999825023314,0.6325264136247023,4.917531214768612,0.107594600608961,0.05644819477989414,0.0873032483039792
1700844112.1589248,-4.667307882744041,5.250850136563246,10.345655240247076,0.024253506359139882,-0.00021415619370682634,0.0993820327101643
1700844112.1689506,2.0879144645774153,1.2872129966204342,10.251913677569913,0.019290459432103297,0.01419655608193974,0.1051955121336873
1700844112.1789207,-1.9249339131702208,6.131958167841339,12.851023777936147,-0.041262264065327306,0.009204425374830233,0.0995686697541173
1700844112.1890512,-4.233105996014165,0.38909526624146196,13.367953037018456,-0.07396041641424325,-0.05335740528560257,0.1022797125159199
1700844112.1989822,3.5850975821275513,-8.543375760043405,8.423444985882313,0.025863446791083815,-0.026317653479049734,0.0811036946950848
1700844112.2090516,2.8100839578938417,-2.507054555522742,3.866644255232064,0.10148067145949219,0.035894418325420584,0.0735041844426091
1700844112.2190025,-3.705986621118462,2.4140991472595337,8.990249442856166,0.05307817191644618,-0.0005551498222986073,0.0912972810445721
1700844112.228933,1.5526589538167233,0.43443425216092746,10.379292509866625,0.06147941470642872,-0.002575720097295802,0.0912418710766728
1700844112.238989,2.123652133173575,8.675848284164998,13.021746588542571,-0.0169982235890723,0.04602841718661814,0.0756767886458333
1700844112.2490227,-5.597753835898252,5.8971449395990385,14.606819791301392,-0.11336462671421094,-0.0011894464651782638,0.0620325888274605
1700844112.2589788,-0.27340497331281177,-8.893696499047168,9.832278012265796,-0.020740446151464812,-0.03017356808958525,0.0538766245125229
1700844112.2689855,3.23412672629016,-5.226900230886953,3.127454895227399,0.08015524762780651,0.030097329469617858,0.0288973609684403
1700844112.2790563,-2.6539653889853065,2.1215594348738014,7.772996729780672,0.04996628703336,0.012413233915026689,0.0614398318110402
1700844112.2889953,-0.036669690304701866,1.2319753727321088,10.863343303347161,0.03563058735837632,-0.016956643593251157,0.0799617218552525
1700844112.2990355,3.2367303759398944,5.114267892330762,11.909229753924555,-0.00517586483963496,0.04302850580855938,0.0685551735340054
1700844112.3090153,-5.739235939089175,6.564526431730485,14.886085155336422,-0.10007762352612078,-0.00506363957195666,0.0700506987749035
1700844112.3189888,-3.0845357800008486,-5.844418923067143,11.134063263508365,-0.05113508237571249,-0.07855819225294336,0.0734782638727124
1700844112.328957,6.015322386482019,-5.191209866077403,3.825178856518991,0.0463146181828651,0.008753405903516212,0.0649860921083386
1700844112.339012,-2.622418550814932,0.5051741536268071,7.585126324610244,0.04292635519090219,-0.002588034847812912,0.0812336402712758
1700844112.3489635,-1.59111910947709,-0.10201756187653437,10.058620192262342,0.03751720699413197,-0.052898787004297496,0.0959486114560063
1700844112.3590112,5.50284023607183,4.840016920369356,11.113262663525639,0.012149330840244433,0.01821148365265653,0.08575990523681
1700844112.3690107,-2.633284311612187,6.392570551536146,14.052676552917585,-0.08202867781466502,0.01884092701258582,0.0770262527047093
1700844112.3790677,-4.487357943215446,-1.346514062404079,11.70153646797448,-0.08089893525400316,-0.0583148723887325,0.0724395039258893
1700844112.3889816,4.369758153076397,-7.046951969748667,5.592092982493441,0.03151431624937389,-0.013991448235785017,0.0710246982751782
1700844112.398962,-1.7344862785650703,-1.658952122979522,6.118145794610536,0.050453965971242895,-0.010495187886895515,0.0868865447817738
1700844112.4089391,-1.0496499791505753,3.7206848922461986,10.836613403887315,0.030663278304156306,-0.06135950942906519,0.1189717101632054
1700844112.4189744,6.43557486188753,5.308456989170538,12.100530370215253,-0.019354436827584823,0.01889882042277712,0.1076322170673306
1700844112.4290423,-0.8264174059765742,5.7150399413290085,12.709067611780178,-0.09308791540657707,0.03777347488855808,0.0930413725553448
1700844112.4390364,-4.391379128704414,-4.264708378741687,10.528601607974494,-0.05232895245291915,-0.032148305365164914,0.0808785083471234
1700844112.4489388,1.381816626915572,-6.486641444277005,5.478427571193697,0.0436049498039794,-0.02063391795347901,0.0846822681604321
1700844112.458974,0.008024037156143655,-0.27044059351962313,6.899374598520195,0.06064377972512643,-0.012322419464002074,0.1009369837819035
1700844112.4690652,0.3739854571442167,4.673947289111693,11.01400429304519,0.014315719871690804,-0.030050033845570666,0.1322073089657719
1700844112.4790778,5.0235671756154066,4.873820783470737,12.608672316008377,-0.0420945139076262,0.03919936448303115,0.1126181530533726
1700844112.4889452,-3.9032203303197957,1.8023770142094908,12.524792866234069,-0.0751507453255338,0.020323340719043695,0.0887117209611828
1700844112.498984,-3.2947131991465715,-6.41125296335615,10.168731562663623,-0.002942930860091069,-0.050628475218307545,0.0909065278945858
1700844112.5089948,2.8060724240675485,-2.7943774691122636,5.495318407383921,0.05023649627400711,-0.004069201000503761,0.0898896875558789
1700844112.5189726,-1.2201677701816678,0.5917210800691638,8.3278607151003,0.04471684813384179,-0.01773521260500424,0.1069468232570584
1700844112.528991,0.5435165891729274,3.4230154837163007,9.906366188766635,0.011442164949624536,-0.029662786368409313,0.1271383660612996
1700844112.5391314,3.75623780833698,3.5364297501206403,11.72802338935722,-0.02311605457377492,0.02883117757213563,0.1174582588253911
1700844112.548946,-4.002579951272803,3.6267668452300983,12.914898719325969,-0.08300431277333006,0.0006117236860357742,0.1078718202887471
1700844112.5589774,-1.5636975345161255,-5.676839715311091,10.670263187910969,-0.002491368952628972,-0.04778780605700948,0.11077370967254
1700844112.5690236,0.4330692417461222,-3.8376069904406154,6.090841042001793,0.03735977359973829,-0.01821620435809823,0.1028351980029042
1700844112.5790122,-1.3549444547377631,2.0953147552820335,7.835299470838122,0.039976392989892945,-0.04267042599474782,0.125687544303983
1700844112.5889838,1.7373697431137478,1.0098704327559112,9.780922317468091,0.011024788100258415,-0.03739124492685017,0.1452629315434392
1700844112.5990057,4.786039982413933,4.964555342873282,11.136488904328884,-0.016643887149444175,0.03905996832565056,0.1265751766739781
1700844112.608982,-2.7404465912256057,2.045892097756367,13.206863252194333,-0.058534397704861386,0.02895629618124904,0.1053703772602971
1700844112.6189864,-4.00465075332524,-3.670936512904621,10.072997694554038,-0.014681794373500727,-0.026246608024787007,0.0944232764421399
1700844112.6290054,-1.0893946924124678,-3.961380483240325,6.6034224215102775,0.043983515018118174,-0.03372622804813992,0.091471348959058
1700844112.6389723,-2.1450701970264108,0.3470757921698558,7.684788940950839,0.03850219036660373,-0.05775721114027907,0.1221283274470265
1700844112.648974,2.941179802708185,4.258922552433949,10.702404276848082,0.003975246778934405,-0.046215716391307546,0.1430472927866871
1700844112.65897,4.7340619775181265,2.886020257599792,11.571005683456987,-0.026339500949691473,0.040480205798472044,0.1203974383650715
1700844112.6689963,-4.226233648639679,0.9412416465142024,12.575152151197518,-0.05142378760081801,0.006682930083856817,0.1204130994854863
1700844112.679048,-1.8315675745563005,-3.345922091733853,9.486664618890641,0.004438020173411055,-0.03714275574019963,0.1168344589649136
1700844112.6889858,0.019408259415384183,-0.8756796498804728,6.439736026263601,0.025215489094241216,-0.02516673421133041,0.1315675872145588
1700844112.6990137,-0.7543936178529027,2.2272603275944394,9.279085254898481,-0.011439953422809922,-0.04211575867377832,0.169540842133611
1700844112.7090344,3.4682861443628314,2.1792832652000302,10.637770069623347,-0.018178494137229433,-0.019303682015616865,0.1778316247044499
1700844112.7190006,3.0815672509112204,-0.10869453785939591,10.243154471609303,0.0005543422996374153,0.035306143237051675,0.1723400699673588
1700844112.7289836,-3.7860786643873707,1.8569527536218156,11.650020257212931,-0.05604387856945365,-0.0014231131654361623,0.1655020314036305
1700844112.7390575,0.7289209541283661,-2.152353503897637,9.174411401598364,0.014003753683138507,-0.01947037041321471,0.1624077009735997
1700844112.7490056,0.44288254365969404,-2.7779121996582683,7.482194858732517,0.024817565838079935,0.003206453072018093,0.1656729626236851
1700844112.759061,-0.6457509036181439,2.6422692196139,9.557485207974517,0.0015330521039139413,-0.0071039801219423965,0.1734918999253209
1700844112.7690887,2.7786001505363607,-0.23002282298785984,11.066260416904955,0.030763803712740793,-0.002514819998725417,0.1742071556626256
1700844112.779019,2.7277756899940253,3.7247559755185375,10.155544640705141,-0.02592731183973516,0.07463394774544431,0.1466055857716496
1700844112.7889743,-4.56314132389846,3.4061252098297734,12.590236164875334,-0.05217103317501145,0.013992102266128922,0.1245227354346211
1700844112.7990348,-0.3147248841189721,-7.002240762353429,8.148245897145589,0.017943264289768047,7.694464490172275e-05,0.1246196004329617
1700844112.8090315,0.12138853298233891,-0.47251568716665043,6.847405126110268,0.028749222592312357,0.022757207017900457,0.1198311122833188
1700844112.8189943,-1.1602222812249705,1.5153341946815069,9.828064210386593,0.03511630329701744,-0.012637609509800985,0.141972174006551
1700844112.829053,5.215774985595715,2.611580867247817,11.037276190493547,-0.017481770249383397,0.05595131893462929,0.1436025249539311
1700844112.8390367,-0.882064864887451,2.628211185285219,10.459584719079215,-0.020352751693238608,0.07730843039970202,0.1213683831273015
1700844112.849007,-5.58217445954692,-4.584803330799634,11.307651403114944,-0.009101343915207623,-0.0009958654982413254,0.1269994723378117
1700844112.8590896,1.611134131707095,-0.3011626242474318,7.834862892821402,0.03318039375397153,0.015104174239674282,0.1285624849377568
1700844112.869063,-0.7048734806343305,-0.2123205533646614,9.350074045384767,0.032141731713783636,0.0020740126619520185,0.1512295352993901
1700844112.879056,1.0746395979643721,3.4770759567392573,9.963044917377575,-0.015357351812000597,0.01631735200152473,0.1629533069907124
1700844112.8891306,2.8541906494462226,0.526699259451179,10.789144038369889,0.004744324611697067,0.04204023124293888,0.156262164074033
1700844112.899132,-3.0945356079839494,-1.177606844357005,9.518402153582455,-0.011221345650623767,0.03147920694725985,0.1481888788519795
1700844112.909009,-0.9600084180434283,1.6967530411268998,10.884226704125892,0.0024467096067862268,-0.010314851971854578,0.1719044196186955
1700844112.919064,-0.39640780834537587,-3.9928616870729825,7.769716116802043,0.03858959484109241,-0.005055951177774201,0.1684755879221852
1700844112.929014,0.8525287614737926,3.3922697978281016,9.808747369206387,-0.0009695443865468242,0.005011540647295755,0.1770997988758977
1700844112.939005,2.9534915128483643,3.343941115108697,11.149308461904615,0.00763223223207526,0.013543167900756733,0.1922745006857808
1700844112.9490137,0.3953041294138024,-2.155896347789188,8.959540953870334,-0.007775610592468169,0.06434855135491045,0.1514322953997548
1700844112.9589896,-3.4563788620093683,3.7985163814352734,11.444072887076228,-0.024341232629212832,0.009499900698136785,0.1444141465006764
1700844112.9690957,-2.637754497267191,-3.9411137032425163,8.574667206094182,0.030148601086860693,-0.034526650831534327,0.1497280644951756
1700844112.9789965,-0.9896517454448498,-0.24789448591866745,8.61085784401461,0.01626526122745099,-0.03359174411543439,0.1473790603457387
1700844112.9890058,4.785459584943809,6.620987602870966,11.849147451201265,-0.005120839458553561,-0.009986136604604378,0.1639671521960194
1700844112.9992962,4.7238822476685565,1.479225179096432,10.251749591474697,-0.04674327131586608,0.09158429864261498,0.119942327099889
1700844113.00907,-5.087261931238474,-2.0444878056316376,9.480775031087523,-0.02943901255330269,0.045127977783435747,0.1086299168644841
1700844113.0190842,-3.753285051516507,-1.8487577324890345,8.723634750180047,0.013036278270734085,-0.018482753818888312,0.1284306990681584
1700844113.0290196,-0.6356894390054202,0.8939003881486717,9.169817419394523,0.0090365093709368,-0.030010606343394627,0.1467803614912922
1700844113.0390608,2.5520386595514886,5.000615872919015,11.740183430183107,-0.04109196909945637,-0.012143942549845348,0.1628665524302418
1700844113.0489886,2.0085880417281397,0.28874984466985487,10.02539976956335,-0.049843572265447354,0.03500719651623873,0.1421955424128468
1700844113.0590396,-2.0300557100203336,-2.1963654008697966,10.14723341567997,-0.014613873332230793,0.009319430607661596,0.1433236199198659
1700844113.06903,-1.5789193024828878,-0.6960813024599452,8.632408490566622,0.0033825576993448876,-0.010398342557312226,0.1562081026612218
1700844113.0790942,-1.4698252632086142,0.938330808586492,8.661689775663545,-0.004525118716778601,-0.03289581447398126,0.1758372830925877
1700844113.0891027,0.7642286004573059,-0.2633463040227304,9.072213931777064,0.005418389231604607,-0.03284717677488519,0.1837696182309086
1700844113.0992172,4.222885418767807,4.409398127160952,11.415568144987935,-0.02360840497881488,0.011711690380674544,0.1965691792546208
1700844113.1092265,2.821935132023374,2.7677076242846175,11.242540317445764,-0.05507419464978832,0.06940884528415787,0.1651066439925129
1700844113.1190133,-3.3682614882274025,-2.4308869990817974,9.89912000970432,-0.030507585128713224,0.04690604483147373,0.1309645670233662
1700844113.1291509,-4.514236803409489,-2.156757929995565,8.036435003805556,0.00777195115907709,-0.01069304607575548,0.1328471499262745
1700844113.1389866,-3.230284433234945,-0.848719711092867,7.703877375023257,0.018525806731943942,-0.05684444136641028,0.1549267369090016
1700844113.1490529,2.2649211386947448,4.332131117356677,10.828531660318385,-0.014507797545651556,-0.052804742267992505,0.1770411926089223
1700844113.159091,6.944685530681387,5.20723501849624,12.062162256995324,-0.06913539304106234,0.054249953546498475,0.1572330045281346
1700844113.169176,-1.7610777110465985,-1.6266978452203407,11.452954266582395,-0.058200380660503176,0.06262440535218519,0.1280826824484761
1700844113.1791036,-5.914910602710786,-5.331709519424394,8.768237144881725,0.0059116793597289875,-0.009417294615796046,0.1061356412945683
1700844113.1890533,-3.2651988740895064,-0.2887988508399726,7.0907528465033876,0.011857278269731025,-0.054066752230245964,0.1318766820012028
1700844113.1991322,0.5315532054896779,3.0921059302392258,9.489892062521154,-0.017268470353706124,-0.06303319348453171,0.1637584316311772
1700844113.209015,4.210837939915384,4.347334134082516,12.425425662759286,-0.07101291355327474,-0.011626781222298637,0.1643948453246052
1700844113.2190216,0.9788009028513521,-3.9521186863329976,9.624536088544124,-0.030879541791188115,0.026348224910059545,0.1538924473105366
1700844113.229044,-3.029709720732896,-3.74680069739003,10.01365603730652,0.015230592788509745,-0.012612036006356233,0.1479238766013081
1700844113.2394912,-0.98737746283126,1.7307269817108821,9.067783759227607,0.009118192963939942,-0.02758547380730024,0.1568321632920201
1700844113.2490468,-0.7490213075763824,3.419293005746996,10.266071091173231,-0.034729132629718606,-0.0386899690094229,0.1765600192128117
1700844113.2592716,-1.7159506047835584,-2.0434030377991133,9.663186954162649,-0.02672141293742098,-0.058887581414169964,0.176723931985944
1700844113.2691216,-0.5185927998346535,-2.6468272101108408,8.766697717744687,0.013787325465366923,-0.06999933687811191,0.1895909207640584
1700844113.2790973,2.103533099331854,0.3955960240747695,9.964869711525314,0.026671430219467596,-0.05776435411344327,0.2156836437760289
1700844113.289039,5.607379112407675,5.166564855807787,11.786510761084612,-0.022185597852032248,0.011178393704284738,0.1938500451622899
1700844113.2990837,0.9840853746133742,1.818011651800466,9.528278920646173,-0.03247735951290946,0.05292167190609071,0.1624291884480412
1700844113.309047,-4.868314398722823,-2.0223629185783167,9.941188348704078,-0.019531881813106992,-0.0049309950261167855,0.1360885548172886
1700844113.319014,-2.568605384256474,-2.0252330449887315,8.230570801097105,0.011200067525940306,-0.042603190084908225,0.134941210108846
1700844113.331783,0.3382614574748024,-1.9400655467298338,7.871187577719549,0.05846200870614139,-0.05205418203768907,0.1528316932497914
1700844113.3390164,4.005035524712669,2.9458311262976444,9.512479955065162,0.0393736632969775,-0.0201805110608343,0.1608648943482335
1700844113.349017,6.951984946142204,5.317995745919215,11.510920908069902,0.0046752287933694075,0.06487765757310084,0.1584207164822514
1700844113.3590815,-0.6413306493446843,1.3384370708820519,10.422991999200816,-0.02432627304211732,0.09066652855497506,0.1278010952053959
1700844113.3691015,-6.692166045213597,-3.536655211461387,9.788379220727041,0.029113882069321754,-0.001154873393039062,0.108262856560796
1700844113.3791268,-2.9839244460427987,-0.755879095281201,8.314680633947598,0.03919872771948145,-0.046978227099638815,0.1182182552991803
1700844113.3890522,1.0126067686362097,4.044726251389249,9.273371758530145,0.004653373200109631,-0.04488217242369309,0.1468775021611149
1700844113.399089,5.02018881869586,3.0947157168292394,12.069926217492911,-0.03355832614669861,0.007676770390419384,0.1565922247944768
1700844113.4090068,2.432245830891554,0.38582832517613624,10.307190290665153,-0.02467411446354464,0.06395172584352246,0.1487913029967244
1700844113.4190505,-2.126333068871055,-1.3495954547726903,11.218348833486338,-0.01098776315882294,0.03418488218558409,0.131363664823621
1700844113.4291418,-2.1723467303482953,-0.4155473501459757,7.33231448433268,0.006385386161846606,0.01925469679005154,0.1331252950011189
1700844113.4390626,-3.497882225215606,0.7328854283428142,8.92410386680714,-0.01576737292983748,-0.03288017573531684,0.1653913902817662
1700844113.4491088,-0.8730627556605942,-1.828492482031704,8.433169243496788,0.01296832099882201,-0.05653983167541082,0.193428729730695
1700844113.4591472,5.1209587607818445,1.868075252085759,11.276107417999652,0.013802937752152957,-0.012639139419043263,0.2225035625277455
1700844113.4691498,5.777572446134998,2.8107556435353644,10.721030601406966,-0.012812886868264756,0.08951862580246525,0.1892754631815846
1700844113.4791062,-1.8506904027809288,1.2549861624069738,11.58425514002908,-0.027948874780486094,0.08259364350192694,0.1472626524744923
1700844113.489173,-4.189135632852036,-1.5055818785524873,9.110598843121661,-0.005457183880100453,0.03566508880750762,0.1269749897299702
1700844113.4990635,-4.073960930713499,-0.19434753295262905,8.376225917184211,-0.01166990166195456,-0.012619883001409172,0.1281588124810155
1700844113.509162,0.11781806847521657,-0.38898067108239803,8.724873727016593,-0.000776832058280999,-0.025009078118341372,0.1457389342366154
1700844113.5191407,3.6626343288875725,1.913827425661348,9.834207741582757,-0.013068682358541006,0.011714951900753928,0.1678541647969182
1700844113.5290613,2.4642837182457655,1.531127392089642,11.21049550944899,-0.019276548800099706,0.05903797422934042,0.1556832241593297
1700844113.539126,-1.669092851058013,-1.7729042269114237,10.881622596232226,-0.002430032195910191,0.04702908744524394,0.1366647827206547
1700844113.549092,-2.3166707252739633,-2.3595566359467948,7.963751086396812,0.04369605663031878,0.02105749543766542,0.1266975152073796
1700844113.5590382,-2.4201276714664197,-0.26963760154137156,7.658493135661035,0.04233173244223155,-0.011251745119076173,0.1399728554068501
1700844113.569101,-0.30166733182487493,-1.3020350462252803,7.976215223774026,0.06560781359342016,-0.02172135934935106,0.1632026034174855
1700844113.5790942,3.204253217820888,1.391393217476121,10.214263575860503,0.05980865117181278,0.008895681676643324,0.1942303227959569
1700844113.589473,2.36982766781348,5.750464057754826,12.393761789155871,0.004951546746873284,0.05394735109680505,0.1961168694077427
1700844113.5990443,-1.8424453761302682,1.4221076299238027,12.981391580602851,-0.02012321728735691,0.036353509614061384,0.1722317534266408
1700844113.6090522,-2.5936269051811167,-3.2202299461549178,9.334723537977185,0.029815504657781225,0.006033672495380687,0.1473864960251744
1700844113.6190753,-1.2241349776527708,1.7306584961005442,7.384625080104144,0.02324088701488321,-0.005920278115476973,0.1534531312762196
1700844113.629039,-2.3242566153132924,0.4828004683732089,8.243076384610358,0.011497698448548558,-0.033748192882094165,0.1745931255398686
1700844113.6390607,-0.7299426614710289,-2.2826520000807724,9.608827669673449,0.04246500446262472,-0.05889280694331233,0.2012468027649815
1700844113.649047,2.1781817823389833,1.8453475727306408,10.941665734661155,0.0471829469953168,-0.03931606235450526,0.2276828038273747
1700844113.6590528,2.124970711638958,4.333930206234286,12.417557539123832,-0.00314894496201037,-0.004578943982776333,0.21124668892011
1700844113.6690862,-1.084779799780183,1.1906929130842554,11.039025442224728,-0.024803693772366114,-0.005987791916633913,0.1870026337681706
1700844113.67909,-2.4924952833139344,-3.1259607186628577,8.791646056089961,0.017899774847615593,-0.04188715288481484,0.1816764223156865
1700844113.6890626,-1.1282622677459595,-2.008013411958797,7.403989424634688,0.04180162521550564,-0.04834877311987701,0.1786911534844334
1700844113.6990733,1.1307448440848984,0.09574569623405858,8.716978592239224,0.06414117634425248,-0.044971149588437453,0.1874921816168721
1700844113.7091162,2.0402488785202992,4.634177732099619,11.42444338553682,0.004387789897915069,-0.02034981403492816,0.1954985308228428
1700844113.7191343,3.8234161654183576,-0.7763222535912929,9.742549958146128,0.040119002995781756,0.035129196353415854,0.1905451911269124
1700844113.7290485,-3.729318129992431,3.2927613525379456,11.287044972234511,-0.011330288965500071,0.0062073429814724,0.1774796145735676
1700844113.7390528,-2.0624910108349845,-0.5602618433235464,9.63981415862157,0.017753781437445805,-0.027416596521276912,0.1822445886908467
1700844113.7490396,-1.3869930526656944,-1.9918792139654165,8.669881215032138,0.026321277788746003,-0.04256409774122007,0.1912717270432408
1700844113.7590408,-1.0336186554843774,-0.7957331943874945,8.065270156217855,0.06469101350296033,-0.050289596076916,0.2030314701376851
1700844113.7690897,1.0429729875928473,2.6606889440666754,11.217342680561602,0.028597522106831946,-0.047030491251455,0.2192018824397023
