time,ax,ay,az,wx,wy,wz
1700843960.013891,-0.19316360971539095,-0.19376846501799733,9.854932924564729,3.092820464893352e-05,-0.0012836864427470513,-0.001207897369713
1700843960.0238457,0.06046685851820916,0.0034704508926860383,9.780572190594459,-0.0011771786422210054,0.0005882719569417413,0.0004107411812951
1700843960.0338054,-0.05259110950671472,-0.1502002081021726,9.800488625857929,-0.00011101082788265334,0.0007510667125281446,-4.522780651269751e-05
1700843960.0438788,-0.1648591916310995,-0.09417380418057036,9.876283112755727,-0.0012479567376452764,-0.000740566579733169,-0.0024674254702035
1700843960.053887,0.1867356947150828,-0.016650803299030473,9.704381047677659,-0.0013299240186643115,0.003496598702718309,0.0010060526663805
1700843960.0638251,-0.2921682159177317,-0.1851903342779896,9.912244217683423,-0.0002924299037150701,-0.0007818856044319606,-0.0007481927051772
1700843960.073855,-0.15237727338307186,-0.08475498790952805,9.862103610542173,5.477481812785061e-05,-0.002971619633762364,-0.0001808318658363
1700843960.0840526,0.005807073672615094,-0.15311694950713864,9.766254365184453,0.0014390954108285518,-0.0016267848165417338,-2.660921305461125e-05
1700843960.0938027,-0.06161546061759256,-0.09789472312327482,9.806413062679512,8.830812606310865e-05,-0.0006869038359598765,-0.0030504289781306
1700843960.103803,-0.017520036948087774,0.059933742510719076,9.845941303385018,-0.002025810771248707,-0.0003777213524387157,-0.0010093483607847
1700843960.1138935,-0.15784215836351592,-0.07582600965543514,9.875603170910118,-0.0024642722800329617,-0.0023658815428933,-0.0013878273777295
1700843960.1238365,0.08192825849038744,-0.2073243872007734,9.699263091710895,0.0009544280286523505,8.908231051312895e-05,0.0001581582008297
1700843960.13428,-0.07047183131198041,-0.11080063961808077,9.821674198017604,0.0006292151118953059,0.0002068057432373269,-0.0009180589578677
1700843960.1438112,-0.05199547480829613,-0.02040639354388983,9.832283593957294,0.0005498563850734615,-0.0005051001209389871,0.001397946977559
1700843960.1538348,0.02977547982282616,0.07509917657112658,9.82751578321807,-0.002163633915112288,0.0007976255317942346,0.0027677326696361
1700843960.163864,-0.26164233337388076,-0.17043634365425006,9.903875931819881,-0.0019926513286858943,-0.0026784297027249576,-0.0002009543124218
1700843960.173992,0.07844625484856174,-0.19949141218961666,9.718794843919579,0.0005301175009893523,0.00011888420544670847,3.411118526899917e-05
1700843960.1865735,-0.07129104496410925,-0.09945507362005304,9.823053191194838,0.0013176364761358528,-0.0005166488117973146,0.0006212278938987
1700843960.1941514,-0.2240216429871492,-0.10186405845347127,9.902172206446922,0.0010449553538882895,-0.0028416049568892434,-0.0003860927419368
1700843960.203818,0.028223147566849127,-0.022887860467203317,9.802044824391867,-2.9044396594423008e-05,-0.0012903990947943575,0.000255767413219
1700843960.2138429,-0.10886056918029474,-0.08009920658938663,9.839447089813914,-0.0010658010781993052,-0.001604831597519813,-0.0017041079001132
1700843960.2239077,-0.029870513685302396,-0.22584798408346402,9.751423225111045,0.0023312965445271795,-0.0012486771616226806,-0.0011453145881746
1700843960.2338903,-0.03151497121305425,-0.0014023508791774512,9.833308213474814,0.0011462859607047036,-0.0012747440377934626,0.0004759391393604
1700843960.2438242,-0.07874077035566991,-0.13277286620122683,9.810578473250438,0.0012859793428624032,-0.0010560768973067597,-0.001283524488062
1700843960.2538834,-0.11037331404892291,-0.11439443488669661,9.84518077833673,0.002001235009529904,-0.0024333246888563723,-0.0008685127133135
1700843960.2638483,0.15814180846309014,0.08179079872185094,9.764302669806161,-0.00045296848304166373,0.0013385433866903696,0.0014922088710959
1700843960.2738702,-0.16303124521569165,-0.1556094664617325,9.84633043467603,0.0006023904425336031,-0.0006638001422179072,0.0009997048299196
1700843960.283895,0.033963188285686036,-0.13009188361575866,9.753875321136997,0.0016897872276301447,0.0010796507101667413,0.0013763203286002
1700843960.2952397,-0.2132283588208778,-0.028109794580927744,9.929320455122731,-0.0008940590904838558,-0.0019970886251152085,-0.0006017901934315
1700843960.3038445,0.07312847228800849,-0.23248056685263493,9.693936696166794,0.002461314073168269,-0.00011096643647038789,0.0007229131996068
1700843960.31384,0.11845642278078013,-0.03540747387513103,9.747488601808652,0.0017508703630667662,0.0032671373773999284,0.0016307679005335
1700843960.323844,-0.20411017358392147,-0.06595197604440456,9.894314127235575,-0.00010430843249630204,0.0011425933436993308,-0.0007675597909469
1700843960.3338833,-0.01525294522027817,0.09435735182896846,9.868392437830032,-0.0031668664652107314,0.0012357149132514217,0.0004286181291176
1700843960.3441093,0.014492365966658842,-0.19026972446139861,9.749238300124766,-0.000363216844426935,0.0022288931284640363,0.0017361823236937
1700843960.353844,-0.13928321195761773,-0.07278270755478411,9.865902200534538,-0.0014834075994294717,0.0011679197955203468,0.0004576801223633
1700843960.3638823,-0.1459277274059561,-0.15150183045091528,9.840555161463781,0.00036024209643017714,-0.0011045014629367386,0.0014173167408812
1700843960.3738594,-0.003460263597167868,-0.11348153304277452,9.779202879599213,3.3910530931389435e-05,0.00029620496069458166,0.0002125535509917
1700843960.3839014,-0.11400747103295812,-0.06550036017976449,9.862331784199558,-0.0005531976493543076,-0.000998334161062451,2.0695308958680465e-05
1700843960.3941202,-0.04892943064710587,-0.1806336433052324,9.780394095338059,0.00044853393918665074,-1.4497934703637735e-05,-0.0021172505104546
1700843960.4039142,-0.05970277735716919,0.10921072464399256,9.887169766267379,-0.003022320376540977,-0.00040712666535433684,-0.0011348770232502
1700843960.413879,-0.0654234612960502,-0.253870749829522,9.778506092583335,0.0003129206549700187,-0.0006839139272964517,-0.0010659681167085
1700843960.4238608,0.05879058725652204,-0.07800446651842369,9.762628096973945,0.0009819871129204607,0.0011537725628388421,0.0007232941978513
1700843960.4338384,-0.11242540836821648,-0.10400995259257108,9.867236503841793,0.0006161778679097664,0.00014420616329690892,-0.0012216890928898
1700843960.4438906,0.07472819203163494,-0.07853650646464949,9.752191366057838,0.0012840842128309438,0.0024993514799188606,8.66580638471405e-05
1700843960.4538786,-0.24038241060432733,-0.1262160830156664,9.90443922411923,0.000483181302971217,-0.00047903327749571273,-0.0025702369631831
1700843960.4638991,-0.09887068683434314,-0.04888610976981329,9.845406002579315,-0.00037623261378353913,-0.0014241281734696377,-0.0020673225400601
1700843960.473899,0.05093809768966576,-0.20747108879751527,9.71185481894916,0.0025063961016013395,0.000692944926726953,-0.0013867145636682
1700843960.4839647,-0.04769710294494442,0.042872224583674325,9.869181942078598,0.0011194531977965565,-0.00014821428546964204,0.0014869792620088
1700843960.4938512,-0.13693846969272852,0.019054250113956894,9.902118945952207,-0.0020142508608783395,-0.0011618681831722163,0.000162264605788
1700843960.5041356,-0.054338866501321255,-0.0872078188187475,9.813665598679705,-0.002346176564017717,-0.0007196777167183176,-0.0006025395588581
1700843960.5138946,-0.04100195006750253,-0.21852093083222585,9.761240693536543,0.0013932673633785286,-0.0009279184481645122,0.0013770809281054
1700843960.5238843,-0.045962981153065824,-0.010545804781505535,9.842224763018049,-0.0004947085036644435,-0.0006116481161748895,0.0007311172783743
1700843960.5338707,-0.042310956790581694,-0.11895496911794433,9.79758568661425,-0.0005371857015176658,-0.0001575314415946493,-8.285812797067957e-05
1700843960.5441706,-0.10873905727511786,-0.16365810911962805,9.814971959132158,-0.0005818793147311127,-0.00020297369899182515,-0.0029904504073415
1700843960.554187,-0.03144893108870508,-0.09665283529809239,9.806221634990736,0.0020608432716546464,-0.0012520043598044366,0.00160246104937
1700843960.5641956,-0.04473400471236945,-0.11769088806642088,9.803114642105774,-0.0007409434010047038,0.001281924962074867,-0.0049756573745612
1700843960.5739872,-0.17481276851989103,0.06257938632206553,9.924589673739732,-0.0010672775968593048,-0.0026490150325183645,-0.0006189308361713
1700843960.5839288,0.01486700951970688,-0.1347870339566886,9.763370168238998,0.0007115457052653721,-0.0015880382783637704,0.0010898576700496
1700843960.5973172,-0.08500009647401527,-0.08735184374507257,9.835861293266415,-0.0001482522838220512,-0.001692733135320707,-0.0006595338228721
1700843960.603902,0.03443645664685989,-0.11176287978783446,9.763158991170393,0.0005286261448165673,-0.0006421888229911186,-0.0001283115008477
1700843960.6138952,-0.0006445124901866944,0.04630475300455239,9.845434275066552,-0.001687546935340516,-0.00012437929410966136,0.000824240921102
1700843960.6238992,0.05408917009807704,-0.25139967776280203,9.717567465786622,0.0009119378189435067,0.002595083468146425,-0.0009095110464472
1700843960.633917,-0.10957316027473506,-0.03607713997801727,9.872792368161726,0.00036880518145197843,0.0009205677630210064,0.0002609862684407
1700843960.6439552,-0.09201105173023241,-0.03495385486326447,9.85647105786225,-0.0008396848285732957,0.00011514957590401468,0.0001764216402448
1700843960.65386,-0.07171180572232212,-0.23412057839402484,9.780895103480338,0.0015717092982059275,5.704284308254356e-05,-0.0012242923723165
1700843960.66399,-0.12602682765061707,-0.011540535112630031,9.883466932051785,7.600634538400154e-05,-0.0015317956583179308,-0.0010667096823085
1700843960.673932,0.052754752599114475,0.03175378386798913,9.805618390584463,-0.0013843152730623621,4.473490534760056e-05,0.0010213134345035
1700843960.6838737,-0.21930080672629912,-0.06881597424394705,9.892023592452103,-0.0033233234407716327,-0.0023096434058648943,-0.0011300315847252
1700843960.6939983,0.02743319852498839,-0.21361528733266963,9.735344194281227,-0.00032259395093316195,-0.0006418219870021753,-0.0007947643054281
1700843960.7119875,-0.02853682328540641,-0.0655628065900681,9.822128971570795,-0.000739835930204565,-1.6729277409569266e-05,-0.0002359827514369
1700843960.7138667,0.012103713909220113,-0.5558860073128172,9.624666882083508,0.0011824122149890711,0.00020978709418842387,-8.991615610240297e-05
1700843960.724474,-0.06866927607706552,-0.11323714479212475,9.818639473297706,0.0013448327282713053,8.617658116603625e-06,-0.0009866210631657
1700843960.733858,-0.050902118679463274,-0.07927233330168058,9.838645800247049,0.0006415022072182003,0.00025747007314751597,-0.0021060611353818
1700843960.7438695,-0.15073432827043193,0.031660290528983254,9.906530390801208,-0.000972299107533261,-0.0021449805001713396,-0.0006531907012317
1700843960.7538548,0.03325153607513504,-0.05498062181200976,9.786358080100493,3.912358301418554e-05,-0.0013555958160466322,0.0023519927170495
1700843960.764132,-0.0403190138044321,-0.18162872988057457,9.783822664108849,0.0008929634984520758,-0.0003367220261638602,0.0002300640743128
1700843960.7738907,-0.1320583992682437,-0.07984243814724061,9.873842978888133,-0.00044144078111464587,-0.0014617590172093977,-0.0018102777422968
1700843960.7839158,0.05352206559062412,-0.08635919720986776,9.76129827417835,-0.00025480372145150304,0.0006888488607020707,-0.0012991708237309
1700843960.793944,-0.07108244397870483,-0.08994285092318136,9.819485270972386,0.0004638045810475541,-5.0242287426129926e-05,1.3406505245129577e-06
1700843960.8039672,-0.11992455397563864,0.004804197915791331,9.892849361292058,-0.0010311483098587562,-0.001912518991040764,0.0010060422472092
1700843960.8139374,0.09472195152127919,-0.13286337262546177,9.725314396601918,-0.00030548846877160614,0.0014048453306208634,0.0007810490904744
1700843960.8240297,-0.09137382371998279,-0.24913253515215417,9.775739638031627,0.0019777627024837137,0.001233502238372264,-0.0008603014750037
1700843960.833956,-0.17526551072687832,0.004272967069139574,9.90552735802755,-0.0008847360018517203,-0.0005371335080837155,-0.0023467127931867
1700843960.8439057,0.004283226312233212,-0.07119875731129269,9.792032354430976,0.0004593319383963778,-0.0003262854955044053,0.0006741218647589
1700843960.8538954,-0.06408037963731805,-0.04107136883665432,9.843977564888569,-0.0006966256801392763,-0.0004212961548228779,0.0002159147232673
1700843960.8639295,-0.031052584705549335,-0.003673769821330969,9.843898197895797,-0.0024139829325295343,-0.00035684643773232745,0.00070987025978
1700843960.8740222,-0.08407274585390014,-0.2174957160476732,9.781676445065093,-5.6616871656736544e-05,-0.0006649177318126939,0.0001764175657085
1700843960.8839118,-0.02694376121388189,0.0024691139780029184,9.834523739621504,-0.0008672317421783007,-0.0006444274683737685,0.0020193227799977
1700843960.8940194,-0.04296131953561903,-0.2887819610082658,9.756394737957764,0.0017579664326117224,0.0004254778074806807,-0.0006245210999254
1700843960.9039392,-0.13177202621095557,0.08990088760359248,9.908698055899002,-0.000829980076092514,-0.0016260436405460836,0.0012500478886436
1700843960.9139364,-0.056011988640482575,-0.14009272484440513,9.816218683496208,-0.0004481375457516656,-0.0011592600785350988,-0.0006777898408104
1700843960.9244514,0.06498692666795654,-0.12470953172573523,9.75485432295376,3.984888715913383e-05,0.0015918621064153048,-0.0010417552431677
1700843960.9338963,-0.06964817469812158,-0.1208908232788456,9.813246631236161,0.0010524001610388598,0.0010889419882831597,-0.0006457722512636
1700843960.9446614,-0.09150622107557152,-0.09036674777058061,9.843886602448551,0.0009145847896458927,0.00016879561734625727,-0.0008223162032295
1700843960.953872,-0.03545392402030101,-0.03764304455305176,9.82534652450066,-0.0005405259177475244,0.0007194008380648745,-0.0013323222985122
1700843960.9639635,-0.11447135323269282,-0.16714718768615894,9.808086000207718,0.0009030090841277487,-0.0003333830916615848,-0.0013423951342333
1700843960.9741268,-0.00577530996050791,0.06219168865623005,9.861170909095993,-0.0009875712516606908,-0.00011730637001360663,0.0009043425787608
1700843960.9839168,-0.11614476261951837,-0.185692737763773,9.826272976411845,-0.00015832056713225141,-0.0005758862993191686,-0.0014738863566522
1700843960.9939046,-0.0010410767080306143,0.04581857817119917,9.819702935280471,-0.00252686750049731,0.00030364222677906055,4.49312909408818e-05
1700843961.0039294,-0.13722966806644823,-0.30950716327230104,9.787055772570106,0.0011604475120852939,-0.0007833936930834843,-0.0015439199516181
1700843961.013911,-0.051928890294568104,-0.01313490251009772,9.845446546042087,0.0010952452648117208,-0.001790698538491649,0.0015633487608651
1700843961.023888,0.04191258980639214,-0.03788448994161142,9.779277654153562,-0.001195825784648699,0.0012565913153127276,-0.0011918673291434
1700843961.033938,-0.13250949196666986,-0.16347558391012657,9.834841496799159,0.0008035559619306917,-0.0006924820736066391,-0.0006196744972471
1700843961.0440855,-0.10926773133897598,-0.015057537651300416,9.878173194351122,-0.00018326906051098244,-0.0022366167060460834,0.000582107863775
1700843961.0539536,-0.02069006590347186,-0.0697554132315176,9.804098016587485,0.0002838834177322521,-0.001935611399117875,0.0016084208153556
1700843961.0639715,-0.1212676624701499,-0.09680995331065892,9.850680319573284,-0.00044888217836525323,-0.002602811875607631,-0.0005232044960935
1700843961.0739114,0.10782468452182799,-0.06768188144831418,9.736040292778164,-0.0004269285577413881,0.0004828370564799367,0.0005526772627858
1700843961.0839386,-0.17149442235109305,-0.11350996050981846,9.87512123580661,-0.0005457426178740445,-0.0016446749184483311,-0.000643890630417
1700843961.0939667,0.08867148554468308,-0.1058783027949807,9.733155009246955,0.0005658700311048043,0.0009350936584853312,0.0009255757439318
1700843961.1039214,-0.024911377266180902,-0.10258187762097322,9.794115947605853,0.0009484635929782873,0.0016294906480125468,0.0011658594129043
1700843961.113906,-0.1208437763022762,-0.029595088443981572,9.878987131717238,-0.0012945418937388422,0.000814384193770511,-0.0007604950107265
1700843961.1239698,-0.078102537318841,-0.022910033443281817,9.849306572560387,-0.0010754861745277727,-0.000756194238738098,0.0022402300499747
1700843961.134013,-0.1449046772852454,-0.17877310016161926,9.835181619073861,0.00036323553265321163,-0.0025487905665306718,0.0015912837814907
1700843961.1439128,0.11391509893049329,-0.1312066999786152,9.71112204358504,0.0003356477315294113,0.0015710005671807257,-0.0001875484478291
1700843961.1539352,-0.18039963039272755,-0.04752340535634861,9.927030614962858,-0.0009208876194102202,-0.0011719354400034137,-0.0012343471636627
1700843961.163966,0.015064732915960381,-0.18438294740267258,9.741215633797802,0.0004783349042588678,0.0008699062010844827,-0.0021269204327468
1700843961.1740954,-0.09676257281998256,-0.023934812374075277,9.859307670052354,-6.92815520153756e-05,-0.0004663621208173613,-0.000550758605786
1700843961.1839716,-0.042841397785409574,-0.08589830895634733,9.798744827218753,0.0005245269823655084,-0.00037732552488288176,0.0007698676025397
1700843961.1939404,-0.12874184711026593,-0.033635343797190576,9.88089266020965,-0.0009782477111335269,-0.0018328023530974947,0.0002453384484765
1700843961.2039163,-0.029711087723940377,-0.1569045423749568,9.77904774228502,0.00015051468453249018,-0.0010057768789064107,2.369000580118699e-05
1700843961.213905,-0.07319835684004072,0.02136071900198141,9.865866868603918,-0.0026877885282808427,-0.0009640888078948996,-0.0009415514533971
1700843961.2239273,-0.07312752375311991,-0.2526358242629481,9.775937603923044,0.0006213931690500959,-0.0012199883780766245,-0.0014101760927219
1700843961.2340083,-0.015570734711848652,0.0007226442423828206,9.82312156841566,-0.0008962948528593394,-0.0006567205378190856,-0.000649475422651
1700843961.2439034,0.0010440712992877041,-0.1505551780661469,9.764274687222228,0.0013485625181702387,-0.0001515669044373997,0.0010775696253772
1700843961.2539165,-0.13722643878574384,-0.1296994843362458,9.845654819002492,0.0011898729781313108,-0.0011268444839694775,-0.000994054763541
1700843961.2640245,0.004385413333484686,0.10359859873692406,9.850761133259176,-0.0022578884433177137,-0.00024508521909149064,0.0005213669472509
1700843961.2739472,-0.10429659906144888,-0.18311693796048076,9.820207713292685,-3.277045627987593e-05,-0.0016420687862326296,0.0013115111040319
1700843961.2838902,-0.0005493768539241832,-0.13014831881638897,9.770452587302382,8.494488371051589e-05,-8.228300122235587e-05,0.0001112281869068
1700843961.2940133,0.05120898915932362,-0.07061085198883661,9.773565870246202,1.0054155501047064e-05,0.0019558205612068905,0.0007911013497873
1700843961.3039503,-0.15318399843012404,-0.02245899598897243,9.899228889960527,-0.0018697185840333404,0.00016283381806642225,-0.0001845593680259
1700843961.31392,-0.0037139900558790504,-0.13038253939176797,9.778507151049874,-0.000855692695225719,0.0012789344136209006,-0.0001126754097272
1700843961.3240426,-0.054067830362690784,-0.1358706238694615,9.80944362409175,0.0008087615736576982,0.0008050835342481918,0.0010984361986997
1700843961.3339164,-0.039652525351150415,-0.11788900974611612,9.800865982595003,0.0011719794869574655,0.0011947500961307109,0.0007262716361224
1700843961.343897,-0.12977307475973202,-0.17805194065420016,9.826253753419401,0.0019010291810544295,0.0002652758031149657,-0.0008677936158706
1700843961.3540697,-0.09246461365259484,-0.13054484654011386,9.837704302011769,0.0026870651973878125,-0.0005229626881648595,-0.0013479508226369
1700843961.3639295,0.042755802037934054,0.10905796740016052,9.847387614473726,-0.0007588306717545619,0.0009742045272538046,-0.0001819581258673
1700843961.3741724,-0.12167212475589634,-0.12210708040392061,9.845866843614592,-2.3457290846154096e-05,-0.0005006326909039903,-0.0002348504960168
1700843961.383926,0.06205225265730608,-0.06105091431475215,9.766752506904368,0.0008150889679318727,0.0010725663793883422,0.0023452804424236
1700843961.3939958,-0.14457884921445188,-0.23013412482471318,9.813675148746421,0.0009768045867790164,0.0010028819938533125,-0.0027404922758792
1700843961.403913,0.052499102035789176,0.01776342495256355,9.806013490110653,0.0015743167465088017,0.0014253592060990683,0.0022901192540671
1700843961.4139218,-0.1585038201843522,0.010410004281375259,9.903964716768716,-0.0011328622975325545,-0.00020150169234623946,0.0012679293402838
1700843961.423926,-0.10462598387062011,-0.2276191439940147,9.801262034025735,0.00041090778068063696,-0.0005084615164080974,-0.0012831521918628
1700843961.4342337,0.05767036429324188,-0.095028018948393,9.76361902089292,0.000819210977203611,0.0017837119682812678,-0.0007239835569266
1700843961.4439168,-0.0623204864595915,0.06747976266337855,9.88586726381686,-0.00024178273264745007,0.00017179105826551329,0.0035150149604673
1700843961.453984,-0.010055971638560582,-0.23932058744001822,9.740848689814724,0.002227010404576992,0.0016082393969534417,0.0021497049136455
1700843961.463981,-0.12820277307084357,-0.012263198648112875,9.881773541011134,-0.0011980456985148102,0.0012528583357122734,-0.0011289216810469
1700843961.4740324,-0.0962252680849672,-0.07273906384257596,9.856192386833023,-0.0007115319472907531,3.319923375354616e-05,0.0001291174674774
1700843961.483987,-0.07871108712979014,-0.09301038679208928,9.830759990385221,-0.000993156725931493,-5.770115798296295e-05,-0.0009676189394299
1700843961.4941423,0.06838282922416059,-0.04568172703051578,9.767190400599015,-2.8679235068887032e-05,0.001425707690830494,0.0025274591287966
1700843961.5039563,-0.15539570142329642,-0.1694417926521267,9.842943415567346,-0.0007938403445763955,0.000855736710401377,-0.0018661666428302
1700843961.513916,-0.06589953768454085,-0.15205947526902916,9.807426378750375,0.0013761293587793008,0.00018370580311666756,-0.0005086646880586
1700843961.524037,-0.07549381806089463,-0.14290594543566792,9.80581417983379,0.0023316668523854158,-6.066604824580849e-05,-0.0010033731115613
1700843961.5339715,-0.012226809586501939,0.1633561549780881,9.855697895554465,-0.002695244000168279,0.0010546677547300439,-0.0004963872953881
1700843961.54397,-0.07790936354882289,-0.33062543051434184,9.736793212609866,0.0010985730023055627,0.0014536666574791245,-0.0024119090987001
1700843961.5540605,-0.06554307660053234,0.05219222283486544,9.864853534978565,0.0001870168671384727,-8.936019985567587e-05,0.0013763322029631
1700843961.5640728,-0.2438968662461466,-0.19515879065132172,9.87874865104769,0.0016670863035866616,-0.0035069309565061474,-0.0005123952170465
1700843961.574083,0.16353729885804058,0.05265487264196388,9.748843287430185,0.00021010012589320822,0.00026455175297868106,0.0023098855279754
1700843961.5841887,-0.06792285481468555,-0.0882489303688188,9.828181266230619,-0.0003207348113720453,0.0003502202632779112,0.0011993845808687
1700843961.5940104,-0.1667000247922971,-0.04709245894166867,9.89870730110595,-0.0023096645653880588,-0.0013198336012065638,-0.0007288289954517
1700843961.603924,-0.14019518513857673,-0.15248990398663942,9.833611325764176,-0.000566229183026783,-0.0032238214557985313,0.0005146740994318
1700843961.61423,0.059627839235838864,0.0018205027886948493,9.7848987687313,-0.0017426828873782602,-0.0012114264545743884,0.0022622099612276
1700843961.6239386,-0.11194581620681487,-0.20150509464701127,9.803503526106567,0.00037962382621668794,-0.0021043690947855982,0.001457549119405
1700843961.6341312,-0.09745777136728385,-0.15754049076862256,9.82854685786585,-0.00014640084912388967,-0.001877120622890008,-0.0019347017397735
1700843961.6440084,0.05653046945009756,-0.018081847459589174,9.78666288188442,0.0001311380141088925,-0.000793812568953799,0.001203853706866
1700843961.6539586,-0.0722006156904263,-0.13312912290227735,9.80591696898751,0.0007893978482754301,-0.0008999806061785956,0.0002777478192369
1700843961.6639557,0.009912662761185975,-0.016904129979401675,9.804912477617805,-0.0006079736121706511,0.0005234503893865711,2.853142799766464e-05
1700843961.6739595,-0.07913296296971152,-0.17036193281221362,9.80443695322651,0.0007763497319416048,0.00021722891385078956,-0.000536976195835
1700843961.6839662,-0.04230718199462411,-0.02020931047648402,9.839419172563925,-0.0003874195827479537,5.259136007705776e-06,0.0003328891733331
1700843961.6940365,-0.06641437983433185,-0.07202571533512461,9.836774165632615,-0.002172594702521086,0.0006474876942536519,-0.0018896285211299
1700843961.704091,-0.045034893042120876,-0.11607070051883653,9.809504205722542,-0.00034159146433796974,-2.9381984038142612e-05,0.0005381445706375
1700843961.713985,-0.23183805360631823,-0.10181650477961893,9.90655073374656,-0.0009469541552396444,-0.0030654985597238743,-0.0007847050902996
1700843961.724123,0.1661957223666023,-0.1704078021622445,9.678874372094116,0.0008229238638024371,0.001500611801530149,-0.0005220514023308
1700843961.7339752,-0.12447310121064468,-0.04734456848263481,9.877041610536976,0.0003457138843481016,-0.0003195845818297903,3.932827970901234e-05
1700843961.7439988,-0.08103135241127031,-0.09883425522221902,9.828137973403814,-0.0001221895463897359,-0.00044065077323468456,-0.0011557360877846
1700843961.754048,-0.08310928432367276,-0.10127209953414151,9.828389436619803,0.0005427894904280415,-0.001024409740042955,-0.0007575048831854
1700843961.7639585,-0.026282434608232142,-0.0848742929129604,9.803205103292376,0.0011052979029205605,-0.0007599009364448417,0.0006171148241632
1700843961.7740483,-0.051308568622826976,0.030612478292244567,9.86632166080461,-0.0012021379331393178,-0.0009394678562570574,0.0011561714462372
1700843961.7842305,-0.05713815763997051,-0.0990476362285886,9.810814287807496,-0.001863752437949103,-0.000574400068432069,-0.0003432602272
1700843961.7940836,-0.04599052510446774,-0.16017951385346615,9.779249525677267,-0.0005736842818356051,-1.856470613646823e-05,-0.0008297743508224
1700843961.80402,-0.10672397079825116,-0.23225711096640664,9.802946155356407,0.001661861246988639,-0.000791568385212044,-0.0018952131969486
1700843961.814123,0.004476411022504182,0.03218438022131922,9.830605040358162,-0.000756605720797999,0.0001106857344310714,-0.0012682440457497
1700843961.824016,-0.08345256871388576,-0.1875596490724691,9.803313950815543,0.0006169309202376823,-6.0681425076506286e-05,-0.0024979651672397
1700843961.834077,0.04039170527730161,-0.020873458613371865,9.792766989692794,0.0004116469176606585,0.0011086931741332627,-0.0002437928807553
1700843961.8439574,-0.015315131380149906,-0.08900040292347808,9.799928783548417,0.0009261067000091742,0.0016842539858886168,0.0005292065878534
1700843961.8539996,-0.08186693940863474,0.03259389944283048,9.879041431879198,-0.001662217261058594,0.0010055013206322818,0.00081641321307
1700843961.8641558,-0.08829642592728057,-0.1170513910438211,9.818113758740273,-0.0008545686329700427,0.0002865201078883066,0.0012604743359047
1700843961.874073,-0.13442441669304328,-0.11595965812175808,9.853521564730876,-0.0015526979642724811,-0.0007316079488082461,-0.0010346706723426
1700843961.8840373,-0.0722089501244644,-0.15278406115825743,9.81691696411355,-0.00042056418467565477,-0.0011808938720754855,-0.0016631327336285
1700843961.8944657,0.047073059875458574,0.01598824022208774,9.790737825449186,-0.0023238389184799956,0.000995054782285468,-0.00054703599304
1700843961.9040506,-0.041584566582925246,-0.2537821457154046,9.755467276980076,0.0015810188377312075,0.0008758663320038346,0.0006532507366869
1700843961.9140365,-0.054660224926762084,-0.00423029571246203,9.848682095783563,-0.0008609032915228825,0.001352697941671575,-0.0004773727152128
1700843961.924096,-0.1204446587017793,-0.1378892555435874,9.831127288729691,0.0005006805242331046,-0.00022309274903865663,0.00044054210488
1700843961.9340558,-0.08744819797495688,-0.14369110995774032,9.817058121457485,0.0009384112701370022,-0.00044140337785848565,-0.0006472430424396
1700843961.9439516,0.010035137112275229,-0.03180545249097646,9.80081635464271,0.0009380431233753058,0.0003200460745880847,0.0014027773402999
1700843961.954006,-0.07376698454499948,-0.07549262564800904,9.830394847427776,0.0004950910277791888,1.4202290960516301e-05,0.001286182971708
1700843961.9640412,-0.07069332712351754,-0.0905365428066524,9.828876898979496,-0.0002145741442979826,-6.067850927569827e-05,0.0002185194578855
1700843961.973975,-0.006570880362902122,-0.13529884642902124,9.777590271443389,5.1035725089052855e-05,0.0014402395613236497,-0.0016046480042491
1700843961.984169,-0.0036390083693696455,-0.032933342551128245,9.824689701999526,8.755533765397897e-05,0.0016559414170940806,0.0001480967156025
1700843961.9940102,-0.20561482897514186,-0.19249410633594535,9.872506594441692,0.0014513795891334272,-0.0010691049627293999,-0.0012049190001194
1700843962.0039816,0.057631091525113774,-0.10861867896210993,9.7572017074624,0.0024136211907718813,0.0008866700206093786,-0.0005868863546852
1700843962.0252838,-0.08959891602083213,0.06859511300267208,9.8900340501291,-0.0029075710642119316,-0.0017709574092272347,0.0019306746079023
1700843962.026194,0.21443549419762306,-1.8164753351402354,9.075994437069895,0.0010553901007318417,-0.0016480042006115031,0.0031052400125558
1700843962.0339484,0.07225968253393823,-0.09586065481487564,9.738301485630195,-0.00014192494336681279,0.0013616386836164131,0.0006491606298736
1700843962.0440643,-0.1593573859220093,-0.1671325083447045,9.850455488488983,0.001221157366608402,-0.0006377178593000211,-0.0001163848093342
1700843962.0539706,-0.10320417084740821,-0.05955102408540442,9.85993917852911,0.00042804780241918365,-0.001546693949024066,-0.0001808343105581
1700843962.0640676,0.028318467877067717,-0.03731827201662199,9.796115915663812,-0.0020064404092925607,0.0009760363877426454,-0.0025676446267966
1700843962.0740073,-0.06527323282960674,-0.03297594839649161,9.842935879118734,-0.0016108067206776675,-0.00014300367931987653,0.0002997331001465
1700843962.0840323,-0.0328812078302053,-0.2272800631629329,9.761059288551536,0.00017991805882924228,0.0010863380234613495,-0.0017242288915072
1700843962.0939867,-0.00926669579793208,0.07674394391693183,9.856292833390416,-0.0020764655534286115,0.0011694157884878185,0.0004420370467782
1700843962.103993,-0.09536106742177089,-0.1858259792018983,9.803242632116602,-0.0006209922147727105,0.000707481325399688,-0.0006327028851587
1700843962.1140149,-0.0849990700666309,0.0008131352356607598,9.859268827395733,-0.0017467773027828523,-0.0005199986453074527,0.001309648575298
1700843962.1242683,-0.15851105031150434,-0.28117309992970596,9.814060941501268,-7.746567205311085e-05,-0.0013358471391936198,-0.0027993416180465
1700843962.1340835,0.04458389008176367,0.02112879636552195,9.795123802553114,-0.0007208328259203472,-0.00018882797630089438,0.000106752279717
1700843962.144,-0.08213116788844052,-0.13174836111180255,9.811081059608018,-0.00023543127128853236,-0.00042650405099262014,-0.0009180725784604
1700843962.1540596,-0.04138500032316508,-0.15909668228187143,9.788236228105053,0.0007256728703495968,8.238747323973789e-05,-0.0019719658186291
1700843962.1640522,-0.08853151644641986,0.033869599136243045,9.879597563026664,-0.0011127395226425666,-0.0010929629961932879,-0.0003298491239179
1700843962.1739926,0.09028395493624297,-0.17665712958834678,9.69635163548789,0.0011965644359078337,0.0017166630993548182,0.0006249408878288
1700843962.184052,-0.1706883070290846,-0.014376839946868098,9.909024107055474,-0.0003371238922061499,-0.0008202597637730075,0.0003257983015287
1700843962.1940207,-0.06719783625223488,-0.09818914253940572,9.826399999269853,-0.00041498959952938625,-0.000997591821261278,-0.0002318728249151
1700843962.2041163,0.018166274223446927,-0.15606225798721707,9.754528599532645,0.0014707314699439053,0.00040537805637874463,0.000516169228686
1700843962.2141302,-0.05392526322393795,-0.03685666060385353,9.838281846085176,-0.0005248818718772031,0.0009023082094505989,-0.0009813999523971
1700843962.2240057,-0.09552361049144159,-0.07059472582622157,9.85467882807813,-0.0011201800180936801,0.00012968584565209386,-0.0015539784682546
1700843962.2339802,-0.0837506853591258,-0.1424682312299072,9.818299775492036,0.0010591093178833992,-0.0011141861781130467,0.0003231948911347
1700843962.2439952,-0.0684142510171757,-0.06562393155930671,9.830193890138508,0.0008832752250736521,-0.0016688775534635537,0.0011181713315095
1700843962.2541149,-0.18139224707956483,-0.17434384331373998,9.86456230136851,0.001770262998569518,-0.003728975446804904,-0.000613345927522
1700843962.2641516,0.03345318734218745,0.036500384747151095,9.826774813098167,-0.0006705394986143587,-0.0022898909308987315,0.0001209051232221
1700843962.2740765,-0.007606539379797414,-0.19416621028504955,9.759576796120845,0.0004053228055131373,-0.0006150069292405057,-0.0019376791780446
1700843962.2840092,-0.035499590629833995,0.021106217090286736,9.841572010465608,-0.0007688945822410071,-0.0006563525019570264,2.168061114261855e-07
1700843962.2939909,-0.005692753964933872,-0.03938420571579747,9.807032027653715,-0.001065063007066521,-0.0001124650952407208,0.0014113417826961
1700843962.304082,-0.032842231829443666,-0.23085450950724148,9.760884586803805,0.0009376655497003371,0.001124338460918091,-0.0006122258957107
1700843962.3140852,-0.021892898648093767,-0.06084988516558138,9.812523132938997,0.0012576782061824328,0.0011336485777256428,0.0011371692642937
1700843962.324145,-0.2205753354376344,-0.14199581916442133,9.891752918129631,0.001083687412273525,-0.0017381707681439632,-0.0008342593675111
1700843962.3350382,0.007944312989041014,-0.03609926777605124,9.809133591218334,-0.0011309996392212796,0.00029805333877915046,-0.0025974353076521
1700843962.344002,0.026457378602498,-0.20059628829223664,9.726716951150841,0.002269090340916542,0.0011738829998382018,-0.0004073423798759
1700843962.3539867,-0.08512389873252743,-0.048238976132867574,9.845824911799568,0.0020705087187558708,0.00025897888242521497,0.0007989196281782
1700843962.364013,-0.19341327071418724,-0.1304328050510062,9.882594354335158,0.002071279948519881,-0.002145725689100924,-0.0005134977865595
1700843962.374051,0.08922182964345723,0.18916343063301264,9.851224254797913,-0.00299848841980455,0.00034089096789233393,0.0008350505784987
1700843962.3841963,-0.1204151674993976,-0.21778401878293682,9.82619006166868,0.0009063831900746003,-0.0018841919808868517,0.0025736464420701
1700843962.3940442,0.03628927033037787,-0.09789122638334304,9.755372234448336,0.0002581713769506143,0.0005539970414291813,0.0007747088501132
1700843962.4042134,-0.04193408355458179,0.004057739969966603,9.831524046581299,-0.0012140525571024538,0.0005890169171531997,0.0021616266575078
1700843962.414132,-0.1685511159420709,-0.17928221116468632,9.851351033142366,0.0006821076763077572,-0.0016431724928266174,0.0022622098448123
1700843962.4240034,0.02094820598092278,-0.23046562258686548,9.7262529392697,0.0012774132719753626,0.001487935379011559,-0.0018750861519579
1700843962.4340158,-0.1152241495617448,-0.05653490635113691,9.8685572890021,0.00040905868984157743,0.00026232187978218784,-0.0021567215909813
1700843962.4441087,-0.018989237772230133,0.021218424790892563,9.830588226022236,-0.00021569318937192746,3.394234793689716e-05,0.0008901892695944
1700843962.4540594,-0.094740284278273,-0.10584329601835667,9.845969153742507,-0.0005893382262689032,-0.0005073394822264883,-0.0007746468064938
1700843962.4641724,-0.015955414043915025,-0.08362611340808893,9.808531131202269,-0.00033377823052822744,0.00020456487045531445,-0.0008711400907118
1700843962.4741216,-0.09299927485101338,-0.08216798429051973,9.844192316300397,0.0003118155639756405,-0.0010936960376841526,0.0003701326539526
1700843962.4842134,-0.07765985533503063,-0.0388476303832303,9.850223304051847,-0.0011648870972939822,-0.0012572425577605385,0.0001324626617501
1700843962.4941187,-0.1723731463658899,-0.16185150047448504,9.857776087805957,-0.0002648756536703089,-0.0032778366669658715,-0.0007928975857426
1700843962.5041294,-0.01658518353890552,-0.11916685468758391,9.793201447772356,-0.00042989407012636825,-0.0018562521824973522,-0.0024752483469997
1700843962.5140207,0.16172493197746451,-0.029879891046356945,9.72476416402432,0.000662729493267666,0.001222685162399624,0.0017932051094617
1700843962.5240412,-0.09339244606319327,-0.09253958614160793,9.83245912712915,-0.0008430232430838136,0.001596330810484947,-0.0012522275093574
1700843962.5340776,-0.1429466197784932,-0.11830399985807406,9.86214151190224,0.0011496314323563676,-0.0011160484666383943,0.0010045612696926
1700843962.5440092,-0.011999739977092687,-0.03444947300269182,9.821617401328218,-0.00034122824785055134,-6.254265466619053e-05,0.0003958444184176
1700843962.5577085,-0.050603793264074305,-0.15725167570804563,9.787803705468775,0.0008415455616732984,0.0010107187143966717,-0.0005496417171884
1700843962.5641313,-0.22228689653366845,-0.033610175598489,9.927590578465312,-0.0013966028818442723,-0.0004924320812786864,-0.0031092853052173
1700843962.574084,0.08879008387101797,0.0015907784086791187,9.77844484790816,-7.187436238074345e-05,0.0005074156013923121,0.0027606506599481
1700843962.5840552,-0.16127267978596102,-0.20297091769520806,9.843235506566543,0.0008255342737356717,-0.0008355382850208188,0.0001678493689182
1700843962.5940552,-0.06400433169207112,-0.04799837641484559,9.838264882135155,-0.0007286571691958537,-0.000667153874403876,-0.0009393052197624
1700843962.6043692,-0.1680146356867642,-0.14985445120506727,9.864106418727243,0.000581153291395635,-0.003044269430447276,-0.0010089608141784
1700843962.6140645,0.11598260110010253,-0.08050377392521374,9.721956982485478,0.00022836019562545444,0.0007447341539109063,-0.0014790971064571
1700843962.624026,0.028949431448896303,0.02033446741538673,9.814538462310965,-0.000845622867987881,0.0017326766613414888,0.0007791550131882
1700843962.6340835,-0.13992929555428038,-0.17788769715272443,9.82060136174885,0.00014304775459978802,0.0006586722710512806,-0.0009046679362286
1700843962.6441488,-0.12587257063883106,-0.19665106182857006,9.812166511980479,0.001522904139654957,-0.0002886727244432351,-0.0022804154315595
1700843962.6540978,0.07817072223441174,0.052080397165926634,9.788524951460321,-0.00048244363834523804,0.001981521429072862,-0.0004423472447883
1700843962.6641376,-0.20878054073096725,-0.007481942847911025,9.928918377456009,-0.0018019129080274207,-0.0015183797184488471,0.0005087143807399
1700843962.6741722,0.037234859103349435,-0.24998677059681687,9.712040356508664,0.0005282429815746038,0.0012156195596459644,-0.001466805394702
1700843962.684068,-0.10621930769375713,-0.13068791481167033,9.83498148576921,0.0020649341568782136,-0.0002182525892671658,-0.0005000997800011
1700843962.694117,-0.07697164445731537,0.0995701256373186,9.893642079751753,-0.0015936699547032685,-0.0007878546441409997,-1.5610126821594345e-07
1700843962.7041776,-0.10348969562809252,-0.14970574714350104,9.827582287123663,-0.0017463919080872056,-0.0008496983026090342,-0.0028928559505943
1700843962.7140722,0.09488904218216432,-0.07153101160839874,9.743869482456697,-0.0007994323223636303,0.0014797312024602586,-0.0004713960107979
1700843962.724153,-0.07748004334373233,-0.2212812646216713,9.775599941938648,0.0023443407530715182,0.0009932038260781915,-7.503111843062835e-05
1700843962.7340562,-0.1627367779178103,0.14642384173273787,9.952144016668036,-0.0031567964436496547,-0.0007308652847227958,-0.0012380816507716
1700843962.744075,-0.07909356028414723,-0.18174602218457997,9.80668319319569,-0.0008068828727152938,-0.0016245637731680754,-0.0005276599432904
1700843962.75455,-0.008516997015588853,-0.19278316755323657,9.766326138084219,0.001794104626092335,-0.0008344180113275139,-0.0001801051431898
1700843962.764357,-0.061186783880873556,-0.03146684041971555,9.844478386037933,-0.0004946916322533104,-0.0001586513606441248,-0.0023526821052287
1700843962.774139,0.04256337104281471,-0.03049988717405279,9.790934947990255,3.5393704343309695e-05,0.0008944898461944219,0.0008328160737078
1700843962.784054,0.03481263999072762,-0.1628286776456905,9.742203800985232,0.0009954156128358046,0.0031307725183411335,-0.0002762321848054
1700843962.7940743,-0.2923649121910736,0.07822491072464482,9.99655835400664,-0.0023398436751690854,-0.0018208801769198054,-0.0001666753552485
1700843962.8050902,0.06210336905869138,-0.10486010822213564,9.757985979667561,-0.0002935381253265323,-0.00014077164532366894,0.0027327165706451
1700843962.8141062,-0.15929973008388681,-0.26494198701519356,9.811576965751904,0.0005316090396874949,-0.0006146306890544423,-0.0017324201063816
1700843962.82415,-0.0442284562618974,-0.050425791178692725,9.830628219931036,0.00026934885360288774,-0.0009614499745920163,-0.0002300104708042
1700843962.834087,-0.0021495686285119557,-0.18472460838235338,9.755759214990176,0.002585347101539603,8.202360431274772e-05,0.0004625091357552
1700843962.844104,-0.007399859235067522,-0.049209644090784044,9.804218792084114,0.0017382100282080134,0.0010055210541810298,0.0005828500187276
1700843962.8541193,-0.1657374865209999,0.010474130574894183,9.908035110803727,-0.0007513849543420175,-0.0010098808167967013,-0.0001808274420541
1700843962.8642182,0.042655154172581866,-0.09959399243150178,9.761033543179835,-0.001018128094338818,0.0013865848604921625,-0.000920322770216
1700843962.8741355,-0.06436614115916245,-0.1780550521680602,9.797111299552101,0.0010184997575948835,0.001143702734390388,-0.0009102605282892
1700843962.8840826,-0.08120621366067632,-0.07884722394497629,9.831214188516658,0.002931813305215803,-0.000708876550962433,0.0029525054386253
1700843962.8965542,-0.0003031637194683527,0.013312636087404248,9.834043253751224,-0.0005990204811520604,0.0011679205125064774,0.0006476780079906
1700843962.9057038,-0.059676681702144116,-0.14210947385943,9.811152780906111,2.6084119303122604e-05,0.001173138974679383,-0.0002121272729341
1700843962.9140737,-0.11478053352597653,-0.03827114064502726,9.862626431432542,-0.0003773610838131932,-0.00014710195087973835,0.0008890623401753
1700843962.924182,-0.12517322619844323,-0.1455655002392394,9.826070537372336,0.0001885071176817762,-0.0011600155834983208,8.701639020772381e-05
1700843962.9341152,-0.048169699151263526,-0.12758231199449602,9.798122627445961,0.00044778936484764556,-0.0006354959131932492,-0.0009363288292293
1700843962.9440522,0.01670566835674196,0.08611572878072278,9.843846735908956,-0.002819669929635079,0.0005543495287679058,0.0001413918333496
1700843962.9541335,-0.06413523144830159,-0.21012119283382683,9.792725891753586,-6.966201757966395e-05,0.00019934830224838302,0.0002911571617373
1700843962.9642737,-0.024644396424305458,-0.11627616756367973,9.790186405996955,-3.0055948986365046e-06,0.001096026785292643,-0.0008163602789495
1700843962.9740646,-0.1055393982145443,-0.06945440800103864,9.860260272561275,0.0005956845249288691,-0.0005807260699413692,0.0008603775175656
1700843962.9852402,0.00593878915194828,-0.12239604974456926,9.774727006048877,-0.00034419000811874496,0.0018656694586102762,-0.0022453958401088
1700843962.9941812,-0.11519861295185711,-0.021468689350828848,9.872475395074689,-0.0011392050591763042,0.0005621873422074618,-0.001397882285491
1700843963.0041828,-0.187276543041138,-0.05451504722368826,9.898067946256592,-0.001692379026873554,-0.002302559280210519,-0.0011471795616303
1700843963.0142088,0.027527959653079772,-0.19636254645761916,9.73523812548117,0.0003874431662066244,-0.0002450801785270315,-0.0016247587510947
1700843963.024173,-0.10778962001288421,-0.033036462286031174,9.872370891852881,0.00033007036839481597,-0.0020183165337845457,0.0006692736322661
1700843963.0341313,-0.07270624934430951,-0.065221916965383,9.842690307043704,-0.0008065138822885747,-0.0020458834966003096,-0.0007929014274482
1700843963.0440676,0.02989204438158103,-0.1492535507407296,9.75052139918145,0.0007774742698471716,-0.0004279825152964198,-0.0003454872523066
1700843963.0541632,0.032303100342284265,-0.13179318856321476,9.753243333652225,0.0018213128218787342,0.0013318308606467036,4.6790909291745256e-05
1700843963.0641365,-0.06155440012746576,-0.04436569239056247,9.838046703762574,0.0010866741556536156,0.0012919787824022969,0.0005876821495262
1700843963.074494,-0.14153183892351567,-0.11067828818568103,9.8606325660193,0.0007830667028866169,-1.708868488543078e-05,-0.0012090151896332
1700843963.0840914,-0.12681906576066654,-0.020716292371281718,9.876441807989112,-0.0010963423097472245,-0.000982683096664623,-0.0024040892487023
1700843963.0941486,0.06788068267069326,-0.11063114591685448,9.755974365420103,0.0005971703627576687,0.0006367012482647212,0.0002222557785357
1700843963.1042323,-0.13400781470882434,-0.055534851917200444,9.872581925473925,-3.2397163936871234e-05,-0.0010303687622393112,0.0001369250647626
1700843963.114179,-0.008174861567788103,-0.04283478293354738,9.810643214111158,-0.0013496746582516415,0.00010547632124747389,-0.0003123239613701
1700843963.1241598,-0.08366660980884481,-0.09519047338120686,9.844426112599901,-0.0014118763199626118,-0.0005874375017981603,-0.0005675217136372
1700843963.1343288,0.022763432393852107,-0.1699957295956841,9.749338862140302,0.0016655864439795063,0.0002526246745694771,0.0018960101995985
1700843963.1440966,-0.16002443158353608,-0.11533339428144056,9.872827778458126,0.0007797215554901693,-0.0010437841715419138,-0.0007224900647629
1700843963.154103,-0.030104152268655773,-0.22139208209085748,9.760332767087277,0.003215689312276423,-0.00019702970001825605,-0.0013889314606417
1700843963.164177,-0.1409190215739844,0.03894644315291871,9.910970925240637,0.0001516248235718295,-0.0017635031636653248,-0.0017253427533064
1700843963.1740978,0.07671741663409866,0.0230524263701451,9.785728183428176,0.000341995342449593,-0.0005594843229392198,0.0026880042394991
1700843963.1841133,-0.0507930267173504,-0.1922686238305747,9.78244895776681,0.001123544806983044,0.00034948823455426263,-0.0001819525379319
1700843963.1941814,-0.10188152606802144,-0.0876104092892933,9.847806223082653,0.0009387827174597162,-0.000735698341861653,-0.0003022755728666
1700843963.2093616,-0.044980100240916726,-0.13968748819400478,9.78818694571666,0.0015042767427209957,0.0005063238500110935,-0.0023087127366666
1700843963.2142167,0.03695642380921601,0.07392115026068574,9.829890209848417,0.001236429121459058,0.0006180741647964729,0.0001764206798184
1700843963.2241857,0.008846015415928518,0.004313459127547604,9.818537429518662,-0.0013549096953134124,0.0023264812283752523,-0.0008636841550101
1700843963.234128,-0.17768045298185262,-0.15403723729855187,9.861485809668965,-0.00036470527061620723,-0.00018472432251263407,-0.0008294058963288
1700843963.244143,-0.016817981305195875,-0.10378962588844962,9.7962384081548,0.000644487542035424,6.74734073432e-05,0.0006066942995316
1700843963.2540574,-0.004942477617306878,-0.09328331086540459,9.792723203656555,0.0014599529708744553,0.0006072721145634403,0.0019354905933509
1700843963.2641048,-0.07917286909220729,-0.07700251511376043,9.833093585560862,0.0008311181034146862,0.00040461628347104086,0.0010589436977538
1700843963.2741315,-0.09644633162918008,-0.1544931526569971,9.824352545137966,0.0005323414356217811,0.00040610560675972995,-0.0017711591673646
1700843963.2841103,-0.13182618438461172,-0.12002464089813598,9.84546854962518,0.00211560870980264,-0.0017579054618606102,-5.528521720363097e-05
1700843963.2940876,-0.06186139286744306,-0.023056173542597386,9.839314857046764,0.0004813200830986788,-0.0015425965212967714,-0.0005764599656317
1700843963.3041823,-0.04491185291924218,-0.023605465153908732,9.839824852559955,-0.0003222279799722409,-0.0015347750446443825,0.0004248966186792
1700843963.3140666,0.00753418409563334,-0.18610840656339045,9.765251436590658,0.001633179260101815,-0.00037956264659712107,-0.0001201188307818
1700843963.3241737,-0.019086883537147707,-0.030837784258361596,9.824005316656612,0.0013217378547280484,-0.0002785985598898001,0.0014083724352899
1700843963.3347557,-0.08532007980674418,-0.0402685560996783,9.850210645455359,-0.0008102576486450858,-0.00025998195679054176,-0.0010681913001094
1700843963.344212,-0.10458572475448602,-0.036587569811551056,9.85838326805614,-0.0004094090171034418,-0.0020104838031081676,0.0014806473162393
1700843963.3541212,-0.010274732829933334,-0.12967517083361577,9.783621559265734,-0.0006087015978236282,-0.0005580044129908118,-0.0002028160844561
1700843963.3641992,-0.0010634521392427715,-0.1743995020618722,9.767103485135797,0.0010959852967738029,0.0005420850877772057,-0.000479596713521
1700843963.3741472,-0.07222588731830454,-0.04528260340491952,9.834740177602145,0.0007864217387914065,-0.000128475787229453,0.0006189835229092
1700843963.384181,-0.06763590768100246,-0.15369062337047562,9.802023007605682,0.0007398522490255143,0.0003923185087676579,-0.0021012229146067
1700843963.3941188,0.023707303095317534,0.06314132803284153,9.834673710113051,-0.0016707849033550362,0.0014655723214524936,-0.0006152117158849
1700843963.4040873,-0.1730240187584607,-0.10991442391488272,9.878115840088938,-0.00024957972023107534,-0.0014889583586812404,0.0011256265105116
1700843963.4141097,0.0992597766826567,-0.17459870206942152,9.704073478393171,0.001666696980682157,0.001812776836594379,0.0010917363223056
1700843963.42524,-0.18546598565557598,-0.07059741438303987,9.90082601737208,0.0003200139579466343,-0.0006842916761930367,-0.0007295735878501
1700843963.4340816,-0.008335767557622933,0.13612824487463632,9.866870925450177,-0.002507485820389089,-0.0006336333685132108,0.0016594562447066
1700843963.4440713,-0.13016434180597275,-0.252563617087778,9.807166142203219,0.000281265934073745,-0.0018253453743658147,0.0003079171991343
1700843963.4541273,-0.09067720140715592,-0.03686166093296767,9.860693095915417,-0.0015672190487615164,-0.002303678630652582,-0.0007489393930513
1700843963.4641807,0.07628410776520111,-2.55191565260014e-05,9.769907912396608,-0.0012386489310648816,-0.0007602962163237378,0.0032080675708498
1700843963.4741757,-0.021451605041204445,-0.1355013273527533,9.785303092669524,-0.0017426933630553347,0.0008937344818855256,0.0004356932502928
1700843963.4840977,-0.1216866071172758,-0.1741065874013289,9.817153003936912,-0.00019706156143846134,-0.00033709465370533495,0.0002490650338954
1700843963.4941127,0.019963702331959904,0.003905951924424892,9.800758321126132,-0.0018909589204848156,0.0012640293411018593,0.0006979541038531
1700843963.5041835,-0.17593605720600197,-0.07233627882171562,9.894772000878213,-0.0037744621667078868,-0.0005483285722439115,-0.0018639140063528
1700843963.514238,-0.1207585383823756,-0.21734345585512999,9.808664819918382,-0.00023617421467041444,-0.002321559169590659,-0.0004509186138962
1700843963.5242572,-0.00682842432879312,-0.15882035439570077,9.771096713032804,0.001194716109872764,-0.0010910844491163667,-0.0007072167237852
1700843963.5342898,0.08267311798619965,-0.010412139268724918,9.770685816391836,0.0003844355485040405,0.0014763843766590458,0.000478168817463
1700843963.5441222,-0.26705715277504116,-0.07616365718717301,9.93212417699482,-0.0010058133133455523,-0.0022179891194120515,-0.0016568002057824
1700843963.55436,0.011753664799330038,-0.12692648169917944,9.768135834290579,0.0017818226555416906,-0.0019169894419238372,0.0021794989705453
1700843963.56426,-0.08571810929762066,-0.12159741792977584,9.826294914341966,0.00106916331118618,-0.0016908627049004032,-0.0003887066151578
1700843963.5742228,0.038348957556672725,0.12989907621199656,9.860858143636552,-0.002413232676658021,-0.0006485379466805831,0.0015778800705816
1700843963.584119,-0.18998825941569522,-0.24756648596489095,9.81826736244291,-0.0001758180431157419,-0.0025677955176775054,-4.3004157450481225e-05
1700843963.5941188,0.09879097576307445,-0.15474340100192963,9.712308639262806,0.0007465638270825149,0.0009619152967989383,-0.0005965766496588
1700843963.6041083,-0.04926865052377209,-0.08871320840793007,9.817439807050471,0.0009540493079179109,0.0010185456150219917,-0.000735523342118
1700843963.6141386,-0.0021103721130632147,-0.10382501523898749,9.799212251293616,0.001659614594463917,0.0015598335646550407,0.0001320955751366
1700843963.6242168,-0.18083339378261673,-0.0382626038690795,9.90087725044608,0.0013198810141936334,-0.001325413142241979,0.0010883726762044
1700843963.634161,-0.05375142835951988,-0.13456750597883302,9.80127977447957,0.0015638841167662783,-0.000873162980118744,-0.000277328642514
1700843963.644163,-0.016729698490396572,0.028927157883935052,9.835388394378906,-0.001357860716457466,0.0001363857316234422,-0.0009516008896384
1700843963.6542444,-0.13871505514389057,-0.059507690034173714,9.877107946037992,-0.0012818630644349104,-0.0020071462499716107,8.180264270821316e-05
1700843963.6642113,0.008218164440985592,-0.30963312187805336,9.706213469547984,0.002113734951216898,6.114326487782494e-05,-0.0020822278922055
1700843963.6742642,0.017980616901872155,0.027807800422830983,9.814743579942197,0.0008605200800620006,0.000840856237346462,-9.0319069531246e-05
1700843963.6841586,-0.1197119307868677,-0.013720130131763555,9.874712445717787,-0.0007532413022587074,-0.00044363128304209356,-0.0010454756440226
1700843963.6941423,-0.1265385472023249,-0.08200327486435907,9.815281553396659,-0.0013761230562069366,-0.0024825328032516366,-0.0057635432341699
1700843963.704127,0.24561273049549942,-0.19989195379577077,9.92147837786681,-9.788066625065307e-05,-0.003391094711374976,-0.0114636215613786
1700843963.714116,0.4757443645951644,-0.18024454416075578,9.603705513689452,0.0013840213911119684,0.005051551388225323,-0.009622186352462
1700843963.72495,-0.1879490942804075,0.0005584800607423925,9.91407299257609,-0.0001624141455626006,0.001220449195611678,-0.001649719127417
1700843963.7341063,0.13078773164125573,0.028447860559669785,9.740323926099832,0.0009622613775693048,0.0007052561732922531,0.0071512754774089
1700843963.7509985,0.09686565731627549,-0.049554232643902456,9.82654089085052,0.0001593883681037316,0.0019286819848236374,0.0087825675262506
1700843963.75413,-0.4913119406294745,-0.046454800567021164,10.083390925064553,-0.0019360354686019528,0.0008516412152605394,0.005107956077009
1700843963.7642558,-0.19598015776015829,-0.38915791697375274,9.768538005941005,0.0022020172470513886,0.00036179712721746537,-0.0010275781852756
1700843963.7741787,-0.1340422437186504,0.10957402304528652,9.83059222426069,-0.001646212784780721,0.0005051799748551352,-0.0061711025656764
1700843963.784942,-0.20092813929275302,-0.22123127308388527,9.817927131007869,-4.5820133235731006e-05,-0.0005509342974082776,-0.0087341032223407
1700843963.7959075,-0.07142612385953422,-0.017721408698637232,9.832270827208676,0.0004947620125620813,0.000923171609516077,-0.0065592820057277
1700843963.804145,0.14501729855994866,0.1119340797215658,9.824104944511914,-0.0016033760068611747,0.0060714972109756704,-0.0068975588539247
1700843963.8141768,-0.36066086538949876,-0.39499975614318805,9.560555753320356,0.0010750372755350384,0.016648501270718357,-0.022489639860541
1700843963.8241298,-1.7374029962802144,-0.5603681494574713,9.75958907796205,0.0019087811305569709,0.014008303635603845,-0.0440498468698565
1700843963.834117,-1.6890469853370906,-0.8857123747241451,9.721345628612672,0.005881144846142582,0.006616393863362532,-0.0582923469366137
1700843963.8441122,-1.422553559313275,0.06074141773577105,9.691286014000903,-0.0007792973119773425,0.009950223227740739,-0.0696693239034716
1700843963.8541255,-1.9523730428796229,-0.3415775669249719,10.467676742971657,-0.0018571956388266336,-0.0032275176919176547,-0.0630182129563395
1700843963.8641412,-2.0747356151369365,0.06987393103533408,9.140858519237657,0.007710052014167271,-0.02378385045930241,-0.0574241382302348
1700843963.8741806,-1.4167382022144093,3.44051544527473,8.354129047035373,-0.022590503282012262,-0.021849383887258263,-0.066126356762797
1700843963.884232,-0.17633607616814523,2.852052154498423,10.760295375604889,-0.0594016453704889,-0.017339645133595313,-0.0675749284447733
1700843963.89416,-0.7140286153728991,-5.72606526611918,11.076935150219844,-0.012797497556376044,-0.019333037925372464,-0.0791269642533366
1700843963.9041476,-4.03644512289612,-0.4753080966242073,9.176350785356018,0.024422386813186023,-0.05917899436884418,-0.107322740298659
1700843963.9141536,1.1644525372550822,4.081831199940637,9.592890515342509,-0.023933821227557828,-0.04548313388223416,-0.1105068129719798
1700843963.9241774,1.7326373824673262,0.8976891841157939,10.186486056286693,-0.056254163188837115,-0.012867876538275577,-0.1148783889831606
1700843963.934125,-3.6277097188437173,-7.165151085036832,9.360591097793105,0.04021102222165022,-0.057838965551920994,-0.1236859065712992
1700843963.9442933,-0.8737953972929656,7.181347486224912,9.87730095721937,-0.016639296332612873,-0.08425301904978175,-0.1437927586258952
1700843963.9542494,7.61496503693395,4.92899585979619,10.107806987445096,-0.12580277508656088,0.01008377746872086,-0.1549026173771922
1700843963.964306,1.6134025212120577,-6.001324240987236,9.21347094823764,-0.05989681281122674,0.0268790446184964,-0.1558207226218287
1700843963.9741597,-4.702974649024204,-8.306726697562747,9.60497706515671,0.03536362161555163,-0.03651124814661867,-0.1895185959757868
1700843963.9854202,0.05806710764239084,3.6110062573254065,10.983819028136026,0.024307899027782298,-0.06397898651874931,-0.1687993061961238
1700843963.994253,4.686773350040862,7.681392133809433,10.721444638600316,-0.08680241251108713,-0.026574135073914738,-0.1372610432328288
1700843964.0042143,4.128550900813348,-0.37889006187491614,7.515333648281915,-0.09528804247986197,0.021087340597844395,-0.1546908122719828
1700843964.0141397,4.99955003018846,-7.689834503757651,8.83406777452679,-0.03672189356103834,0.08441424409660454,-0.1717385900439326
1700843964.0242276,-3.6738190443247287,-5.472250934546142,10.241839762627267,0.06744540170177596,0.043134817135053335,-0.1664952588500086
1700843964.0342047,-5.530328689385535,7.0790447204275955,11.838488570973055,-0.0069659043647606845,-0.04250050223409446,-0.1470386189641062
1700843964.0441363,2.4823856976710017,2.5702434944237127,10.351030736528209,-0.04771382030601243,-0.02246491507767276,-0.1086414930643145
1700843964.0541608,3.839133811219747,-1.9868255748267882,9.389314143709733,-0.04237787502149762,0.01276426605151812,-0.1089215827406947
1700843964.064203,-0.2911307517494938,-5.45313220944005,8.631874675982917,0.026789548109779352,0.021512437042686072,-0.1361551684559886
1700843964.0746543,-1.1341145104358112,1.6402600044229296,9.347261626795364,0.02736956405627621,-0.004241643667757605,-0.1361160678090159
1700843964.0843017,2.527708739650119,6.064279228118091,9.938592986453695,-0.05770954737431189,0.03867862804624899,-0.1426911604823176
1700843964.0942912,-0.18834852724463724,-3.4215088050851037,11.948596152055718,-0.05100862674322256,0.019466383122707438,-0.1483374488772456
1700843964.1042032,-0.6887662106405398,-4.507056023119689,8.018729180557177,0.016239890547671464,0.01960081544710811,-0.1641527069033686
1700843964.1142273,-1.5652073846974992,0.4985976402257796,10.315130004472548,0.02633941903347475,-0.0008036534592740195,-0.1716126901330058
1700843964.1241715,1.2625237709383204,4.513298737088582,10.105606988630047,-0.03935612278903857,0.01495649565195262,-0.1571146053494517
1700843964.1342733,0.28752842895816777,-2.550515044846949,10.248913985049382,-0.03433499310755913,0.020241107073194802,-0.1649105054558818
1700843964.1442645,-1.4169702856213686,-5.810131393279916,8.964626916812495,0.05887291199500603,0.002680226976987911,-0.1729655814589564
1700843964.1542797,0.3223422455145531,5.1021019595037425,10.024270520283437,0.010896142504937404,0.011798951871928679,-0.1725062680663172
1700843964.1641788,-1.6935254354466394,3.0120538875881624,10.505449359332452,-0.0425587925044385,-0.007357332579214611,-0.1738818687619273
1700843964.17427,1.2300382612040202,-2.843327932844853,9.300882013512554,-0.015022456865847848,0.008346774852968178,-0.1849539530695979
1700843964.184246,-0.3394920431569452,-2.824170241888439,10.118857086625129,0.027460986946588946,0.002573785653280239,-0.1790024590910975
1700843964.1943457,-1.288835244770117,1.2166846988593194,9.25880660155498,0.03183102229539556,-0.009964987865367009,-0.1809636307181422
1700843964.2098956,-0.1305395519183418,2.70546227745637,9.683316099779995,-0.006808521566271879,-0.0182813595433114,-0.2008585733594004
1700843964.2144892,2.010773768270426,2.6968701053857025,10.76200482408836,-0.03969178420585574,-0.0012925983203814994,-0.203312556189448
1700843964.224268,-0.36038252785963487,-4.513273115922134,9.703698949079351,0.008574051591700452,-0.016231851197888756,-0.2018332285107676
1700843964.2344732,1.6237449578683483,-2.2324510135092934,8.534007275086093,0.057409386732265005,0.004184148863918708,-0.200617010635287
1700843964.245318,-1.4946053335269829,3.828378140258726,10.298881059700404,0.008933249082879019,-0.005130536378011976,-0.2027414095820491
1700843964.254309,0.48157898926609266,1.0020157174428774,10.112798846438062,-0.01415075593190363,-0.01227281732598592,-0.2174567383946482
1700843964.2642777,0.8333506782969712,-3.5081663198390927,9.803473602287319,0.0055766876451055014,0.014664198223220945,-0.214426408451945
1700843964.2742903,-2.7403442258872004,-2.3254240477230206,9.535466267748099,0.05162785285482404,-0.03276178039634696,-0.2153791290940348
1700843964.2843015,2.435153567274345,2.641748807268876,8.787845090668661,0.023825122310455322,0.007461424863334058,-0.2227822941960398
1700843964.2941985,-1.794032062258834,2.051840299534512,11.23722426184555,-0.021441248625159504,-0.00949235543030963,-0.2098016989649836
1700843964.3042183,1.0809096639412021,-3.387614709949018,9.399310520488221,0.01454532034428344,-0.006756432352888282,-0.2192555767716471
1700843964.314295,-0.5199396647353033,-1.3359925845524385,9.500283983750615,0.03225886327891287,0.005913455479217262,-0.203535090130717
1700843964.324242,-1.554072895472259,1.4502834660300021,9.796206195879355,0.023681708539175658,-0.029262236753821357,-0.2014017355860774
1700843964.3341634,3.770966159252932,2.603659101506732,9.37130739136244,-0.026222392221553096,0.036079304612804675,-0.2145819020690028
1700843964.344243,-2.2843861130769727,-3.4944914514503225,11.081207936102734,0.0030336224199575246,0.004922543374618222,-0.1923639727057521
1700843964.3542163,-1.091874576704574,-2.218881887134795,8.086282877902251,0.04791847937260146,-0.002772107752184884,-0.2006659311474864
1700843964.3641818,-0.4213667695887668,4.398962321619676,10.794988930137187,0.0045605241597259484,5.803236103573454e-06,-0.1950448853196208
1700843964.3748732,-0.3762321882601152,2.1548986295344212,10.85467019799145,-0.04603558241906261,-0.014817284522320208,-0.177854667347819
1700843964.3841815,1.421348183728629,-5.244641573797588,8.016081205590433,0.001815303877310199,0.01345953273633033,-0.1792691153706614
1700843964.405504,-2.0274312319164247,-1.3353021815912602,10.12575761407554,0.08708137506680164,-0.02349869983601997,-0.1869836253346507
1700843964.406418,2.376850762136954,63.179656765206296,27.898436359797927,-0.021505271699740414,-0.023442285336804418,-0.1733506423653666
1700843964.4141717,3.17996654122499,1.2721202478838454,9.850227113443003,-0.05785799956698884,0.01036546398430078,-0.1665815812768046
1700843964.424169,-0.564327452768153,-7.078310342143872,9.59814773198475,0.027807025313272254,0.011043668061426837,-0.1791870248736445
1700843964.4341855,-2.959509040311275,0.030865926164092426,9.679712673692483,0.05119179231497907,-0.025588215405762397,-0.1724138212622706
1700843964.4441748,0.6352696523489642,5.7217146059306225,9.644973889111922,-0.003477846349672236,-0.02224104371970128,-0.1618027788819377
1700843964.45427,1.8754505674355553,1.9356935687407224,10.816567880770663,-0.07092892899136373,0.010225587489546576,-0.161191145819575
1700843964.4642,-0.9816589854972692,-6.616571663772297,9.651422552654443,0.02211907978956301,-0.011768692097304068,-0.1680752140702311
1700843964.474203,-1.4774687394150376,-2.089533308896737,8.13500032682517,0.05208603355092782,-0.01583686986446045,-0.1903833848656718
1700843964.4841838,0.7291044089672947,5.927731838973455,11.329533619389126,-0.0037743623317455545,-0.011321955077414122,-0.1617227894486491
1700843964.4942946,0.5401499899278674,0.767078637653348,10.863714911889488,-0.0511277949274925,-0.014274346287186334,-0.140926550072581
1700843964.504184,-0.4423425496149239,-4.3034501440131745,8.553387325970576,0.008636055231034057,-0.01549509850838204,-0.1647334796608988
1700843964.5141678,0.8034617789506078,-2.078109700170532,9.77836952812391,0.04035668208247483,-0.009084253529817015,-0.1765984845580165
1700843964.5242236,0.5060593347413914,3.909028366727719,10.40857926553099,-0.017375949753498047,-0.0008675324037939701,-0.1569364619673793
1700843964.5341847,-0.4882883298482031,-2.9059357724008104,9.222968474037698,0.003736932340087649,-0.01105574918385461,-0.155820975941569
1700843964.5445478,0.20339508399151973,-0.9416079481397297,9.569642865349085,0.03159804715599137,-0.006051308857734683,-0.173868934554011
1700843964.5542464,0.014311475955500377,3.1422413823645337,11.005770524096459,-0.012915961615772093,-0.007815979181735934,-0.1637539518298213
1700843964.5641608,0.4813376505817223,-1.2078695377787632,9.722077662992739,-0.02275025503121534,-0.0077634703028049805,-0.1503178131999079
1700843964.575564,0.8343027738958868,-3.165574430725364,9.091152042262447,0.03943968793684764,0.004591710802636329,-0.1650279117049281
1700843964.5941885,0.11611526610960075,2.5724034274062935,9.937818529489657,-0.04177810971851238,-0.0072725820159575405,-0.1278098029316966
1700843964.6041632,1.1562304323004988,-3.8596160120471987,9.550951032491465,0.0030701763207815046,0.007659333577327416,-0.1424145502270762
1700843964.614247,-1.0134358688925205,-1.3445987144144846,9.811272119078764,0.023129460854633632,-0.0027866522220623617,-0.1464805108727519
1700843964.624186,0.6185846649173286,3.7221218674582324,9.603261948974668,-0.01810714696758554,0.003705692911529667,-0.1241391328395907
1700843964.6341772,0.26259939218198003,-1.184867213216463,9.986347897367656,-0.005419078342782171,0.007584515603037623,-0.1267338347853724
1700843964.644212,-1.1880875027890951,-0.25610687788790953,10.028375780317253,-0.013404783522033982,-0.0013142307534156632,-0.1347169381798808
1700843964.654177,-0.42034210588985726,-0.5439673239630347,9.810716422046358,-0.008160829184257097,-0.011174859660023873,-0.1300684017361704
1700843964.6642046,0.8742424243077347,-1.6143591082116504,9.24969429969136,0.02486380294918501,-0.005469457337792527,-0.136720891040713
1700843964.6741948,0.5063467892865969,2.2281572833860808,10.103548193706706,-0.022339091160041912,0.013348954178479602,-0.1563561064423625
1700843964.6843092,-0.9134526499106788,0.12098545779767195,10.416806750953896,-0.0322210889238059,-0.00479478202616658,-0.149813930434138
1700843964.6943626,0.8662424465319583,-4.62965652423642,9.259281216466789,0.023271298513046067,0.0017667749099247328,-0.1536861908854548
1700843964.7042596,-1.1706382249852711,0.6764143080183141,9.624266820610899,0.02472130325184816,0.0008075663315429308,-0.1678268117131297
1700843964.7145438,-0.0410266112675412,3.5565567314054345,10.393115772208292,-0.023153027064070856,-0.008754175539234424,-0.1676555079640452
1700843964.7241795,2.3420396333680515,-0.22205782279829184,9.596320821530476,-0.04327270324144397,0.0248673816794684,-0.1713378829182688
1700843964.734246,-1.833193522028276,-6.283664995532958,9.765190288474296,0.03134476803971736,0.006716973490916294,-0.1727622998179499
1700843964.744288,-2.0042413463936346,0.3359388720623057,9.121011017216741,0.05266199454465571,-0.02054262058219461,-0.1885143620194499
1700843964.7542615,2.0923763481708666,6.156274258336909,10.163977328295246,-0.02971104673084545,0.008091823573577135,-0.1909132403554026
1700843964.7642968,1.0061344230321252,0.24704403843836695,10.851285164368623,-0.055521652932848366,0.022615467069706793,-0.1737147373379771
1700843964.7742906,-2.320269056288568,-6.572797537694614,9.892849447319492,0.013688258692302563,-0.006776972618255105,-0.1822259527863566
1700843964.784231,-0.7383168546280304,-0.922797389305654,8.538415740082229,0.07052910780533997,-0.024326773346815142,-0.1772227836073939
1700843964.7942324,2.9241102706267594,8.712177165314536,9.860928214105236,-0.04964387565205093,0.01584232003371214,-0.1766032678307597
1700843964.8042088,0.35593811338428744,-1.7032385396568992,11.064108718532843,-0.06043743705170822,0.016651187888922624,-0.1671162796439234
1700843964.8142736,-1.76482774875035,-8.060404307134881,9.027367099679601,0.040943138185495394,-0.014154236096731637,-0.1644568098010127
1700843964.824216,1.474829307330188,1.9719206759068855,8.48235700741483,0.06551904077046025,0.0032298869822404304,-0.167811001581103
1700843964.8342288,-0.07276040552441616,7.4228657600149415,11.575426206238394,-0.05163372759402465,0.0043494328295068775,-0.161554361623675
1700843964.8445344,1.2141962354800904,-2.2604389144237795,10.223056640086797,-0.04829768457306038,0.008238758374958683,-0.1563003015936915
1700843964.8542027,-0.576101352495414,-7.721663640997821,8.878249325853774,0.060383472937758115,0.005325841817084225,-0.153761695069224
1700843964.8642828,-1.9680967372920894,3.14861861407877,9.407392955807218,0.04998866575500396,-0.025831433488728517,-0.1670633954228465
1700843964.8742049,3.328470698732456,5.713234472703806,9.454750370249556,-0.039235015969911885,0.018656787711247468,-0.1854595494689051
1700843964.884261,0.35137496046065664,-2.089185494727669,11.168020402857,-0.044142893325580225,0.035918689596700984,-0.1751767796696726
1700843964.8943603,-1.9529147379233742,-7.111954380744732,9.999144873114492,0.048084736586975756,-0.006044740262866159,-0.1637825024546687
1700843964.9042902,-1.3319328241637125,2.5967671855218386,7.143585651472079,0.05871360661332214,-0.008252009889986615,-0.1667895716847483
1700843964.9196382,1.130203733896896,5.747675964743954,10.900697507820222,-0.04760350368143683,0.00014659708636051926,-0.1637763631762568
1700843964.926123,2.3979019125634427,-2.7151860709739553,10.220039951594728,-0.04968249047849541,0.02789950510432139,-0.1571603221119944
1700843964.9342203,-1.459515624290396,-8.77048549372076,9.645797206748854,0.04893940070832089,0.006375086027905257,-0.148893873137385
1700843964.944231,-1.428464809383562,1.178489633281263,7.484976489074237,0.08042355522485532,-0.0166124001084446,-0.134280870598704
1700843964.954255,2.5585229768141904,7.436856157260224,9.653770075217324,-0.01576647104653526,0.02138290194356354,-0.1473155868472163
1700843964.964905,-1.0604910584498974,0.5359309713318076,12.415145387535755,-0.06412803261676166,0.013427082765942254,-0.1376735520781581
1700843964.974244,-0.8048677999118333,-5.112343199912033,9.724477508737838,0.005302896624375103,-0.009773639806078854,-0.117775852722079
1700843964.9843886,1.0513118812200133,-3.347621324594465,8.145426499507442,0.06091269781867813,0.007119654319177484,-0.1070337620796267
1700843964.9943006,-2.748975606306774,5.724916432596775,9.984690226514468,0.021364963878054574,-0.02307182184176195,-0.1145610464037959
1700843965.0043497,1.676196553557127,1.9757738526569777,10.043032706452042,-0.03774733331449196,-0.002081138483912237,-0.1392229003132884
1700843965.014254,1.823389127706428,-1.4055841058687566,10.085776577887682,-0.03564373402037996,0.030719182919370466,-0.150894041103274
1700843965.0242045,-1.1836867919361604,-6.037040008758241,11.030876132024488,0.03797874410957079,0.007571370592238891,-0.1288775456370417
1700843965.0343332,-2.1344315187871223,2.3207892476119243,7.934267859437316,0.047867685955981606,-0.019963944846712704,-0.116940620285422
1700843965.0442498,0.27664571064615173,3.9659021839403223,9.11258678439263,-0.0006786851641548259,-0.006677672151131534,-0.1368659687460963
1700843965.0542295,0.16144119605668514,3.1175110460788305,11.341889267147234,-0.06968527247191672,-0.00031030841081287105,-0.1543566835345332
1700843965.0642653,1.4349544806663648,-3.187288900143527,10.554641815529065,-0.04188522225561236,0.010700776908426905,-0.1548367095412318
1700843965.074242,-1.373367138980852,-5.486862958297086,9.741080894042053,0.023624322806787917,-0.0013740563634969628,-0.1444884789408747
1700843965.085444,-0.518841274384212,1.3748471924624355,9.429653258489594,0.043234945484718096,-0.014627941654859646,-0.1391383511246745
1700843965.0943103,-0.06823902407842865,6.266380545123181,9.962078924005132,-0.04413128550120418,-0.008937186732743041,-0.1456091654719416
1700843965.1042266,1.8087564317578795,-1.3790604284285748,9.847008858679807,-0.04741655498044818,0.0006241953983632656,-0.1477485102833811
1700843965.1142485,1.0423341928721261,-6.162593544847319,9.733743849483169,0.021965049803723744,0.01576044190915046,-0.1486041349591319
1700843965.1244245,-2.011398482705222,0.6078323630328337,10.301383787504365,0.03314382007385832,-0.009221353573890805,-0.1491042477311198
1700843965.134261,-0.24750508334480592,4.344793973035084,9.609143359964268,-0.018677256913786248,-0.02476001173117679,-0.1499608260811869
1700843965.144303,3.270473403518845,-0.6089708281863029,9.513766643745495,-0.046431788385957386,0.014284050801292943,-0.1631776196183268
1700843965.1543362,0.3284544944044764,-5.568586199844417,10.0266199004072,0.022285864444606063,0.012216494005780239,-0.1680901301325862
1700843965.164359,-1.0058349633013728,-0.2054327464495952,9.21941219496916,0.0450659449573778,-0.00645515093282906,-0.1692728054942195
1700843965.174598,1.6956923190135904,5.125303188026423,9.707237109781644,-0.025762897567985596,0.022522346724549065,-0.1661039841593806
1700843965.184235,-0.8571498774135614,-2.230332351541293,11.437934067940922,-0.01581580805921482,-0.0024077555913192173,-0.1394525719107691
1700843965.1942544,0.14615622477380122,-3.384944257624956,8.462735169535051,0.03583736076835673,-0.010378954775219086,-0.1508456570328776
1700843965.204245,0.009132495002291963,0.6656149208234075,9.132477206816855,0.03363378097066888,-0.0034328639601594905,-0.1661769700469081
1700843965.2147064,0.5053870002049206,1.9232555242376983,10.896054752224304,0.001016556366796558,0.0015648563435324088,-0.1784104657591883
1700843965.2242515,0.7796063367092037,0.7462393916881801,10.3368538146895,-0.03244869870979059,0.004381870015574824,-0.1678290170849864
1700843965.2342358,0.980639784552516,-4.748795307650829,9.240453508577765,0.026191838337475813,0.014486474623750585,-0.1464149457634989
1700843965.245414,-0.7696043257531044,-0.7897058087600951,9.587917732564174,0.05809507388488338,0.003140392794027662,-0.1452127200783793
1700843965.2542362,-0.6894700657475102,3.979209950222186,9.024945105021702,0.016791712800087556,-0.001678959251939612,-0.1522762430132929
1700843965.2645204,0.3998350207620206,0.7923791581378627,10.97243919424301,-0.005206239025392376,0.011979720764062838,-0.1546366018475596
1700843965.274256,-0.8662096080051793,-1.4240907581939994,10.393555826711246,0.005951574906802611,-0.010300848618373541,-0.1555447531165187
1700843965.284269,1.8870006967413469,-0.1364923754853986,8.782944475080733,0.006413121927276531,0.019412153708696537,-0.1363933188141886
1700843965.2942948,-0.896424345757086,-2.541863000576438,10.166994711331094,0.04935939612815737,0.008253403656601429,-0.1359584284247462
1700843965.3043108,-2.473638127350489,2.237076497216274,8.772146338531371,0.02444241516433755,-0.02312706159324012,-0.1630820882739131
1700843965.3142552,1.8104462678357987,-0.26847227577193755,9.52142085329531,0.0173400446199781,0.012777919382486309,-0.181192154926211
1700843965.3242812,-1.4851339126285164,0.9889575697382402,12.304331294655226,0.0006269496529130434,-0.001168788613754015,-0.1579345417441432
1700843965.334273,1.2019316559115878,-0.1418173911389235,9.93876729943927,0.002107632494518496,-0.006707963009046242,-0.1287113678874079
1700843965.344756,1.5761101417684642,-0.7001519853604263,7.857822126941051,0.011920796442550985,0.03644107191251797,-0.1204709959448878
1700843965.3569748,-3.517370995630151,-0.017148256053697204,9.792824089077786,0.025728935933104657,-0.010898269371310484,-0.1458764625014369
1700843965.3642232,0.786046087536604,1.1097490948800175,9.596434395145685,0.0076258080373683024,-0.0001703281550288257,-0.1751728606642787
1700843965.3743434,-1.079544260192959,1.0711888804049123,10.797781470248637,-0.008595259361714848,0.005268347512888635,-0.16899334911719
1700843965.3842824,-1.3095770186447055,0.1685587592254055,11.150879502759803,-0.014094260738762857,-0.028505650442386204,-0.1613310677231852
1700843965.3960917,3.28290488093875,-1.3491589078007524,8.878476616159773,-0.00883599674392947,0.026956666151165036,-0.1582706523360316
1700843965.4060311,-3.6080077948737648,-1.0912526652464116,9.456846075918936,0.023844487552207885,-0.0035133152291823735,-0.1655119014205043
1700843965.4164064,-0.9285531306606649,0.9492955030622874,8.979386257793134,0.01168156464976399,-0.02666928028502717,-0.1910657090367381
1700843965.426555,2.3287907946575532,3.265513221148225,9.955110327505297,-0.04247008481409639,0.030140958772519034,-0.195005620759875
1700843965.4343958,-2.9148129797577473,-3.531404059585405,12.98227896350149,-0.01679771228389908,-0.023243545371255503,-0.1568654728354518
1700843965.4443965,1.2375376795300257,-1.7721262162464548,7.770627753896793,0.024919356138550074,-0.008902925010676039,-0.1346569014014308
1700843965.454323,0.44291829106860736,3.483359262857641,9.406418908513878,-0.012610232089740195,0.011284022711436264,-0.1425438923062388
1700843965.4643996,-0.3994439683916389,0.021563167607486056,10.70054220029823,-0.02493727098673371,-0.001972097345750208,-0.1578642231644694
1700843965.474281,0.6017752344890835,-1.3784510836598798,9.335203680580113,-0.030273334474773046,0.01646862626196881,-0.1640538675011698
1700843965.4843185,-1.9987932388977112,-3.1143040953517502,9.835948414591636,0.03508215183505241,-0.014794982022948851,-0.1578476083697383
1700843965.4943092,0.46409823701959874,2.2628724578190424,9.782904276669756,0.005969469959619254,-0.003690964014481239,-0.1819024485768382
1700843965.5042317,-0.59449269296234,4.386325942975449,10.508591641071934,-0.06452085583788421,-0.0010601503871962425,-0.169884811085612
1700843965.5142918,1.3566244770079938,-4.150697580832297,9.622822878228376,-0.013710137054555259,-0.0031185618189591333,-0.1567346108378474
1700843965.5245323,0.44968803729352796,-1.5164328494511947,8.979690250264834,0.00940729249896052,0.02461664552070693,-0.1760018271626536
1700843965.5342882,-3.361510283855087,1.3499932596670434,11.226778154146714,0.00078710937505182,-0.026308445911164723,-0.1584199321688716
1700843965.5443363,1.7519141704170724,4.0781356663712485,8.394809383483382,-0.04541825387287997,-0.007615154004432221,-0.1617105257929866
1700843965.554375,2.6261827613036477,-2.688982591458572,10.542366954452154,-0.049284079603903325,0.035473660225626286,-0.155236910027415
1700843965.5644531,-2.3336141507794372,-4.339703776192915,9.893463485333989,0.028040032987855103,-0.001621157419664266,-0.1589212817372386
1700843965.574332,-1.798274635734593,2.8974058609457454,8.750686815384453,0.001086891543675026,-0.01065620672427091,-0.174590821308047
1700843965.5858352,1.1465270766629776,3.6503742759295807,10.748321125684454,-0.061775291202486704,-0.003720309079034815,-0.1559190702857081
1700843965.597877,1.780660405869716,-3.394939805333275,10.39462290934849,-0.0357246445373833,0.012822007079637428,-0.1488976431311671
1700843965.6042745,-3.1323372435899914,-6.776295861488471,8.728602245004534,0.030896425858969713,-0.0053033213220511615,-0.1729675782145564
1700843965.6142683,0.3936400427371784,4.272667826410783,9.412293545300452,0.0002591365146214899,-0.019241398389982036,-0.1733560365857188
1700843965.6242976,3.249335707142254,4.026653930946977,9.545875551288454,-0.07098408263249043,0.037169757117937796,-0.170617769402415
1700843965.634288,-1.9686955837324973,-5.611325220489187,11.584498998293439,-0.02538795504299936,-0.0004557018671150806,-0.1753736836136881
1700843965.6443162,-1.1738283199054844,-1.079500310777325,8.453766337405968,0.021511156777038555,-0.015852433304121845,-0.1918338340939585
1700843965.654251,2.5080762980276896,3.3421157961030037,9.82251100067858,-0.026108529928456962,0.02811015086993463,-0.187739903968722
1700843965.664338,-0.6911729724652286,0.2871624753537874,10.813012140439058,-0.0446652344932182,0.007686229231630993,-0.1755551946581904
1700843965.6742897,-1.0345966558344233,-3.696008765055985,8.953048527267239,-0.0008091597799358662,-0.002129776575481732,-0.1781540912808482
1700843965.690973,-0.35091224735191,2.013408990272333,9.014561318963558,0.01101722365727157,-0.02010302576317883,-0.187330718082339
1700843965.6944358,5.62032279344315,7.816186131260624,10.262201958095236,-0.04581708418793539,0.017931720719636574,-0.188337336224467
1700843965.7042766,-0.6989974633020196,-3.1972683960633046,11.593184680314979,-0.024966429426703258,-0.0031525687807856025,-0.1601653200806681
1700843965.7144082,-1.3174171276487638,0.05066632836715702,7.757195805047464,0.012617289526097883,-0.01857439148411959,-0.1691715521039073
1700843965.7243674,2.1730398228291845,2.761114143329253,10.280072631039268,-0.038409800505085114,0.014319399016258531,-0.1798644763650004
1700843965.7343276,-0.5133159680287865,-1.6307045893870673,10.896924688561887,-0.031192918638130934,0.0017198966174396322,-0.1644889367045466
1700843965.744288,-1.3311636274847003,-1.4579593764382555,8.789043277009174,-0.0004489845571347933,-0.017028569449847594,-0.1807931763352458
1700843965.7543612,0.843386361289985,0.9194318097576172,9.687900580889211,-0.008386911163151163,-0.004620062036851427,-0.1888181817950312
1700843965.7643847,0.8920656106129738,0.6165652910889553,10.106662492499783,-0.030211399104924562,0.01204749753489591,-0.1822304231347148
1700843965.774357,-0.8747989855501921,-2.21470603851231,10.026872172323571,-0.018783182604064624,-0.004809680357790179,-0.1790592474164073
1700843965.7843251,-0.09114481819584112,-1.277543502156518,9.295970562230794,0.03003516000659147,-0.014720722440268993,-0.1681827259482447
1700843965.7943172,0.8696344337962673,2.7580591891631925,9.941049714888166,-0.022150787294115393,0.0008066324000938615,-0.1714870286406581
1700843965.8042808,-0.3756491174779181,0.5629497421512863,9.494628322414808,-0.04045386948174161,-0.0031056343166805927,-0.1606191051425044
1700843965.8142788,1.139179416444054,-4.304102153427877,10.01889441939565,0.026957335383666483,0.00248528259517468,-0.1729089123429362
1700843965.8242674,-0.48466306010168125,0.8338836272487338,10.162031335974346,-0.002301305949640588,0.008596628439745289,-0.1677584153832499
1700843965.8343377,-1.6468840446629702,3.069296731613445,9.926851149869554,-0.011999659437695988,-0.020791939582861612,-0.1411255103768412
1700843965.8443353,1.656286328130848,-1.4113294726114431,9.956332900379115,-0.016926148869134804,-0.007894598570699974,-0.1639085513772074
1700843965.854316,-0.1343757798651779,-1.9087701841449978,9.07947216607469,-0.00200139367607536,0.0051828924153564165,-0.1775914234341685
1700843965.866389,-1.0362948710507747,-0.9845231045265862,9.595155858652316,0.02792012475970885,-0.022510855821844967,-0.1795265031279627
1700843965.8753717,1.4101725142569705,1.9628064498408104,9.78542501977846,0.006196410917677463,0.0008722236039171375,-0.1932779354275767
1700843965.884331,0.26644348436721677,1.9384638517947523,11.230252137321589,-0.04574239665698644,0.0027960173093796517,-0.15976842765227
1700843965.894349,-0.43351118635438474,-4.066631260628245,9.040598237237766,0.02947910745446248,-0.01932486234975388,-0.1629565608920161
1700843965.904294,0.8341865923763622,-0.8334890586234661,9.300877694995703,0.019780994699219845,0.00779756756460639,-0.1861606342019145
1700843965.914462,-1.9970408930447727,2.769216077682818,10.629568255151472,-0.0068460390866407015,-0.02455287654712449,-0.1682211113394801
1700843965.924301,3.100058485981809,-0.4540192174266505,8.928443496865263,-0.00707999685590868,0.004662291505695521,-0.1772041422547404
1700843965.934332,-0.37861067323342185,-2.472963194517684,10.384504935851224,-0.002832466233805872,0.01790159101389184,-0.1763693345011775
1700843965.944352,-1.3287828611098595,-0.548706497048784,10.355267397996142,0.035366561980759395,-0.02429517374657364,-0.1503437859238688
1700843965.9544334,2.4202812419294637,2.208518264050901,8.544849061055274,0.003493464932391758,0.01206891612338298,-0.1711385351838175
1700843965.964447,-0.8879563218306424,0.5628352061464394,11.16336761720289,-0.02533649032232548,0.003818007062800724,-0.1667167795123164
1700843965.974352,0.5260149258511284,-0.8823910872852478,9.405998115456937,-0.0024785480786620926,-0.008061354052211365,-0.1512455743969981
1700843965.985494,1.74073657078603,-1.7834593833901757,9.298296706087791,0.0018625315678191111,0.03114948269457213,-0.1814430904807154
1700843965.994471,-0.881964178545137,0.09455757011532019,11.148352762130562,0.004966788275641164,0.014650658899853558,-0.1605146032990519
1700843966.0043056,-0.04213321752030303,0.575332718682264,8.346001651052553,0.0049438283684061545,0.010443502240344568,-0.1573004973353449
1700843966.0142963,0.34397140969611406,-0.09776138684772737,10.54022697502205,-0.009086608646617816,0.02186115381124501,-0.1594181758584086
1700843966.0243645,-0.6834957450207569,-0.26250264144963553,10.454755082695062,0.0007687435733349385,0.00473175872911586,-0.147355611366183
1700843966.0343406,0.8166042578639053,0.941755936844682,8.638884039347841,-0.014038841077486066,0.017327773438547314,-0.1547593576134745
1700843966.0443084,-0.01685547882978978,-1.3648238499714267,10.645458226921653,0.002684663232674947,0.02082986264262599,-0.1433432203949992
1700843966.054332,-0.22512099920548662,0.3530978245782388,9.745769406724651,0.0032753102455945894,0.013055595001621505,-0.1504853469552104
1700843966.0661492,-0.6759935119406328,1.2228285793315088,9.297252199472652,-0.016105357838602005,0.01819690798381619,-0.1614674729527537
1700843966.0754223,0.012173903850861586,-1.0146920704804516,10.680563821335923,-0.0008701750026086024,0.010999544131411623,-0.1470580351771418
1700843966.0844064,-0.4489889165656799,0.5504843227671686,9.330290268855592,-0.019704124278952587,0.00978836875018909,-0.1550778997363154
1700843966.0943897,-0.055251982633248375,-1.9015103119201997,10.010628140326544,0.003780270167846314,0.0011795848414010866,-0.1499181640566889
1700843966.1043372,1.5782965093152888,-0.6831262933817324,9.788135492067367,0.021773923291166626,0.023667802194166934,-0.1628237766446177
1700843966.114297,-0.8128841069124375,3.224989444047855,9.32568736753811,-0.039784031056755945,0.02724170470870636,-0.1783177656354014
1700843966.1242871,-0.2535901972745456,-2.6579717484337553,9.82347151275444,-0.013943645520951425,0.014010955885974594,-0.1625501168192927
1700843966.1342838,-0.12160569269351548,-2.1272044769659484,10.28758654286569,0.020970753413044795,0.013521314421249122,-0.1701149446190898
1700843966.1449456,-0.3236336327930047,2.196195480757222,10.149293289840594,-0.018818879986309475,0.0203800401074374,-0.1706743342103068
1700843966.1548765,-1.1172281875211345,0.026062613027836013,9.283002013538567,-0.004739510506369125,7.094308175725823e-05,-0.1612172377528254
1700843966.1654284,1.0156063576395655,-0.29433285946896437,9.513248969310666,-0.011467206019118277,0.020444983975086234,-0.181614558142573
1700843966.1754124,-0.8719176284748558,-1.3582222623178595,10.87585288245043,-0.001830794813641952,0.010839175285551932,-0.1737280589760844
1700843966.1845734,-0.03921065743817138,1.301549432664338,8.570707048632315,0.001011404009572792,0.01268224412572011,-0.1877074492396418
1700843966.1944256,0.22129683850148124,-0.26966180981664906,10.568314245470061,-0.029232255741634308,0.027075607113219453,-0.192769537609965
1700843966.2132404,-0.05979030850266595,-0.8359919461561849,10.247649552724354,0.014002568363587231,0.0078093073845700856,-0.1789869171799723
1700843966.2236254,-1.4048224090125774,2.940755516586461,8.110199440609053,-0.031029150721729747,0.01629862249621683,-0.2079029184998576
1700843966.2247603,-6.353530229698362,-4.031097463742075,14.1990985449146,-0.01840436406198517,-0.004568332928114812,-0.1933111352147166
1700843966.2343152,1.8050524859570318,-0.38733553062817666,9.299023785799758,0.002640455325337379,0.02561321349965458,-0.1924925846280162
1700843966.2443476,-3.1084967262927594,1.19059563616317,9.66652275992294,-0.014897621963750291,-0.004447896163180949,-0.1959190470398966
1700843966.255771,1.3153775579013947,0.875822274895061,9.375569297709264,-0.02942816315757847,-0.005920163160806736,-0.1800859970273081
1700843966.2644243,0.6995874502362468,-1.8519423344964938,10.617663764966105,-0.010087555170809703,0.014893267598037696,-0.1925608766497676
1700843966.2743795,-2.145650211544769,-0.29654935637737334,9.394610075194883,-0.009571702439115818,-0.014115226654585995,-0.2013517719925944
1700843966.2843435,1.8592289969582907,1.5160963245990586,9.322182415097195,-0.025723178290113786,0.009799836916756439,-0.1928110522450511
1700843966.2943485,-0.284207404693712,-0.8054171260463754,11.364552638605195,-0.020502347094924073,0.002496107613139297,-0.1969537091673915
1700843966.3044162,-2.537519215750694,1.9163476270624618,7.982640108982031,-0.04200536584233541,-0.019063352259399882,-0.2052170587004725
1700843966.3143213,1.8258179500258223,-2.2079270589550872,10.723836098094448,-0.03170202667177716,-0.005794778717228807,-0.2057121646822993
1700843966.324395,0.3414054472260832,-0.24227420729247648,9.476434546819966,-0.004417041722237887,0.013505801998877619,-0.2060464275301997
1700843966.3343382,-2.332823671820409,1.8696450322226537,10.465216739535347,-0.03580254183417344,-0.02592982999334668,-0.1929731023730342
1700843966.3443067,2.325957402364923,-2.621426381058099,8.965959862208006,-0.0014173151645632436,0.0020588266382425943,-0.1728070480050151
1700843966.3543766,-2.0479429956725927,3.5019801131354136,10.15357506243049,-0.04149934739759844,-0.008242275737913604,-0.1839374852599208
1700843966.3644128,0.6979165985687455,-1.2272847445406538,10.492090399389346,-0.034714818451096134,-0.026663122562552596,-0.1745383394183222
1700843966.3743503,2.876893657195857,-3.231876836651207,8.560540773591873,0.003850890021588382,0.03206799554685186,-0.1691693467320506
1700843966.384441,-3.7415606247461635,1.3537327632373015,11.03186789167373,-0.01589043592447571,-0.02063692567690564,-0.1953325373353068
1700843966.39434,2.3362964734330056,0.934087660587098,9.125194663426683,-0.03346291128537116,-0.0059854074257898165,-0.1853309822501246
1700843966.4043694,1.141800370823939,-2.4931879167379245,10.38200261876896,-0.025396350464595503,0.016571568974430663,-0.1805389327229563
1700843966.4143145,-1.9346336328489095,-0.9065543814062819,9.508659085668288,0.0020645697941320423,-0.02014211850185498,-0.208268548292071
1700843966.424356,2.411745940107065,-0.6572334684565392,8.92923787928631,-0.0042953217192435635,0.016714331526014075,-0.2059771967352931
1700843966.4343154,-1.1813689145305166,1.3884144810427517,11.167891664190972,-0.03878180684228611,-0.009980490842589344,-0.1758351129712168
1700843966.4444978,1.7438090065446634,-4.121050195550323,9.189479356450214,0.02137228051091525,-0.004882853987124468,-0.1804013801039759
1700843966.4543233,0.44381305045524994,0.4183306957335226,9.943573108918592,-0.005119087402377558,0.007823337309545162,-0.1845403415383402
1700843966.464572,0.23811078429202462,-0.16159555798773467,9.896832204416098,0.007405987275849507,-0.008682884592767925,-0.1790894967736308
1700843966.474337,2.065286299549517,-0.79344115219472,9.227696434597895,-0.006050985487420094,0.019914015957465787,-0.2004301798762385
1700843966.4872344,-0.3411889625753172,-1.4981184364683928,10.408129518296237,0.003054589104560121,0.010255077631717176,-0.1880870414198939
1700843966.4943504,1.2233614822978394,-3.2857820301410925,8.79448423842779,0.04637091906509531,0.008538621646789304,-0.1823623580159251
1700843966.5043745,0.6219015432314411,0.11889212659482146,8.985214285069295,0.035606159033437154,0.03558809916475809,-0.2001293552340571
1700843966.5143712,-2.5170240616270596,1.1490295038672604,11.514789656753804,0.027394763483026503,-0.00553265575951061,-0.1772348237456385
1700843966.524449,0.8458969077890398,0.26628173588211307,9.447370343897946,0.017543543414384157,0.0032433076244433624,-0.1868002069415156
1700843966.534414,0.8628796378481198,-0.1749623294652919,10.017534612646754,0.014127678948172028,0.024140754073691154,-0.1768673164071147
1700843966.544416,-0.590517036870572,-1.773454398234634,9.678031209359949,0.041798470786834185,0.003258121808346529,-0.1548732620896403
1700843966.5543804,0.6768095258419798,0.6311040909675278,8.233255132995756,0.029922894617507998,0.024602905210724064,-0.1743028265656535
1700843966.564486,-2.3768874237358593,0.26836270018224834,10.98472957616023,0.03261538850585794,0.004492923140738964,-0.1766601902665202
1700843966.5744088,-1.4005910403271788,0.7045480805372352,10.288517365540477,0.016677961678544,-0.02296976877554549,-0.1771814477862422
1700843966.5845172,1.6030551607157313,0.6150665666209262,9.500785612045215,-0.0023244430248538514,0.00412016355917012,-0.1814155084313456
1700843966.594385,0.5913320406921204,-2.662981495248216,10.523336769806281,0.02888770687832742,0.0036751775695505655,-0.1567351025761668
1700843966.604422,-0.17649736635796826,-0.007979245773870646,8.764573445264473,0.03888224271208267,0.003276432719254939,-0.1673830104292933
1700843966.614946,-0.278448817377744,0.4509855899194001,9.907827964753515,0.03129360141083752,0.008032896762819484,-0.1824492764891688
1700843966.6197484,-1.9005681614372196,0.7831773328465644,10.64727003130298,0.026106885851506088,-0.008313314110322937,-0.1850721043767039
1700843966.6333642,0.44885102163092944,0.7510830983530019,9.463550221131108,-0.0017326461739532964,0.0016966935911976709,-0.2115121287526194
1700843966.643341,-0.07102766917905802,-2.0651858871175817,10.493164533913877,0.02026846287562084,-0.0002637485196051149,-0.1893047196091715
1700843966.6533372,1.019289154759711,-0.11987757369817854,9.743676954332557,0.03184389772849968,0.0023571050633070917,-0.1746301454724375
1700843966.6633463,-0.3838191253305535,1.4715010954874512,9.194233845345298,0.007281645696168815,0.01439480092896538,-0.1797859472455088
1700843966.673389,-0.6782110443521712,-1.327715271758836,10.263883626630275,0.03074795727485258,-0.009189117543994561,-0.172704110783488
1700843966.6833313,0.0906712076223688,1.502016146197632,8.984985667765045,0.0047671423786826575,-0.0012658533665580974,-0.1869753402890269
1700843966.6934905,-0.05191218113066016,-0.8719218042572019,10.597446195486448,0.0100390914552234,-0.004500878125223026,-0.1823188913287226
1700843966.7037818,0.9890212818048729,-0.2298595483850576,10.026874748065348,0.019605505969036836,0.005547601189054865,-0.170294533413798
1700843966.7133777,-0.15518049329161157,1.2986569439690079,9.476920091441853,-0.009395975300972114,0.008845797075435787,-0.1745229018153254
1700843966.7241287,0.0799587428251799,-2.189835721692978,10.028636882938397,0.03250641273958528,-0.001179389082634688,-0.1645266068400447
1700843966.733339,-0.31283803939232213,1.3648162551752343,9.20073246405903,0.015185389510807314,0.00025085390120149715,-0.1809224290074412
1700843966.743347,-0.597628631291137,0.7398185071681027,10.178575860815606,-0.00023804509472554502,-0.004359370209387082,-0.200887138885409
1700843966.7534003,2.025531184861535,-1.372866746228137,9.863047457277807,0.015602125029628404,0.018025192909774293,-0.1866809231461589
1700843966.7656777,-0.5667448732668273,1.71455781966347,9.794598493167854,-0.02248400348196489,0.02051600347759748,-0.1775508028687541
1700843966.7733583,-0.8388313515070503,-3.37573857740875,10.207600315865921,0.025489750139402346,-0.0018466874628002969,-0.1543293697060649
1700843966.7834978,0.21361702264662316,1.0902016985796363,8.965512168514858,0.017020945361247895,0.010749366651725132,-0.1593395573319499
1700843966.7936192,-2.037610763415346,1.632410392388522,9.720530212825143,-0.0060566878894891705,-0.009248678757830928,-0.1868553710402552
1700843966.804304,2.3946943788230466,-0.8806935058751133,10.038841010916403,-1.8373677942959287e-05,0.015352007938417647,-0.1692707193316523
1700843966.8134792,-0.42768329628283985,0.7384138133573612,10.161076533379681,-0.01265480751316602,0.02023243811098988,-0.1683155548991267
1700843966.8234396,-1.4017875311582468,-0.8792175835779186,10.077366409854248,0.004773844481556524,0.004585411548748136,-0.1646420759381358
1700843966.833493,-0.3751498477310539,-0.41381182419854096,9.715319578112435,0.016044196583066248,0.003033240579457575,-0.1742104095639292
1700843966.8435595,-2.174815530272723,3.374616549968372,9.374123558764117,-0.035356159202690404,-0.010382315778306148,-0.188012252491862
1700843966.853428,2.226893853309683,-1.7521337361696965,9.939079087070166,-0.007192443160566444,0.006522509795578503,-0.1840884340228144
1700843966.8736162,-2.1597532800284918,0.2742861227420678,9.304027605802952,-0.013643955460500444,-0.005205241793007277,-0.1714655113638941
1700843966.8835032,-0.6295395980441569,-1.5626834146462885,10.128727142235556,0.011732013394054353,-0.02243195428909198,-0.1744873923482005
1700843966.8934922,-0.19310965273512978,3.643552480566831,9.821965278347223,-0.038943409572186644,-0.012925116254201266,-0.169459949177653
1700843966.905168,1.1579974953176553,-0.4638514957919528,9.612197344267722,-0.028994436147458065,-0.011125342505868897,-0.1570449126185481
1700843966.913509,2.5031709099527104,-2.4967299576868327,9.253190509035644,-0.013979489240422697,0.030822531531495057,-0.1711837006033961
1700843966.9234877,-3.390559035478512,1.0896719750952055,9.952803768119809,-0.020570369008786928,-0.00734014301785959,-0.1699267578543727
1700843966.9336066,-0.12147779283516351,-0.9456577750466699,9.68227597735896,-0.002974157813682577,-0.018712898172529104,-0.1731184971751277
1700843966.9434922,0.788546225598924,0.983753870504424,10.498196702689835,-0.026394902389916902,0.005679534610325019,-0.1732199442805354
1700843966.953519,-1.3003389200480062,-0.24575896300844563,9.905874662930724,-0.023607759407554715,-0.018884515582404494,-0.1637678397120539
1700843966.9635322,1.9840741317349389,-1.7655240096687599,9.29719414439453,-0.011614695493380747,0.00521902084794356,-0.1819542301119868
1700843966.9735236,-1.6610933053409196,0.15860361099326503,10.32652090945014,-0.018705479309213673,-0.008767726587921245,-0.1887070191325251
1700843966.9835184,-0.6651459711648885,-0.9454123271193966,9.280650177366878,0.0017555452908341346,-0.035660536903849786,-0.1853972030104701
1700843966.9934566,2.910579023083806,-0.5526697619134194,9.31468539962462,-0.006128746890899902,0.016288950662834055,-0.2060160291613642
1700843967.0042036,-1.919714442104929,0.998088652205512,11.010029217839975,-0.029862088656524198,-0.015762431572257065,-0.1907547665061061
1700843967.017302,1.554823858454445,-2.7518990961663987,9.40090030580468,0.009113112332774976,-0.002566375747449964,-0.1923375529469554
1700843967.0234325,-0.3386856811969424,0.8709655874535512,10.288436316282896,-0.001163806234210911,0.003786014152847585,-0.1912194145144526
1700843967.0334475,-1.6872278543822585,-0.015862827083594606,9.607186843538813,0.0038919747623881837,-0.035810619455477574,-0.177588771027476
1700843967.0435312,2.6340257908967364,-1.0912351378220209,8.902439372141195,0.01073753545472071,-0.0011786168361644612,-0.1928439540089671
1700843967.053475,-1.506942492485796,0.21811162887828314,10.570848392392273,-0.009381365658947472,-0.017821969158911707,-0.2012305063427989
1700843967.0635111,2.0475353733536643,-1.0391319134847783,9.445703074356405,0.012565904216715022,-0.005744502077075451,-0.1912090731085841
1700843967.073614,1.0945676610070967,0.09636784500349073,10.12399749488604,-0.000780109622194466,0.017570228162664733,-0.1945564848603312
1700843967.0834675,-1.3649111616537786,-0.49412074945317197,9.935866241655333,-0.0026609995015720186,-0.004648681752171184,-0.1794665110529963
1700843967.0935688,1.2675511775328066,-1.0324742842687833,8.478139897829525,0.02127157229278291,0.010077407273138706,-0.1899311644257609
1700843967.1035118,-1.4949956197880758,0.6290314218086689,10.502345580017106,0.0025246098018847462,0.008655768122040879,-0.2026738477171961
1700843967.113484,-1.7092993898451803,0.43758532045188775,10.53334039087956,0.0022062256506584013,-0.023412347450668364,-0.1838486147345606
1700843967.1234536,2.094060779721526,-0.012239368424768037,9.140966168282596,-0.00295139704784899,0.0054384704202833645,-0.1915155452908579
1700843967.1334388,-0.3586242249250031,-1.1974637470261524,10.246304846028822,0.002503166260479193,0.01034997793882078,-0.168901334446818
1700843967.1434722,-0.7939162659278598,0.0011956413076059957,8.952319942049854,0.022127583776279672,-0.008640244970481561,-0.165931592625529
1700843967.153436,0.30173734075214015,0.3707540399054186,9.338189591100313,0.0062160289348770015,0.014845776156853606,-0.1937465322436396
1700843967.163575,-2.4995693240595385,0.09801804665147927,11.143528646124372,0.0027151340981604465,-0.02245935537459435,-0.1696826321305339
1700843967.173493,0.6600121876653365,0.5845271276992788,8.92569709813685,2.34122852258784e-05,-0.02083337388487355,-0.1912200403632228
1700843967.183493,2.33183260432282,-1.016266981407429,10.22249999089277,-0.008008343973271713,0.02348363608150225,-0.1945256543578211
1700843967.1934996,-2.1771055853514634,-1.5045597409975202,10.195604228811845,0.019704074857161528,-0.01043463945356251,-0.1630086255492274
1700843967.203611,-0.8214641389498735,0.8980377334747218,8.478281615948223,0.01592225230707062,-0.022001472837411953,-0.1813490939559046
1700843967.2135324,0.7259075690396258,0.15421890478344444,10.20523200480808,0.0059852914737209915,0.00079389997932046,-0.1886708540143077
1700843967.2235138,-1.4217633921712745,1.2669598506743667,11.397437501011325,-0.012486654389185198,-0.030672543234952932,-0.1688518327893321
1700843967.23348,2.314136968699884,-1.3487952038669484,8.319564666734525,-0.0036191766552676817,-0.006443976195421421,-0.1798935336293284
1700843967.2435093,1.082054685966556,-1.900194341708292,10.030726847359976,0.02070161978805567,0.021252905989759003,-0.1679785651387278
1700843967.2534688,-4.11420196868134,0.43845811742367574,10.175431940270615,0.024920694060339883,-0.04350216308256346,-0.1722424579085414
1700843967.2635057,3.1107398175179055,3.264097385882852,8.436140104968347,-0.01563881040479352,-0.0030339865489466527,-0.1882736039580409
1700843967.2736485,0.32933374185575287,-1.852877610426888,11.52391979766224,-0.011203444220444846,0.013399387836979644,-0.1750303459586207
1700843967.2835236,-1.881836870165183,-1.3202544339233229,10.420487430660298,0.011843859324003437,-0.026872680704660395,-0.1659205806674067
1700843967.2935224,1.6938407831561288,-0.44394135453213013,8.201092595042407,0.024726921514108175,-0.005707493506543944,-0.1701694828690592
1700843967.3035498,0.6793773030584492,1.709106999463302,10.425752309635943,0.0034461113928789962,0.007585624118414026,-0.1630283397854869
1700843967.3135178,-1.2807794124857417,1.3889702123332286,10.444825612715373,-0.023869865424732243,-0.01320131863802374,-0.1619481546105448
1700843967.3235335,1.758444111454587,-1.188711763855162,9.260741099510113,-0.01581682108738828,0.002411274231749089,-0.1621814918936793
1700843967.3334937,0.2874868638525622,-3.5987159324264817,10.090632354449394,0.02913651164574593,0.00785702474040998,-0.1560695869149272
1700843967.3434606,-1.1783953299909762,1.219798157508557,9.262592416735883,0.01796098341853883,-0.009669285981158165,-0.1716272634686534
1700843967.3534966,1.4895162443278456,2.3506327414620767,9.52656237103318,-0.012419442636513709,0.013875736549362035,-0.1780212325276438
1700843967.363496,-0.21452822126834578,-1.243626477496503,11.077329289662682,-0.01881244840245109,0.007092222996454801,-0.172553907078654
1700843967.3734531,-0.7421979659051239,-2.795304715773215,8.887707840115635,0.01567298953343346,-0.0016926876161195024,-0.1691519868792597
1700843967.3976846,0.23753595244478787,0.5845905043219558,9.298359966156896,0.04103841174417359,-0.0040480254798503125,-0.1759204966248576
1700843967.400926,-0.707781670808662,5.190777530700656,11.738445384090571,0.006747354714442782,-0.0026013878796430565,-0.1801920783938471
1700843967.4035285,-1.6264583205905805,8.829021053064347,13.20190525355622,-0.03321727198087081,-0.014827972824584099,-0.1694280010880534
1700843967.4134698,2.1007500170321904,-3.077884259941264,9.345795346731306,-0.0069991101666806,0.011884762082100443,-0.1692385328234736
1700843967.4234774,-1.8496213135046862,-2.1997112853392258,10.018410257383367,0.03358081964934152,-0.0052628892110973555,-0.161855156463534
1700843967.43353,-1.5436810228554099,3.690363687443917,9.487977363909016,0.004589942824567108,-0.029844241090092948,-0.1526891541899745
1700843967.4434743,2.005160283855546,2.6259974255420766,9.898649071281683,-0.04537248028734701,0.001856316141502046,-0.1663738143862788
1700843967.453469,0.7950179243928519,-3.447028111244946,10.780180315589789,-0.022726973220898762,0.006747797413624185,-0.1497231525601451
1700843967.4635005,-1.1061096618524298,-0.503352757043001,8.757353950189689,0.009229500611355567,-0.0015003255902945622,-0.1501803946913783
1700843967.473494,-0.7410186219001675,1.5924498358731227,10.011625381006505,-0.012937893548295767,-0.010541858901682783,-0.1646112603367869
1700843967.4834652,0.6163460287354116,0.5503659025786192,10.062792629730708,-0.033332780453639695,1.029550009394707e-05,-0.1592546505154673
1700843967.4934614,-0.2517901368265386,-1.1971174295570086,9.929055692050364,-0.021976392312229046,-0.008032804875225317,-0.1545389992417399
1700843967.503632,-0.2524833626667708,-0.1403488028801171,9.992781213879455,-0.014302293535911954,-0.009021693089029012,-0.1679855984868113
1700843967.5137808,1.161619887070564,-0.7376057843821796,9.82631014694919,-0.011843901194892967,0.0037267131839787966,-0.1712634367169444
1700843967.5234716,-1.1096314800654425,0.7471796744408439,9.415743408900317,-0.031335697995201986,-0.0003271922243047196,-0.1650911522330348
1700843967.5335214,-0.26373189769191896,-0.23321258036960352,9.626496169653509,-0.005234777739033624,-0.01075927993020496,-0.171057398361117
1700843967.543452,0.7824666508367037,0.7952224480462102,10.192748290979154,-0.03799333583724295,0.01307975575785806,-0.1636796546401087
1700843967.553449,-1.5068634124191418,-2.3701025099781345,10.983811950337575,-0.009476008706780632,-0.016348325593042844,-0.145256201666743
1700843967.5634823,0.14255870682609495,0.5920148050740539,8.298889416030699,0.007528804322367186,-0.014403488012312705,-0.158260072511584
1700843967.5734737,1.2736831363594965,2.102556586148128,10.281990204329054,-0.045884061825290326,0.005539249928739765,-0.1622244817437236
1700843967.5834827,-0.052296745567697915,-2.879927754928162,10.365591637092386,-0.011032856119053204,-0.0040012566628419765,-0.1443659764947001
1700843967.5937026,-0.3110602302413722,-0.9750984458335981,8.24940082788807,0.016990256618525316,-0.008979688894047266,-0.1726624024333064
1700843967.603431,1.3816466749508962,2.621683313610898,9.508930085452958,-0.024779097640554523,0.022126270882681216,-0.1684794974745814
1700843967.613541,-2.261276728463669,-1.029025047266682,12.330460079090727,-0.01873142130652441,-0.021048937284210804,-0.1428964835824076
1700843967.6234424,0.31432636233571143,-1.3555763878153113,8.743291692211407,0.005765906887302976,-0.023806792230633752,-0.1598986190976206
1700843967.6334486,2.4274126640856437,-0.059867159479682096,8.879285716991237,0.001263002051703438,0.017958798126182385,-0.1679319096030299
1700843967.643438,-2.0833550698147274,1.243958488208953,10.834599615569859,-0.017050815903799917,-0.007119244452806416,-0.1611542058409754
1700843967.6534364,0.30119592495771264,-1.6816603227822706,8.826425024389115,-0.0031463073680399216,-0.006191623775801618,-0.1817673695506159
1700843967.6634448,0.5713571292763271,-0.05491769686428151,9.859880616533793,-0.00078127430971319,0.015665775939962025,-0.1764389229239527
1700843967.6734655,-2.7327526079912565,0.48589558808797356,11.281906866129681,-0.008963846564292706,-0.030707460346059468,-0.1594002497614924
1700843967.684254,1.0600699886600906,1.0036372547406733,8.558075522132292,-0.022481114771459823,-0.014485689808312502,-0.1555220437468592
1700843967.693469,0.8605726473987416,-2.35461548364566,9.965125478798871,0.004829684651563541,0.0007507471081174398,-0.1615219068945948
1700843967.703477,-1.8369725450441297,0.5856745415271064,10.113704463368416,-0.013760490232557729,-0.024768598516748938,-0.1759495240868632
1700843967.7134922,0.549013992736161,-0.8418593575089441,9.082476067819158,-0.0037378730577533265,-0.018186734609424025,-0.1634787869872157
1700843967.7235534,0.3545366809699804,-0.036904730501349695,10.75821213206736,0.006973071607043074,-0.014593218521900736,-0.1646515381754939
1700843967.7334409,-0.08846645336524776,1.1296790526393503,10.242284027842546,-0.03158991662599134,-0.01605882770393097,-0.1638270420254771
1700843967.7434506,0.8634929787359251,-1.2889571437731906,9.016427594374719,-0.006171816221728835,-0.010966503552218544,-0.1508202952565257
1700843967.7535005,0.5932979415238947,0.17764972948482885,9.26903148705807,-0.008450859033990826,0.013104993830826262,-0.1790740889729563
1700843967.7634778,-1.9595068837869378,-0.02048533995697995,11.301024116240978,-0.018133738380286958,-0.017242836402575887,-0.1640835953177516
1700843967.7807226,0.3244993029552158,0.6542631526427324,8.50355848502192,-0.0187808081176386,-0.015193175946832024,-0.1461643678368632
1700843967.7835617,3.18206370442399,-1.6872279085786528,8.540852224600142,-0.01044292835285418,0.004732311054546772,-0.1453218412818019
1700843967.7935746,-0.8581712653043548,0.7654585749503553,10.51308632336688,-0.018718402804825618,-0.017016241583695243,-0.125704969209582
1700843967.8034332,0.854608904656363,1.417011180362461,8.648103047206881,-0.040576647037721715,0.002298171580139764,-0.1267326724947993
1700843967.8135564,0.18918611168098903,-2.328804953688992,9.998404891108002,-0.010218776680931338,-0.0019448588675930487,-0.1380440694512431
1700843967.8235407,-0.6543154718727984,-0.25468012603372653,10.207970773759225,-0.017551025108507274,-0.0037696703332260628,-0.1395535570801798
1700843967.8334396,-2.06652848342765,-0.3604430446434022,10.897670297614107,-0.014975062972984215,-0.042825964847590735,-0.119614983838946
1700843967.84353,2.535662082446998,1.1930646488295045,8.549323938875558,-0.011715107999746384,-0.023522464857852036,-0.1248378557385508
1700843967.8535123,2.815153717445043,-0.48668950483950046,9.561309461278606,-0.04455759096574273,0.025460066368455336,-0.1376407546223704
1700843967.8634672,-1.156738252180539,-2.630693875988385,10.578149960448751,-0.0010919448310274988,-0.005613455132687922,-0.1339246732415263
1700843967.87348,-0.09552879300922494,-0.21449479505234179,8.73059965388655,0.00439286803673909,-0.004945885553394728,-0.1506759328068797
1700843967.8875356,0.18721522691831904,1.1437230492002635,10.356454614352643,-0.01718085461780621,0.011133136325790743,-0.1224437532247607
1700843967.8935597,-3.218982355006358,-1.9949008960664594,12.200459607038912,-0.0038211586104060957,-0.038215996538759844,-0.101981277507693
1700843967.9039218,1.6876492719302938,-0.3031289579182888,7.90579612470293,0.003872961863732638,-0.015123048710440373,-0.1227566329063479
1700843967.913468,1.177718511206345,-0.06270816957433184,10.214269331959846,-0.0010221436496460816,-0.0019099854204971806,-0.1255144429625575
1700843967.9238665,-1.0370288971006596,-0.2667904488661417,10.355416553457621,-0.009895103151650588,-0.012756647668517642,-0.160057078045756
1700843967.9334738,0.11713214197549222,-0.860531833105111,10.538565143607459,-0.021657834650167847,-0.0181003330749848,-0.1791004938305918
1700843967.943513,1.3033771615303367,-3.756542822760301,8.666945703888333,0.04075731915988869,-0.005148601311488,-0.170235495013148
1700843967.9534876,0.8925795336999752,1.3442175361022874,9.265756312734785,0.0035636518645871776,0.010000107076017223,-0.1952066970290248
1700843967.9635775,-0.5698835817291548,0.32702758604673715,9.574956134440107,0.005078459932135136,0.013412400640648466,-0.1914659095229212
1700843967.9734778,0.2854782029580879,0.0178849995204274,10.248412548584588,0.0066625838029255365,0.0046191113457759395,-0.1738633317174021
1700843967.9834917,-0.21556220052922864,-0.29444501942930135,9.899311358526441,-0.00034806986665342145,0.013468685621822674,-0.1542452377499644
1700843968.0061216,-1.6026194441410495,0.800743910397458,9.808777746921132,0.030748740747916364,-0.029281207668113388,-0.1215850514592234
1700843968.00798,9.820837432490542,14.420490280927993,8.313147836026488,-0.02212359849105928,0.007911965271522709,-0.1258743954123561
1700843968.0135484,-0.4701391500424779,0.4306937901903367,10.375208676965219,-0.04063875953891573,0.012402626934821841,-0.1148836565436427
1700843968.0244472,-2.3866919185645026,-2.4930212963693292,10.011557491840648,0.02151404111253303,-0.02533965338265871,-0.1294218552531306
1700843968.0334356,-0.6947789834967298,2.3341606138901643,10.001008988668849,-0.014755499209730316,-0.02590782287004541,-0.1425519836367671
1700843968.0435154,0.6746511631826649,1.3891514320004534,10.591516617010905,-0.03880949687661863,-0.0198258287465859,-0.1249944818438593
1700843968.0534873,0.09997052844084306,-2.2249957077989166,9.793425501404613,-0.011772145839498534,-0.02671131909263719,-0.1403989595593516
1700843968.0646086,0.26091509043306504,-2.0198001364543887,8.545304181526133,-0.009436775583187914,-0.01011714695935169,-0.1884003532351557
1700843968.0735545,0.6406708541762989,-1.0466868949267807,10.308205883646615,0.007875713449837752,-0.004344523653226771,-0.1859681410016123
1700843968.087283,-0.6754810561922665,1.9461906318172397,10.54414574189525,-0.03180205222874284,-0.02628283719959754,-0.1813067150534693
1700843968.093579,0.6892941857650621,-5.3557556862963365,8.769251964988245,0.01261870461872324,-0.024345741595922434,-0.1756672513903681
1700843968.10354,1.3604083566840561,1.4928065167489275,9.574827934180371,0.0008884690781899518,-0.00868201294019029,-0.1814868998946253
1700843968.1144812,0.22390401229311405,0.7200011857749334,10.684452013417053,-0.031088747232650458,-0.012738165931907493,-0.1750381839694087
1700843968.123494,1.6118984218440737,-3.7210626953568227,8.28170462882487,0.008127772101713431,-0.0018584903468231515,-0.1704031926812236
1700843968.133499,-0.28214386252219803,0.9181566657045407,9.014832096876,0.007309908320541965,0.016233220590389362,-0.1838439655722682
1700843968.143524,-2.3681514966009702,1.001546942440221,11.47473276793439,-0.0006932253613831975,-0.038545780738051455,-0.1737313819350306
1700843968.1535158,3.5377570176212316,0.9930656759740273,8.920881299173718,-0.036997533493804045,0.010754745120385907,-0.1645133746089045
1700843968.163484,-0.5774962251732482,-3.4820734408764986,11.046937331454664,0.016985727070854967,-0.0021130967488762523,-0.1577187580288951
1700843968.174167,-0.4097768165794708,0.9058286012835103,9.098313577617388,0.008988299213741956,-0.012721224997007233,-0.1518727642716471
1700843968.183702,1.8895537245132794,2.562243999379705,9.07254507473839,-0.024030995875594853,0.018562676932121575,-0.1434182924450938
1700843968.1936033,-0.9391586516350084,-1.4927935499688274,10.007979325592942,-0.004144982645467081,0.002025906227514291,-0.1438381028594081
1700843968.2034984,-0.8172929694323429,-2.220919410579094,10.22412199464734,0.003105846450465285,-0.006733863234963768,-0.1605021757306163
1700843968.2135055,-0.12516908569725071,0.8763451485843817,9.989526150225311,0.013138010424689062,-0.013593272779281391,-0.1266627115429942
1700843968.2236,1.3931298932495477,1.5735022373601344,9.779758200279698,-0.008530998234972645,0.0035628441265280007,-0.1130083528579775
1700843968.2336454,-1.0727639647197547,-1.4900268136628914,10.013586028603182,-0.0014072484456120488,-0.007919927548159397,-0.1195742738665644
1700843968.243461,-0.17558643733265644,-1.3855322776466603,8.801022433809688,0.01917952378761127,-0.01379613233194781,-0.1306130838812892
1700843968.2535172,-0.08426376306495685,1.2265346714284806,9.903385110052803,0.005021524751371328,-0.01266977063772608,-0.1499746543587748
1700843968.263492,-0.4553916185407915,-0.6512609779713835,10.898152929476362,-0.001964463609377914,-0.019334674383707555,-0.1432939124526087
1700843968.2735243,-0.09529278671760093,-0.4984726761375953,10.178595407242772,0.019821287661670604,-0.03510429194734696,-0.1442818147362773
1700843968.2835226,3.2644473113553123,-0.2788643214851021,8.563810514262371,0.009147093060544165,0.019008054510471908,-0.1604289961279933
1700843968.29467,-2.1193516911808783,0.16583031400459816,10.826271782447089,0.012048001387101263,-0.012437821937614281,-0.1595884216250483
1700843968.3035598,0.9160356114065429,-1.8774916677139992,9.818523714542822,0.022411734129898282,-0.01780714754464586,-0.1776765835703913
1700843968.3134837,1.6570918104325085,-0.24043263735202522,9.404040259861327,0.011791197021781934,0.020057384534307283,-0.1823942763032023
1700843968.3234785,-1.087704791411538,-2.3901981727445327,10.877069797027229,0.04343778077084481,-0.014884181484508305,-0.1796227199257914
1700843968.333599,3.3573012993042584,0.034321113465630375,8.851865047876862,0.030305055105712356,0.02611218151221625,-0.1956978691042964
1700843968.3434734,-0.9675256970798068,0.13034314949223902,9.950261633702802,0.029570088031343717,0.01729834946933479,-0.1831436109961573
1700843968.353526,0.39372395415489336,0.3246580575938205,9.679737930547853,0.021514532758176295,0.007686173877587397,-0.181599105638415
1700843968.3635852,1.253712283366139,0.33731287809344285,9.516240308856522,0.010901030565566402,0.03618584956812905,-0.1798499328316752
1700843968.3747935,-0.1883546345584493,-0.650285950143111,10.105279193407279,0.02076974488123285,0.018879734200278497,-0.1615739268483225
1700843968.3835332,1.6417408603134613,-0.1920813946272936,8.922051470386654,0.01670265004050859,0.0440906255028069,-0.1698261303128306
1700843968.3935974,-1.9605725854682503,-0.5797706565848862,10.476695456989228,0.031127569195859232,0.019170257960525305,-0.1494454843224589
1700843968.40354,0.1588241523785583,1.4250254307513115,9.67038777836973,0.017178403072586314,0.015336444605258357,-0.1489286375464503
1700843968.4135346,-0.028603010201799887,1.5069023100467562,9.971326638479223,-0.004674357467915953,0.030063763018472283,-0.1457445276202265
1700843968.4236505,-1.347084814218439,-0.36779376739427466,10.161484126796418,0.003747491762031991,-0.0014367878962522683,-0.1244318885029856
1700843968.433601,1.3293987157671763,0.10921208428979737,8.557609668337493,0.00012354890458156424,0.02651381251428006,-0.1456697833956782
1700843968.4435327,-1.9132620401081106,-0.3769701186625378,10.520982551445018,0.0048868588254673846,0.008717076836309892,-0.1437716585816447
1700843968.4535816,0.0545989419626249,0.32861723909010876,9.967130565249201,0.005591983030769512,0.0015747763600479395,-0.1514132571639125
1700843968.4636106,0.7605900842951463,0.6858623367580295,9.520316835137415,-0.01505507953165165,0.02706057779701729,-0.1597138297976557
1700843968.4735315,-0.8775488974011828,0.5119741738017726,10.598183440218653,-0.005911416173173407,0.0071352871274173,-0.1411569369257991
1700843968.4835365,1.2325125653846083,0.7097824750849662,8.955005678295867,-0.020050174519697705,0.025447357380652035,-0.1559542072238032
1700843968.493598,-0.9163521053835899,1.122463387067723,10.14467693850028,-0.034745403871966965,0.021365171353504544,-0.1502299410523478
1700843968.503495,-1.647807298266476,-0.6364999250934755,9.71098297986812,-0.021811985890482624,-0.0073488271703195055,-0.1422268701018397
1700843968.5136137,-0.7698784792932494,2.746797333108114,7.945230306595236,-0.052299496769717325,0.008634413632359476,-0.1544288200558726
1700843968.5240555,-0.8459043901181074,-0.023034536512552214,11.330491810804677,-0.05066134432282235,-0.007087616054099067,-0.1320087117375437
1700843968.533528,-0.6179315055751001,-3.041482494661204,10.552043260205911,-0.020132627951584672,-0.020284228311128662,-0.1270648342789714
1700843968.5435288,-1.0225968633565063,-0.5968569963429838,9.96375092892502,-0.006999242019606098,-0.028274291087581633,-0.1359953386010234
1700843968.553567,0.1846049359426055,1.1357216512165718,10.014406263810855,-0.024246347584258355,-0.030524816388601248,-0.1365340006770198
1700843968.5635254,1.906672959866824,0.5140463199427976,9.127552084380403,-0.05038999515595429,-0.005315012313971546,-0.1504423273028437
1700843968.573547,-1.134793050163442,-2.232475564288993,9.44059512459758,-0.023960336068046293,-0.022988536592022674,-0.1757492077769343
