time,ax,ay,az,wx,wy,wz
1700843901.01678,1.1407136814179188,0.8280744853463831,9.746327805016904,-0.0024583317303392325,0.0015415526495378392,0.0004610200652136
1700843901.027159,0.99037103960568,0.6006702457999284,9.74609525921689,0.0005111155834069692,-0.0009897700376291895,0.0014784126077215
1700843901.0412316,1.098026962496811,0.7555326795880736,9.73952738314609,-0.0014688677293801138,-0.0003031892721072819,0.0005772492848704
1700843901.046124,1.1034010208236729,0.5877277678497914,9.675560415679499,0.0006508173574958752,-0.0006213338579935903,0.0020599289099122
1700843901.0561273,1.1310556115992443,0.5913067182168024,9.66767369056552,0.002362567925113853,0.0008960017373326868,0.0002341766638351
1700843901.0662582,1.0873686437674188,0.8780281090105053,9.786646781329408,-0.0009287195368807665,0.0008311564214366424,0.0004587953838749
1700843901.0761194,1.0633777363369885,0.672909455312291,9.733642789108378,0.0002484850145378009,7.008192236901665e-05,0.0004070224793763
1700843901.0862408,1.102837179860233,0.6035382631492107,9.689746591692447,0.003324085392075745,-0.000163490507407107,0.0013532363344352
1700843901.096907,1.0880298097735743,0.8457832478601963,9.794960708977904,-0.00010020022887922447,-0.0003303873607386679,1.707358788267802e-06
1700843901.1083078,1.074900601973278,0.623162650438321,9.710882748474365,0.001440952896357679,-0.00034045552479490017,-0.0015107678947602
1700843901.1208525,1.2327176872878822,0.8067574730178815,9.683652026076809,0.0007700202309637428,0.0022571985629917723,0.0021277310559894
1700843901.1291373,0.8053569815565123,0.7263882250701936,9.877781676592464,-0.000965205024378624,-0.0017374326604035182,-0.0005369737511132
1700843901.1370652,1.3407302675480643,0.7312124273722521,9.596547866613333,0.00029393864054164933,0.0013675921556245913,0.0025371476775403
1700843901.1461425,0.9055235065434155,0.664502801501689,9.812769433054278,-0.0002689584629433837,-0.0012706514291348058,-0.0003045168588501
1700843901.156175,1.1577337332078141,0.7058634437793577,9.690229375879222,0.0003274632914692979,7.082649151273026e-05,9.259332440750405e-05
1700843901.166241,1.2251586365081342,0.7269813233958767,9.663657623002793,0.0006660931019940845,0.0025090253502516907,0.0012128058122839
1700843901.1761358,0.8690673183217313,0.7912454404663031,9.885414625727641,-0.0010352447748647046,-0.0020499901883743858,0.0006305371033163
1700843901.1913724,1.237977089274759,0.5912754490218968,9.600840518178888,0.0018421603400196013,0.0034895220836425617,-0.0009911089902375
1700843901.196612,0.8637825430073439,0.9083867618172877,9.918627976687821,0.00026748486064615695,0.0006542083064948994,7.138230725148423e-05
1700843901.2064912,0.970244371296307,0.7530980302752645,9.819460623099378,-0.000527113426058805,-0.0022276835574250504,0.0001496018492984
1700843901.21669,1.1299470197342423,0.5395370210442615,9.645361706198965,0.0023748781561904212,-0.0010378161563363182,-0.0011613406706233
1700843901.226149,1.1211440150840815,0.8314508661381242,9.74293243182106,-0.0006560207372550584,8.087250308372062e-05,-0.002021136856601
1700843901.2361517,1.1520390024807081,0.7305376963424003,9.704089747303758,-3.538285488740577e-05,0.0006538333439639195,-3.593000579668479e-05
1700843901.2461095,1.041067908005938,0.6716384130272385,9.749406520237132,0.0007946117330972519,-0.00028269929139381074,-0.0002072817179937
1700843901.2562294,0.9956606738271454,0.8742816525651254,9.841335619318508,-0.0014878638501184317,-0.003047986590475858,0.0018151817610855
1700843901.266186,1.2881225521004234,0.6069248028126261,9.60899239162363,0.0007189923474966555,0.0012122533347092227,0.0012433445197898
1700843901.2761462,1.0897600668061398,0.6425734248021516,9.707981974302317,0.002024708530582571,0.001251369320879997,0.0004964115986153
1700843901.286286,0.9638172708929306,0.7310017073483601,9.817209937637879,0.0007867888415119986,-0.0010229310254352621,-0.0010786359663684
1700843901.2969923,1.0711868437255778,0.7232182371625754,9.7508872645538,0.0005614146616401287,-0.0016387106865703536,-0.0008875214727227
1700843901.306507,1.0967598644973553,0.7550520110668346,9.740738603355961,0.00041016287245177786,-0.001793309631235102,0.000347043079128
1700843901.316147,1.2021746960245405,0.6849966386112087,9.657393808889273,0.0003513216492250578,0.0009161045860186679,-0.0006356853292886
1700843901.3261833,1.0186179958404398,0.6413607849119893,9.743629895796236,0.002442682316211511,-0.0009193491837833741,0.0005277333228518
1700843901.336198,1.1484671179721417,0.7738372538681256,9.707090515778326,-1.192680711261233e-05,0.001244284002273027,-0.0015498894964907
1700843901.346155,1.0107192524890785,0.7295378835934161,9.781305204318157,8.197222872625532e-05,-0.0008977602313175913,-0.0003443746710759
1700843901.356134,1.193404513844175,0.7052618620021383,9.674335058895846,6.258882685711752e-05,0.0010941631500509246,-0.0004881751839634
1700843901.3662436,1.0446387623467563,0.69932734431616,9.74785993139431,0.0007271862704986522,-9.345984542499413e-05,0.0001022843178729
1700843901.3762517,1.1561993918590237,0.7307034227404208,9.702384497168921,0.000341974013005549,0.0012707442813868245,-8.719990691601206e-06
1700843901.386135,1.1282536284860503,0.822138216842639,9.744775701392664,-0.0008582948529303933,0.0014704080416300157,0.0014735871926318
1700843901.3963094,1.0758450563881503,0.5858238810126812,9.695952999571514,0.0016391415432752629,0.0012163512674296516,0.0010064173373761
1700843901.4062543,0.9746090537422629,0.7799534198197373,9.822196562248205,-0.00022686058955168515,-0.000980451959872697,0.0002598638646672
1700843901.4161952,1.0923944017878848,0.5700894079544667,9.671976582492091,0.0015549405033161434,0.00013826052993443568,-0.0026741741923247
1700843901.426155,0.965616464419707,0.8494423262321917,9.836479251049314,0.0004921183508416613,-0.00355686739988859,0.0002919115766785
1700843901.4361506,1.3098990326559783,0.7448560414269326,9.6183346551324,-0.00044887754939079363,0.0011366284724171182,-2.7723191269173197e-05
1700843901.4461968,0.9889910365824216,0.6565233951752836,9.766448608039006,0.0009033904547365032,-0.0010769324368776014,0.0002211236104271
1700843901.4562027,1.1072989382260405,0.7683880403880212,9.757308509087155,-0.00028720315635834287,-0.0008139298974255301,-0.0003413953701597
1700843901.4662144,1.0189653804821595,0.6121946128311901,9.739590442979022,0.0011265234611025899,-0.001775795315237794,-0.0018773325020079
1700843901.4761655,1.2351045897536108,0.8721686560259823,9.718375296563682,-0.0006422232015569073,0.0003252693948209125,0.0005880645010988
1700843901.4873855,1.1121594583462726,0.7427915679481416,9.726475460861112,-0.0009015166629164222,0.000615835180031353,0.0010745792067977
1700843901.4966805,1.0319088147972906,0.7321640575515284,9.757545383243594,-0.0023677815567963298,0.00022244191421541117,-0.0009519737679143
1700843901.5061817,0.9501420691172082,0.5367547970518375,9.751978005211683,0.0017944928731288942,-0.0030725633994336454,0.0006033423386183
1700843901.516151,1.2356314354213451,0.9681621742858206,9.74559180843987,-0.003143768446878892,-0.00045185200804395416,0.0012284559314507
1700843901.526224,1.0270220891472732,0.6015223675832859,9.73048223048733,-0.0007383413835495774,-0.0018618512682975147,0.0010634096805374
1700843901.536289,1.2194386962883113,0.5840086854256434,9.593426006675136,0.001969552781481616,0.0010003027691922804,0.001383782259691
1700843901.546161,1.003777275568915,0.8026684422039835,9.80120879841683,-0.0003870540743568118,-0.0004693436619552937,0.0005232420997713
1700843901.5561905,1.231253609034227,0.8390406587097001,9.699572665403725,-0.002123417049216322,0.001883537748801123,0.0024108570767934
1700843901.5662704,0.9968463191766525,0.5524963654532407,9.732916642895525,-0.00014565684188449935,0.0007521809480523393,-0.0002907315385159
1700843901.576294,0.9515790995210744,0.6105829154357284,9.775943097129758,0.002495213920445796,-0.002456777165473958,0.0003917309557805
1700843901.5862207,1.2447634051389347,0.7650831380088664,9.664428001982754,0.0009216448183177833,0.000950376907523229,-0.0007150272605572
1700843901.5962312,1.0423556270154604,0.8071391552424716,9.785763735124489,-0.00033937220280295846,-0.0004488502478339938,0.000509834445293
1700843901.6062536,1.1400620639883408,0.6249821702076179,9.674424587779173,0.001221150179042508,0.0009302590392000266,-0.0002430386258852
1700843901.6165323,1.0415705026784705,0.7860862538019369,9.77588519872559,0.00014827769016343873,-0.0004514545615443243,0.0009035969095207
1700843901.6272702,1.0610091099669443,0.5777221286941975,9.709510427901286,0.0019963900214441683,-0.0004972695639303663,-0.0012987944529954
1700843901.6374457,1.1916724881060587,0.7758348426969466,9.703473736683707,0.0004995618121315647,0.001714411174455462,-0.0014590197708089
1700843901.6492164,1.1397308007404812,0.7214433729465463,9.711721442298737,0.0014562116108453567,0.002188288101275872,0.0003317650233297
1700843901.6562042,0.8542370461855004,0.77679876804125,9.885122789925655,0.0005867455651386185,-0.0014327021313304013,0.0004207973405213
1700843901.6681466,1.0497985645045387,0.6489696893616754,9.733526503486614,0.00159816105862867,-0.002044015867414023,-0.0008469204650823
1700843901.6761496,1.2116918164066222,0.8423064657787569,9.711532625340512,-0.0002842409900768615,-0.0002793460169133737,-0.0004877963685062
1700843901.6861763,1.0227208841587536,0.6163921757164209,9.740999817880482,7.413932211433163e-05,-0.0007483596383659864,-0.0035339686320726
1700843901.6966047,1.1169982415125257,0.8841615078235847,9.766596231281941,-0.0005401469892200742,-0.0020980426747165245,0.0023784401826928
1700843901.7062256,1.1334792402859333,0.5524190592633621,9.65212772736592,0.0012397790732182718,9.738691727137804e-06,-0.0004494283231538
1700843901.7161973,1.0396683896932901,0.8164582540868018,9.787156006725587,-0.0009804826324209567,-0.0009629446878199962,-0.0005511343944449
1700843901.7261782,1.180211142697377,0.7274000427352988,9.68046529248556,-0.0006280785826398311,0.0006169525613908559,0.0006614447018732
1700843901.7361984,0.9894278982547552,0.5524121969493685,9.72314150602025,0.001915178917723779,-0.0008452051412202473,-0.0011225851950798
1700843901.7462416,1.1648092962540433,0.8707896947982658,9.760912258927222,-0.00041499286413867564,-0.0001512005685592609,8.775835195125173e-06
1700843901.7562244,1.0786328354801167,0.7015280623562626,9.735202222424883,-0.0007268110092581551,-0.0001798848507264092,-0.0011985801858459
1700843901.7662463,1.075058783766879,0.7710509814713024,9.763991381538672,-0.0005148258534519827,-0.00139172333232643,0.0009475543164085
1700843901.7805102,1.1591860648617558,0.5568784914856528,9.632973027209866,0.002345065393458995,0.0018437052982718844,-0.0017272044671331
1700843901.786794,0.8940671664352923,0.9622243588983689,9.92190732140204,-0.0005837395927610692,-0.0010072761029777716,-0.0009512280113626
1700843901.7962666,1.0068982289132051,0.7321723321056693,9.774128980837022,-6.294407467723264e-05,-0.0030554378137025114,0.0004345760051732
1700843901.8065891,1.1765567976842617,0.6985138062562395,9.676739299714988,-0.0001102577399089787,-0.0012248311014902257,0.0001276190567664
1700843901.816219,1.189563081779496,0.6981609668595428,9.671351936920164,0.0010784924617113344,7.30621452159722e-05,0.0021277210442717
1700843901.8262565,1.1403381498266285,0.600026077694432,9.65507241421571,0.0028807594679694346,0.0017971429193596488,0.0007016776770255
1700843901.8361936,0.9997511255767221,0.7982532461261689,9.82755958751177,0.001749778770139695,-0.0006500126503007035,0.0018539175624396
1700843901.846171,1.1346184678846283,0.8996143742076238,9.772420142367874,-0.001496804187910959,-2.454287060274847e-05,0.0024600302102412
1700843901.8561797,0.9664886208246912,0.5990138761657603,9.769742482591319,0.0004571009835445182,-0.00233310386720281,0.0011133318883735
1700843901.8665557,1.247922472704063,0.7254075137452793,9.65149433429716,-0.00013222985078623282,0.0012372151775273735,0.0004189397885424
1700843901.8761995,0.9979705086567797,0.6934311083904174,9.76986808982423,-0.00037400912598474343,-0.0002611004817312186,-0.0011211012489725
1700843901.8888795,1.0957462266991325,0.7122333061907498,9.723658566501497,3.092492271266812e-05,-0.0002827013179053361,-0.0003913058200482
1700843901.896233,1.1981904291335332,0.7600171724936902,9.686241712429311,-0.0006981355732657371,0.0014819629201490861,-0.0005090275546167
1700843901.9061952,1.053778999921697,0.6945505049756276,9.745632339013675,-0.0006791223947415046,0.0009682389191845538,-0.0011121633462239
1700843901.916201,1.0396539470767565,0.7019523214977718,9.750257960112274,4.992505370628543e-05,-0.00039819027259828903,-0.0002389532629963
1700843901.9261937,1.1251262162093814,0.7514427775990515,9.737051873502875,-0.0011999127889592823,0.0004712896321700296,-0.0014537683920566
1700843901.9362705,1.0155616778747225,0.7697123755788987,9.795862418251948,-0.0013034667188700278,-0.0019203457045681423,0.000349643382688
1700843901.9461794,1.0758731621307636,0.580028108784518,9.686716454864328,-0.00025070406360314454,-0.001062378723802885,-0.0025236687389765
1700843901.956224,1.1806643167901878,0.6557106804106693,9.659854648803563,0.0025112272032284293,-4.614706773524056e-05,0.0001961555506936
1700843901.9671948,1.1213108318555254,0.7346380810390025,9.730407160144926,0.0020485387451786513,0.0004623650060920334,0.0001320826821397
1700843901.976195,1.1892594220278188,0.7608867132812969,9.687654312636539,0.0011212991405619942,0.0024170207353738644,0.0002721600293084
1700843901.990948,0.8828585209235533,0.754299276830811,9.852007017822853,-0.0010363696473098514,-0.003450316744630766,-0.001007848698609
1700843901.9962552,1.6693499068792452,0.910092378268932,9.494729042602783,-0.001843648008273054,0.002069437927667849,0.0017440189374979
1700843902.0076013,1.0173189411787023,0.5230669132492591,9.699312445826806,0.0018701048242764932,0.0009760727515356107,0.0001417849096837
1700843902.0176337,1.0071208640347906,0.8801984703702029,9.832712957015982,-0.0011853752170753547,-0.0010989197826067462,0.0008913047030005
1700843902.0261948,1.0688397202150979,0.5015720131458391,9.678119457481507,0.0020243250690674644,-0.0011216358854455072,-0.000843199947812
1700843902.036181,1.1851899963659298,0.821324354806526,9.728245207680164,0.0006291937586909043,0.00018147598104217505,0.0006178476586141
1700843902.046244,1.0022410049177337,0.5443516893109626,9.722522490628984,0.0036288185118554133,-0.0014606171033161774,-0.0005827931919698
1700843902.056184,1.0541383361381909,0.9120543230209629,9.812915641679966,0.0002216704517345947,-0.0026020674828980133,0.0005228731687025
1700843902.0663142,1.229896862555524,0.7085520444474741,9.64801326535003,-0.000425800134480718,0.000917948405199141,-0.0008882781723145
1700843902.076209,0.9865577290309913,0.5492394939645492,9.727997380477591,0.002708285897609382,-0.0011558834581756542,-0.0009728440083195
1700843902.086231,1.097186629879128,0.8809925424910261,9.784323285080024,-0.0006947577746991247,-0.0011533061474602003,-0.0005373443010826
1700843902.0962284,1.1307973864833938,0.6596725877131422,9.694235973427114,0.0008750776537198176,-0.000545706552003091,0.0003004746802985
1700843902.1071854,1.0504134432183998,0.7058384084798183,9.758232531032093,0.00044890129333471766,-0.0012669284248825704,-0.0006520895287026
1700843902.1162307,1.0533422460886346,0.6637759397330825,9.7302136283119,0.001451391019477037,-0.001998549263411641,-0.0004959966637757
1700843902.126227,1.0994553847079773,0.8550096993532905,9.768379670487406,-0.0022899408448430396,-0.0012088135969940091,-0.0022256371331964
1700843902.1362534,1.1881857188411247,0.7685807644155828,9.710258040016999,-0.0029336544981887792,0.00029061403999008955,-0.0013803871580962
1700843902.146232,1.0827680315265569,0.6532008307278849,9.708923103737881,-0.0011123629573406334,-0.00020112561645989823,-0.000470665562861
1700843902.1562018,1.1363585387218724,0.7720312232855366,9.731819878079289,-0.001612682227680523,0.00022913023194840742,0.0007471268007434
1700843902.1662822,1.1135126262954482,0.6463525757417938,9.703871701424442,0.00039674819130536493,0.00036661262958954173,0.0017209293553973
1700843902.176265,1.0029923773032088,0.5894255386844677,9.738377250274622,0.0016138069325987994,-0.0005538991826373453,-0.0009728261967752
1700843902.1931992,1.155381723444053,0.7502094077402994,9.710145871124505,1.9754904013676327e-05,0.0016138375405648938,-0.0006971763679389
1700843902.1966386,0.9289752663506883,0.9672126634627856,9.911327132612954,-0.0011186978496668571,-7.781642891486711e-05,0.0006778435025266
1700843902.2066464,1.157619798681792,0.6570467909087973,9.68296999108765,-0.0001941018771706654,0.0014320442034949819,-1.9537622537895013e-05
1700843902.2164643,1.0623886776029143,0.5920890057605752,9.703257553561437,0.0021465286465023737,0.0011273139847417764,-0.0006159494397793
1700843902.2261908,1.04705144657992,0.7893718340006638,9.783014157647276,0.00010467382134048376,0.0003878456599992495,-0.0012503667268533
1700843902.2376032,1.1036790105058907,0.7236988876658814,9.73133672167864,0.00041127732064085825,0.0003766735130868265,-2.810060974253612e-05
1700843902.2462952,0.9560416724480886,0.6923553443939741,9.799890783525555,0.00073538867674306,-0.002095425707785491,-0.0002132455003079
1700843902.2563,1.1962934484413124,0.870504411230455,9.736787548599185,-0.002462777985486778,7.865988679636316e-06,-1.804494528143005e-05
1700843902.2663982,1.0752852002303168,0.582805057506443,9.694143612611315,0.0003170342954627796,-0.0002190040317659005,-0.0001227245549303
1700843902.2762473,1.0644919295125683,0.668126771495925,9.734852863065186,0.001068420717455746,-0.0007330923901223702,-0.0006107405526195
1700843902.2862306,1.1637262018146637,0.8198058090771194,9.728256692442935,-0.0011283822856669407,0.0007193964841675166,-0.000336559652314
1700843902.2962058,1.167167382581686,0.49734350624433044,9.620282283780622,0.0029109436912669344,0.002652456846300707,-0.0012332392390449
1700843902.3062537,0.992430049052262,0.7746527507201687,9.796390307195054,0.0024415651130408,-1.1127079062428408e-05,0.0003567297506747
1700843902.3162134,0.9966340408059827,0.9871301843804023,9.880753484094862,-0.0036980804352817155,-0.0018678318394210742,-0.0003313463995796
1700843902.3262231,1.0628991791473221,0.5233175673406459,9.680233159050367,-0.00027305538798217007,-0.0019449200491544383,-0.0014172612456236
1700843902.3362055,1.2405293372078179,0.7266150379005079,9.659857786852994,0.00040643726141672084,0.0006527159979610665,0.0003109008219694
1700843902.3462098,1.0291239675793515,0.6712732959404719,9.753250278991715,-0.0003151660131243796,0.00020269552260659802,-0.0029051421908293
1700843902.3562036,1.100339503308784,0.7725977604476971,9.749139317510561,-0.0004392104140544422,-0.0002808498156047607,-0.0009665042627234
1700843902.3678942,1.1683954297360648,0.6936165578018454,9.670147218200409,0.0012286055191320403,0.001066972556324622,0.0011159338872316
1700843902.376854,1.0290387503304728,0.7291984874408187,9.777644178400543,0.00016279374509618592,0.0002850319929394239,-0.0006520861526582
1700843902.3863704,1.2132232820413864,0.7349731662017023,9.668120634039822,-0.00016353852526549594,0.00269305668044592,-0.0002613101270612
1700843902.398204,0.9886423970696118,0.6857538880919917,9.771936232717144,-0.00027940142379121054,0.0009190815147626695,-0.0015401837182794
1700843902.4135814,1.032692996922832,0.7929997265386688,9.793765808487224,-0.002187488891844599,-0.0013656553517558047,-0.0005742139648277
1700843902.416253,1.3910982903625126,0.6045152993073908,9.532629160854954,-0.0006254701466583019,-0.00027338366395035973,0.0011479692301149
1700843902.4263184,1.037141969170107,0.6501418974866188,9.728699182748333,-0.0009238507181682728,-0.00019253902057971418,-0.0019469903083149
1700843902.4362414,1.1455102496201777,0.6840121660395989,9.696127958686326,0.0014506401086024762,-0.00040712003464154735,0.0014310896047759
1700843902.4463444,1.1031033604641003,0.8809028463737235,9.774697086333651,-0.0016376360110200484,-0.00028123250968389423,0.0021843532566349
1700843902.4562683,1.0218792778032584,0.5125146258077967,9.69435456105817,0.0008791790176670263,-0.0005214918049336682,-0.0008145058992881
1700843902.46664,1.0410139281933344,0.7920885085924791,9.786862813231194,-0.0017329848257016179,-0.001111202149972058,-0.0024785948218409
1700843902.4762366,1.1763604033394952,0.7339590316411264,9.6952204136566,-0.0010769737884767415,-5.397411104011853e-05,-0.0005459159612287
1700843902.4864092,1.1769023790466364,0.6337189547739782,9.671111761596038,0.0009544206131435553,0.0014797337609907075,-0.0001324106007446
1700843902.5041032,1.0747119529087068,0.7538647183412001,9.76301442912745,-0.00016278962388687482,0.0005551142099528701,0.0002803596988455
1700843902.508088,0.8482365468728135,0.5744263510896872,9.813058587096984,0.0008929633312454402,-0.0013704825460990435,0.000106753472974
1700843902.5163052,1.0769754510291782,0.7878710043657189,9.7642274272053,0.00020043228338935523,-0.001988886851602241,0.0012005011202204
1700843902.526258,1.2776773501635783,0.7462336639507211,9.639208851401689,-7.712445304913089e-05,0.0019249032143610156,0.0013253018958862
1700843902.536294,0.990971839063331,0.6592058291513676,9.761389935622784,0.00020825184880203876,0.0003338379566741559,-0.0006021559703726
1700843902.546306,1.0633384753945707,0.7059154122447778,9.754239951001503,0.00025147135571201585,-0.00012625588601252168,-0.0018363643204425
1700843902.5563018,1.1604616539925903,0.8671646508807349,9.742249336361422,-0.00046454175201541073,-0.00033409976442672805,0.0027695885626967
1700843902.5663068,1.0229594807028757,0.6623577592977171,9.762435255225403,-0.0005591577269699092,-0.001209928628563297,0.000586200240687
1700843902.57625,1.1634395811624667,0.7431352934703811,9.702597400928955,-0.0017657773684834643,0.000590882754863978,-0.0003849751548473
1700843902.5862572,1.1137239311218425,0.6664525406374522,9.687953703720686,-0.0009715684916840521,0.0013672188295949805,-0.0003525774692748
1700843902.5975702,1.0259668426958344,0.6084590451128921,9.731291858980686,0.0013537846319230456,-0.00026631421367625597,-0.0003756670513753
1700843902.6064763,0.9870893532984198,0.7248813013280858,9.790604377807643,0.001091149182688857,-0.0021382647872681946,-0.0006938134785373
1700843902.616264,1.1999705246280201,0.6867795003411505,9.660108013778578,0.00173340429575102,0.00016879243505254127,-0.0002400534459952
1700843902.6263018,1.0413244419034022,0.8443380479780517,9.786442699557318,-0.0012364053171014906,-0.0005188833127750568,-0.0007303208578009
1700843902.6362338,1.0817399506455219,0.6288092195683704,9.697071009418393,0.001988946297429852,-0.0014140655270259842,0.0019619498169417
1700843902.64623,1.0424716829143337,0.7454080858788998,9.780281639707022,-4.097049295355808e-05,-0.001575004305773627,-0.0006613920442391
1700843902.6562414,1.0626598672862493,0.6481723632736156,9.714705770564864,0.0001821679429637227,-0.0012874080575363386,-0.0031014654552195
1700843902.6662753,1.1283830842707296,0.8301229875135541,9.748779626577823,-0.0005241373092194688,-0.001499382529535193,5.870136086785896e-05
1700843902.6762395,1.1171264957648197,0.6208324444270886,9.681058429364873,0.0011019416934333962,-0.0007327022516357491,-0.0005973247345168
1700843902.6862595,1.0979419065559541,0.5895887700747537,9.677776644940312,0.0035178016956066956,-0.00044324322946448605,-0.000767185050026
1700843902.6962678,1.0870537076302473,0.7309827224972637,9.73744043754816,0.003369163536547797,-0.0007036525916235048,-0.000501565099657
1700843902.706279,1.048189920728964,0.8589317519125025,9.809617080629973,-3.797853419991002e-05,-0.0014096108964306137,-0.0012779327109087
1700843902.716329,1.189041229703044,0.7272491733037466,9.687959025263295,0.0004597168364312479,0.00016730825231489404,0.0001574205060392
1700843902.7262516,0.9926590409077506,0.7956291229464154,9.820474107576034,-0.0010188570040386593,-0.002198251983946786,0.0005653405285925
1700843902.7362978,1.215810387439258,0.6522508927853097,9.636528794079542,0.0005930654153970606,0.0002738597085301973,0.0012083327281657
1700843902.746314,1.142825806057562,0.579641502476931,9.644048571654716,0.0028077633247103983,0.0022400660051385872,-8.247256042478876e-05
1700843902.7572434,0.9633021979368149,0.9664653545740649,9.89703810265277,-0.0030036903121202657,-0.0008034920903630835,5.944569133178992e-05
1700843902.766378,1.1214030146918674,0.5846505853100142,9.67843122503037,-0.0004436721541540222,-0.000366151408283589,6.465812915893001e-05
1700843902.7762704,1.1708852657427666,0.6736754782955126,9.67922548494741,0.0009138243939441088,0.0009913457668284749,0.0005873073212937
1700843902.7862656,0.9783867111601139,0.6437355626786697,9.7674023283354,0.0011824157153826993,-0.0007144913057125417,-0.0012447876389701
1700843902.796786,1.1646750887583954,0.7116493194340622,9.698500069174008,0.0017628089144953434,0.00039903931866704806,-0.0002218038308997
1700843902.8079798,1.0705710387446832,0.7660222504898363,9.769391591382124,0.0008586839289891846,-0.0004130781118070447,0.0001574167807489
1700843902.816491,1.1830687043352774,0.7538777656108646,9.704362936847026,-0.00015831792345868958,0.0012726030378293546,-0.0002151071559269
1700843902.8262744,1.1257711350723292,0.660832805519575,9.701799664669068,0.0007290384742149449,0.0020646025756263235,-0.0004341588238817
1700843902.8369763,1.0186524535699446,0.8381022970308868,9.805780559347289,-0.0013243321971631917,0.00014569939558651158,0.0008741747995741
1700843902.8463764,1.0610790834968462,0.6880773080451288,9.726333792834048,-0.001274042169782084,-0.0001195366000182189,0.0002308160590841
1700843902.856268,1.1868388324085972,0.6184497226741902,9.641746709721032,0.0005044177150931461,0.0019167074890642487,-0.0001189923379202
1700843902.866313,0.863324661456623,0.723472015935553,9.858990935523861,0.00019894147807899827,-0.0030014221556675918,-0.0005664000520114
1700843902.8766704,1.1493300439231349,0.8193310903980445,9.750245322004453,-0.001697231360314674,-0.0021609933140933233,-0.0001834534224685
1700843902.8862698,1.110196643098505,0.6659354384122047,9.700346004792056,-0.0019222305636500381,-0.0008694391407119654,-0.0024216046323631
1700843902.896306,1.1369470375797932,0.5788969871245924,9.657164160102758,0.0025890943893913227,-0.0008374023040017026,0.0004494574548884
1700843902.9062915,1.102412357056014,0.8534048196706203,9.771589567131095,0.0006359124680873669,-0.0011905532783970572,0.0023374623386557
1700843902.916277,1.038222114576267,0.5946650718380281,9.712354049025642,0.0010289295509271967,-0.0008411270195171071,-0.0015673946356032
1700843902.9262598,1.068940285313902,0.7482573160243291,9.756228786692063,0.001397371721069271,-0.0021196317024207265,0.0007992782455771
1700843902.936272,1.0460135295015154,0.6752963202589942,9.7533801732055,0.00045115073103371364,-0.0021453420341992786,-0.0026760345091675
1700843902.9462826,1.2068863773375482,0.7760732351170618,9.671763699200135,0.001514711517111996,-0.0010743220637354609,0.0017782957991953
1700843902.956275,1.1677387589931492,0.6995749429206277,9.684634516860871,0.0008568139941880274,0.001061757094647108,-9.328160664109785e-05
1700843902.9663591,0.9767195568562881,0.7815609961185975,9.821005358952847,-0.001038611303090591,-0.001051609021272156,-0.0012861311435331
1700843902.976268,1.270116742447966,0.7111091985734858,9.63639557896461,-0.0004492751417637855,0.0022571995184336164,-0.0002862553693917
1700843902.986279,0.9593380514335644,0.7117693839735922,9.820323933266618,0.0008322346065220278,-0.001512043914122666,0.0019954837160553
1700843902.9966345,1.1562007423706564,0.6339268688748295,9.673951846824963,0.0016480759686066156,0.00042100670185705124,0.0005418528934028
1700843903.0062726,1.0714900909742104,0.8773126780701777,9.794319271559935,-0.0015024019707418638,-0.000130342876163394,0.0009464367293189
1700843903.0162988,1.127184999640804,0.644185691137189,9.682364395311735,-0.0007469193095572412,0.0011574893072079189,-0.0005664122756202
1700843903.026294,1.06600382364395,0.7483972335702115,9.758238065798489,-0.00205857664329324,0.0007935307852125244,-0.0015092796412859
1700843903.0363076,1.0254606362623573,0.6853314080571509,9.748935472374203,-0.00048130150398308596,-0.0010832748964516724,0.0005604989754287
1700843903.0463214,1.0777703571163655,0.6800156628957685,9.71534667348573,-0.0012125767151082482,-0.0002614726748384155,-0.0015688777668033
1700843903.0569258,1.2013880085953286,0.685316825097231,9.66441906284136,0.0006277100471824107,0.0013433879676027043,0.0006443012797176
1700843903.066368,0.8940200281124662,0.6929082093814738,9.84098728925643,-0.00019110486328955583,-0.002166948384945144,-0.001711186184511
1700843903.076485,1.1291285410121685,0.8407257020027074,9.759787102134108,-0.0008042676849871722,-0.002821867222370555,0.0019641840597982
1700843903.086289,1.1751753817858224,0.694277949441752,9.673052915606746,-0.0017143694820650067,-0.0003471576623159819,-0.0005988179938499
1700843903.0962884,1.164421037305229,0.618196992263087,9.676666285253521,0.00019669989029780786,0.0011813339019270805,-0.0012321140849594
1700843903.1062925,1.1068797122456953,0.8146017838043013,9.765093766314019,-0.0007044223183985216,0.000746225752929053,0.0008253704989697
1700843903.116289,1.0070421278416246,0.656605051306523,9.759634568270165,0.00012741884989895798,-0.0007882277865889156,0.0003403287090263
1700843903.126301,1.1392554712058227,0.6797160687893907,9.69393324281713,-0.0002108404981138406,0.0008784690475224991,-0.0020364049588893
1700843903.1364994,1.0711539481611043,0.7240993727381144,9.74979332664023,0.0006638621192100253,-0.0005621034538622354,0.0006182303739847
1700843903.1473148,1.0625889121176195,0.6791306195974826,9.740712234258737,0.0012237661673339612,-0.0010951856838173448,0.0001589102438087
1700843903.158854,1.0134542467534158,0.6306996724765341,9.731435152784716,0.002964232979989642,-0.0026780561273510484,-0.0005772019968931
1700843903.1663644,1.1749812579172334,0.8770702261997543,9.733307506805263,3.912118728064508e-05,-0.0012479281452346103,-0.0009098737965901
1700843903.1764045,1.1976091295017361,0.6739167993672939,9.657477512980789,0.0005640138862046548,0.0013590305253730766,-0.0015815484104309
1700843903.1863172,0.9466165089472491,0.727434113146845,9.82055679262148,0.000725318731176603,-0.0020000609222107597,-0.0007534202187885
1700843903.1962962,1.1774465286382698,0.8173635536946264,9.716200589500561,-0.00209994865661647,0.0003937961997768647,-0.0022193141514067
1700843903.2063482,1.1459703704672919,0.6670741425008222,9.675157103813497,0.0005494914347913537,0.0006311141176192849,0.0009136390115968
1700843903.216282,1.1025032871319884,0.7700823832045511,9.74641970495392,-0.00015868845937269964,0.0006106140613635737,0.0017723449971895
1700843903.2262857,1.0810976956188796,0.6454313162464167,9.717717261070138,0.0005349555003894829,0.0007506949663052988,0.0002498140064203
1700843903.2362957,1.1884873340371984,0.8142600129353037,9.711320228574047,-0.0023689341879823246,0.0034261786457445804,-0.0010212655644495
1700843903.246281,1.0223205631723526,0.673030321655593,9.745288543417546,-0.0013362432018147056,0.0019334764227660855,-0.0004192421212424
1700843903.2562742,1.0102272202184874,0.6909135489029425,9.769930888174612,0.0002458742287287788,-0.0002927594969851869,0.0013711174368295
1700843903.2674224,1.108836454680057,0.6290048212693232,9.696478233102724,0.00037775094545304067,0.0012483865809365486,-0.0020915418164436
1700843903.2776673,0.9649860788796987,0.8450283584211108,9.844725288836349,-0.0019747628496938193,-0.0019266798682397257,-0.0011300417128582
1700843903.286366,1.1300264682517678,0.6506815747747327,9.68757626213209,-0.000960007878242998,-0.0010199406437324983,-0.0015703688142452
1700843903.2964685,1.121933864965301,0.6549991894356919,9.688662221404709,0.00021941771997006568,-6.551848879750696e-05,-0.0017096997936819
1700843903.3062844,1.0920256879431587,0.7207727890423329,9.726477111742815,0.00019857096119007224,-1.970084948934342e-05,-0.0013710668310154
1700843903.3162878,1.0345666266363531,0.7165136301036346,9.768499576572378,0.0013187645813608848,-0.0020674886734581466,0.0004546986673089
1700843903.326319,1.1098266188942925,0.6674613386061922,9.696922900949225,0.0004976913017886047,-0.00047643484900891875,-0.0032448933226619
1700843903.336364,1.1028402365364487,0.8669541390745731,9.770762304051672,-0.0010758543666216194,-0.0009428208062897859,-0.0006282403366271
1700843903.346319,1.2476262674815526,0.6828092870922147,9.63098427413135,0.0003855546785315213,0.001860090677355609,0.000862968136826
1700843903.3562994,0.9205741848268757,0.6649472799682165,9.818575483806656,0.00034905150086985987,-0.0010832719654397139,-0.0017145410412554
1700843903.3663745,1.1837543711460752,0.796762205470185,9.718358223390881,-0.0002387944377914347,5.2194462868360375e-05,0.0001086317759841
1700843903.3763266,1.0326987801187968,0.6828246734436699,9.75839585264148,-0.0003695286152461471,-0.0006798122145577552,-0.0015286395093057
1700843903.3863428,1.1360281809907635,0.6081055756151531,9.679483345405306,0.0016044844608229026,0.00016658311222047533,-0.0021466616773609
1700843903.3963563,1.1151690488572308,0.9365142655831179,9.7974586528227,-0.0019568879252132637,-5.918964049804113e-05,-2.0647118762566612e-05
1700843903.4063451,1.1427054423763319,0.5927747009735317,9.657540614016606,0.0016875695798623709,0.0005290392939900754,0.0015961216530199
1700843903.416304,1.0406909238432915,0.6746345764498335,9.752538801124095,0.0012911949112837835,2.3515300933407053e-05,-0.000515000242703
1700843903.4263256,1.1107176365796696,0.8080172472034421,9.739511088585502,-0.0009387690532197676,0.0006858575002741369,-0.0004159300471287
1700843903.4362938,1.0013420179431722,0.6229346843193178,9.760364227899656,0.0015389279100947982,-0.0016986825889041858,0.0008127017179872
1700843903.4463022,1.2380084941876228,0.8310036398380455,9.682813929946363,-0.0005382973734779854,0.0013094856631036941,0.0012016149820196
1700843903.4563556,1.0686705515791113,0.6123310813090624,9.704574205158915,0.0007007231786232993,0.0013862308624271553,-0.0004822243237499
1700843903.4663763,0.8671586406714993,0.7938194742495366,9.871697438686686,-0.0015433683610470955,-0.002867307131487725,-0.0015297710662339
1700843903.4763172,1.121842448954254,0.7164247154501914,9.72003056751884,-0.0008057650455619542,-0.0028118033546026,0.0003440591798066
1700843903.4863884,1.2657852048532623,0.6206732084789588,9.608162358120177,0.0009033932135516549,0.0009105043785344165,0.0001100979687548
1700843903.4963174,0.9248193777519653,0.7957954624021563,9.839553639029475,-0.000917895491251184,-0.002452314884577841,-0.0002043066080291
1700843903.5066333,1.247997152817507,0.7315269598696789,9.649646512996247,-0.0012591453946808981,0.000963032218171923,-0.0003007827209871
1700843903.5177991,1.0297415966715402,0.5657948238493707,9.721071309862735,0.0022865902824585676,-0.0006403187189584193,0.0001682235859702
1700843903.5267031,1.1225892166721836,0.8242202265557694,9.761966399379594,-2.6063229477654033e-05,9.01938033214216e-05,-0.0006070154951517
1700843903.5366037,1.1090706911475265,0.8529254197681255,9.786100729412144,-0.0015847304648715298,-0.0007278805316197496,0.0013774533407199
1700843903.546389,1.2022151799452314,0.5941547175331737,9.634732021620676,0.00012440485758359978,0.0017561450718178433,-0.0002661530044492
1700843903.556573,0.8784830044402482,0.689710270429428,9.846302573050998,0.0009577962194493427,-0.0030055099286495097,1.921095539772613e-05
1700843903.566484,1.3275452629016344,0.8299079009878627,9.64324634421958,-0.0010263145252047703,0.001733414022169654,0.0006570068624937
1700843903.5763357,0.9501416520145713,0.6289317906433184,9.773183023853015,0.0007603422376667001,-0.0011283435106099714,0.0005079701303115
1700843903.5863264,1.1943428107122864,0.6936508406988066,9.674336920725747,0.0006340719578543382,0.0011943782351906808,-0.0004695304552656
1700843903.596393,1.10432671105393,0.7330920398480683,9.726547925676192,0.0011343510381500539,0.0007961416060369399,0.0009487064206409
1700843903.606331,1.1537639576180732,0.6789410722207181,9.682277880192954,0.0015512359423728958,0.0022851344924903097,0.000379452529924
1700843903.611529,0.9431905991611537,0.8686966141000259,9.868260201223285,-0.0006522957927278852,0.000913109816228057,-0.0004129288019244
1700843903.625836,1.0283601182252566,0.653204721608026,9.734750686339037,0.0005778071209564648,-0.0007241488625493709,-0.0001841891673025
1700843903.6354344,1.1540473246291378,0.6947315684099685,9.687169914686178,0.0008162270921807945,0.0005718743277773944,-0.0005854033399005
1700843903.6454694,0.9608532796323126,0.8073358417690835,9.826100565801127,-0.0015273515168076359,-0.0019304175627808927,-0.0011792156612132
1700843903.6554022,1.1213744273134638,0.5388438160757384,9.652200972391336,0.0017970879661390463,-0.0010404298456494784,-0.0018769653280828
1700843903.668417,1.0982648939068087,0.8574388676426865,9.777545032408481,-0.0007092881704324629,-0.0016074160538796089,0.0006230798433903
1700843903.6754327,1.293314399908942,0.6268697770705635,9.595127295549071,-7.635540733323622e-05,0.0017032500734570672,-0.0005716109182317
1700843903.6868649,1.0831191637614432,0.7452189321266125,9.743199690780425,-0.0002592630106663955,0.0010975141259341851,0.0006230923434854
1700843903.6954424,1.034068349893205,0.7589882362120111,9.78479746535023,-0.001205874730152194,6.262748249789222e-05,0.0002498178481259
1700843903.7156742,1.1010818380232144,0.7103907525312136,9.727207918090263,-0.0006962589257172407,0.0005484040121778521,0.0004520885075548
1700843903.7254262,1.1472655464343486,0.7671758360792645,9.724404549322657,-0.0018738302424091073,0.001736768026938909,-0.0003615052438904
1700843903.7354336,1.0087160172475373,0.5995658081929622,9.738780988781821,0.0012874741266921483,-0.00035832486905785984,0.000856274081198
1700843903.7454538,1.0520580357272382,0.6270155494653574,9.727062626217997,0.0023618459464582165,-0.0006943427373769476,-0.0005190899129588
1700843903.7553167,1.180876996119653,0.7434897074693374,9.693463660167883,0.0010143994163646038,0.0017431093831149747,-0.0020654706051204
1700843903.7654634,1.1488276381406857,0.865573759032191,9.725971205431488,-0.001447650907900921,0.0027191303050277,-0.0003074933657985
1700843903.7754943,1.0134978429482295,0.7099680543848532,9.771989743510945,-0.001363828547716772,0.0008944821751115351,-0.000271727202889
1700843903.7854416,0.9510519359017597,0.5861606404793173,9.75971301030212,0.0006161834258402206,-0.0018406115983902308,-0.0007493036565933
1700843903.795501,1.2566987320785359,0.802768671781526,9.663650896395037,-0.0012353261274271198,0.0019304843511262937,-0.001042116363496
1700843903.8058062,1.014702134242368,0.7249256612968051,9.787437436914228,-0.0010769887316747005,-0.0001258744257314491,-0.000216974806935
1700843903.815427,1.0894797349514256,0.5798745518436254,9.701064255555304,0.000936920306447742,0.0001412268985923596,-0.0019455029861633
1700843903.8254027,1.1183415749678005,0.7024460438011506,9.705015193789762,0.0015351868572492553,0.0005562477114769336,-0.0008860268164057
1700843903.835529,1.103602319779181,0.918674324784655,9.786455085600094,-0.0013325196129525423,-0.00018920620303281054,0.0021672254195805
1700843903.845405,1.0126852888312117,0.7027110521275224,9.781383279327589,-0.0024251523971029615,-0.0010162208129334263,-4.412191916300254e-05
1700843903.8553998,0.7928460565161887,0.3425396055693262,9.55401277920777,0.0018321239235227194,-0.00510209656474202,0.0014374425053033
1700843903.865588,1.5748592121478941,0.5946600588610369,9.767918422098687,0.005192900417509243,-0.01064130304931692,0.0117345303995903
1700843903.8754456,2.9046415221487267,0.8093138301405359,9.387155684566375,0.005667122330515655,0.005011177813015117,0.0251210323302443
1700843903.885421,0.46193268758362804,0.7553491272488448,9.93913846287944,0.007971267708397109,-0.00947000293953941,0.0291727698175604
1700843903.8954775,0.8620415550215446,1.0218394648264142,9.863571000721235,0.003656104109460039,-0.022496648621469058,0.0242890539346631
1700843903.9054196,1.6803626509954652,1.6329176911765588,9.94354519175087,-0.002877232030327107,-0.03275769123805969,0.0289645745186503
1700843903.9292622,1.3867837134734278,1.739299239129832,9.195220208355703,-0.013446748126293697,-0.04829091695644941,0.0324960323749478
1700843903.930229,-22.777563101366358,20.122876286580105,27.200043658036982,-0.05223375477475589,-0.09592905246680448,0.0267346101580555
1700843903.9354172,2.4000811010519625,0.059437988061954605,11.578512164821262,-0.05701978457444371,-0.10562738907246647,0.0204867656110222
1700843903.9557688,5.097575672236016,1.037636276956968,9.421607235730765,-0.008362335834508294,-0.07746615146165306,-0.0013529602903504
1700843903.9669018,6.009384624170503,5.123078082786952,8.43007499618873,-0.06208707411167574,-0.035184644018150246,0.0070008771261568
1700843903.9774132,5.500752882408997,0.47674527309993975,9.152113557668448,-0.06733066229103302,-0.009937482685916323,0.0215495574055607
1700843903.9855657,0.9789122187058361,-5.08924139066397,9.365015629878505,-0.006209081545280855,-0.032608366229871726,0.0315045500873024
1700843903.9955144,2.794454833251221,-0.5674341487737785,9.934247936965257,0.0187718656358046,-0.05254026637964493,0.0576822916744645
1700843904.0055206,5.43071393850444,2.0982855783199374,8.972542028043858,0.007600938249833806,-0.017988563780474774,0.0852942886529858
1700843904.0154722,4.123432392663709,1.4857933870834572,10.473050297471435,-0.012746679224548405,0.0018063008221092702,0.0985509949503834
1700843904.0255125,2.2411300812091692,-0.7994053517759299,9.134075081915512,-0.006842644280827483,0.024531624803041947,0.0975669222651417
1700843904.0355077,-5.141399659316977,0.5283579014478456,8.689377270406254,0.0034686867646413822,-0.06019343161848233,0.0998295965372021
1700843904.0454571,2.9206586343809664,6.901880349031162,8.23213086495452,-0.07595485459023747,-0.07312213569696845,0.0890173586784298
1700843904.055523,9.75020746888404,5.63985574212967,8.1247596256993,-0.14967829533940905,0.03277911486509101,0.1092666211305554
1700843904.0655415,2.6058059321655063,-8.790912018562787,10.549529692263674,-0.04482154525030271,0.034850173955396496,0.0862790467916424
1700843904.075503,-3.1418691947387996,-6.112903304024,9.341230970691349,0.046378757126594235,-0.0055191705899785915,0.0018188756192471
1700843904.0854146,-2.082649276627954,0.9632849692880101,12.628944713104975,0.04882279041840687,-0.06896160899920306,-0.0258801141054932
1700843904.095505,1.4310948439843658,5.863246555752015,11.166597489376862,-0.0011480384847911908,-0.08980971035851051,-0.0235520125599209
1700843904.105434,3.472290688915637,8.273903089120237,9.756481712598966,-0.09753760113269996,-0.0837777227658391,-0.041144530218989
1700843904.1154308,9.140936818388937,3.8408948640298948,8.261431203572126,-0.15395327865129627,0.0006231136188317116,-0.0279386406065527
1700843904.1254404,3.1973693571087125,-6.489096247509666,8.40998478487487,-0.06524571909496436,0.02280413653286764,-0.0401088808895651
1700843904.135403,-1.094397027735368,-9.820797475641767,7.605109546877604,0.04815600645266607,-0.006548582326984844,-0.0810402733506266
1700843904.1454966,1.5107232594270157,-5.362576154192523,8.403416692965079,0.14387795257847955,-0.008313805791265422,-0.0591544200898711
1700843904.155412,-2.915738423934763,2.93295289415134,8.707888339403183,0.12240199366606645,-0.060504472056129244,-0.0769853246630732
1700843904.166495,1.9762687458644947,9.34741436000247,10.844552759341147,0.011322679262154849,-0.07045217480579333,-0.0872912806691233
1700843904.1755395,4.31332074045178,9.290493724149496,12.353470296772915,-0.11223781670886944,-0.026118787692700204,-0.0974295688094203
1700843904.1854663,1.7691090233567166,-1.116057908554596,12.94698124902192,-0.10550141689804919,-0.03251342060419613,-0.1042261299909655
1700843904.1955173,0.2083449641058502,-6.863239757862661,10.060634422444174,-0.013622698974242627,-0.05292915343940221,-0.1325181377352778
1700843904.2154129,0.8381761170999238,1.9683503186910047,4.86373458903021,0.05483161138170829,-0.11331724628078876,-0.1188409802736346
1700843904.225431,8.603015117696637,7.939047313933323,6.296368800255493,-0.048081287316859754,-0.02923911059139662,-0.1068269786657397
1700843904.2354982,8.567804835104944,2.4318568606250657,9.911013838106081,-0.0861952089724575,0.0563119607650793,-0.0892342952312533
1700843904.2454245,6.822109315233962,-3.164227047300735,10.27522018968076,-0.05101551439832576,0.11618003966435744,-0.1167309087933604
1700843904.2554047,-1.6742034593107173,-4.104392919415113,12.472222557698977,-0.006797685176973813,0.10491354548382248,-0.1165496063651148
1700843904.2655206,-12.176610681596317,-1.493041704592617,15.988511981922823,0.03431712669545446,-0.08236007128226314,-0.0778254893840853
1700843904.275453,-1.2268518284269792,1.7864127141755135,13.506747030491253,0.024719803706427304,-0.16691093939270324,-0.0700661120237414
1700843904.2854712,6.7283199290297535,7.623087220595298,6.924667088302358,-0.04338974971348048,-0.095271314095086,-0.0520549779058997
1700843904.295445,6.364388599026618,8.029707690323136,7.8735823896236425,-0.14658772695767713,-0.043216266306186045,-0.0320292887510363
1700843904.3054874,9.67225755894162,3.9501118973731058,8.236080423132295,-0.2058475566114469,0.051398182793528154,-0.0460255098761622
1700843904.3154488,7.9749518656517475,-6.786446419488898,7.727788258200015,-0.13791929355785854,0.14929270007588333,-0.0581321035744254
1700843904.3254611,-1.2344412960811968,-14.020751597846814,7.914510585451982,0.03460460689277692,0.1480457816800033,-0.0659069446147982
1700843904.335422,-9.099693707975275,-8.0281662620651,11.33469600423147,0.16851969082662285,0.013806594737211665,-0.0687787411035601
1700843904.345399,-2.8086194378739244,7.505337685424688,11.426757762264955,0.11550524586397128,-0.061008227836719,-0.0404542972566191
1700843904.355399,6.0353133692236405,15.496105418003248,11.834979589374315,-0.06714415402513317,-0.02598566771838109,-0.0157421128125493
1700843904.3654964,9.826569566497092,7.829707258716254,10.05599911030821,-0.18165068002408968,0.08003641989693001,-0.024723625672013
1700843904.3754563,2.3384292022982818,-3.3349716973824806,8.278058337367105,-0.1537986917939173,0.11209929999385482,-0.0201520611764494
1700843904.3854153,-1.3574291929090962,-10.523853649318056,8.717717635275053,-0.027494793515268897,0.07976977780308052,0.0043201938504721
1700843904.3954754,-5.451779374724916,-11.092843025122807,10.553725376522365,0.13085314036967735,-0.006341972021291816,0.0108963261125977
1700843904.4054725,0.050891164177709655,4.911378944369204,11.84582000703417,0.12529891174174151,-0.05702938691860938,0.0380052077351506
1700843904.4154048,9.271935320389854,18.221416034636103,10.082104398809047,-0.0833428789577724,0.04436763710521806,0.0391056361375744
1700843904.4254713,6.7533079596163645,9.822363671999973,8.198790487697025,-0.22211484023234035,0.14643534290928278,0.0176600078819687
1700843904.435501,-0.7623502106853556,-2.4961704319509064,7.85634359273306,-0.2060583948135011,0.1418759580167153,-0.0015311515191201
1700843904.445429,-4.474201616141767,-12.52485135471454,8.982456840967394,-0.06913934905598156,0.0906588100472451,-0.01590313476041
1700843904.455961,-6.738579198080465,-16.119988926052816,11.597333659254483,0.15138581937752882,-0.005011603099052286,0.010207325289994
1700843904.4654033,-4.69560355194796,4.177730504791733,14.351841953932459,0.16352742739018097,-0.10901498515942126,0.0235821223585303
1700843904.4754336,7.088635292238859,20.826800446873676,11.629556404865085,-0.0783721576280143,-0.019995223959337362,0.0015956569230552
1700843904.485451,8.610572054718393,16.069613280954094,9.722319127911447,-0.2912133575497545,0.08467210392736743,0.0246886844514306
1700843904.4954956,3.5266130568639094,-1.3320151224426036,7.181944374461065,-0.28509824010646556,0.12631170892777788,0.0144328410504754
1700843904.5053947,-8.206040227710897,-15.058673676944624,3.914660673316696,-0.12441013227108463,0.03997323157284715,0.0100658229319746
1700843904.5154085,-8.360702568483138,-21.20814041525806,7.2446990757999234,0.13949725398822924,-0.0885818390890892,0.0488087954698498
1700843904.52548,-5.28846675010883,-10.327626586881912,9.819939788022467,0.3156231012454284,-0.19263894450574462,0.0514934780775006
1700843904.535437,10.675346504231685,19.028798423556402,13.56404747272964,0.12012623018448294,-0.1284405669851485,0.0662535029231007
1700843904.5455344,17.76286701840339,22.16391924290249,9.775510278218846,-0.15250426728416994,0.1269332305833197,0.070317086833566
1700843904.5554347,2.848994892228728,1.791087364837629,10.804657692866227,-0.22711388432330099,0.18669844600372287,0.0146537265507872
1700843904.565555,-6.478840314635585,-11.277215531205625,9.293014883914559,-0.10137877741238635,0.09297800082989045,-0.0079586076782648
1700843904.5754955,-3.4083979996081437,-15.57852677364185,8.0491636350677,0.10221500240262707,0.0352464283783557,0.0310574072180684
1700843904.5854695,-10.822449776216237,-1.3258713662812978,11.458950980394572,0.16496564526063076,-0.12680182690788594,0.06932884182319
1700843904.595409,5.681801559685481,9.247721802833409,11.49565437652998,0.05490533799205689,-0.1397608839927468,0.0993573489366467
1700843904.6054485,13.772296639530058,14.529615240903457,6.004023953208177,-0.09621210890291103,0.04381827537343799,0.1525238948641713
1700843904.6154144,3.072122038969647,4.447126735969836,8.399060114921191,-0.1840029994578019,0.0771442323775539,0.1602219092427189
1700843904.6255734,0.8189021440624761,-7.6833696545304395,6.662950378148292,-0.10728351383912581,0.07980307133749115,0.1682243841467793
1700843904.635413,-1.0333249070653632,-20.819600134588487,8.94332738650704,0.1263009440078822,0.06512358870723578,0.1908819573698933
1700843904.6454008,-11.50073223069348,-5.656598993958625,14.14030813394747,0.2733866522385389,-0.07969922943941098,0.2061252790270741
1700843904.6554527,-4.900483159305847,17.77531333025456,20.581732193693068,0.06107383611725259,-0.19115237977979685,0.1483815210638936
1700843904.6655974,9.302674322788764,12.672607842140668,11.525347121133592,-0.0972076657665046,-0.07584653414138906,0.1169391768752034
1700843904.6754315,3.213352306597622,1.7493449168838293,6.0699308961509,-0.1371007693489211,-0.014846547114718478,0.0729154842673237
1700843904.6854043,-3.514625011306177,-3.0642306900985186,4.129201209858975,-0.10923438064399404,-0.06925915012172469,0.0479351776419575
1700843904.6954296,4.153619997660239,-5.193728812056086,5.884524875009359,-0.05037596121656713,-0.05614475391506399,0.0659880312858517
1700843904.705414,9.511661424824116,-11.403564606645682,6.342196051339952,0.08831994066548231,0.059440054656718984,0.0636925595580037
1700843904.715443,2.298035326528646,-3.7184696077226493,12.068879943620338,0.1706912347853907,0.08766017798702927,0.0903791534481938
1700843904.725634,-5.290108949395791,11.22060507367251,14.77888442437894,0.08057182918971494,0.03674951440581596,0.0868418412981923
1700843904.735407,-9.705506553978218,10.387056224599494,14.911411276661227,-0.05622522220171566,-0.11083973119326361,0.081935060280412
1700843904.7454066,3.8682820418417965,2.7829539070319607,7.767552498292035,-0.08420235853198464,-0.10613907022171808,0.0830398398219044
1700843904.7554705,7.125630716725908,2.567616875808752,4.805910894037449,-0.11334509445391379,-0.008421051681689419,0.1040712195216115
1700843904.7655983,3.6357985807163242,-0.9696884437506286,5.975171083396078,-0.10247210167337466,0.018568147986663872,0.1290490972577031
1700843904.775426,6.0912282771706625,-6.301319543384039,6.657598112248495,-0.03782311666052082,0.07363936797729355,0.1560138958273823
1700843904.7855554,1.6944043806077018,-6.679035282967974,8.812283057606454,0.08384266370288856,0.11823838944455133,0.2136387872277196
1700843904.801452,-12.196677957072694,3.6217695562228163,17.24940233093389,0.06238731463425942,-0.06649542337634896,0.2412401932059224
1700843904.8058186,-22.364480181774837,2.5568581193081745,23.836452625568597,0.030839789286596787,-0.2442920422850863,0.220098634320348
1700843904.815425,1.0148303963867966,-3.614654646703385,8.973769899323305,0.08978344834686083,-0.25692418136215006,0.1756537603913243
1700843904.8254302,3.896003391871103,4.9794622932664785,5.260755042720135,0.035387486902091245,-0.1997657810469023,0.1673875051318104
1700843904.8361216,3.2071752182280093,2.350376201779579,7.495973665564338,0.000573436517853643,-0.18481975543188894,0.1706971871434147
1700843904.8455071,6.324302619220836,2.4211366298533905,6.86760030955762,-0.028005890007829787,-0.13092270376039125,0.1533179181395466
1700843904.8558357,10.55686156966555,-1.2630104908665565,7.355442665964442,-0.027068084079876164,-0.01280391408706542,0.1425792771159108
1700843904.867563,5.369567353147241,-2.1397109064699094,7.763921333127678,0.014555449594917367,0.06863127139473613,0.1477111029206212
1700843904.8755171,1.767798288429317,-4.67410567897662,11.522545354270653,0.07293709936548617,0.06788983277596866,0.1379190283595021
1700843904.895486,0.35039604042596245,6.250109062240966,11.020937620161755,-0.05119532622689604,0.03878506197498591,0.1461707847891743
1700843904.9054525,0.5635011553888256,-0.48731753330075395,9.054671986621388,-0.06308084856872995,0.01437125664559738,0.1528671878157551
1700843904.915467,3.8024514189034777,-8.301807918454676,7.043007230897427,0.030429575849915905,0.0411577855799313,0.1641011136351521
1700843904.92546,3.6981579986099375,-0.8897946869285708,7.867748071031164,0.07863512563036142,0.06749856575498292,0.1569134938298161
1700843904.9354963,4.665209075587346,6.5107102557440735,10.32622756068434,0.00882301448416191,0.12349856849552421,0.1736754226265843
1700843904.9456062,-5.2324979654854,5.838189863350796,14.774528794744182,-0.061551453517041055,0.06370584823345977,0.2021888541756566
1700843904.955536,-10.039816829175956,-4.203365121297879,15.13365958647358,-0.005672563566474011,-0.08605825072605136,0.1945428448496754
1700843904.96551,-1.5469348487201666,-0.5674936811370052,11.24015009072509,0.025524933331024683,-0.15264471454079145,0.2056766199646885
1700843904.9755397,8.41836244735642,4.8115276659166195,5.6520467192054475,-0.005419479788397226,-0.060661396369002425,0.2374174195109303
1700843904.9854422,4.148711501018621,4.654074823677333,6.025538311987268,-0.07707701222767552,-0.015707986015036552,0.2552373903571065
1700843904.9954734,5.9856214993137495,-6.0213559089857,5.68097223901966,-0.017114041724882716,0.03506996137625873,0.2732706564246114
1700843905.0054636,6.470758191270045,-8.704701518258691,4.562307511997377,0.10526575985897123,0.11180085408425258,0.2796947854338582
1700843905.015529,3.0975589719491574,-4.004123377838973,9.822247911089102,0.181900148919858,0.16350143341484552,0.2741287546931203
1700843905.0254598,-9.388232731834295,4.569326684566509,17.06120333122974,0.14175531105030267,0.06503344788924093,0.2460271614371235
1700843905.0354686,-10.703700851546982,1.970825408425743,17.62932234792255,0.12034248316266077,-0.08908566092505632,0.2021367597161229
1700843905.0454855,-1.1732424153086187,7.552685139596706,11.681969190140194,0.06070046440702583,-0.13611331767433202,0.1449196236906941
1700843905.0556183,5.151910557939726,13.120499680390875,7.4148557170990115,-0.10292115519157541,-0.07705503347547155,0.1334968554554875
1700843905.0655422,3.3679396270454367,4.481057233366462,6.605444426584945,-0.1755685529837143,-0.04707756562558628,0.1543069678126271
1700843905.0755038,4.9320846847999515,-4.252564239828666,6.133004741589895,-0.12420987594017496,-0.010424940706605733,0.1429741727887089
1700843905.0855246,13.067819674820063,-6.643701468093697,5.164502499299674,-0.03233347239400841,0.13377833825708768,0.1259064423619206
1700843905.0954993,10.454872729618305,-8.638359385521303,4.930812610834929,0.0771629978604005,0.2995428414247246,0.128081058221906
1700843905.1055918,-10.766430136849891,-11.235501864838415,15.886303675365227,0.21860007033399695,0.19699782124682805,0.1168900924502308
1700843905.1176703,-11.155506772794306,0.7448557964388118,15.151581687285438,0.25724458034691683,0.03321248108300604,0.0658003213582928
1700843905.1254487,-10.648342568238792,13.271009128858084,18.964422726291232,0.11368612719068028,-0.09477044178144511,0.0146856867475803
1700843905.135605,0.2744595453449711,14.986910817359217,11.193518069964906,-0.060199508547212746,-0.13278580686731617,-0.0055911633418504
1700843905.1459365,1.2060647024507685,11.017238840808524,4.9390059142258185,-0.21203513529081483,-0.11495412428649597,0.0052242116770143
1700843905.155554,1.5900810188310672,2.0737688250350064,6.522728995149827,-0.2583029991639632,-0.12178128856921865,0.0427561784861977
1700843905.1655147,6.410052368605604,-6.3015938932874755,6.102319034697738,-0.17186322569911483,-0.0768666198727956,0.0699907216010983
1700843905.1755488,12.213893814129664,-10.084635502736525,5.691302781283449,-0.03105113327008951,0.05616201142341992,0.0587130795000489
1700843905.185902,7.991949897926204,-8.429414233450718,6.485431328280205,0.07794137385356495,0.19044169703025166,0.0878985049901898
1700843905.195505,-6.992716098457946,-7.099570074175435,14.995686905320298,0.1833330154369715,0.09586740604028028,0.1260553347645695
1700843905.2054944,-2.211627723987236,1.9050072763434176,12.099119502740038,0.1962899672774319,0.06599919529779337,0.1238549771486218
1700843905.2155695,-8.972341209246602,6.96093668481249,14.096462033486498,0.11668073183615502,-0.038704922876362284,0.0681249472080166
1700843905.2254353,-5.4067927675508045,12.783116301634227,13.614156834984069,-0.023996837733506193,-0.16219440411398053,0.0398819978116448
1700843905.235474,6.370136352006066,10.216520710454207,6.755615079573688,-0.14834407887590362,-0.10059507714082709,0.0406051809667046
1700843905.2454948,1.1122630774441506,9.69128817763953,5.9581889707832385,-0.2697373825199569,-0.08540673507088335,0.0912007662235196
1700843905.2554705,2.336340858844976,-3.6607142682474914,10.281732126732704,-0.24467170891652798,-0.1128153801691888,0.1246939721284802
1700843905.2655025,5.536179555274132,-16.52036373767578,6.3520217423732195,-0.05345643112962134,-0.05004382063994223,0.111953211086839
1700843905.2755947,3.5891200878310103,-16.759330719107357,7.643478569568734,0.18871398487474414,-0.020632238355245917,0.1071830513654645
1700843905.285508,1.8433338523273444,2.3278664667362725,9.719266674317364,0.19332164318691183,-0.0021855711738864004,0.1058670180617268
1700843905.2955432,5.143968840482687,10.660096454513697,12.438190429723672,0.08576661797744851,0.02341690233957242,0.0947065624175961
1700843905.305595,2.798516985713398,8.088489886923314,9.953275457558545,-0.021926077307725715,0.08345563205438318,0.0693998980103428
1700843905.3156707,-5.665100912979014,3.791091891675123,12.212038021661272,-0.06649835983662328,-0.02045088113632914,0.0327113839565213
1700843905.3255804,3.4747522035585807,1.9512281286255517,8.030881234651,-0.08034702406465322,-0.016945381529912644,0.0349804955302174
1700843905.3354847,-0.670831437448585,-1.5483006890652709,5.920497670208026,-0.0681391331881952,-0.012388718397082376,0.0535252439557011
1700843905.3462646,-3.946252546000331,-9.30466544325009,11.080262533732347,0.026582362328832276,-0.12026479393426816,0.0549863326130803
1700843905.356452,3.6670164321516867,-10.623565386504241,7.5592949911108445,0.17404743566842157,-0.10230348914306324,0.0677231373964245
1700843905.3661137,5.3291088997776015,2.689429645845065,11.357502445014909,0.17840892288613885,-0.07676729802683387,0.1051813485799725
1700843905.375471,10.558588187978511,15.14672773491852,12.869988759260853,0.027033495275739564,0.012290800068467417,0.1068518656073506
1700843905.3856032,9.063278436354,12.208267678715734,8.569484666883664,-0.12790083829939916,0.15405783488850053,0.0884448635159428
1700843905.3954515,-3.2128025325095937,-1.2723205786579899,8.96664466007588,-0.144121658667878,0.11939954610265414,0.0416855859337742
1700843905.405486,-4.683902870592114,-9.34184116937301,8.873469168797945,-0.03224132127377662,0.041645304480632264,0.0117799761472638
1700843905.4183064,-6.307804635950289,-11.861409456215156,8.64739542110378,0.12987207241237791,-0.05488143945244163,0.0168872504262621
1700843905.425507,-5.9433824011098775,-2.857268113260003,13.2632160744657,0.20405831330249735,-0.16915939145273165,0.0184916230617459
1700843905.435504,10.77768515435951,14.257087894030894,12.136591449978832,0.04191536360530799,-0.0671838144901197,0.0080102110049124
1700843905.4454887,10.343387111142267,17.399748299956,9.80077320211418,-0.16427468078468774,0.0768366279038291,0.0389420400141175
1700843905.455462,-2.231038991496033,-1.1434683385622153,11.298782737553838,-0.1787931025815318,0.04760166595545366,0.0081483778311307
1700843905.465545,-4.428353524308067,-4.773863335340521,9.964190565133121,-0.10169336992882701,-0.047709800949255775,-0.0274042421253029
1700843905.4755132,5.141604205161358,0.4478943938517542,6.05912937325036,-0.09327784131744103,0.00807954118065168,-0.0046332137891654
1700843905.4854906,-0.42116293574296115,-4.758864671710317,10.148641324662936,-0.033801336878401714,-0.013807217824315854,-0.00428478366226
1700843905.4954855,0.182806235780038,-5.860615775329594,10.156907089416507,0.04179844306828775,-0.03823932246018903,0.0011341362959142
1700843905.5055614,3.0582855204345387,4.152267373893809,10.129562899246379,0.042062952964581124,-0.03519942527008786,0.0319782729028161
1700843905.5154629,5.493501813326474,10.912705103605038,9.112481006398506,-0.09153800621347104,0.03134234272106046,0.0186299617169793
1700843905.525456,1.6490415908538392,8.443729037058038,10.304743282311865,-0.20018037510420245,0.0339170384130203,0.0155535750789936
1700843905.54546,-2.4137890355565483,-6.405641914960493,7.761733969997024,-0.09664331035152517,0.023823663308587335,0.0082162684528525
1700843905.5555031,-5.787086979534886,-11.274641239149148,13.510989693155716,0.048561615699108614,-0.10749095359545398,0.0013930061366777
1700843905.5655367,5.471396912642792,0.703602110940046,9.621710287694382,0.08322705073403316,-0.06377590988364149,0.0208030241309102
1700843905.5755298,6.355540990783605,11.559653319612925,10.782701468638423,-0.040533977243400285,-0.023091761799709797,0.0233775536297257
1700843905.5855155,11.11621740357312,12.375447999458212,6.98281390287495,-0.20634846705108673,0.1161477836929484,0.0208319323836262
1700843905.5963423,2.6031726234134585,0.2004572559112956,6.723425188999093,-0.2286568671661775,0.1576426229938099,0.0179519123165305
1700843905.6070805,-2.986958266737223,-8.995256667877893,8.604653925344966,-0.11620847642337928,0.09159707832069436,0.0020461758366222
1700843905.6172044,-3.80460849243621,-14.590703629154548,9.485526848715647,0.048703034759290484,0.047089103447686236,-0.0200825994135443
1700843905.6302905,-7.657808829166788,-8.367913180262299,11.92145992021451,0.19948587188321323,-0.09981193258710727,-0.0119282416300479
1700843905.635476,3.7091327124009883,9.863292690656976,12.866885910809216,0.1347836024023434,-0.10653327303689784,-0.0273242489667241
1700843905.6455767,11.830198807760942,14.912415253543667,8.635256710760853,-0.034002768938546,0.01919339613536748,0.003257320099547
1700843905.6555011,8.951641003670067,11.794623560212854,8.458540361154235,-0.19696141637687786,0.12003900097895755,0.0235889824806149
1700843905.665523,0.8744075404152791,-2.567367934159821,8.546077152521088,-0.1793547986960706,0.13064417431907485,0.0034683508100356
1700843905.675501,-0.8685523950648395,-9.461408611436871,9.125980069927309,-0.05952080209511513,0.08077629606016136,0.0015039229300241
1700843905.6855538,-3.619175868362684,-13.179486895856567,9.375972169175489,0.09497024417302079,0.04644784671648274,0.0026480057975645
1700843905.6956034,-5.901630418743418,-5.213971146930104,13.532924076720413,0.19401003728001498,-0.10520463265031497,-0.0114583940477673
1700843905.7055843,11.688386129517685,10.285233266272954,9.263826604351905,0.08624839812373644,0.0025368056289528855,0.0026528188726301
1700843905.7166183,11.53784867754329,14.238071776068162,9.978643524372643,-0.0893795612170776,0.15043689533340565,0.0329564484535153
1700843905.7255168,5.664496854259668,4.504684669287532,8.451181391129726,-0.17056183539873157,0.21050700087302263,0.0099084750516708
1700843905.7356343,0.2437344820277157,-6.505194381863092,7.791514198845233,-0.11395680461039964,0.2031345780614546,-0.0144967044936124
1700843905.7455275,-4.602481924340803,-12.095769828818643,7.735988117666069,0.046440715991465924,0.13773695135566238,0.0058126333868499
1700843905.755509,-9.493814493173245,-11.41793477985299,11.534791956264606,0.19340214562152097,0.006647927791975339,-0.0067571740829948
1700843905.7655878,-0.03593518829814949,1.5715752598810997,10.883493881942945,0.21196606937804102,-0.04857844020556219,-0.0262335379840437
1700843905.7755954,12.244684696069735,15.031932937625667,8.094437321257882,0.037422942068216745,0.09317141369598356,-0.0271271680714194
1700843905.7856867,10.242851702251805,15.482194628555256,9.487696182408685,-0.1520195025074229,0.2167051284707259,-0.0032475769286607
1700843905.7956655,4.017649244647538,3.4493509936134283,8.827545408637379,-0.21793969391393367,0.2793734558765795,-0.0119096999289099
1700843905.8055048,-8.092431309166761,-14.403090539586453,10.67641913990127,-0.07853690680873003,0.17727837086277387,-0.0266117834718529
1700843905.8154922,-12.440016160235944,-16.987586703700973,12.074343722903675,0.16694080923672763,-0.008936698811486279,-0.0085881938458983
1700843905.8255315,-3.2730527306856003,2.6055807444633703,12.520722554272561,0.18188103806748354,-0.11442183024625463,0.0011837547179679
1700843905.83549,12.162640601038468,17.759817205969338,9.358470244751242,-0.011190124474764857,-0.0009790377347178394,0.0104992902605231
1700843905.8455195,12.771581680203761,15.385671780457299,8.076054607838397,-0.21517246714102334,0.1589487455545216,0.0467227036832268
1700843905.8555253,5.783159611880855,2.231229032852369,7.34288474218595,-0.255063882738544,0.22961437172541724,0.0546187991975243
1700843905.8655927,-0.5832096844596714,-7.618807798373726,7.366120239992391,-0.19484257672739358,0.22155622197297814,0.0396169396816189
1700843905.875536,-4.064892287262538,-20.694811732392452,9.956819506560125,0.051746602501977705,0.17274250509111733,0.067884680884927
1700843905.8855505,-11.457847505291655,-13.253977169683841,12.102478441241697,0.24270264009144116,3.0076441902511184e-05,0.0646478506503994
1700843905.8955226,1.5259779517235879,6.429651802041379,12.302504649010187,0.19823597416435865,-0.036828631641440145,0.0583726214943821
1700843905.905533,9.53483764577929,19.388483381273566,9.897039026138312,-0.024223128581961944,0.08416634429267507,0.0862814458785946
1700843905.915583,3.738008072406557,10.67439954051817,10.092473595835706,-0.1793395356669062,0.11781535490581521,0.0937494980870183
1700843905.9255087,1.495781679486175,-2.1698233214515286,7.26247406756016,-0.16457396596310858,0.1256257408698153,0.0626171688316758
1700843905.935512,-0.13693779500573186,-8.525924313528199,6.898892925953924,-0.07839538091406585,0.12594162084999938,0.0618113810895379
1700843905.9455063,-6.089749655692519,-12.583429063213948,10.879065450993377,0.08465331640031958,0.036917230355065556,0.0674596625147755
1700843905.9555695,-1.3430569543751332,-2.9245273684541204,12.898265332799726,0.15113389334710345,-0.02483582899032233,0.0519338260172303
1700843905.9656174,6.706511604514709,12.991131434160888,10.580897335649471,0.024296072412960713,0.03946187187394171,0.0504749427317078
1700843905.9755864,8.68149628365077,14.536579906297797,9.8121242785706,-0.16460625208080987,0.1463169716773491,0.0404619733570511
1700843905.9855764,4.0159985432293,3.889944529923983,6.629884346403898,-0.22442330050857315,0.20341400952662045,0.0168702500639851
1700843905.9955776,-0.3089703145788533,-6.491532568452806,6.289551654653711,-0.16344955794030927,0.19444289742681142,0.008535529556721
1700843906.005538,-3.809251702339284,-13.297435185006512,7.967281932017374,-0.001276002995020772,0.15340049324841706,0.0079533737851675
1700843906.0156517,-11.366639186604228,-9.21834488347525,14.924035200501667,0.14060924064407035,-0.027717169661272762,0.0275175972609217
1700843906.0255373,2.4930854939378304,5.809549896603016,13.586337245743424,0.10848724765834103,-0.053218824632978876,0.0502181174932415
1700843906.0355637,8.36594476610377,14.100242295332022,9.6960700745933,-0.05165280776622494,0.0531966405786018,0.0432950529037411
1700843906.045618,5.855457307669655,9.441571094550383,10.383392711231068,-0.17360041422106173,0.10703034924719963,0.0558529580710824
1700843906.0556042,4.868310121176332,2.422709942340497,7.3156968645882365,-0.20255741588274592,0.16591618947493073,0.0610381523846085
1700843906.0656006,-1.1018701749618232,-5.066096382051091,6.821208458811922,-0.15083324718424398,0.15354705163653468,0.0730636465130742
1700843906.075683,-3.7390874452543397,-11.74961397438578,9.334174771983538,-0.007668857699292964,0.09170775414244317,0.0862080502091343
1700843906.0855887,-4.011819556901629,-14.638090507653741,10.469719113191527,0.17632074610734033,0.025274017307647712,0.0719014155445988
1700843906.095503,4.012126286381882,5.063450131605644,9.870356825828017,0.1583065180928834,0.03862695406783933,0.0609511072514946
1700843906.1067195,11.175684461475056,13.677055198092395,8.651764100960966,-0.007768682670809976,0.18444974247717555,0.0696742507396634
1700843906.1155074,5.830081368281335,11.909724357967237,9.194719244167983,-0.16646527224218682,0.2739633086646206,0.056320727872699
1700843906.1256018,-6.54156536118733,0.29780423197781203,9.642902523188472,-0.17479136175836624,0.2201052597082603,0.0127678095130618
1700843906.1355934,-11.623854645266114,-9.385565068780167,13.608415638938435,-0.08519626238930446,0.04131644806929386,-0.0062054618494216
1700843906.145517,-8.289266322556216,-12.496481801860549,11.162084867609584,0.08666603321194259,-0.06494060159393998,0.0252759801922734
1700843906.1554985,-5.893126763515801,-2.2322490065986824,12.855931365804743,0.13501457454199786,-0.19794142083225044,0.0371199856279786
1700843906.1657248,13.04861599815884,8.769869392761994,6.537611994071089,0.04357753406891613,-0.06786658128530561,0.0666263225255902
1700843906.175537,14.319812366824118,7.0090493095163495,6.012217246168309,-0.04023797561562481,0.11682907343816354,0.1124127330957348
1700843906.1856298,1.5973573214899135,3.892918151819875,8.656354979835426,-0.08254780602236962,0.14015922495878003,0.1128690439043934
1700843906.195605,0.1721851170539037,-3.468292100341413,10.13151358765697,-0.06800017795573368,0.1328959309568298,0.1138456809101994
1700843906.205593,-4.289772166064746,-11.205041771059111,11.388621629357024,0.07618464105246116,0.0744408165375446,0.1447361456929143
1700843906.2156303,-5.704669601470827,-4.051461513939645,12.33369421713859,0.14064499348980453,-0.03520181980577413,0.1562121557770665
1700843906.225672,4.0994076409138485,2.3553312451248827,8.858546885661754,0.13096405634009298,-0.014455061210226194,0.19047913427934
1700843906.2356129,6.664444552702923,5.081936557107903,8.34512930954111,0.08114008031020524,0.05816039838678862,0.219630797463506
1700843906.2457,2.5615274549273686,3.830767754343947,9.842660923266877,0.033766346087521514,0.07072283445658964,0.2252887236653264
1700843906.2555296,4.6936242602481615,-1.1841444548331712,9.520442535915022,0.03514934859904364,0.10033065565724723,0.2438896196661885
1700843906.2656524,4.504539070507986,-7.440561602771598,6.850063571422276,0.12539642348550975,0.15690692360238784,0.2552325027762349
1700843906.2756464,-1.8459817385355397,-4.425643882501201,9.023692542510208,0.19317890889307252,0.11987410437086798,0.2639927166281636
1700843906.2855346,-1.8967088895942568,2.344511067963306,10.367572539291936,0.17904712342293044,0.0753388546519881,0.2813856797991689
1700843906.2955377,-2.9163322901257613,6.122845358481022,12.19288269949762,0.11875085279440938,0.03448798825178885,0.2760594981490071
1700843906.3055854,-5.081854571690692,5.728142946057028,12.892551386502612,0.04993619853204356,-0.05101272897823756,0.2642030018149312
1700843906.315584,1.9755962930871853,0.37870705136225613,10.335315979204198,0.04204756851093966,-0.049613180698030446,0.2745710509596761
1700843906.3255908,4.279004163925656,-4.213565004333887,10.377986839738993,0.09834206514224289,-0.010127227510098038,0.2772041457472737
1700843906.3356686,5.481968588837979,-6.150857887108848,9.647196517068087,0.18693931577065667,0.04129267269648379,0.2920343774138387
1700843906.3467047,3.3636239016126823,1.687257233912557,8.281291960451211,0.20342719045118995,0.0944173975638772,0.307716746884435
1700843906.3555567,-1.0480600406087517,9.306486914271046,10.913260999644066,0.10586344913932207,0.07671184716003841,0.3243189650355275
1700843906.3655715,-2.805329826912545,12.990853170433098,8.313567759279895,-0.028000441945327418,0.034799524841322864,0.346136529999822
1700843906.3755405,1.0213744401664673,0.37854320604495323,10.079453604134889,-0.08267068933928087,0.028185588779966995,0.3318248289404805
1700843906.3987796,2.4968196320722544,-9.303727402243966,11.121503448102633,0.10038271876176466,0.0772145828939492,0.3363577919779714
1700843906.3999317,-3.9744348820756,-59.133820896317566,-4.284649219882503,0.23286832121495,0.0672361259937368,0.3191885250388082
1700843906.4056773,5.066534737471873,5.867005768594963,8.437312283978986,0.2172849587158478,0.12201287985053208,0.3201819258509572
1700843906.415523,-3.4811142881119626,11.428262751869193,14.012341817750553,0.08392881089705058,0.060734056117249795,0.3104984658537801
1700843906.425559,0.9638709044130832,5.675002217792997,10.347047522179707,-0.00100497796462714,0.05774951930615776,0.2907298105536397
1700843906.4361389,2.373085700891292,-4.520778299072879,7.938016139651094,0.05152863893053581,0.07327941421182123,0.2690525847254689
1700843906.4545162,2.9445983980697488,-3.03536547131405,7.3804297998624016,0.1274372282276639,0.10587411761439228,0.2394874739228184
1700843906.456742,14.232340130360416,-12.336516976103047,-1.6757174450050716,0.17369032479265278,0.16895301635328952,0.2192813652335103
1700843906.465689,0.3437933272387417,5.458905741093671,8.6075219097703,0.1359149448181923,0.1792700181875863,0.2133337157545979
1700843906.475607,-5.969188349597959,13.293714373073575,13.277209461120165,-0.011061297731449867,0.10478054875686876,0.2064380842028554
1700843906.4856143,-5.548931859227668,5.577011102866706,14.616223863770104,-0.11430664117101924,0.018577398143429284,0.1737618940649922
1700843906.495584,-0.7702879412539033,-5.424367164732913,12.568948358716671,-0.057691779681849506,-0.01393642585852829,0.1343423622427876
1700843906.505551,0.33548656487817713,-10.89976591786282,9.90771681103461,0.07778223897033198,-0.023725490383161296,0.0954918759642537
1700843906.5155773,0.1314117556059662,-5.763687832520356,7.464621276749846,0.17936577634773315,-0.033802315481368125,0.0770690562902386
1700843906.525628,0.8012827250896002,2.9120297947225806,7.906382039811572,0.16131462101873947,-0.036452750966902085,0.0424786816118653
1700843906.5357754,2.3511692885232605,7.187951474802984,9.269820111535076,0.07072084206948451,-0.021904576047446528,0.0363465483067925
1700843906.54582,4.229596386698195,7.0894924465911195,9.65684616107009,-0.013503663709162493,0.008440015448812423,0.0354067283450062
1700843906.5611732,3.790611541701996,4.328150826664234,9.202424254575611,-0.088327450343808,0.057975289774673915,0.0253589368192847
1700843906.5656922,6.9671009904925585,-1.0959922542317013,7.309368603446224,-0.08630380081187985,0.0982875257317572,0.0288476395188267
1700843906.575629,0.611679640837265,-4.900310003382682,6.925974057444696,-0.01636440117238913,0.10792574512954588,0.0223820294021065
1700843906.5857396,-2.901633344982226,-0.14168946910379454,10.088857582338646,0.0012688511872882553,0.05184062633071898,0.023298149067014
1700843906.595695,-0.3945648835389836,-0.7311258350093213,11.36899846987156,0.004911542828931245,0.02249362045205292,0.0363312485395367
1700843906.6056066,-1.1945876068898977,0.854136040475868,12.883729173704214,0.013091443533839169,-0.016815740280644066,0.0302633112995322
1700843906.615665,-0.2869813290670147,4.517632548780136,12.339223141082439,-0.04742276369707042,-0.034978354407710764,0.0048662196612353
1700843906.6257627,4.39927292484253,-0.2918893054173078,10.600828172054936,-0.05929628242612964,-0.006319300171928679,-0.0119681227253381
1700843906.6356382,4.52637218849609,-3.751823836509446,6.5052328473117775,-0.002071171648383235,0.049809145887394414,-0.0328427468658988
1700843906.645557,-0.35720060377271484,1.8255338470286857,7.163813053063077,-0.0204763010784306,0.0457713070472779,-0.0391800021053855
1700843906.6555667,-0.022514259607925257,-1.6029221268544003,7.4660785166003025,-0.0025043358945994517,0.032898789199764855,-0.0448590059997145
1700843906.6679142,-1.7775981046288671,-2.131775885768936,8.611785456165554,0.02672823669497891,0.014012397466393023,-0.0497440313221518
1700843906.6756904,-8.035914033455992,2.569809840467629,13.185955910832691,0.013225256334153588,-0.08363996563463735,-0.0301854451419417
1700843906.6856737,-4.1365159552642154,-0.004888698354769119,15.172308519314175,-0.006840238383444836,-0.16088870394243293,-0.0164785561384264
1700843906.6955502,-2.2296130719264906,-3.389224311138633,13.05928909057007,0.03721936669164276,-0.20746830561626128,-0.0098649709717933
1700843906.7055562,1.2723747455429615,0.860164466068761,9.931669604448505,0.03794388476469175,-0.2107524004115336,0.0020874287700648
1700843906.7155612,3.772392153963579,3.010037859745011,7.282808043585,0.0071178773586596245,-0.17006876567540066,0.003178889933079
1700843906.72557,4.137248603300961,4.451884262850708,6.810689186941383,-0.03823732561385272,-0.12378764514885211,0.0022059977753456
1700843906.735557,5.49256388983517,4.057104633645748,6.890217026967145,-0.08708213098567325,-0.06819001497946536,0.0106027844129498
1700843906.7455487,6.582803704962157,0.2190981391407028,7.22958623334831,-0.09075458106774167,0.010163257339833861,0.0136995986802871
1700843906.7555792,1.8597602658694448,-0.9891599616466454,9.117573229139708,-0.06298773050697885,0.02814409098512161,0.0284647541819508
1700843906.766575,0.3375158492371587,-0.26669165922796634,11.41070119862092,-0.04400259596500561,0.008141807916473232,0.064868819969743
1700843906.7756095,-2.7298735845487303,1.7541425839390088,12.664340931727459,-0.044179230132478244,-0.03976759390958387,0.0953606041847165
1700843906.7855752,-3.463305462594893,2.205085578570144,12.685814892046576,-0.0560012637522331,-0.1155967549467686,0.1175686838804181
1700843906.7956111,0.30640497883679846,-0.9051623929622017,10.314576840914548,-0.045066155486017875,-0.13774114786463637,0.1253347369609768
1700843906.8055975,2.818520356451754,-0.7478716027894833,7.7392223809511655,-0.023507274339138053,-0.12523477703416758,0.1064899313031132
1700843906.815602,5.196376258207112,5.284045480325802,7.949471348937281,-0.0746307485519909,-0.05488331577296686,0.0882063927827771
1700843906.8255663,0.3415316939997362,3.7676097463272096,10.69225010267359,-0.1309602998900582,-0.05937617652432117,0.0736186179099972
1700843906.8355763,2.30819081412996,-1.4590673875893798,9.394210701978198,-0.11846144024286082,-0.046866115621005344,0.0614731135545666
1700843906.845576,2.85477963224361,-2.8762558292918556,8.85953567246843,-0.06732368697935577,-0.02175941575813513,0.073422116297334
1700843906.8555968,2.138004688536636,-0.8098241394334118,9.150483007411497,-0.04248836694602488,-0.016786956230881268,0.086009201663583
1700843906.8656976,3.6699388113969036,1.1673720972126254,8.241455517726003,-0.04098777700454207,0.017544346184433856,0.1068268614588673
1700843906.8756242,0.5688933642427767,0.9925281136638164,9.158819972540163,-0.047123325379368836,0.010140065840536146,0.1321553635178502
1700843906.8856242,-0.36958568490658555,-2.123354269851217,9.704787850429268,-0.016517372452716558,-0.017137305815118888,0.1466965424595769
1700843906.8957458,-0.6842668997181076,0.9336102798789178,10.878424831431351,-0.010010645867737205,-0.047135021039342355,0.1550164120970662
1700843906.9056635,-0.014611099691912622,3.265595630614477,11.212568955679108,-0.04487875974171117,-0.06426560023222995,0.149480571108907
1700843906.915665,0.9221091045709059,3.1039728535824285,10.765366977338187,-0.09165116651269967,-0.063788645044937,0.131755550461858
1700843906.92559,2.061548315797991,-0.9943445247358987,9.345087905117614,-0.07830450085245734,-0.05014665988528079,0.1332033323822911
1700843906.935677,2.1598506757835843,-1.8571661927686343,8.96609485949784,-0.05506206589721519,-0.035582564611633546,0.131270800787061
1700843906.9456973,3.2932681739953713,-1.2078590198170611,8.503947897357966,-0.021703857039813472,-0.002600012842578172,0.1363570737420018
1700843906.955786,1.7852284973251185,1.1120908297151728,8.896817903334325,-0.02718447438665382,0.016375589745396584,0.1383954333840306
1700843906.96568,0.6899644601392364,0.8144141835871392,8.951326893216356,-0.02639051811611604,0.02337594317693299,0.1403478580294545
1700843906.975654,-1.7563843702613087,0.834923847191799,9.454419014980873,-0.03103048723610197,-0.007191117718928931,0.1459421562729771
1700843906.985685,-1.254115019354532,-0.2604788870346262,10.023652664188186,-0.023857703078184734,-0.03187984313723972,0.1465486782370503
1700843906.9955957,-1.51609641404502,-0.6752664370889465,11.174027906067556,-0.012100276847634102,-0.06637509299354453,0.139537756401151
1700843907.005695,0.6977030936770307,-0.11104284971392332,10.669730468632062,-0.014053126489057335,-0.0662571778364985,0.1282027262030537
1700843907.015714,-0.18627900255083008,0.8818948121438883,10.650709849047681,-0.02002400081217769,-0.07064898311710552,0.1192480596481259
1700843907.025625,1.5139330134404776,-1.3485819670646704,10.511752753631592,-0.02324127908915231,-0.07126478214078018,0.125423883157819
1700843907.035664,3.1580644308221077,-0.9921590393615255,7.915684431725518,0.0031569514089144126,-0.029908673788376465,0.1366346227703984
1700843907.0455613,2.0326894255612222,-0.4392988571890298,8.909084432359112,0.008377403713985883,-0.019723656654761952,0.1547890352784093
1700843907.0555804,1.9714810675919041,0.822945410530278,8.19180151768013,0.004774449354130951,0.00529542440722662,0.1737154024420674
1700843907.0657158,0.8413864369244627,-0.17804606869904227,10.405422969321746,0.008896541598984498,-0.0025471693074374845,0.1830628710566456
1700843907.0757017,2.2616518689901284,2.270789046080332,11.055846130826787,-0.0018546040714512004,0.01851514333296035,0.1700979518471654
1700843907.0856624,1.108383910748523,1.4216689323156797,11.958033858500558,-0.025527810844407438,0.02727887250727164,0.143176962691396
1700843907.1054845,0.879241239017219,0.5870396954639598,10.36671970945806,-0.020888689782731017,0.041208577845975786,0.1195838498650486
1700843907.1110988,-3.1080427178226318,6.297364899761624,12.13842168448079,-0.06786220799498503,0.014929830748990477,0.1091710003791745
1700843907.1171908,-1.0440503787722382,2.320116090956759,10.84765900628909,-0.09284313844060117,-0.008296537191681259,0.1085920083104069
1700843907.1269472,1.8243324745840102,-2.5809173654379824,7.560975886455351,-0.05934584825038125,0.006630871413100652,0.1193435313878949
1700843907.138899,1.1334517703294487,-1.7897984208427757,7.734487362106412,-0.020245327474841902,0.006456535657649682,0.1396686183987553
1700843907.1467893,2.275469322111939,-3.197043540753125,8.711904394073184,0.024510058178567294,0.017187301902100032,0.1595936315833027
1700843907.1568713,0.22133989266353468,-1.0197085369306986,9.744145053394092,0.04656356828526616,0.005897574341268507,0.1678807633696492
1700843907.1703582,1.8316094048313445,0.6314160941258169,9.991397128362252,0.048921628877519115,0.0029910690608530945,0.1762236851035054
1700843907.1757872,2.8592998179744837,2.1092157127776505,10.524532168113412,0.031223165061624834,0.018721275051554336,0.1719626831589635
1700843907.185688,1.828179633171921,1.1002240079869376,10.834338297319718,0.013132381863797707,0.02768790579956356,0.154482607799619
1700843907.196856,2.552417507541509,-0.22647240199621319,9.76481585668003,0.010336454225299939,0.04644439975701335,0.1482912051258977
1700843907.206635,-0.04582235501122186,2.179485393211757,10.029699019230765,-0.005978564688920534,0.0486089848203485,0.137917329627126
1700843907.2157202,-1.4799525550782382,3.6852219351542317,12.018090657086177,-0.04719114368031936,0.011314458770555627,0.1328865038929875
1700843907.2257276,0.33455074661092726,2.1007316592438885,10.044283675807504,-0.06747354978239489,0.012621135271914214,0.1209880980430539
1700843907.2357843,0.05174078315643169,-2.3148787819320327,11.000501307621517,-0.04674489130657053,-0.004071147535643796,0.1042580204783375
1700843907.2457883,1.0614444939870384,-4.190703978785848,8.420524793696751,0.01787552343737502,0.002950103944505231,0.0953698429046567
1700843907.255763,-1.0780790937089353,-2.4101528868657263,9.091210737929265,0.046501853631062615,-0.018808620465515055,0.0829408365069325
1700843907.2685485,0.9555579993806531,1.0189613844477277,8.743340856076271,0.04482415500440418,-0.023306788155622545,0.0892538177548344
1700843907.2756069,3.748302012606792,1.5872969533054961,8.924792213367168,0.02633978433434157,0.008939606237553844,0.0915183323203022
1700843907.28624,1.535484415321661,-0.19284836000952235,9.32225396513875,0.023657692943523784,0.02146986729036712,0.0960198986111577
1700843907.2956288,1.4569478098380273,0.7734111462590209,9.164427964664814,0.03452757428940764,0.03613223455537364,0.1054504113970692
1700843907.3056636,0.3561026722033408,0.03420852917499103,10.803816477993687,0.016407399321993955,0.01778390240607429,0.1179586770711834
1700843907.3157165,3.4497922642646497,-1.6278289394734236,7.442903513853514,0.06332211722040343,0.056822491325622615,0.1210162910400326
1700843907.325614,0.023880432448645957,1.464117155361596,9.983142661926074,0.04222885167557846,0.04328223073829998,0.1381786065874989
1700843907.3357198,2.422253241626358,3.9975488123666008,9.10048796585987,0.015445901622978542,0.05789701740063814,0.1583841490326817
1700843907.3458853,3.3867245554759235,5.298182834226078,11.97437566616451,-0.05124418026366874,0.08533120811912422,0.1641325252829487
1700843907.3556125,3.9266380596895543,3.621804144225288,11.02911335063465,-0.08068480552018191,0.13259331431782823,0.1543250578223164
1700843907.3656497,2.338271360154692,2.406161178052647,10.87870953046734,-0.10848509739998483,0.166324984240728,0.1374821412144597
1700843907.3756604,-0.9412368553107386,-0.09393296546443827,9.812955413220381,-0.10328787253923745,0.15870840359821953,0.1311240243493016
1700843907.3856626,-3.3427840528644097,1.2954739684708019,10.545273710163098,-0.11029756931474904,0.11539956069644124,0.1306999074994023
1700843907.3979218,-3.6703089985400177,1.1456250051684664,10.096839979103171,-0.12273887276139063,0.04655937044145382,0.1333312886534627
1700843907.4058385,-3.555903104273865,-2.3948125247659027,9.57890898347683,-0.11154688949143335,0.005661033308999397,0.144792084652036
1700843907.4156036,-3.189323623192077,-5.520758710920083,8.710692581796824,-0.03147723557717524,-0.053385887880998614,0.1547216522274907
1700843907.425629,-0.13000454879065854,-4.67355667876248,8.16481352014075,0.02397348519568068,-0.0632356206282469,0.1597458767472203
1700843907.4356976,2.2447441822427345,-2.514149496655904,9.062777556198425,0.0711270102256808,-0.049889594579073486,0.1671835976420338
1700843907.4458065,4.487774820590013,0.9612836798356126,9.975044023437128,0.05712961386169477,0.005529177687958009,0.1537192660151417
1700843907.4557033,2.670204357653681,1.2656211809048468,10.076149839957319,0.039741510734688845,0.0467914699508227,0.1448046612320836
1700843907.465793,1.2048101489747638,1.2009759268322673,10.406411568248668,0.016104111673775998,0.06292970380127273,0.1398563730297978
1700843907.4756887,-1.3188515538137247,-0.3691577858253991,10.000340771253956,0.011028086030408167,0.04820065617592383,0.1354308622656758
1700843907.4856863,-0.2760020497564168,0.7108429712116382,10.238695605520535,0.004149164531304832,0.03458930261468034,0.1476454484044011
1700843907.5204654,0.2336326773975458,0.976695304901856,10.72747905870869,-0.006116780434464756,0.032473880452955406,0.1474663066445286
1700843907.5255308,0.1105134147192682,0.72787984910952,10.759621404343862,-0.01365029655698043,0.029435381446852114,0.148570736008733
1700843907.5282657,-0.7882284277897456,-5.877659978879343,8.666904646967886,0.013619019924443716,0.024655949196326975,0.1464934694348271
1700843907.5323794,-1.2744215133149126,-8.504525991544536,7.806046102102602,0.07412087975409827,0.010852886595407802,0.14879411931619
1700843907.5363016,2.086632137244012,-2.5375968175705426,8.257361772093981,0.10145581786292363,0.012852067251926606,0.1639728444395955
1700843907.5456457,4.251901447426296,2.8344242152210355,9.427754547240816,0.08073292978315559,0.05484360371558245,0.1687223064480717
1700843907.5557027,2.0401711821744244,3.3908651069902223,9.212939735116624,0.03853610650977201,0.08502270174981987,0.1651318716584141
1700843907.5657382,-2.532346387396589,-0.5561432279394172,9.569906904764206,0.03211472967800389,0.050232008622856254,0.1694421070395405
1700843907.5758815,-3.9781204454195214,-3.7567407414961003,9.909768197919979,0.07767131391890456,-0.012190240095669368,0.1764092492638524
1700843907.5856738,-2.396266658762941,-1.4764624128436823,11.09748481862065,0.10846429946247872,-0.06991163072921305,0.1936378377257283
1700843907.5956151,1.0941036089089329,3.2137085412888884,11.001697690170582,0.08526547990667144,-0.0675164870896369,0.1914066719590123
1700843907.6056652,1.9418586738638692,4.948129614244875,11.659269784497619,0.023398940989228515,-0.060377273962057096,0.1848599659977849
1700843907.616151,2.473285660230281,0.18947213051978873,9.658392609882462,0.019420541761535785,-0.03733862899953007,0.174296279507726
1700843907.6263807,1.1326820395016306,-3.454372518222371,9.004916970538162,0.05877498544256252,-0.02826276931551383,0.1557495492278035
1700843907.6356297,-0.2871211520434962,-3.336435498966874,8.894008078932163,0.10777165880100485,-0.0399926638895711,0.1481300043641026
1700843907.6456769,0.49515963824602044,1.111354032570246,10.062590906664589,0.10665041121011178,-0.050369567299432795,0.1492951559601719
1700843907.6556776,0.9759457836251886,3.0693232704700897,9.809084131895375,0.06758135329637913,-0.041417764857838,0.1425929712830479
1700843907.6657422,-0.007346866831543867,2.452689163614784,9.663134890659283,0.03737594194734042,-0.05213051703561217,0.1491521644173558
1700843907.6757689,0.1127088269051381,1.7312611387653263,9.924929570669697,0.020400330796069614,-0.06417534948888448,0.1524275439558919
1700843907.6856768,-1.2823463997623425,0.32308961261175484,10.346304038720211,0.01940574854348821,-0.08854579892936919,0.153341312962621
1700843907.6956973,-1.1451408282323314,-0.19239225044669764,10.769133875334859,0.026667746098111986,-0.11679870165760696,0.1468635397730763
1700843907.7057493,-0.7322862621293175,0.7927416066915347,10.522333030440851,0.029607619295163517,-0.13954449685501236,0.1345592486439641
1700843907.715678,-0.16846878912571148,0.46043619402363506,9.566969439907801,0.0213206992452098,-0.15335513855702332,0.1232855665265019
1700843907.7256918,0.777371315387029,0.3802299529990353,9.430989269499758,0.026295180616951415,-0.15289941804515841,0.1111118989764149
1700843907.7357302,-0.2600503314163852,-0.3473684611134535,9.543511252533959,0.029885648723729563,-0.16615683752129115,0.107704778271764
1700843907.745665,-0.3646094216857751,-0.69465356816532,10.576390992044624,0.040139366265865666,-0.18138053694239537,0.1112155663548405
1700843907.755753,0.43626290375013643,1.0581648674663553,11.115689039413999,0.03513903340319058,-0.19312791044076116,0.1161953854142125
1700843907.7658567,1.9013058111533065,3.1618786534979346,10.330104434789545,0.005467432190215842,-0.1769106680195068,0.1227902370272572
1700843907.775658,1.4283548268365571,3.3562671231023855,10.044997407948136,-0.03847045111283642,-0.16148203290549407,0.1180221709190304
1700843907.7857306,0.5805068297262015,1.0780122381390316,9.353962657186528,-0.054083849044349944,-0.16205278881077387,0.1254293816862996
1700843907.7956629,-1.6794019537411957,-2.5643262202611994,8.947359910882858,-0.02597291388118906,-0.1826883637778379,0.1251731934724743
1700843907.8057094,-1.738532600328845,-2.3751670406750978,10.148410243737231,0.014528041466771443,-0.2285488448556453,0.1251258971868451
1700843907.8156517,1.6269544248081846,1.7271430606324403,9.282358915497474,0.010236443781351065,-0.21804559396233023,0.1167284744559224
1700843907.8256893,1.5994692058490618,3.4664489311043916,9.937850222478833,-0.026245858017953396,-0.2102269024813426,0.1030210080324109
1700843907.8356707,2.825934489608937,2.375159979847807,9.169776323167085,-0.056522430533541175,-0.18909965454623784,0.0947962301550801
1700843907.8456368,1.5056323616931409,-0.0881678272350144,8.950338214804406,-0.053343706469384064,-0.17961463977877723,0.0967845367966588
1700843907.855682,-0.18328654996237537,-2.461181119102707,9.211529686895066,-0.015689538809270986,-0.1991510201677101,0.0951197790680821
1700843907.8657649,1.0518655463712625,-1.0936093731033905,9.637211921478613,0.00759642828816171,-0.2055683520607153,0.0941928895889218
1700843907.875667,2.541988737598768,2.9669471092735704,10.299180403526142,-0.012031579763748202,-0.19550715500843688,0.1014666753588612
1700843907.885644,3.2082058906494675,3.7425891508654288,10.10263623342588,-0.05618970648008238,-0.17075532585583358,0.1029375168262417
1700843907.8956752,2.6864354662943346,1.5613437765849492,9.486542372176569,-0.08158303875776987,-0.14867346677420878,0.104708862560838
1700843907.9057543,0.42897591669225466,-1.361764033366866,9.506494866152474,-0.06534453004995658,-0.15638031915451414,0.1058582636295254
1700843907.915723,0.2548613457111387,-1.3438691117649317,10.542112347555408,-0.042104283387667286,-0.17211813378053162,0.0931312936125691
1700843907.9257188,1.9918178440756134,1.2448096179763706,10.060549868401894,-0.05377687631239371,-0.15975786016072155,0.0945087569533284
1700843907.935652,1.090667489190152,0.6755627340478363,10.540770893311327,-0.0629856570285086,-0.15800200626776492,0.0901234793244298
1700843907.9456568,0.3316556469298164,-0.7995840001581533,9.546052508831005,-0.05751326351781751,-0.16845724248636548,0.0884658369003232
1700843907.9556725,1.9319268215044596,0.1269851721496372,9.476473958349871,-0.051604731482801314,-0.16493508403962656,0.1122905510245259
1700843907.9657404,1.999761797502128,1.6428421093948153,9.589981259438407,-0.062485002719076574,-0.15571068318477008,0.1175478222547467
1700843907.9760563,2.323235343373711,0.5964077225759886,9.104171683951769,-0.07344487483614082,-0.13988988120730964,0.1221564757405217
1700843907.985848,0.656429320605152,-1.553484508783083,8.610376186810447,-0.05301023526113461,-0.14381017348066186,0.1280402588425572
1700843907.995721,-0.7132367859196183,-4.096243369555466,8.398588809680165,-0.007641403056531404,-0.1689548387331042,0.1342074322281773
1700843908.0057058,0.26149369846498877,-3.513620513586269,8.483949294661018,0.041954786780800786,-0.19013190958838563,0.1468152153073247
1700843908.0158005,1.5965577162745257,-2.095991420286902,9.039356061747728,0.07960765111414439,-0.1940725558613067,0.1519446420250828
1700843908.0258117,3.088740193659015,-0.27534467307341165,9.559796840119931,0.08539429678961513,-0.1784483451685723,0.156060834485143
1700843908.035656,4.0867530691565745,0.5231050577551913,10.038910073005525,0.08374102969121124,-0.148254722674913,0.1628243821440632
1700843908.0456476,2.647890479120532,-0.4824536081832243,9.76871653851119,0.08912817995630014,-0.1344096967876659,0.1618010747013981
1700843908.0557988,2.6663151923545825,-0.2736116880776516,9.359050943503624,0.09158502315121748,-0.12012301570904527,0.1720431792317326
1700843908.0657709,2.8069196769604283,0.5190373869496955,10.026780092431796,0.09328566708884005,-0.11328742387349781,0.1799502121983464
1700843908.0757751,4.102675460729337,1.1240558560719367,9.105469657436409,0.08374842237425072,-0.07870462566637298,0.1799184429226811
1700843908.0857987,3.302648646243153,1.2263173291926481,9.671086659091024,0.07292196495509344,-0.054790902107639386,0.1781505542574818
1700843908.095801,2.3342575889845083,-0.5616520161304431,9.143448849036876,0.07443186399164972,-0.03574938221413607,0.1613266515313084
1700843908.10578,1.3928287467925349,0.27283690531080634,9.957120656359269,0.08578152398121527,-0.037370475500110675,0.1612000512658055
1700843908.1156747,3.285217581708332,1.6022347859354384,10.624036517806033,0.06299462534574277,-0.009958520953699009,0.1434686976252492
1700843908.1257863,0.5148974598032807,0.43083434450005476,10.028621263251305,0.05942079648764305,-0.008022324774381074,0.1387015330372746
1700843908.135762,-0.5556069285052665,-2.4175144829055877,9.624676857992695,0.08436951685112828,-0.03066301955878807,0.1442376869498189
1700843908.1457772,-0.8199114177191532,-0.5216595114008586,9.107884308406408,0.1049096186876093,-0.060990422988508264,0.1593263345538075
1700843908.1557417,0.6388007882896113,0.4910214983413791,9.103232103549251,0.09921404318949885,-0.0716513807461477,0.1737955706892903
1700843908.1657157,0.4757884671435684,0.5867512520946445,9.63366625114203,0.08624064993803832,-0.08185285443368394,0.1876060264883931
1700843908.1758225,2.3364646961628694,1.7336072370886986,10.603802141989826,0.07428631766775529,-0.07534713603586904,0.1901162164984639
1700843908.185713,1.3557075502229183,0.4941297098690528,10.695404416573263,0.06359183855911399,-0.062184186421094995,0.1685030209599431
1700843908.1957402,-0.060089811893820545,-0.864612624097432,11.338568894666638,0.0760868424731716,-0.07351814783191425,0.128055160003751
1700843908.2057111,-1.4135764859457332,-1.994420247301904,10.542766189431875,0.09221824691923286,-0.09725528972921774,0.0892924266634877
1700843908.2156763,-1.1838577956583132,-0.6688718288372811,9.787384651792333,0.11405213905322446,-0.1348666343623582,0.0757418992696698
1700843908.225718,1.7888098182867578,2.4235208317715564,8.991030062927411,0.09136188323471281,-0.13603552675587782,0.0760328444419796
1700843908.2356906,4.080433629277102,2.9248161871210567,7.632076470708128,0.06390468468908646,-0.10569505473647631,0.0909002470551426
1700843908.2456822,4.267415783303689,1.735888627475767,7.183157332825438,0.038338799136061336,-0.06477728644803979,0.0937522920547421
1700843908.2557282,1.7129339638462195,-5.598505983696921,7.394904912963753,0.08510811092744133,-0.05430089351351929,0.1079285639105732
1700843908.2657528,1.5873292142153281,-8.110644505880574,8.901314572545356,0.18723355727727997,-0.05536786975621648,0.1215674626408513
1700843908.275686,3.552912490877945,1.7311688937482557,12.77655419556553,0.19849163855304683,-0.03877546022241419,0.111902323621362
1700843908.28574,4.539422409082509,6.1039417961085025,10.569349550730307,0.11010115671104077,0.019203222138980396,0.0848386856494839
1700843908.2957106,2.29848364706708,4.894747631798919,10.858480664764382,0.05407616662090458,0.03150417947758883,0.0763646560488637
1700843908.3057878,-1.663143072940336,-1.963548868898185,8.712259141148486,0.060132226852457865,0.0030199539765108597,0.0629091757117207
1700843908.3156877,-3.316353918410005,-4.784459610081861,8.22190965623095,0.11990967182056787,-0.06113467857894157,0.0645057755289967
1700843908.325774,-1.2237481488389454,-3.8744840096842523,9.245638264385327,0.17713646089926932,-0.10777357056046807,0.0659036683617527
1700843908.335691,3.1921179681565945,1.8136718617118124,11.214152007706875,0.1740614516599207,-0.11127290035983131,0.0808351385174687
1700843908.3457088,8.567885204311079,8.757280493155918,11.237485646628421,0.0888465222519473,-0.02643215264583574,0.0800906616030629
1700843908.3558445,4.5415015565140395,7.026423762373254,9.485208126905727,-0.005369933816903914,0.031087776420523384,0.0634125667391713
1700843908.366774,0.011170573192547216,-2.8177380226388204,6.856333556403149,0.003146382764646704,0.027560556328996927,0.0542947734473641
1700843908.3757937,-0.4693491724566343,-5.996914620525428,7.67036348291489,0.07625303137215929,0.003704595680970405,0.0559595870552952
1700843908.3857322,1.9490371453054212,-3.0181556291137697,11.097632495720493,0.12766496113464576,-0.00585516327049728,0.058591348188966
1700843908.409798,3.8421529561128813,2.2724582507446316,13.390834794256444,0.1279524379044821,0.04895493912456982,0.0274826875655348
1700843908.4127033,-2.262274131379807,-0.9219139757029866,12.130584699798344,0.12829886700190646,0.035122993044967236,0.01628379996404
1700843908.419706,0.795454980517783,4.082528563661812,9.896346577907307,0.10277659974722839,0.023118009694440177,0.0232050428865845
1700843908.431085,1.8197620982302516,5.3010589766144145,8.334610564487235,0.03990694443721217,0.02816020954766539,0.0390465120552475
1700843908.4357183,4.842693897936268,8.471167191930764,8.5113515779356,-0.01672983620640809,0.048570190920038205,0.0567491399823124
1700843908.4457386,3.8318514560261834,1.8528961729053843,8.390586731971023,-0.043443721864801006,0.0844786365288902,0.0644226345001156
1700843908.4557445,1.8345453358065382,-3.7028554498157162,10.144700035527858,-0.0028978923673008534,0.09801891520772539,0.0711968513904507
1700843908.4657805,-2.087141625118452,-8.442150544200565,12.907283549033778,0.1106477313437137,0.06411189988599597,0.0656641694484646
1700843908.475775,-3.482445460791915,-3.13114204203658,12.87157923166675,0.17676991204267745,-0.008506801702651383,0.0673678862629826
1700843908.4857285,2.533417607462384,7.576839148453475,10.559115818143574,0.11173014438573442,-0.008943314750207635,0.0758673595963414
1700843908.495797,4.695854241926939,7.713922647124495,8.190758186183995,0.01687412701181524,0.03637077392753197,0.0941784503637249
1700843908.5057194,3.6424447922752647,3.813141862592394,7.1388885906087385,-0.03814818585521194,0.06956465203680191,0.1068462329684193
1700843908.515794,2.774753310894143,-2.712107582758901,5.774132833414056,-0.014087093322396818,0.09294483896397689,0.1126829209505017
1700843908.5257528,2.396497346789927,-9.347480498360712,6.647659963321707,0.08783775382608651,0.11004123402021436,0.124968727189153
1700843908.5359802,2.0474217418496483,-6.868689092812647,10.015967213888908,0.2063738389103814,0.12119925494628955,0.1300083744107182
1700843908.546034,-0.45597776541427887,6.433394465966442,14.804919797549381,0.16199897490729223,0.11397433899106334,0.0950159626780446
1700843908.5557194,-2.333945898577813,10.652429502212083,15.16578203596603,0.025695686342917228,0.08087105515637945,0.0633767517982419
1700843908.5667903,-0.11682378671801419,4.148451073166045,11.207749262216812,-0.0291850233573808,0.05817605359698743,0.0290388717083628
1700843908.57574,-0.8379844458795548,0.5303368988966783,6.810171194897921,-0.04197155011245958,0.0492476536613384,0.0312492000637944
1700843908.5858498,-3.6738284821460643,-3.357587819499666,6.24032374942241,-0.006264627823506397,-0.013704544670430302,0.0563580925343926
1700843908.5957716,-0.8299885401577491,-6.665383643958925,6.930645801520445,0.0740016143813923,-0.05224438020162234,0.0623991834698613
1700843908.605822,4.217553267161354,-5.1245453749939545,8.428727325699537,0.15491130625671073,-0.024213756954062495,0.0934549766360219
1700843908.6244688,3.884565126496768,4.421305175931793,14.123214645914656,0.12652832538930503,0.01848033775727059,0.1090361895738537
1700843908.6257467,1.2786657830482409,36.95384393485875,24.091665945289108,0.022901802619608957,0.03166726446868797,0.0769619914470608
1700843908.6388476,2.051304562269487,3.9726894902466205,11.271448279814846,-0.040039554967293306,0.032404351024663595,0.0436704131542141
1700843908.645698,5.926858733026091,1.9188717455205349,4.375754588437639,-0.05621000410373887,0.10665164226764633,0.0223709690152104
1700843908.6557052,-3.49685653790573,-3.320491901325917,6.507859805171979,-0.02656689062511111,0.053748459892442625,0.0316914460389311
1700843908.6658008,-1.4620626972447521,-4.508219904143701,7.04424282208513,0.039096339923443364,0.01972617437529293,0.028928511845916
1700843908.6757755,0.6431225642822307,-6.289213858448726,11.126086067221928,0.11570172310982182,-0.004094124563386896,0.0425759787438805
1700843908.6857617,0.595300757384194,2.3719970796439096,13.891364945098662,0.13750443279303878,-0.004537507337109875,0.0505576851545269
1700843908.6959076,-3.0660784964321985,6.0892077997980865,16.754436228507227,0.04799501679631796,-0.062237488284059325,0.0187195791630442
1700843908.706783,0.5883864038914149,3.517397554449443,10.372040401093809,0.021126386446054322,-0.07832561689182832,0.0232884949772055
1700843908.7166412,0.17763843746552033,3.817654744983557,5.914303435541698,-0.038675466171906064,-0.0824289965806694,0.0336223664461071
1700843908.725779,-2.9105886299450865,-3.405824123942294,4.3947950554660755,-0.004382719179932915,-0.13374213448716765,0.0587686459301407
1700843908.735742,4.59354947706997,-3.926822387643002,6.44807609250674,0.043412206202853465,-0.11719694291164964,0.060301729547828
1700843908.745747,10.531081866777493,-2.226953926693397,8.580519498946575,0.09692674445925933,-0.012579895343069192,0.0704525160370762
1700843908.7557285,8.751934335095665,5.685790690507066,13.49631483947882,0.04139774169538715,0.11682599690924586,0.0356789055047924
1700843908.7666488,-3.624955721807129,4.218607943932053,14.598323299114368,-0.0021836135778893853,0.09450567032844243,-0.0083379400195185
1700843908.7757766,-5.689473835601225,-3.1396855937775228,12.198717180588979,0.022252017265253193,0.012613822203328108,-0.0265351374866072
1700843908.785867,-3.189379843299282,-0.28689420025529805,7.424578618730022,0.04708429656121387,-0.03191169238284047,-0.0155257684411112
1700843908.7957418,-3.559846573569205,3.7665136765824467,6.926389135712142,0.0098057357852353,-0.10356387775675072,-0.0013874175957967
1700843908.8057563,3.6498785063767447,4.308572623630847,6.780882026175073,-0.04725669704915233,-0.08014972283435595,0.011933715152591
1700843908.8157706,6.254546359798802,1.8570699529447199,8.981460424116676,-0.06782209792933354,-0.014500529677974484,0.0177459819941218
1700843908.825734,4.300558080057186,2.0096705920211617,12.370230435722554,-0.07470880827301403,0.03495976719324748,0.0031581547344471
1700843908.8357368,-2.9919752821181786,-7.067250464671117,13.534067160420948,0.0008611547608072126,0.009050585806229649,-0.0195404206635062
1700843908.8457546,-6.012408544237969,-5.902024254765992,11.248326671575365,0.09800531769247008,-0.08459508390959511,-0.0271523733855788
1700843908.856799,-4.232291948742021,2.969089394043967,7.781448916015018,0.08821511650869113,-0.15883291102362082,-0.0125785422743861
1700843908.8658557,-0.26181919883991733,9.474511987907055,8.624057874791195,-0.02452277188817007,-0.19325550348924903,0.0127973473398383
1700843908.8758156,7.292739168492012,3.735255485498802,7.771568727834071,-0.07514838256167679,-0.13164481991939514,0.0218069265364106
1700843908.8857868,8.828254070706395,0.4173209798480809,7.552057855741365,-0.08139502922569261,-0.036959919015346114,0.022464913385957
1700843908.895795,8.632068991041454,-2.198522391420029,10.858764183744132,-0.05176824881517749,0.05666506062879294,0.0136194127379353
1700843908.9057374,2.2345768952345297,-6.561091776032743,12.077397217774898,0.032171407259289964,0.08213859491376194,-0.0234553897054497
1700843908.9157715,-1.5951128641358159,-0.9890092593289034,10.091256394720324,0.07561171805600281,0.04755085380427391,-0.0225841765524451
1700843908.925724,-2.353796322108213,4.225114497728346,8.671546887592168,0.034664777918565544,0.0019919041800162867,-0.0169753291876618
1700843908.935728,-3.067822701450725,0.39163823869862685,7.89918521343438,0.0075161607989432016,-0.05428039797253754,-0.0284503483445946
1700843908.9457405,-1.934391310053792,-4.408110231912653,8.914900027895623,0.057651881986422786,-0.11419581126093986,-0.0427937758387629
1700843908.9557245,5.942462368832487,1.1643990915088338,9.205424711178626,0.05632080188701027,-0.07756403691037544,-0.0508552816928927
1700843908.9666688,9.6066881083023,3.8676248755648026,11.668140923734947,0.009862581240839151,0.028630252144691618,-0.0518973422469203
1700843908.975792,2.9539683388085978,2.3159229953599043,12.3148662211506,-0.01911609712226037,0.07529574128939649,-0.1096369576872889
1700843908.985785,-1.1519840901960012,-0.00732762507496188,11.362059586817313,-0.021667660838982257,0.04886063497635898,-0.1312303197802607
1700843908.9957318,-3.6655103896863186,0.7463889013412411,7.928184271165357,-0.0122658327318619,-0.0013489348638344933,-0.1191542697371546
1700843909.005756,-6.625872682599263,-2.0817043928431156,7.354057607415143,0.0027206731127554823,-0.09641570522475856,-0.1178316948236529
1700843909.0157769,0.04646287516887536,-0.1945391003113792,8.613248773295476,0.02049911316368829,-0.14446242575988005,-0.1126784560503069
1700843909.0257657,9.148333690746515,0.06630719464296692,8.485958761115517,0.023822127342980236,-0.05296743574213841,-0.1136574995936457
1700843909.0357742,6.3484439411097195,1.6210395299484688,10.68969145401057,0.018926021629039294,0.02336079532615197,-0.1041281995595996
1700843909.045814,0.22753033278193727,2.063564457354691,13.198132413225547,-0.006335959851444156,0.03637206089257036,-0.1127221388043467
1700843909.055833,-6.020179475064162,1.1996539143863671,13.521231326131742,0.004113358540275171,-0.05722714515588534,-0.0906914425314967
1700843909.0658472,-4.776372777005252,2.387813588675314,9.71460625683788,-0.015497290994299699,-0.13370251199074493,-0.0952751440228526
1700843909.0758066,-2.503559619613764,3.414790457670843,8.471169209419706,-0.060540266141947435,-0.1855427133274579,-0.0769931999267642
1700843909.0857916,3.583904917571937,-2.6120428616916103,7.579859084356078,-0.03195335738733724,-0.18538428282952102,-0.0759294432820384
1700843909.0957575,8.037921100761231,-6.231673585814839,6.8862709516113325,0.04642788521041928,-0.10339627662360822,-0.096773917716891
1700843909.1057572,6.314506285811081,-1.0204144398612467,7.363414815987095,0.07782443288775334,-0.035438613220241395,-0.1143916425527636
1700843909.115816,5.846989965117359,1.6994775226881542,10.42368591847161,0.07518269945161762,0.027622523972851254,-0.1140610751928393
1700843909.125759,-1.2104549696139493,6.126117500543443,12.372183609337037,0.004010437518122325,0.016864123274606742,-0.1146044534863535
1700843909.135834,-0.3465660187595524,4.027044583231063,12.3047807843062,-0.036026963782587594,-0.033218631141383535,-0.1084964153589312
1700843909.1457512,-1.8263339934052398,-3.9176860806458946,6.469186650385126,-0.005266921767128178,-0.04922970565866437,-0.1132160824956004
1700843909.1557484,-2.505885431776026,-6.210221298305638,7.975005994499249,0.07800018992194206,-0.11604818766811673,-0.1056753871263568
1700843909.1658394,3.682456531038691,-1.2764348617640608,7.803007885160718,0.12179984725742016,-0.1090140379048573,-0.0893021849216525
1700843909.1758142,9.352649421393687,3.039464192901989,10.581094554992086,0.10640411944081052,-0.03149680399137018,-0.0611045685829226
1700843909.185768,7.744271728391549,10.031792927851699,12.410267562777536,0.007095382167407317,0.06386048838035764,-0.0573119771899287
1700843909.1957574,0.11793673824236839,3.547055229099642,12.761495917611807,-0.038124016601147205,0.057091653750034575,-0.0581559491576258
1700843909.2157576,-3.3817228491335984,-5.843668716298207,7.024556797994217,0.07778297350433391,-0.02537499304602245,-0.0408820648910109
1700843909.2257595,-6.0811023928288375,-7.1004067072969175,7.888312550598705,0.18049768071156228,-0.14507859633835665,-0.014388570492119
1700843909.2357905,6.482807923459261,-0.3465825977227314,7.989087470804449,0.2082860649267864,-0.11080777410320763,0.0013204546529236
1700843909.2458632,10.9179939643987,10.85996176819104,10.685011937978105,0.11406732774536985,-0.001756769091658925,0.0500373440562184
1700843909.255829,5.499539284796888,15.810582081629276,12.482548044889331,-0.06798908558298929,0.08012995062318656,0.0258580269990857
1700843909.2658122,-5.2149025369067115,4.508468834818514,11.866025430547296,-0.1445835451592449,0.022126824688751885,0.0240788115887339
1700843909.2757733,-4.737611182534604,-7.847555869857531,9.242143844766352,-0.0354365949441455,-0.08225343740600846,0.0282820920227463
1700843909.2858267,-5.177865072489412,-5.236807208357365,6.334392718163641,0.06734422482430445,-0.1457398674082901,0.0410154360114033
1700843909.295863,-4.339239854078088,0.5934563763061618,11.288273347789522,0.06385406670666094,-0.2605961943094933,0.0627119476674492
1700843909.3060567,7.3071297471956775,-1.611978636189059,9.256253362839665,0.09902312536388147,-0.21047488301898207,0.0725497278152401
1700843909.3157785,8.959905563960262,3.9062512452801257,9.51899016924623,0.06719170405632353,-0.1317265923088561,0.0782783153234417
1700843909.3258393,10.723277978022184,6.911307977911107,10.5435713120876,-0.010107934545180228,-0.004344426553791236,0.0573673072038586
1700843909.33584,2.7032436569513263,2.3606814504797713,11.192501551871482,-0.0673830623675863,0.029424796873426556,0.0216496280162032
1700843909.3458536,0.46459959595483086,-6.731832845520632,7.2194285102772255,0.018273380097968462,0.022837148163503924,0.0101714116288717
1700843909.3558445,-7.437501600848648,-9.166711669475044,5.628112832297707,0.11719634016519918,-0.05212158432042953,0.0048800353659685
1700843909.365867,-5.283658483163769,-6.358597724219268,7.6827873533785205,0.22289470681450554,-0.18022436262597374,0.0115382821066673
1700843909.375799,8.222332777990914,4.116319082577393,8.41582349556696,0.2060315009509012,-0.10953173404821712,0.0273890356300766
1700843909.386791,11.182440873062937,19.28453238257141,15.430163018238275,-0.004576049789238326,0.0026650936526802687,0.0251166793285305
1700843909.4061403,3.8735525142883334,5.881135118632894,12.78066137305643,-0.14113497184295382,0.11288591374353459,-0.0201326039852206
1700843909.4091525,-28.231232165443174,-20.58880254278881,19.556060633299673,-0.04539927425129916,-0.03541648043020347,-0.0301352058769766
1700843909.4222703,-5.646469253756459,-7.087698307008493,8.718790034643867,0.09337853772445348,-0.16069804586633707,-0.0091337309451405
1700843909.4275646,-8.398314546251674,0.8037377343520611,7.498042481926973,0.11806571549297151,-0.24467971785145848,0.0329124527750905
1700843909.4358385,0.16767373348913742,2.688767552585943,8.653629405812,0.08199381661086365,-0.29153357941694497,0.0491205203114445
1700843909.4459982,8.239801806466954,-0.7880637343229396,6.395838443961875,0.09400305958705156,-0.20254871538140157,0.0413317802129681
1700843909.456242,11.537067154480996,4.549321694821163,8.608689201968982,0.06422765080706695,-0.09384240949550758,0.0512300255475934
1700843909.4665103,14.632129544567778,10.67501150075645,11.98813701204304,-0.05055965601465272,0.09294167999213138,0.016493977117389
1700843909.4762058,1.42701443426163,-0.01144665520563846,12.95292326693959,-0.07187814597763674,0.12744093337875295,-0.0192292210878436
1700843909.485803,-6.1258468859485635,-11.661695309242582,7.939855046394344,0.053283976347770254,0.05952146731208205,-0.0209793196292225
1700843909.4958005,-14.035498183923862,-12.690336621852842,7.168510223817769,0.2407671123570451,-0.13436225143425354,-0.0076734516070787
1700843909.505797,-5.58168863404525,-0.33126989521068617,6.607755832431245,0.26286008701503155,-0.26032670026959914,-0.0103472749935094
1700843909.5157895,11.761675468241815,8.680379471388568,8.251344441074712,0.1749527945390989,-0.15062644747514972,0.0058037657989557
1700843909.525798,13.877964144190468,21.379823430383507,13.417616120223942,-0.05199461957766281,-0.010806455359436369,0.0073580272263284
1700843909.5357754,19.40039940236036,13.048022839669288,10.692920169007119,-0.23629289674033516,0.24900743346358709,-0.0427825105609004
1700843909.5458033,-5.987515359540825,-11.446485815684484,9.275650838861548,-0.1394982122658343,0.24161579049280532,-0.0460732345701758
1700843909.5557632,-17.378650409729428,-20.45325310251306,12.604269892313038,0.14527497238415887,-0.027474609216936386,-0.0123896914766733
1700843909.5658112,-7.651892633261256,-9.454744379924412,4.7948855376268416,0.31749033228303963,-0.13510145836190274,0.0351080084918435
1700843909.5758164,-6.453007897314258,10.6899504873111,8.226057328801328,0.21497982130220578,-0.2589790172941952,0.0550358752487595
1700843909.5857863,9.768029547754272,17.13103230456658,10.490582234398868,0.023123905302023916,-0.18485811078575295,0.0793329003034527
1700843909.595826,15.000517043538684,24.159411237018134,13.99830904316008,-0.25351286635328396,-0.02278798750473707,0.0878367173252995
1700843909.6058202,10.6337168094049,-4.027679005359302,8.77716185805754,-0.24267660359986123,0.13285390809867986,0.0644829544006283
1700843909.615831,-12.476491042853526,-17.8352093235869,11.095314818741185,-0.0351660228331379,-0.0038445898232681987,0.0347087542293961
1700843909.6258612,-6.140744674747242,-13.772755498650778,11.10448565170207,0.1663019566738365,-0.15117797730787222,0.0507317344425614
1700843909.6358595,0.3401512759726043,2.3351013154323543,4.800654008631036,0.20139123077331483,-0.1529939781170004,0.0853673192439969
1700843909.645955,3.8595666064582232,11.326310277652926,10.53506638462162,0.06702005043485716,-0.1627265959831143,0.0856456803856785
1700843909.6560287,13.544429042196223,11.577312216733226,8.984923370450433,-0.052493758838127666,-0.03793622228400874,0.1091500120936329
1700843909.6759176,2.82237167560339,-1.905755769586365,7.671754339851116,-0.11190064228840813,0.13733455745828357,0.0606074492214615
1700843909.6858106,-11.055757093973826,-11.682297316448109,10.696326244731086,0.03276451551623648,-0.030571538570337377,0.0718164938269551
1700843909.6958804,-5.361258850445781,-3.361013211665288,7.684799268709981,0.12449073150335489,-0.11286007262256408,0.1263124393998082
1700843909.7058148,-8.2265766774659,3.4425380362732967,10.419831020012362,0.08690981637295643,-0.25592843379196933,0.1459099548636372
1700843909.715805,7.225764832297845,8.370123880318388,10.855933855067764,0.018545857113170527,-0.24669406758679,0.1645815121708806
1700843909.7258816,17.262764973511125,13.641177335924121,14.485065040623864,-0.14399277034144353,-0.06899490320723362,0.1189088943181927
1700843909.735813,12.03464138015782,-1.0109966279653497,10.60105480446886,-0.14404797901974606,0.09380710742145068,0.0482534664450581
1700843909.7458255,-1.0944068938207112,-6.8129807395135895,7.949608569476387,-0.07300954765681167,0.08297434545543726,0.0151624792022998
1700843909.755875,-5.686306407786686,-10.49091408546214,4.507740230271313,0.06035910631420069,0.016368255985552582,0.0300332112936671
1700843909.7658658,-9.692656213459664,-8.168417103013008,7.7037802123120995,0.21102734212277574,-0.1388768904548366,0.0750272246776516
1700843909.7758837,1.5838489642286686,3.685348930114544,8.82945054843685,0.17379842367926143,-0.18141587054714425,0.0923499810276921
1700843909.7858312,14.081111501903662,11.458357162226811,10.296577788399226,0.06569904250145388,-0.05972902453293988,0.1415902274428303
1700843909.7958105,18.295147867767167,13.298316511145169,13.376053304663746,-0.1097431053162303,0.1437629241225501,0.1447617458878453
1700843909.8058465,6.873660789969833,-3.0378383642410722,8.385716005528995,-0.09574575327017494,0.27631719434043567,0.1254648762522633
1700843909.815866,-10.20272433371439,-6.2773387786521395,9.511353321712239,-0.029212974583763863,0.14254881238846978,0.111963396030515
1700843909.8258054,-9.094955577281768,-10.910379263955544,6.545281426685117,0.11110968885258116,0.02231236327418914,0.1076274486957486
1700843909.8359478,-15.89104986679996,-3.22150635693676,7.930241762110059,0.17844306898325674,-0.19753246243116382,0.118510534125417
1700843909.845892,-0.651912160300443,1.5062329275232569,10.717793126215414,0.1652364087173535,-0.2931770162095841,0.1469412940321858
1700843909.855939,13.754703999821668,13.763305884768341,12.963369967398936,0.05820628234976691,-0.1797765876139446,0.1842879402218754
1700843909.8658538,21.76658289379121,16.295907994290996,15.906297802592512,-0.16603603970448505,0.058845795669416896,0.1008555414853985
