time,ax,ay,az,wx,wy,wz
1700844035.0218246,0.19935329447688258,-0.04460066358714961,9.767346165687623,-0.0013120430364284403,9.801606162240915e-05,6.950892278881473e-05
1700844035.0319338,0.07909005788773424,0.07175941787313082,9.867507845934131,-0.002087269389617708,-0.0010571978185754704,0.0014717063866923
1700844035.0418775,0.13690421453986765,-0.1984047467982071,9.753020126289336,-7.040028582062265e-05,0.0005360968481425075,-0.0024510439717773
1700844035.0518491,0.0805132730010576,-0.025010712393548375,9.829183667993231,0.0018041669361004722,-0.0012110413704462968,4.3100852421830405e-06
1700844035.0618331,0.2592634344155523,0.0656541174632434,9.766096828835538,0.00032038534894032717,0.0016529583102310116,0.0002155437658443
1700844035.0718668,0.042774536621263626,-0.04582577063732706,9.848142906709493,0.0007130341522164974,0.0004448525978079149,-0.0011166128562395
1700844035.0818107,0.08311114559728869,0.14668143553477594,9.887481351440924,-0.0008616494536287299,-0.0010609162768102308,0.0014907078119363
1700844035.0918086,0.17197837643488584,-0.0442405282801024,9.780689828645333,4.211334301894212e-05,-4.354440314246239e-05,0.0019094268326084
1700844035.1018057,0.1038011700780434,-0.16546621259592612,9.766337788937934,0.0020273171431839077,0.0007331830770988604,-0.0007295639253784
1700844035.111807,0.006474251836769006,0.18690924720581598,9.94307452351618,-0.0023934941328024643,-0.0012978559351190706,-0.0019000546773527
1700844035.1218188,0.09568586735315789,-0.061876597472566575,9.815709064064174,0.0002600393059211355,-0.0028520363391709934,0.0010786811006623
1700844035.1318424,0.24295312971940808,-0.009441340252089231,9.742435504433999,-0.00021717735438456283,0.00045266555562368285,-0.000162586849146
1700844035.141851,-0.0827250297131667,-0.07930919825927141,9.89535680215597,-9.536017967907465e-05,-0.002719422302734574,-0.0027933774282787
1700844035.1518517,0.3370467348367602,0.12902520483489166,9.741162616058764,-0.0012386592229497399,0.0011001194630580018,0.0002818445617235
1700844035.1618814,0.09181193622189587,-0.016741090001174793,9.834835768303508,-0.001028540302455363,0.0004515507049532411,0.0003768387076347
1700844035.171871,-0.028566116059805403,-0.1344220577855759,9.852152292246938,0.00102036714490679,-0.0023543361197731483,-0.0007854573661093
1700844035.181804,0.22245197270884953,0.09129830117014846,9.799190456441787,0.0006131896303229133,-0.001291888845464304,0.0023233062355216
1700844035.1917949,0.0531168022204731,-0.10310166800399471,9.816947377908138,0.0011552226430723079,-0.0016483926610083891,-0.0003421431639794
1700844035.2018905,0.27527427133058624,-0.06056552768831528,9.711636988356354,0.0035200235573581546,0.0009761062335736208,0.001896358747072
1700844035.2118018,-0.05095322061492546,0.2016555472531098,9.978617462516826,-0.0017493842389543013,-0.0019058272196660713,-0.0001491681788679
1700844035.2218215,0.25099197361612247,-0.060420652977390035,9.725152625436392,-0.0008951712212140875,0.0010576509009784078,-0.0007351683918018
1700844035.2319453,0.05509807902008866,-0.05551265575064977,9.837915527159367,-0.00020301260552473243,-2.229273811466479e-05,-0.0016348105156425
1700844035.241876,0.13039748282255817,0.05215166135286632,9.829599760847632,-0.0005025293156787563,-0.00040266220335908063,-5.567008625759082e-05
1700844035.2518747,0.26504591573956104,-0.08662000640141668,9.70653210632712,0.0010370989088971212,0.0029646447050748173,-0.000421094056182
1700844035.2618291,0.02842503277477379,-0.04589886806729191,9.84961754653259,0.0023275529606471843,0.0009071672707643739,-1.0592327416374255e-05
1700844035.2718198,0.05869866755716189,0.24811896493413466,9.93567835421971,-0.002822268887940817,-0.0003721221427020253,0.0002013682504552
1700844035.2818418,0.09051740047675913,-0.19880314714396893,9.76316316009518,0.0007119049488481978,-0.000595629774909291,-0.0007448512361948
1700844035.291939,0.17988788824458504,0.12209033680176153,9.84100413096685,-0.001670039614035161,0.00045713391132653515,-0.000621911766902
1700844035.3018615,0.09072833289134984,0.01795309444166197,9.845573722923326,-0.002006434260006434,-0.00015679598666862543,-0.0003015360445347
1700844035.3118515,0.027948410809999547,-0.14481313870083495,9.811706823533703,0.00020864378586107974,-0.0016606946771461264,-0.0011650532716516
1700844035.321905,0.10086992620133588,0.0017536540479018805,9.83303599634307,-0.0004347386875998682,-0.0017050195828003472,-0.0019313499098275
1700844035.3318703,0.1954978572533105,0.13916002709348874,9.824337755749864,-0.0022802380295488408,-0.0007941782836474578,0.0001454928540992
1700844035.3418105,0.0673660550020942,-0.16614310311699748,9.776764862169433,0.0010442126030849085,-0.001473674959749983,-6.423185110135274e-05
1700844035.3518178,0.20452232899597608,0.09317872523011916,9.815448084519506,-0.0005230233484064762,-0.00016573065154520253,0.0009047187457695
1700844035.3618124,-0.04471609466250822,-0.11364781557540274,9.865138744803431,0.0010017450878226372,-0.0029574589222817723,-0.0004639562568259
1700844035.3718383,0.1710109799354364,-0.12761414157576031,9.747053414306883,0.0028208102877456988,-0.00111864899946415,-0.002013670676351
1700844035.381904,0.18547354876003133,0.2232622448553322,9.863219230305896,-0.0011995273686624872,-4.354129510488142e-05,-0.0005049391067218
1700844035.391889,0.08336858982953746,-0.050971769915617984,9.831022737985975,0.00031106963745077497,-0.0012270609375838054,-2.661678005053001e-05
1700844035.4018235,0.1584751356906867,0.024175736154429344,9.808139617327415,0.000682854976632356,-0.0010404264286279668,0.0013763365685376
1700844035.411894,0.25359340626647425,0.0772884085941387,9.764125509233951,-0.00218378950370474,0.002692306727130141,-0.0008550868834931
1700844035.4218647,-0.03219110260188865,-0.013970142478747562,9.898718847222094,-0.001157066126807959,-0.0010214330872011605,0.0005511857424066
1700844035.43192,0.18116034882125776,-0.12563342433288632,9.754412709874188,0.0011380759896641147,0.00030961951784782036,-0.0001674296101187
1700844035.4418588,0.08859369905134522,0.17191854911487214,9.908741350388171,-0.0016361475885145974,-0.0010907365450897816,0.001265320414714
1700844035.451858,0.08315182289590559,-0.17122706849575506,9.77309353543254,0.0006999935729508721,-0.0009931061741710958,-0.0011345039121438
1700844035.4619272,0.24427262392284063,-0.0015348156892756636,9.749101267709225,0.0017959821196983023,0.0011157623263033504,0.0007091477571889
1700844035.4718971,0.019532615245624736,0.003357429489704303,9.869858504853335,0.0010118036873397115,-0.0005319229643298352,-0.0002966815838222
1700844035.4818263,0.15362105499100098,0.0415881352671177,9.818280628587315,-0.0004485345026699913,0.00041280747871667514,-0.0009251459734146
1700844035.4918418,0.1489174333384726,0.030136076549784313,9.80368130409481,-0.001024074689897677,0.0012491328085695531,-0.0004758678143475
1700844035.5018427,0.017645750288180363,-0.02974203065770107,9.857359276285802,-0.0007055630290540325,-0.0008712971603408201,-0.0002259092754316
1700844035.5118968,0.13453311786195654,0.012434922197290707,9.815864461971215,-0.00030210364017931057,-0.0010445191491173138,0.0015674401773508
1700844035.521885,0.19519672761731835,-0.011070088607990667,9.770797482900443,-0.0003702925121254125,0.0007711832906045844,0.0010671249591182
1700844035.531875,0.16280922750959598,-0.10087038604568861,9.765287790319654,0.0007718881678449961,0.0023030159133294722,-0.0006439197342474
1700844035.5419495,0.09708498713949124,0.13054881375159977,9.875460230938438,-0.0014304974329828752,0.0014368910177462715,0.0006271741266032
1700844035.551919,0.03278810209234944,-0.19104000274310812,9.80244257777566,0.0009756667669939832,0.0006430324521786386,-0.0020166590576623
1700844035.5619245,0.1721257214294795,0.0308654751430153,9.79999281916177,0.001589577858375227,0.0011642075491082795,0.0005500612286054
1700844035.5719018,0.026801320045332252,0.09059979725386451,9.907979232501061,-0.0008154579015383853,-0.0005963744621812642,-0.0002825331058916
1700844035.5818558,0.1575107200009248,0.04756955066801333,9.827085572732907,-0.0023383543245055994,0.0003978990908251322,-0.0010503228287775
1700844035.591946,0.1829622718243074,-0.20935317925083724,9.715098051681828,0.0016387466158494582,0.002199092160345136,-0.0020457209786031
1700844035.6093612,0.09914101422409848,0.002617381019968909,9.831489172390564,0.0027284064324428568,0.0006832639520268669,-0.0004136816598106
1700844035.614834,-0.002117102191558516,0.32414008513627784,9.998861630174684,-0.0011168310364713734,-0.0005956351514934365,-0.000532878492922
1700844035.6219025,0.23632220386636868,-0.11811475660124925,9.713224939214443,0.0010144081395863206,0.0010002918527270072,5.4223299994633626e-05
1700844035.6320686,0.12004198334357968,0.07542412909181241,9.844994150256507,0.0011120090087569266,-5.6219658286528964e-05,0.0031268574064965
1700844035.6418552,0.20632577432196955,-0.0497673895222541,9.753241412641502,0.0007715183013682552,0.002528022747883991,0.0010541068157549
1700844035.651846,-0.08970412962609299,0.15506266145395253,9.974469937365956,-0.0025324404944695005,-0.0017296106682265378,0.0015678136377032
1700844035.6619,0.24553255082565592,-0.08818374447577616,9.720467098756481,-0.001745307637683177,0.0016153253012387537,-8.711230438633729e-06
1700844035.6718605,-0.012861527665963442,-0.18310665870009843,9.830171784311743,0.0010829583853450106,-0.0004969042318015315,-0.0018750943010304
1700844035.681891,0.10132103260683731,0.028267649204024126,9.85087053200092,0.0009369177366307786,-0.0013909829202532543,-0.0008912488584969
1700844035.691839,0.2529005720237996,0.10453901867356322,9.773227950845293,-0.0014040500728236683,0.0016082551401485196,-0.0012663833796609
1700844035.7018793,0.03196741139322459,0.014089511955203804,9.870587058413419,-0.0008582994179910548,-0.0007357018300118655,0.0004587958881897
1700844035.7118914,0.16790137175117137,-0.046725548386194575,9.783411541556042,0.00030175708497531974,0.00018631181953557676,0.0007333452348034
1700844035.7218368,-0.06086019422331568,0.03767850684945627,9.929472894301778,-0.0023729965967682594,-0.0022846801003112926,-0.0028298889984939
1700844035.7318802,0.2589785611805411,-0.019694089069666774,9.740767824032012,-0.00016091916577909318,-0.0006727353556566244,0.0008868255361817
1700844035.741842,0.08248416806733483,-0.05285772250401756,9.826442533249415,0.00017211365082317188,-0.0010039207539081075,-0.000659538479485
1700844035.7519264,0.2032594239208895,-0.05065151058010261,9.753318388799913,0.0017959523422871073,0.0004921822578723376,0.0005802271815268
1700844035.7619286,0.026900902532393488,0.12638906642907272,9.912493596991766,-0.0011965490911715834,-0.0012810881085637662,-3.294523336036401e-05
1700844035.772188,0.22154663041541828,-0.03868567177379268,9.750958074826375,-0.0003941415812326845,0.0010319391127122561,-0.0003436462604072
1700844035.7819772,0.05913911759862733,0.031634969771993426,9.862615157557931,-0.00034830790405784775,-0.0007684797717012048,0.0009792155586551
1700844035.791953,0.09485299833190831,-0.006345129366648417,9.833868891108661,-0.0004622963222099338,-0.0013034339001722912,0.0009076929535153
1700844035.8020947,0.15593106044108263,-0.13703932296178614,9.744287680693866,0.0012539483903008242,0.0004262070925833505,-0.001501087495089
1700844035.8120608,0.06470504977078238,0.020030427919483822,9.858375975756438,0.0008877448643753509,-0.0007874787318754614,-0.0013550504110385
1700844035.8228233,0.17676057782098764,0.12071962201748943,9.826739989370058,-0.0013891552881940268,0.00036996752030690847,-0.0003086016396623
1700844035.832683,0.03925378110178752,-0.09146499478364574,9.829443351549132,-0.0005364470588002917,-0.0008657228041749879,-0.002022991818339
1700844035.843086,0.2707786427327343,-0.03355680883094586,9.716478254458758,0.0012580061325374074,0.0018414639798544168,-0.0001998442923281
1700844035.851939,0.0745370215685122,0.02886833124004925,9.849831623190948,0.00035727218295062156,0.0012804307752498263,-0.0007981084519629
1700844035.861853,0.08717069421825838,-0.013077906316763097,9.829964300140189,0.0004109182055325911,0.0006519760740661515,-0.0012280153343085
1700844035.8723986,-0.010160722571244968,-0.12109037686086019,9.848625588123785,0.002833104179527722,-0.0018085751457367334,-0.0016213962109391
1700844035.8819733,0.26727286225525737,0.24564961933093923,9.83274288111316,-0.0007651686786966894,0.0001654481775879865,0.0010216784547451
1700844035.891981,0.04790166347727114,-0.14784780148130178,9.806665110819823,0.0016763899930735703,-0.0008783701135426172,-5.491973130075531e-05
1700844035.901889,0.1952932144990405,0.16363334928654452,9.832332955791557,-0.002076855858191628,0.00093656605168469,-0.0005027002072524
1700844035.9120162,0.06454938757282994,0.022017081035915563,9.85416941265899,-0.0014822814882124989,-0.000728254127568292,0.001663931366093
1700844035.9218662,-0.015482848009054063,-0.1794851391756443,9.839006310764455,0.0007987174216385971,-0.0027656167895494395,-0.0010365290101249
1700844035.9318554,0.2514161246889409,-0.0016676876571950147,9.758267394452362,0.0013604681014463508,-0.00042276009033192027,-9.292467726437644e-05
1700844035.941926,0.15469107295460105,0.11265801426849659,9.853907800682311,-0.0002365606530419743,-0.00012065201613395922,0.0006763410900389
1700844035.9520433,0.113540148728261,0.02859148167950352,9.838874279649916,-0.0007163634550032234,-0.00023725464284538787,0.0010090231779399
1700844035.9619482,0.1513190540669575,-0.05728575512970794,9.765667603196407,-0.00018851140074040542,0.0009954467146065758,0.000258746393993
1700844035.9719298,0.05523714902824099,-0.01670612422367347,9.845981501541337,-0.0002294701276867473,-0.00024097992169723717,-0.000516855204441
1700844035.9819455,0.09289003598597843,0.07305071408543004,9.862776549827482,-0.0010143866177071052,-0.0013570800111527533,0.0010175796458865
1700844035.9919243,0.1469442899458666,-0.03329341632298684,9.790929904214572,-0.0011559437682609494,-0.00016535898711926735,-0.0002285230904449
1700844036.0019636,0.1881287358269433,-0.04239237733223679,9.772980575769044,-0.00014118523591740475,0.0011433324831370243,0.0002796398010473
1700844036.0119958,0.025913047827374865,0.01086053693683096,9.869551550143628,-0.00041051893061122476,-0.0007509756125784883,0.0002952552430001
1700844036.0219238,0.0526156774627842,0.027678159183237898,9.872165236441752,-0.001515434369814706,-0.0020406735220338612,-0.0001774851581644
1700844036.0318964,0.14488457846240943,-0.030903791951441335,9.81783723173463,-0.0006731482868740647,-0.0015738955266630648,-0.0001681699533578
1700844036.041911,0.12546702793439365,-0.04262797932015103,9.806703659253932,-4.991010231646609e-05,-0.0012773533145054353,-0.0007478242506836
1700844036.0519328,0.06767920044079605,-0.053188600692528454,9.81612753157105,0.0006672104593088668,-0.0019888915501458377,-0.0011438170214746
1700844036.061872,0.11561845935140991,0.08970532333397388,9.847770760009773,-0.0008024111745139361,-0.0024184101872544174,-7.355555422647195e-05
1700844036.0719807,0.1580090470990086,-0.03559922031603406,9.786222881761594,-0.0006403679874025505,-0.0012285600103748807,-0.0011881557758529
1700844036.082036,0.15930773054317066,0.042835917301952436,9.825448830231185,-0.0003013656990438,-0.0012881598993199784,0.0013480234891544
1700844036.0921185,0.14141013889853155,-0.04724288009870209,9.784083079870078,-0.0003743901353426081,-0.00021304156033949195,-0.0002277741324719
1700844036.1018815,0.16652413222730594,0.03898966251623951,9.800536735748935,-0.00038741660770304746,0.0002276651368465456,0.0015119349817182
1700844036.1119127,0.085869500851679,0.03740150334462429,9.854380764309669,-0.0025037655032240395,0.00027532263123328503,-0.0008651877753068
1700844036.1218832,0.08245677582723655,-0.09226281399304741,9.79987916172914,-0.0004854008391995666,-0.00042427373108180634,-0.000362635171004
1700844036.1318889,0.07139570332028486,-0.09559175447272823,9.79961518774254,0.000937666324409764,-0.0007908318263342963,-0.0014813372864951
1700844036.1418917,0.12386945016873573,0.07969917175632861,9.85064924478892,0.0001967062108464639,-0.0013541002759087741,0.0005236190198415
1700844036.1523926,0.1340690190177629,-0.0880153328018434,9.78696761279789,0.0008594194826004168,-0.0002532744483368245,-0.0017108259955052
1700844036.1623983,0.2229069724928185,0.10974401441659187,9.808624700225257,-0.0002074941966486331,0.0011094351922625238,0.0005631097636437
1700844036.1719952,0.0560177162926249,-0.054016048833936625,9.836835694696727,-0.00043064015485937075,0.0006035466968498055,-0.0014355077175055
1700844036.182007,0.1523019704065734,0.13078760658713567,9.831842068747244,-0.002256395354905897,0.0009160981318687418,0.0001950565027441
1700844036.200016,0.014816725880432457,-0.04855014690030517,9.851766187168895,-0.0014602939953620802,-0.002181495751839022,-0.0014977256534252
1700844036.202171,0.84822917924361,0.036686207995336645,9.431748849953161,-0.0009827329209866253,0.0007406314910237589,-0.0002065279287849
1700844036.2119973,0.09980347551395262,0.0008824873098701784,9.822689973187108,-0.0009965018542176071,0.00033420530972132727,-7.35467066620131e-05
1700844036.2218874,0.16050363330918066,-0.06933044295040315,9.773967046655269,0.00025632154288546624,0.0013087352630560378,-9.739036900965768e-05
1700844036.2319958,-0.024595517897761154,-0.05191428681640449,9.885953125520523,0.001071406905115681,-0.0015735127257942123,-0.0001048373989392
1700844036.2419894,0.2423879466797196,0.11469234671382325,9.795174775710326,-0.0012699650870556186,0.0009827655178331672,0.0002602381544788
1700844036.251963,0.15761275056516202,-0.13271175671141416,9.760524227577271,0.0006169004616784178,0.002204680643861331,-0.0015748338074986
1700844036.2618685,-0.02564136002598019,0.019417502379511002,9.901217925336155,8.420261907238993e-05,-0.0005427214335029003,-0.0021116520976279
1700844036.2719634,0.17156403268409323,0.0318213735572926,9.793715912562773,-0.00019372017785950708,0.00037405989709583023,-0.0012827844358612
1700844036.2818923,0.17315452456358146,-0.0037359055053057936,9.78909276515211,5.6632725843012074e-05,0.0014897966473551686,-0.0011289042187486
1700844036.2918775,-0.054832246327918756,0.09223074511553894,9.948366032076764,-0.001008424113529919,-0.002564445547880464,0.0003690080673918
1700844036.301896,0.12051376792828361,-0.15667327079804239,9.773834281539704,0.0008326155047359481,-0.001902088645852892,-0.0018125126836453
1700844036.3119738,0.2792751099231771,0.10516392637183941,9.770156944943531,-0.00025591926583095275,0.0006374433440825926,0.0008708153153206
1700844036.3219264,0.06937727938963861,-0.12408578009583389,9.813724093109714,0.0009082558717092927,0.0003438892504391217,-0.0015036751748625
1700844036.3320067,0.08555584548677643,0.06472173910308088,9.862875013172248,0.0009890777404830747,-0.0013041803601219948,0.0008082380053024
1700844036.3419793,0.10600667226326253,-0.08841673660841079,9.789481263049495,0.0022821203669736614,-0.0011544132157915513,-0.0001577428658124
1700844036.3519049,0.045077923180728126,0.23733270581826757,9.931507934557882,-0.0024851279792604836,-0.0027566730488642467,0.000174184690732
1700844036.3620155,0.2290649134359242,-0.19263588741834314,9.684909166020956,0.0010285709057867626,0.0001125512540616536,-0.0009083739015836
1700844036.3719597,0.23627460324596894,0.0625099920479442,9.774645997258279,0.00031589484061350816,0.002099248541733616,0.0005247267589224
1700844036.3820477,-0.018736631866103342,0.09307521818880116,9.93072063702718,-0.0015716987026868471,-0.0009465674357910683,0.0006897584797484
1700844036.3920846,0.24395324109864427,-0.21463249952470168,9.68194097292015,0.0023558859000983976,0.0019558267860820652,-0.0003253610804308
1700844036.40194,0.07319197066602165,0.10712559032621546,9.879469166275017,0.00020600435525900445,0.0007208901412015925,0.000332135602403
1700844036.4120092,0.01302672161050019,0.059947758222726195,9.895887336653596,-0.0006474428919874736,-0.001756430710403934,0.0008305815107091
1700844036.4219637,0.13933726486111725,0.029689482188373157,9.8158576187359,-0.001884605690047037,-0.001053840765126334,-2.550117202146249e-05
1700844036.43199,0.17738298445147563,-0.14694353661380538,9.750042102558318,0.0003647062429236837,0.0004429829747425235,-0.0013289711670581
1700844036.442089,0.11535261193443275,0.12259185138201958,9.86482217459617,-0.001080324765429588,-0.00035348745992961565,0.0009591070819083
1700844036.4519694,0.07852434332926025,-0.11146417124999515,9.801681962351532,0.0008456511531932448,-0.0010407984965596956,0.0004323433539325
1700844036.4619656,0.1833220031357246,0.1787455642382462,9.848122516337105,-0.002171092209097254,-0.00024397892679728548,0.0022029890213529
1700844036.472057,0.14712824897144963,-0.08822057614325968,9.779266641232244,-0.001524755053512349,0.00103306580681089,7.02495570662777e-05
1700844036.4819484,0.024886782993747397,-0.06795238149081184,9.84277083145958,0.0005047792431562702,-0.0013079082161185573,0.0015730363782863
1700844036.491943,0.15445436712357913,-0.00844301367970763,9.797397375636836,0.0003010105511967608,-0.00022272587212515785,0.0008998710080418
1700844036.5020149,0.2002334026144133,-0.01153630705279313,9.76925048087337,0.0004600620463980631,0.0016443954026326404,0.0004010760138412
1700844036.5119495,0.029141609773718262,-0.0137023273878496,9.851490923299036,0.0007808245706922692,-7.109829882838635e-05,0.0005187657960418
1700844036.5220125,0.02688953506433298,0.025377127158994324,9.86461144054859,0.0002719565016211666,-0.001905810883712813,0.0009855517535838
1700844036.5319915,0.23978096099925578,-0.08578234624161106,9.712719464004936,0.0012122081568675194,0.001210401078747554,-0.0002601661136936
1700844036.5419154,0.15480398496855233,-0.019514400168150522,9.792726734838222,0.0012494976047594773,0.0022668837274589723,-0.0010629928903286
1700844036.552024,-0.0007800516183997093,-0.014044295975855919,9.882225920129597,0.0012561690461743258,-0.00015678011130789232,-0.0015502555062626
1700844036.561977,0.03282989732724826,0.011628300638871818,9.868843548737663,-3.5745326172650525e-05,-0.0013760884728520777,-0.0032132225343589
1700844036.5719695,0.21411107844400226,0.06405361869562157,9.796161803526878,8.643142697883917e-05,-0.00045779330710175935,-0.0002206937525984
1700844036.58198,-0.011969368508596142,-0.0149449671726709,9.886072105818585,4.4346903825434524e-05,-0.0029671540861038554,-0.0002959400182221
1700844036.5919304,0.2401820252074634,0.13758263101706192,9.79982049166164,-0.000970799186363409,-0.0014967769392681823,0.0034122060286249
1700844036.601946,0.03139483144512593,-0.07700537198423137,9.835064243426576,-0.001861144914842815,-0.0017787842904301127,-0.0009158306521926
1700844036.6119878,0.15318955094503245,-0.14415779323695568,9.747610859483986,0.000920896553453073,-0.0008243649550407074,-0.0012794265523184
1700844036.621966,0.087064609252616,0.14740870165535758,9.88222655136771,-0.0007364768202637626,-0.002277601023928692,0.001301082735918
1700844036.631947,0.1392209442289891,-0.006691449909953862,9.806235888453392,-0.0004738456778041386,-0.0018316773157275033,0.0015298181213806
1700844036.642033,0.214116768927408,-0.13068461214647453,9.734553453576694,0.0014271611843625002,0.0007082318184183458,-0.0004609823110145
1700844036.651938,0.1620271663010624,0.058727878449538244,9.831898977310635,-0.00030284818818146177,0.00157100306382607,-0.0010096979559962
1700844036.661996,0.08348179927926815,-0.008790792451056543,9.839573732484933,-0.00031740440460914645,0.001083357170024626,-0.001480963942558
1700844036.672038,0.13299101580597952,0.06073474444219459,9.829059176264698,-0.0011656381327690318,0.0011269471020798158,-0.0006535712629188
1700844036.6819346,0.0053475885479830065,-0.08391848220753104,9.84573516585005,0.0010557582515656186,-0.0014896997309927242,0.0006331369048352
1700844036.691943,0.10885810077999791,0.007859337037387821,9.829543868225455,6.520061848401528e-05,-0.0013459020321752429,-0.0006040318868686
1700844036.70196,0.19737768118132895,-0.006041092230860497,9.774469865731369,0.0004999389160792219,-9.637458609624083e-06,0.0001756756799663
1700844036.7119927,0.00016764268911904968,0.05023918878642801,9.898544214974066,-0.0018693367441777137,-0.001810451404284579,-0.0017383808036897
1700844036.7219374,0.24253203203063567,-0.06162080220993194,9.73540584661993,0.0004526229510297973,0.00023362352307766562,2.256668525704844e-05
1700844036.7319627,0.12620522163314002,0.003952238634996645,9.814996831321519,8.904034148964224e-05,0.0005115336383269424,-0.0003533079172116
1700844036.7419565,0.08182634828227213,-0.02119960439212429,9.830441231965253,0.0009760302083533839,-0.0004071269984123345,0.0008972625481332
1700844036.7519784,0.1350233535985968,0.1169358812758609,9.859582884008654,-0.0018533243830208118,7.007390030729333e-05,0.0004494754628835
1700844036.7619703,0.09563942796668304,-0.025483766315495912,9.824613879855974,-0.0013600973036130986,-0.00038403802750037493,0.0005314404232562
1700844036.771948,0.1530836210257767,-0.1461028154653161,9.74170650524961,0.0010471921778981597,0.0008360059390677184,-0.0006010317476098
1700844036.78198,-0.03317043404453621,0.04286963594619413,9.918579234219358,0.00036545469974496567,-0.002548797894807213,-9.255296314178303e-05
1700844036.7920988,0.3208465178073121,0.1351943754929389,9.758446105922244,-0.0012647284560562003,0.0008810830345401797,0.0025334032951291
1700844036.8020277,0.01574991862756489,-0.12654137916556948,9.837198778419301,0.0005774271708917434,-0.0007133476753754645,0.0009214808931942
1700844036.811999,0.1773420273806974,0.05100927317195235,9.801684380103291,-3.576774794000367e-05,0.00043255505733409206,0.0017585471040006
1700844036.82194,0.04473850271607103,0.07893290554360681,9.88156926145678,-0.002063423614525072,-0.0007785449350270839,0.0010026947828377
1700844036.831942,0.0933567479932598,-0.20270649240150138,9.758222947825312,0.0014748532579057217,-0.0006865240187330652,-0.0004285668721054
1700844036.841962,0.20784260296840976,0.09734751430508641,9.81017944753525,-0.0007972127939999748,0.0012558375361213885,-0.0005116507992711
1700844036.8519402,0.0823985265919845,-0.06275960532008872,9.843373882924919,0.0005226625730200686,0.00022170196507164972,-0.0004598625120338
1700844036.861998,0.13964706883431321,0.04544032793677949,9.824228793064936,0.0010270757354788878,-0.00026407373643654107,0.0021396378986905
1700844036.872068,0.02042763102761755,0.07254043532131083,9.902942521698513,-0.00208056497599024,-0.0014289832568678159,-0.0008092897943784
1700844036.882001,0.17436042930391532,-0.14278383067095057,9.749506923889175,0.0009533094519661691,-0.00045927867816078537,-0.0004535266081434
1700844036.8919752,0.22067710078007977,-0.017174361446604478,9.759126822965765,0.002084676888949404,0.001327004514602687,0.0010444042389649
1700844036.9020443,0.13868777812769714,0.07368980162208358,9.838669785391671,5.1779048048003124e-05,0.0020392702014119333,0.0005843258303143
1700844036.9120138,0.0488667982936731,0.0733717993786775,9.887685725734926,-0.001525481214131566,0.0005361062583013077,0.0009531772346604
1700844036.9220824,0.0411434680304596,0.0008158672989014202,9.851875706332795,-0.0018842550068524557,-0.0006302982783890735,0.0003384763957369
1700844036.9319608,0.08531202724199671,-0.1748610295083037,9.767908929281466,0.001772500988862833,-0.001017326679096149,0.0001823719765893
1700844036.9420674,0.1199578436878751,0.10590716758373181,9.851783919982214,-0.00028050553088874384,-0.0009856714667631841,0.0006294151069964
1700844036.9520893,0.2138144069231257,-0.02975570990884662,9.761052285722009,0.00020824621436359736,0.000921683992730374,0.0008178996912106
1700844036.9620438,0.014669206539516037,-0.0505350991191165,9.853969851199246,-0.0003561233917572643,-0.00019143983399477158,-0.0020229971734438
1700844036.9719706,0.17810691379670934,-0.08608714107760844,9.761790378683122,0.002522391128666404,0.0003316118336544214,-0.000185300060511
1700844036.9836595,0.12766002763932446,0.09971953181168881,9.839320605546954,-0.0005103444173837863,0.0011969787106364774,-0.001382995909043
1700844036.9998455,0.12158332959620029,-0.033680368059672464,9.803519457291047,0.0016249793502465036,0.0006158376933637865,0.0007299993129349
1700844037.0029528,-0.18012087928242562,0.02089141955498379,9.98680496755424,0.0014204640131533913,-0.0013421774529306183,0.0008592690108712
1700844037.0119767,0.2180940944500854,0.14766089667488191,9.80783981359219,-0.0014327453468202995,0.0007100747673553713,0.0012563904282073
1700844037.0220404,0.12584399094138665,-0.03855327591927656,9.807387848117603,-0.0009972667876937988,0.0008926170102071737,0.0005772720949976
1700844037.0319788,0.12484052763788253,-0.16042443150381433,9.76090573569406,0.0019751537644317452,0.0011723997871429972,2.5535916247905325e-05
1700844037.041988,0.08113901203340948,0.12816380356410273,9.878882500440588,-0.0002674583043884167,8.051183176410899e-05,0.0012127988273646
1700844037.05311,0.06786468722182099,0.07412530107577069,9.873573440564703,-0.0019062263004876402,-0.0013771900541210034,0.0014318280853699
1700844037.061967,0.0987534250899426,-0.2149053215323473,9.765172411489182,0.0011105153046205647,-0.0012047228486682638,-0.0004557676612962
1700844037.0729184,0.22434306861338174,-0.0012951475559060562,9.767156619789095,0.0018965538687342608,0.0007320667728316661,0.0006201019394579
1700844037.0821218,0.11428917514929433,0.11800337197366685,9.85895164859014,-0.00048725247467456076,0.000779000036270849,0.000496779347341
1700844037.091976,0.04351202611201311,-0.06773836089483719,9.833762789368485,0.0006131846633586687,-0.0006265475598357418,0.0002084543928872
1700844037.1022227,0.06836398579985398,-0.031819566572724875,9.848162844834793,0.0007476764830627922,-0.001610765036273187,-0.0002732222666595
1700844037.111965,0.2485149005825308,0.07457888349584661,9.77313581354275,-0.0003151514357134889,0.0006482479257541491,0.0006849090685504
1700844037.1219523,0.13155275296292843,-0.03252963004550238,9.79404450022084,0.00032186555830198316,0.0010211474497229555,0.0005973827909115
1700844037.132011,-0.05139676519037625,-0.12583498813043062,9.87445931480806,0.0016763786309257679,-0.002036556697356546,-0.0014642111956704
1700844037.1420488,0.20198696107562222,0.12072070452587914,9.818347876049243,-0.0004347337169344439,-0.0007375653884596509,3.038711733141644e-05
1700844037.151976,0.21705211410610212,-0.0543697973218666,9.74834225466019,0.001714385155286211,0.0007905563739150333,0.0015573831741134
1700844037.1619778,0.02933444444063337,-0.0017062574440212415,9.876470395523977,0.0009194053518218278,-0.0005907755202754226,9.446574844376844e-05
1700844037.1720922,0.10137766632818822,-0.012426441820584362,9.817325892689592,0.0012159454530529855,-0.0009010949659099292,0.000328038918124
1700844037.182032,0.1890360445318321,0.026346026295745072,9.788017178433305,-0.0005550788700980378,0.0012308831574279096,-0.0015264013083283
1700844037.1919763,0.046272052315289205,0.045059211072354326,9.875434436495384,-0.0012755339727092555,-0.000536767604006821,-0.0006625142879415
1700844037.2025533,0.14087792321387796,-0.04978984361586617,9.790673632886415,-0.0004921144159781502,0.00011031076403899699,-0.0010450984583799
1700844037.212016,0.013864831299853388,-0.09443820238896401,9.85852569741144,0.001531101666518084,-0.0021408824406869828,-0.0010059888474275
1700844037.2220144,0.25250026281869575,0.04313489169835076,9.770408243893367,0.0013761411402178686,0.000218724114030254,5.312815195837719e-05
1700844037.232033,0.023760882146594987,-0.0760852274314751,9.842987644210629,0.0017713789462647101,-0.0011808542078027657,-0.0016653686062995
1700844037.2420273,0.10279162312332683,0.21581434814125805,9.902449869270434,-0.0025085967205145535,-0.0017497341865898137,-0.0009758163243163
1700844037.2520266,0.28811903872811095,-0.02449493888644123,9.722725451972432,-0.0015523322639516743,0.001446939432196143,-5.828355202494459e-05
1700844037.2620218,0.10554628381383012,-0.04604900843355933,9.81659387224879,-0.0011458965935603669,0.0013888322684808849,-0.0009556944015998
1700844037.272005,0.12429743663498767,-0.0667719903448291,9.795345732237948,0.0012386799084487393,0.0007447284529817843,0.0012712710420969
1700844037.2822268,0.06552637620761295,0.17644167758507934,9.905715370975276,-0.0031542045246979113,4.063646399548847e-05,0.0001473604760035
1700844037.2919931,0.1795880969321773,-0.11932375259740034,9.754991586556086,-0.00023990464645885998,0.0007264827141558367,0.0015745082172002
1700844037.3021166,0.03900020384596543,-0.023471498495214887,9.862055959866472,-0.00010765018056818134,-0.0009540021988333794,0.0012023675488676
1700844037.3120315,0.08867246299537673,0.0502608281394585,9.857861425802506,-0.0010631856259160687,-0.0017173183609563718,0.00145754551053
1700844037.322023,0.20929799887417255,-0.2145680262366204,9.68356279898131,0.002656524080163474,0.0007141664412902994,0.0006033276557359
1700844037.3320084,0.023218882843803832,0.1264600573244605,9.906563398187359,0.0006910562451458433,-0.0016923521945463598,0.0024071174674104
1700844037.342019,0.16901108235218845,-0.09534879014560921,9.757381228129917,0.0013802180534975303,0.0003319807497489082,-0.0002318707294393
1700844037.352039,0.04441533211565671,0.15319826609508308,9.920704283007549,-0.0007606976274671769,-0.0019639399105569745,0.001891907257996
1700844037.362002,0.14699872192006455,-0.005261060339604014,9.807317821462151,-0.0014502453560170303,-0.0007405440662904819,0.0001622619573395
1700844037.3720746,0.23742048866730953,0.0013881609518737901,9.762162390126411,-0.000955521533053966,0.0014845720358370395,0.0013241934473994
1700844037.3819828,0.08204544016414307,0.021676233646009985,9.850345485598451,-0.0009942779785000284,0.00020491981430602598,0.0022946281358967
1700844037.392023,-0.003295180264275447,-0.07903620230682054,9.859722711286391,-0.0005930541708657612,-0.0015176404947702382,0.0001898305316358
1700844037.4020634,0.19074495487332002,-0.21194267024705815,9.71234500951683,0.003210072898468024,0.0005324226380513538,-0.0010562857379768
1700844037.4121256,0.1629349955816506,0.020989719067469974,9.806566462774382,0.0020734955108532346,0.0017352886182335338,-0.0023430007742349
1700844037.4220943,0.025457985632622204,0.13026509693985874,9.909184638165401,-0.00031292277539508477,-0.00042313880608457267,-0.0015696218935404
1700844037.43206,0.24682618873209003,0.05813694381294359,9.762070654077203,-2.6011028400005024e-06,0.0013072507462895426,0.0014288562350343
1700844037.442056,0.057614145511134175,0.020876937478446305,9.850153976923933,-0.0019446078798487675,0.0009153376030200007,-0.0006256240186844
1700844037.452002,-0.05111152691288016,-0.18128573956939698,9.832625815243794,0.0007428339370703875,-0.0017795216818985119,-0.0022982919355486
1700844037.4619942,0.29479603225275974,0.14731830460649561,9.777736408365914,-0.00032073676087578443,0.0004981138224608589,0.0019843065645913
1700844037.472024,0.1211447935176071,-0.11174718517937621,9.78184607092464,0.0009585202559196326,0.0010557964343949852,0.0004695884329889
1700844037.4820504,0.08103988508092527,0.04745144154851465,9.874165867990174,-0.0003363828806695933,0.00018369764993666796,-0.0004051062161665
1700844037.4920244,0.11877386283093445,0.02730333954069623,9.836063632209786,6.296106824153685e-05,-0.0004864671616405647,0.001580476015843
1700844037.507721,0.10601543676265035,0.004029170918793051,9.819334349872976,-0.0017158695765871095,0.0002544799765360008,-0.000895709427968
1700844037.5124483,0.13418158095183966,-0.18160443006055943,9.736151178426466,9.202415089845473e-05,0.0004467075414546203,-0.0006066431989525
1700844037.5224051,0.10946047959147212,0.0001790589803249962,9.826515998487311,-0.00023841737748862536,0.0002570895048212857,-0.001008593873084
1700844037.5319996,0.160029246701166,0.10617019796311615,9.837457667822553,-0.0006902924042915275,-8.898673921574549e-05,0.0022420861758659
1700844037.5419967,0.08367247607042946,-0.033097552088776946,9.831815549742958,-0.0010423430557596092,-0.00023950022809703716,0.0005057381502779
1700844037.5520153,0.25183999129727314,-0.15237860449176413,9.695093576583997,0.00037326255107093993,0.0037935191036135517,-0.0026287088868771
1700844037.5620434,0.035425367095228616,0.12778716479815894,9.912134344027878,-0.0003807125844477895,0.0008255697073439784,0.0012586173368986
1700844037.5720243,0.1378536154855505,-0.09981241399841415,9.771983810964196,0.0009462187096511215,0.0016909514127223639,-0.0002784595591579
1700844037.5820491,0.11980254460677324,0.081245248180553,9.842000293405507,-0.0003166503393954986,0.001475634664237287,0.000607055056062
1700844037.5920703,0.13246390954236653,0.02810774906136102,9.82411649894088,-0.0010650556375461477,0.001782594736225807,0.0007705999713293
1700844037.602059,0.05923413041416278,-0.14472890377845854,9.80068663876363,0.0019587646847593404,0.0006951902892491227,0.0007288854220318
1700844037.6120665,0.0013720217878564975,0.041045560611266414,9.906851142053748,-8.977048395403042e-05,-0.0013455252577622772,-0.0010972558986027
1700844037.6220694,0.1851641176213139,-0.024959473017428832,9.77307172013078,0.0002570404179215573,0.00017513187185944608,-0.0011658095055822
1700844037.632051,0.2358392451214042,0.003737991393891199,9.754672865083018,0.0009626176293078986,0.0023644909271220405,0.00028894297142
1700844037.6419995,0.0440585310543166,-0.03529552674691246,9.840839258283063,0.0008471314240412271,0.0014409876632173737,-0.0014489304041121
1700844037.6521163,0.1572219275178178,0.11597869925558113,9.836966747786393,-0.0014457824743157872,0.002117121535107037,-0.001032443647236
1700844037.662102,0.04202881837287031,-0.20592604900141176,9.736574145150144,0.002127876970228622,0.0011571120666840837,-0.0030765213770423
1700844037.672084,-0.04463217743478996,0.13243041004337902,9.999180174429583,0.0012260564495976502,-0.006376136046373368,-0.0067388442577425
1700844037.6820822,0.8583312183455722,0.12121484648546206,9.819903465047956,-0.003923691610968508,0.00011699064960230077,-0.0114126381696764
1700844037.6920185,0.35634254240983815,0.09565887744826784,9.737462884974919,-0.0026446167786375483,0.003751782721782718,-0.004520037607253
1700844037.702031,-0.20483688220286594,-0.32040723617443295,9.840274500731727,0.0010032258573579372,-0.0009268273910405676,-0.0047234561526779
1700844037.7121203,0.13748044663657782,-0.010495732774492655,9.802367550192514,0.0015929359838974717,-0.0018663309136397026,-0.0007746502989534
1700844037.7220204,0.3874629920273109,0.12153344513284432,9.803487850715252,4.508535674986972e-05,-7.221644128413563e-05,0.0020077654160927
1700844037.7320054,0.1796714192984977,0.011996105332647446,9.853950301519067,-0.0005777956853928902,0.0012290195206749938,0.0032546234550322
1700844037.742009,0.013991895418321455,-0.011662046512431717,9.813010171159016,-0.0009998669967213282,0.0004813482139847375,0.0009494244994498
1700844037.7520034,-0.16275583483565984,0.044720951396687754,9.958809026269432,-0.0017859147141657617,-0.004827949013951556,-0.0030880281002823
1700844037.762399,0.39055757029084126,-0.026285877181495363,9.667218547680982,-0.0009462188386721457,0.0008907239997039834,-0.0039396778912846
1700844037.7721288,0.034426841950378415,0.0799625879720884,9.85651520960498,-0.000800941078146886,5.890664277155612e-05,-0.0017029870533947
1700844037.78222,0.027929763394378606,-0.08709076558212389,9.830940304283617,-5.884894371954933e-05,-0.0009126555379733697,-0.0031837899470333
1700844037.792022,0.07998541772362812,0.04797278223330639,9.805045679661237,-0.0004697543269066122,-0.0013682517738170044,-0.0008763461839039
1700844037.8027935,0.1515839090608483,-0.059703178647460026,9.79597081945097,-0.00036245586491749735,-0.0007878534142719576,-0.0001324078067768
1700844037.81204,0.07010150566573736,0.03281476969150153,9.879534054621095,-0.001520287787839611,-0.0012710299271279318,-0.0003507016109865
1700844037.8220427,0.19797138135451156,-0.017318400963216463,9.774800008301828,-0.0011205521607090831,-0.0005423842320268862,-0.0018751045455787
1700844037.832018,-0.04072410435298716,-0.20044514024347618,9.810623010030678,0.002121961521861516,-0.005190365850762338,-0.0083921290235225
1700844037.842031,0.3410151895173861,0.10756777203125455,9.825717234231275,-0.00046561432712440687,-0.0069871174809846255,-0.0179214113624398
1700844037.8521442,0.6085911456472131,-0.0546509517106487,9.756366612501525,0.0002749019009438375,-0.006524867525884995,-0.0255999704124037
1700844037.8620176,0.06479814773231876,1.0667446474605722,9.548088374866378,-0.007195160925688492,-0.010787859040169675,-0.021308840182573
1700844037.872062,0.2162032082019883,1.4420173986717963,9.587471372705432,-0.01963098343746161,-0.01561481959734596,-0.0204630092950169
1700844037.882079,1.4407488495462477,-1.14777793492632,10.542152635565696,-0.008550257674428468,-0.0032228754636413424,-0.0090846483828131
1700844037.89219,0.7086709414649558,-0.7725704513118722,10.431918302920009,0.00042585919635415744,-0.0013938940628101908,-0.0197985832811896
1700844037.903402,1.4187832335734183,-0.5085231050542552,8.998545806119722,-0.002957377261866303,0.016478457145251,-0.0247391023905579
1700844037.9123385,-0.9042269258408113,-0.9300459989890926,8.587088617119573,0.00042203988185001275,0.009186085556347964,-0.0338807394029204
1700844037.9220614,-0.350883043790592,-1.364400767423169,10.19006443679722,0.010023137506409678,0.004070473943647416,-0.0534337488235537
1700844037.9320724,0.29085684637198567,0.07212439398089254,10.715308230276893,0.009484658824595144,0.005854086561623862,-0.0487635721684996
1700844037.942111,1.5647070445907565,-0.5953227626457646,9.894993580461275,0.012882883015049675,0.017281360705415222,-0.0406296205939356
1700844037.9521797,-0.3293454701424044,0.6201035195524152,8.635847791041597,0.02018691359674007,0.023205927178463585,-0.0359464724780623
1700844037.962106,0.13970657007042603,3.969967948398621,9.870131459087043,-0.042925771246268916,0.023676444544564107,-0.0473759425105158
1700844037.9721923,-1.3812590724439313,-5.045999954084065,10.40964315939635,0.014777845606531705,0.012862902287653157,-0.0428775017382208
1700844037.9821408,-1.1241865465755567,-2.1759329393114895,10.286070090259782,0.050154351459021425,-0.008869210759712903,-0.0515222725690905
1700844037.992195,1.5167739875082404,4.566193174421717,9.699606072537998,0.010126252339239675,0.016105595892895053,-0.0404191789449755
1700844038.0022109,-0.4293822600788811,2.7838689389583293,9.59832266551684,-0.023539043189585458,0.012885997061714217,-0.0329218124271933
1700844038.0120656,0.48527192639400124,-0.6195882196082156,9.020167143685134,-0.04189370337004881,0.02562645235263076,-0.0517664355458323
1700844038.0220704,-2.6466076456740386,-5.70673623041962,10.242583445685955,0.03526082630450542,0.0026653716580843714,-0.0704601955832545
1700844038.0320587,-2.8817764152042247,-2.4011170919509173,9.531071969394462,0.059776177834456164,-0.02761174051413393,-0.0856675979913775
1700844038.04206,0.11531104157572841,0.8408132214395112,9.016678888359674,0.09303366844513634,-0.03836180815838254,-0.0893321660579745
1700844038.052169,2.5992935833099446,11.38771121527802,10.454146541259629,-0.06341134097934387,0.011396386085210718,-0.1221118969143931
1700844038.0620432,-0.2086861592592554,-3.6418177816488804,11.454950095750974,-0.05619366733603628,0.00926855201575694,-0.1145106208743159
1700844038.072071,-0.878221103054516,-7.402752655095925,9.20893262057782,0.03889002843931657,-0.0036941102088023764,-0.1058745411457125
1700844038.082071,-2.5664959844770716,-0.23721694356304726,8.831097080669288,0.09292439918184295,-0.03029726089465145,-0.0989081663312022
1700844038.0920482,3.130933195750068,13.313349293358579,10.109509637698704,-0.08692119170929885,-0.0061503305135708,-0.1122879860223834
1700844038.1020646,3.531034369675881,-4.463552703515655,9.187814619321962,-0.08256317007258987,0.059094017197921844,-0.1210709390462939
1700844038.1120763,-5.89611416766655,-10.950714292645582,11.017927250014097,0.040774367908116775,-0.011449870434304,-0.1338396621169154
1700844038.1220958,0.2742557203970335,-0.09426200407778798,10.02669064191932,0.09623206879147408,-0.030016424833592847,-0.1104364496888224
1700844038.1320615,2.1635117069567573,13.012304616962835,9.810959577249777,-0.05653239268437709,0.004907211272140156,-0.0945766222895686
1700844038.1421173,2.615813068241156,-1.5296501565246976,9.682835678872337,-0.09057222135715558,0.030081245110856355,-0.0927210551919047
1700844038.1521258,-2.20901721896603,-11.03777184804042,8.46416840838429,0.0376538353069452,0.02307371268439679,-0.1134629500330988
1700844038.1621504,-2.8773935143051155,-0.23702418538793893,11.069059008425839,0.10319678825831177,-0.04355811784645863,-0.1100682568968836
1700844038.172077,3.86901469782686,14.094914382417254,9.706956094261681,-0.07353421096650813,0.01591827863768316,-0.0963930961908404
1700844038.1821997,1.5156514122059737,-2.801956967504457,10.242701210544197,-0.08311042616066944,0.02952511632274057,-0.0916363922180239
1700844038.1920784,-2.3548159085771934,-10.122132298852716,8.817407339552872,0.04014566499393854,0.012631319876809748,-0.1063899350585047
1700844038.2021463,-2.1327757384537516,0.8663265240507281,10.811856472701274,0.07587863101813014,-0.03794851037045711,-0.0987200168193881
1700844038.2121136,3.4836882010594743,10.930314747864648,9.258965084756879,-0.055200131047931235,0.011561701798904565,-0.0950211462797228
1700844038.2221084,1.1157617402999285,-2.1570348185064385,10.320371803229047,-0.07585587774974191,0.026702281948505553,-0.0981272784294192
1700844038.2321112,-2.5203957679266065,-10.266609432579786,9.146357601435476,0.051337285433715484,0.003174695495487723,-0.1136477616848055
1700844038.2421093,-1.088259690193073,2.022198600698896,10.204900328279237,0.07756367583284075,-0.03482239874275167,-0.1090973344863955
1700844038.252036,4.111782033875481,10.181018060230956,8.981811756008021,-0.05718392407570183,0.02473843295666113,-0.1159374666632716
1700844038.2621255,0.25274376081027367,-2.605901052270105,10.957141754903375,-0.06922638500276712,0.031042232935860822,-0.1170449954690043
1700844038.2725658,-2.6534775550331915,-9.611852714009679,9.852484632895791,0.05868463352430409,-0.009088206788055251,-0.1170920160831515
1700844038.2820635,0.11031777388288799,4.035694438785356,9.46594256902662,0.05642205071702645,-0.014075298030138553,-0.1100752082885806
1700844038.292061,2.5982563402787795,7.997599120531721,9.653175616914492,-0.06466098413949617,0.012142586355632111,-0.1076770526589457
1700844038.302129,1.429877913098666,-4.031623316800728,9.64015107926354,-0.04478504582876036,0.043639981610341536,-0.1131166842998568
1700844038.3122177,-4.82163200630062,-8.409354568543778,10.47272397776954,0.08198432714121255,-0.025767133893848007,-0.112447771173865
1700844038.3221607,1.279197376762485,7.67805250608209,9.169589689841027,0.027218002377179504,-0.01964426728940986,-0.1064277691067759
1700844038.3320646,2.6908144900904905,6.448505661251946,10.324012455531811,-0.08953201465949996,0.029576949735498258,-0.1044352081836764
1700844038.3421464,-0.9730034464968323,-6.90826495649967,10.367338105754298,-0.014004552122790604,0.008383463281606543,-0.0920113650383059
1700844038.3521588,-1.8818655293359334,-5.72140367162088,9.115716699286606,0.07795421716637808,-0.016769993891261024,-0.1079601002158228
1700844038.36211,0.3336484719109793,7.191215814967412,9.553712721492737,0.0119729952689774,-0.010961624633137452,-0.1031652716220919
1700844038.3722212,2.154821748991311,4.99609397026252,10.109762585825433,-0.074454522119162,0.01612032849076359,-0.097224268061072
1700844038.3821237,-0.23527865673607912,-6.4690690842433725,10.042065372225252,-0.020576641164879766,0.018166851652607185,-0.1003330451668803
1700844038.392101,-3.01510903536005,-4.786098852483962,10.066072118646415,0.07489712456927734,-0.02793729634936615,-0.1009793681325022
1700844038.4021847,2.136364572628275,6.99753967090117,8.971161511614703,0.006946300041662698,-0.005556012643483969,-0.0829481956781451
1700844038.412046,1.712977565417111,5.511389134025966,10.153998390772784,-0.09074479729806624,0.029381266331117435,-0.0861484063090388
1700844038.4220436,-1.58750991888224,-8.99686476820448,10.315024670451958,-0.003599841858456348,-0.002084963674450054,-0.0970705923856799
1700844038.4321222,-1.2283073256249368,-2.678322596733993,8.862845826789593,0.06393862368865896,-0.013644577715056418,-0.1119704050244395
1700844038.4420593,0.3824817513675951,6.225123963663862,10.571867913301267,0.0008308519529297361,-0.012834946228725828,-0.1037387577117983
1700844038.4520514,1.8178034372174945,4.89641662934618,10.063629167607365,-0.08433560607261127,0.009489591012939022,-0.0904305231989924
1700844038.4620466,0.5797066319706078,-7.746780353746569,9.593349378518795,-0.018303446288734784,0.01451236839102654,-0.1037234393180911
1700844038.472149,-2.6588566577267283,-3.7995366349682604,9.17623289640228,0.06796922669735277,-0.020322202964892722,-0.1106382561148707
1700844038.482129,1.4079231227697284,6.273392707022701,9.841601797854159,0.009354774496586355,-0.004241387627629311,-0.0986930755199496
1700844038.4922624,0.8150574401729127,5.818331476584467,10.70944270304701,-0.09043334944697326,0.0046087092618544555,-0.0898282555164401
1700844038.5021005,0.9664369459470891,-7.706371597182032,9.423602629443012,-0.02156710693024955,0.009925272881679223,-0.101072902721316
1700844038.5121114,-1.7959369233789078,-5.015284894180351,9.483749722015684,0.06709324829323648,-0.01237300389920489,-0.1043127802433077
1700844038.5222604,0.5579496245239457,6.148763419504332,9.975589039505575,0.013388586993492255,-0.009220938472243272,-0.098789076250941
1700844038.5320754,2.0759687948361747,6.664243311798296,10.080524175064587,-0.0899455919919745,0.01668920626762119,-0.0876418081344668
1700844038.542123,0.5635530408603723,-7.125134362164944,9.28192797224525,-0.03133530113396102,0.02419609928084523,-0.1044905361951892
1700844038.5520868,-2.968002993814919,-5.964735388978962,10.04406073452593,0.07011724228538709,-0.014066379665323859,-0.1111799282254283
1700844038.5621564,0.3229258865222426,5.683874111571411,10.053034535061476,0.02289279391011719,-0.015001469025523555,-0.0976331633748118
1700844038.5722196,1.9846291136334686,6.828889380236812,9.884384618994291,-0.07338785618560581,0.011970111128273913,-0.0806307372869555
1700844038.5820787,0.7804264478016942,-5.212267142764947,9.597933359674105,-0.04301232239969368,0.018620184161223748,-0.0907676396192614
1700844038.5921235,-2.3902001247911504,-6.542033639419134,9.426349017302297,0.062063090761507754,-0.005872003834084986,-0.1065550622762744
1700844038.6021705,-0.849567620001064,4.299329753642197,10.23666668461567,0.03132337478928405,-0.023175682586777966,-0.1069600683869425
1700844038.612132,2.3768044435830173,6.627897875988167,10.115949046783633,-0.0586342515772054,0.00694330036020342,-0.0818605673731867
1700844038.61718,1.2443293488532143,-4.107817938356092,9.61416856621722,-0.05257506564508135,0.014891057515175547,-0.0939514962257449
1700844038.631136,-1.1533732407570223,-4.991905822203165,9.273790889320741,0.04843251383704721,0.005544600128660906,-0.1107528683961932
1700844038.64118,-0.8054916263204803,2.8171270873754177,10.178914454028384,0.03677416046490448,-0.012139015982270471,-0.103285307926089
1700844038.651152,1.7515669022919966,6.960604998373415,10.325707125216415,-0.06456964556722905,0.011424793006684187,-0.0808998522581164
1700844038.661168,0.11743940019015363,-4.904354745990809,9.963590900911601,-0.034314529241997065,0.0016720251057189266,-0.0959957716287676
1700844038.671183,-0.6878955260514371,-5.695708095702184,8.478896356783334,0.05299044484816429,0.0009267421367198572,-0.1191354793728892
1700844038.6813252,-0.04918303575079856,4.407235453397487,10.712319551406232,0.025669960571124213,-0.008682704345530503,-0.1054771718801562
1700844038.691124,2.242476719552116,6.004076949765775,10.15358468476183,-0.07419655278051067,0.01595599916966202,-0.0969615605892245
1700844038.7010984,0.9504279965386677,-6.655870384893846,9.214774808624849,-0.01580726883926868,0.02955916525710562,-0.1152326491893832
1700844038.711077,-2.8089709585348146,-4.860063794399011,9.669338074208593,0.07494899035555432,-0.0035324377398240074,-0.1245798272313181
1700844038.7211585,-0.20239556073761325,6.497472341602608,10.400337219450845,0.013588510146257202,-0.00987047629854232,-0.1145526868523661
1700844038.7310984,2.3073220919659136,4.687578376818731,10.206735087488612,-0.0675125366426505,0.014664620809945773,-0.1038069677771632
1700844038.7411616,-0.022026010022944728,-6.927996394384063,9.076358004670736,0.0023498039751832186,0.016842849323007343,-0.110800209385306
1700844038.7510953,-1.5045542496471653,-2.3318836708658806,9.481269086060129,0.06113538283890656,-0.0034864984924225613,-0.1126147386850421
1700844038.7611463,0.17917108331274276,6.695185501050034,10.423827748800374,-0.008053209159739559,0.001768305303891496,-0.0948442322434489
1700844038.771194,1.1269717307972846,1.3528587926910962,10.46318656741203,-0.057768243746051155,0.006652622912855838,-0.0909988162340228
1700844038.7812357,-0.11701129594868176,-7.09756269928444,8.812947564090921,0.027916438957387733,0.009637763350895317,-0.1027701002778117
1700844038.7911084,-1.2949527316108176,0.2750237465566578,9.574235465884865,0.052362214773563294,-0.007178423691325493,-0.1067241904558245
1700844038.801123,1.1394011147993146,6.914416541007298,10.575758583014569,-0.03412253859965357,0.007153252916263734,-0.0962326181353633
1700844038.8308513,0.5658953296935529,-2.352927522828653,10.455435547506713,-0.04426605552323305,0.010790415976414561,-0.1031754416646067
1700844038.8326886,-1.9362209872337754,-28.4997163268398,2.046144606639505,0.05203619980926595,0.008229877169602275,-0.1154259023489062
1700844038.8346128,-2.96606913331446,4.2426285378284305,11.347739832429255,0.04456850673993774,-0.003570581045128581,-0.1131781143368785
1700844038.841366,1.192792445795686,8.129549744322812,11.214243874213482,-0.04304645171082743,0.0039037106625634446,-0.1030554351629321
1700844038.851315,0.10475413714521915,-3.594344451661143,9.896908895943259,-0.021358331824082144,0.006217902249204561,-0.1034673330606524
1700844038.8613305,-1.2933775440984108,-4.659990262086609,8.730187487370713,0.05852429012822642,-0.007891209042028335,-0.1187202361644808
1700844038.8716729,0.866388120423795,5.63725310384567,10.333863944568307,0.013119637506870264,1.382170202845918e-05,-0.1055864718975131
1700844038.8812172,0.7893163442855791,2.568194279316018,10.991313923396323,-0.05400920265911523,0.0025697659434218245,-0.0985795882762972
1700844038.891132,0.6862712847877058,-6.835183099038101,8.759919767494038,0.021985440202839497,0.01434803167420404,-0.1000902679981295
1700844038.901218,-1.3520092437025288,-0.6050496370542755,9.390012958892589,0.07155125886462214,-0.004090993733129179,-0.1073223379673068
1700844038.9111283,0.9001415907981745,7.508871814733835,10.52248447574821,-0.03031002685751383,0.008798582196911073,-0.1025939536513392
1700844038.923259,0.7763729207395061,-1.5053205698523575,10.272575157511893,-0.04202804456869299,0.014312562820451088,-0.10239188645497
1700844038.931115,-1.529510278392131,-8.78896880999197,8.458764346998027,0.054448679409471505,-0.0016836357736923853,-0.1111748767317835
1700844038.9445257,-0.031978754012689604,2.5537951676751764,9.582298982060642,0.051164560923302335,-0.0019034959005083546,-0.1051030782283846
1700844038.951107,0.483391745624534,8.503753426345684,11.601799912787145,-0.039640893483001066,0.0016914700256072095,-0.099855082971007
1700844038.9611082,0.7230859468170419,-3.4637783279458603,10.085297906876068,-0.022354524114734414,0.0045779090040244915,-0.0952646163524691
1700844038.97113,-0.5222353804238726,-5.917829869066613,8.607697136105974,0.06930986490576209,-0.001831580031953256,-0.0936731797875468
1700844038.9811814,-0.24285927076883865,5.6143061888507635,9.854835200593037,0.026808830157271486,-0.003034494636816907,-0.1005803969921176
1700844038.991174,0.7771011326427699,3.5360673914040297,10.60298594138806,-0.04811951252189902,0.005858079020562336,-0.1090675694169108
1700844039.0011482,0.18214825059850748,-4.79285296836454,9.5873720703524,-0.006597284862606814,0.009380638842228752,-0.1163606670917574
1700844039.0112412,-1.209685347365026,-3.935656230637056,9.377167983273225,0.07497512816705175,-0.009590617676707207,-0.1079054427565638
1700844039.0211382,0.07628660076352306,7.105203051729491,10.161193683569332,-0.0004709859435930144,-0.00783890931293669,-0.1059903604210917
1700844039.0311222,1.9705135940044263,1.7308581453260292,10.22354529181729,-0.04733949849761034,0.013691248535341767,-0.1028094169916216
1700844039.0411222,-1.1718582790908967,-6.585279171100369,9.246276323927368,0.018714988686280735,0.006127218606172233,-0.1134186339797083
1700844039.0512035,-1.488972953905825,-0.5086918215396604,9.49309621107739,0.0660737903800632,-0.019883987195632346,-0.1122695234836642
1700844039.0616307,1.340030418166112,6.9307019742997005,10.537374020007336,-0.023822020160668048,-0.0038870413016877407,-0.1058162030996386
1700844039.0719523,1.283922797892964,-0.4852138634719045,9.982366678142373,-0.04410865684831465,0.013057557289222362,-0.1026499596656863
1700844039.0811286,-1.3349895347635228,-7.458304308977282,9.106218002023649,0.04293328742048843,-0.002386172756844807,-0.120689439517409
1700844039.0911152,-0.4000449863659043,2.383214388303794,9.35346933239883,0.046219418618459136,-0.010987111600367284,-0.1109108430565898
1700844039.1011136,1.380643340639086,6.215102429542661,10.925351244311186,-0.04534033160977746,0.0020740235888382155,-0.0976667580427233
1700844039.1111202,0.5283429109670383,-4.59640963859101,9.811922604628451,-0.01869175419275609,0.008348381892147747,-0.1035833013476435
1700844039.121129,-0.9872256285971088,-3.9933074256644696,9.06195965177271,0.05837309162527704,-0.005028601615826962,-0.1060818386496607
1700844039.1311226,0.6322436170952844,4.700263639468822,10.015790976205087,0.017577137636244095,-9.82691858249443e-05,-0.0921930548967425
1700844039.1411183,0.7129365396860843,3.382278888779597,10.452081574954263,-0.04835082086122764,0.006362831493482564,-0.0811821771086756
1700844039.1511629,-0.10783385531827505,-5.826749911397658,9.391325843848024,0.01291387036021715,-0.00041036903554666425,-0.0876107541145388
1700844039.1611712,-1.1523089269835842,-1.0678070712089283,8.724716813492424,0.05823802313575837,-0.01040320564621535,-0.0977114764274661
1700844039.171288,1.1295343818144519,6.457356265045578,11.290020735976283,-0.01621648747883315,-0.0012668112672483182,-0.0944044617237155
1700844039.1811693,0.44565354168791244,0.3683253323732986,10.339499668409426,-0.06129046232226807,0.0015279917745494316,-0.1020664376439158
1700844039.191151,0.6536205045827753,-7.758318203015864,8.50682818617943,0.033087468391940336,0.007329454955945518,-0.1078787100733821
1700844039.2011502,-1.453959506522322,0.039055870681786134,9.402020957915477,0.0743545432213068,-0.013798154970355699,-0.1134042692603175
1700844039.2111144,1.542315171199689,8.452857494217108,10.467053199305287,-0.04007919681281158,0.004715687932170515,-0.1210560527862612
1700844039.2211697,1.7302530239064244,-0.9337823804107498,10.194325938560295,-0.06374126911057912,0.023200608270366258,-0.1287001324118678
1700844039.2311523,-1.6953886980740949,-8.988591835513946,9.459499498252287,0.037202144958549635,0.008620386996449503,-0.1274888617219035
1700844039.241183,-1.017542120616036,1.730811217632786,10.020933854941298,0.06918269048169023,-0.01850319264617641,-0.1134240431012217
1700844039.2511828,2.256309367464509,7.405362238785442,9.687062408284234,-0.04245602677930468,0.009539221496778157,-0.1084962812484805
1700844039.2616844,0.4564460736630834,-2.1866806662628098,9.862595344244006,-0.03711005679359125,0.022327236199428075,-0.1042931852163378
1700844039.2711923,-2.0538599419409134,-6.809616294911301,9.780237205070323,0.05717400245466701,-0.00636466828890295,-0.0999116552294795
1700844039.2812686,0.21166898043992038,5.632524799510995,9.82080423774315,0.01933901381749307,-0.012081866934722659,-0.090172397834212
1700844039.2911687,2.043012851921283,1.8181384130815268,9.847457501472823,-0.03343133303881235,0.016868142227931458,-0.098188335937411
1700844039.3011782,-0.978930782416975,-2.9366435594283518,9.848341455429775,-0.0036456558701085016,0.011838052115159273,-0.0851587307871882
1700844039.311205,-0.20001918276706632,-0.8649946802447688,10.039777792196949,0.029990513149588883,-0.009386839802193458,-0.0853684348286692
1700844039.3212094,0.43623973702543184,1.9618582625087129,9.129235964239793,-0.0010063917954282293,0.009040299049303433,-0.1043044877471034
1700844039.3312278,-0.3012210755647366,0.7319013538958428,10.423248291702354,-0.012029527919045265,0.002034130303918557,-0.1070993048371379
1700844039.3414428,0.5608864743413428,-0.42278993074561266,10.032857898149725,-0.02179165910037008,-0.0030405983861412746,-0.1091578853549067
1700844039.3512132,0.4993583931365467,-5.095789557160916,8.801197726013925,0.047549099775359226,0.009273955168600799,-0.1099284094990794
1700844039.361218,-1.6409639295580696,3.3302820327680354,10.229805471379898,0.02680783963072383,-0.010204827933668503,-0.1316839707316462
1700844039.3712168,1.5600531515103138,2.785857507119576,10.178588371998151,-0.03169970566574504,0.005379573197235933,-0.1429758769692485
1700844039.3812149,0.1899552566725031,-2.3212413568673083,9.965003702406106,-0.02001493719302476,0.010779948001938305,-0.1259427172364298
1700844039.3912203,0.0622805539664803,-1.9632228835743857,9.840193935725319,0.03004465758752471,-0.005577986907694919,-0.1049520475091044
1700844039.401224,0.9686596615529757,1.3595520395508627,9.221770525329116,0.0045075782170253716,0.015895165411309916,-0.1004583490313593
1700844039.4111736,-0.5409176620346434,1.7215300067127273,9.352846808087987,0.007186833745493103,0.01546765634365693,-0.1036443514050547
1700844039.4211905,-0.7619964668452388,1.71126916164943,10.504186344751886,-0.027661267958635213,0.0013540768937461412,-0.1178386909188334
1700844039.4311929,0.11247562219510328,-2.9587485945141085,9.899625970274629,-2.5424330754337772e-06,0.008805028210339927,-0.103681075316817
1700844039.4412992,-2.1524031495241367,-0.8701999440924728,10.086746333174096,0.04694272899611767,-0.022430119281081837,-0.1087588099063937
1700844039.4511847,1.622742780820514,3.9933896760484964,9.294662555834348,-0.015337745668363722,-0.0040164258268162,-0.127306873840243
1700844039.4612164,0.9085381038005229,0.4279607016290267,9.768173703329921,-0.034742129466706476,0.020008375932005294,-0.1192838427843157
1700844039.4712622,-1.3954895632080253,-3.6970432342571162,10.90357038299699,0.02182339247288311,-0.013931089789750927,-0.0829199058236186
1700844039.481335,1.3579535090939352,3.0779789385233283,8.930346729723345,-0.003302823409112158,0.002168209662217646,-0.0810487968148295
1700844039.4922523,-0.07405073097348745,-0.38808967763444036,9.875048887594875,-0.003396120181236683,0.010993723181755956,-0.0901223299326006
1700844039.5014107,-1.0876672678474097,-0.09617251298159224,10.134923485007935,-0.006246133446077974,-0.007628095558657217,-0.0811208588303629
1700844039.5112982,1.6620123705716445,1.6267546763243692,9.659071021636507,-0.03489433704412285,0.007247846233453892,-0.0817358521045748
1700844039.5221465,-0.8272831478392036,-4.6000612027308945,9.736955036746885,0.030209347288029553,-0.004953059709881112,-0.1113445488037173
1700844039.531505,-0.0025468984191041747,0.2822048089585708,9.347529032952284,0.02872087268187919,-0.0009384950816817995,-0.1321314526022975
1700844039.541252,0.20267922787201997,5.599786093683768,10.417170380848654,-0.041437157851107485,-0.0010534467362019481,-0.1204867837251727
1700844039.5512335,1.4705435378615503,-2.5863591279300286,10.05212628797404,-0.01926367713658859,-0.0009224491815778799,-0.1184284788788859
1700844039.5611815,0.9875059847798884,-3.934627746668014,9.146239298952135,0.018281590195454424,0.025811576421785228,-0.1090476689161364
1700844039.571221,-1.630747352868748,1.572133358651807,10.6950368235623,0.04787912977735847,-0.010034960248787538,-0.0841797990025584
1700844039.5812123,1.1765288058795456,4.947494477429238,8.868401692829208,-0.027497554496643636,0.00978034242077078,-0.1070191291393344
1700844039.591247,-0.7852467661892906,-1.30153401868838,10.123739381501174,-0.036315335117430875,0.013236442195247193,-0.1206226078094546
1700844039.6011672,-0.4040392824590514,-3.7917955720227536,10.268362381702396,0.03147453285487536,-0.01079955255839509,-0.0836708423914019
1700844039.61121,0.569482875790466,2.8289266793681858,9.17161019072579,0.017619304962412707,0.0003152706290753242,-0.0875853848876063
1700844039.621218,-0.19833557514549688,1.9000285402225856,10.55222085012447,-0.025955926590598137,0.004038605469014442,-0.111997659248263
1700844039.6312864,0.09275648007642992,-1.796272055733179,9.606074657203951,-0.004910228630570028,-0.00021331611314502817,-0.0992739525856082
1700844039.641179,-0.19030711538769507,-0.6809215041022253,9.500428524944494,0.010846662088576962,-0.0021721636054877376,-0.0868981954874102
1700844039.6511908,-0.5724183422805901,1.0527346951854069,10.34571969370458,0.006061931565581337,-0.015586442937910845,-0.0980232608737055
1700844039.6611638,1.1171102842966096,0.23333902111859806,9.26155603067813,-0.00711318295674761,0.0051201091062191345,-0.1136675727786128
1700844039.671245,-0.5107600634147447,-0.25759972619221744,10.233729256325082,-0.006967403066514836,-0.002062515920372725,-0.0883669209899012
1700844039.6811826,1.0209258474894958,0.13766878459450968,9.929874051810822,-0.0034147053581244915,0.002897520855762916,-0.0729160336078707
1700844039.6911702,-0.3333124599904163,-1.0767385905864966,9.561415385896979,0.008056511182908793,-0.002620461966543281,-0.0896632996620242
1700844039.7011735,-0.14105312162512704,-0.5743494809758302,8.971154252657556,0.01996940043578404,0.0031931502338361185,-0.0907894698204104
1700844039.7111557,-1.0429215133261651,2.6883247253845606,10.706352633022385,0.0012044349447041993,-0.007766280798349368,-0.0830520865739886
1700844039.7213123,0.5659047057363337,3.2156352639635397,10.058052895457923,-0.05231545620088091,-0.006699783264426998,-0.0850833607138697
1700844039.7311506,0.4398421010405533,-4.981791989330149,9.380635378409337,-0.008413997241401561,0.005015761204453858,-0.0965705094160143
1700844039.7412145,-1.8600202490923439,-4.126835090313933,9.597524830501564,0.06516997494884423,-0.01973318611741522,-0.106572444480807
1700844039.7511969,0.3168079736302423,5.641613936207638,9.470541440181078,0.01445653406028047,-0.011478156551082483,-0.108932907623202
1700844039.761162,0.6439707138747199,5.400729760943448,10.624623082018623,-0.07159378668659169,0.0037377412133975407,-0.1037557003320757
1700844039.771211,-0.1659337143550695,-5.296844386760097,10.63178354797886,-0.03402271995717866,-0.00950056862254647,-0.102722848695666
1700844039.7811573,0.12705647998279923,-5.567572318602708,8.559667559707579,0.05152983427078278,-0.005157094094378982,-0.0920114395441119
1700844039.7912626,-0.049496770209024904,4.736649105814007,9.905499249960302,0.020296465016632372,-0.010466348483945242,-0.0759755176724497
1700844039.8014324,1.2966320193699787,5.226958006989601,10.083386530428333,-0.060065501940762024,0.013041689913113136,-0.0695623037637774
1700844039.811273,-0.5889906583236462,-4.047402489932786,10.282657286869833,-0.03906799156244918,-0.0055921997475793465,-0.0749808130086962
1700844039.8212855,-0.706281023444049,-6.246836395893245,8.298596285651763,0.05225285916612861,-0.007287437151514701,-0.0899352607549731
1700844039.8311949,-0.27231583161425266,3.8255046238199664,10.406646338173669,0.037205811359755536,-0.02113049936714782,-0.0878373560728137
1700844039.8412223,1.4809012079252495,6.538846936385372,10.689797194927685,-0.056052909806790244,0.0018118381018432282,-0.0733584788860385
1700844039.8512106,0.32421564803626574,-2.0557065264041197,9.752711313327037,-0.05705251550471771,0.0026700822637622723,-0.0849156257928912
1700844039.861236,-0.32104670202717417,-6.826725506846987,9.344779042567849,0.02354799823103392,-0.004571651897627436,-0.0958593962015215
1700844039.8712063,0.011763401952307833,0.45074346850791536,9.563793370722355,0.05786897932609278,-0.012588563428752331,-0.0837940228404109
1700844039.8814046,1.344755793309247,6.491931761210177,9.756533806265594,-0.02704298816322122,0.011575898160610486,-0.0728162256301943
1700844039.9045234,-0.4250710278197024,-0.4271078089491604,10.006378568762244,-0.06111038677622679,0.0020034596679242363,-0.0770404887618128
1700844039.9086862,-2.3376584043788675,-12.026661809344766,8.764169128641765,0.021393930946971267,-0.0199669618018248,-0.0727121261180941
1700844039.9112017,0.10551566037385707,-5.049814578235169,7.8802618056415055,0.0579531911417471,-0.024433189833192814,-0.0666165677131716
1700844039.921254,2.1887358889451285,6.332564123612148,9.495720206074688,-0.018800414127687487,0.012109600464567497,-0.0669718486489359
1700844039.93122,-0.9940049145343852,0.6903787213145101,10.72736921685442,-0.05641804413715,-0.000995237035314687,-0.0830391523660723
1700844039.941522,-0.27253841488588454,-5.760871791723986,9.856165757936624,0.0032041519761361113,-0.009455417108151912,-0.0878582400502268
1700844039.9512138,0.3701470800441048,-0.8455648852792057,9.922527367475935,0.03532263401407609,-0.014715503247612418,-0.0671481740893427
1700844039.9612262,2.279599178175604,4.023477767286061,8.969621799455625,-0.009318229086768215,0.016089108314420748,-0.0503669110359255
1700844039.971229,-0.04981266218406519,0.5163717037885577,10.012095133547772,-0.04229085697539204,0.020164214596286673,-0.0634356093825404
1700844039.9812267,-2.485453628730984,-6.9020241434450496,9.681196881708338,0.043241148202780515,-0.017477024100899807,-0.0863027450861041
1700844039.9912045,-0.2031377536236489,-0.06597773628554096,8.968235498600754,0.08096486169360581,-0.024823308224940385,-0.0965306935133044
1700844040.0012286,0.9511884243315794,8.898649759321952,10.496428522234485,-0.03199935295378567,-0.004508707082524666,-0.1161794913233821
1700844040.0120196,1.197993914382962,-0.19099840603861573,11.116521886971176,-0.0628333862671149,0.000815819044459192,-0.1168614727677409
1700844040.0212169,0.8598039319676754,-6.101152318401853,8.961678082224596,0.005710476049837418,0.018452632547274632,-0.0990848493994776
1700844040.0312247,-1.325201238674077,-0.7760891636380485,10.105383469519806,0.043476824783043315,-0.007580162086196597,-0.0596470673801009
1700844040.0411985,1.1783988440962905,4.606673021512984,9.064729973932932,-0.0049838151985834005,0.0059200998935273,-0.0145704298512641
1700844040.0512474,0.5942671570162537,2.8389873188536185,9.57889156427984,-0.047247468757309195,0.019243121554529095,-0.0170751520664994
1700844040.061199,-2.5517657646332004,-4.928376255656822,10.219540489997335,-0.005990974090439413,-0.000704194138995078,-0.0489512336672846
1700844040.0725255,-1.019878273633483,-1.4667136078384495,10.590726476303619,0.03461127752717298,-0.02411729313903653,-0.064774046582133
1700844040.0812724,2.4098759213424636,4.210957041984741,9.325073133297463,-0.01051907201679818,0.008465410290755966,-0.0679544088663165
1700844040.0912158,0.323179988771813,3.095245497425287,9.758456588968459,-0.05522886687249614,0.02519911685611619,-0.0717157450737063
1700844040.1015246,-1.0667895939120977,-4.164189965059105,9.81598352377585,-0.01825927585883932,0.008322024748260947,-0.1251524192513529
1700844040.111805,-1.4359161390033173,-2.4571208372262148,9.351207172083717,0.02339191954107789,0.0004181309678190133,-0.1651561212958399
1700844040.1213834,-1.0268238946014874,2.273064590561637,10.281455521306853,0.01264820858685974,-0.022466159336051488,-0.1566059840144221
1700844040.1312363,1.8589214064187074,5.265645425504535,10.23408260073512,-0.06924149792910217,-0.0014639528409223354,-0.1424712193430964
1700844040.1415875,1.4159692308617828,-4.549457459675305,10.179022512410407,-0.04259667733000708,0.011777990207772376,-0.140595088642985
1700844040.151221,-0.8557220210766697,-5.9852356772795,9.330501370728665,0.04357163706152764,0.0008750422443535669,-0.1192960244835917
1700844040.1612778,0.7239049957299961,4.640800474411182,9.273645183089304,0.009792141321889075,-0.004259903255296431,-0.1006598276318614
1700844040.1721609,1.4920870939310928,2.0716824284363913,9.736177410499034,-0.04389786239854858,0.02189596740655408,-0.1030010682763163
1700844040.1826456,-1.6596482478218948,-4.23365486833175,10.100679846856933,0.012126361865390761,0.001978890839445744,-0.0916805518092219
1700844040.1912994,-0.5284190082780312,1.7286349443034081,10.295840242007651,0.022360068793744758,-0.018076592341097715,-0.0829905671299998
1700844040.201243,1.4402474919654493,3.787537064573884,9.575917103870152,-0.04503141145446309,0.00751715875371905,-0.0904416096629206
1700844040.2112975,0.25814108929580726,-2.8464255525490882,9.528749422349266,-0.012654007987375832,0.01585086714804437,-0.0927904126466815
1700844040.2212322,-1.9188670396841907,-2.3935952140990224,10.318291700335449,0.04020501838236168,-0.014819759304576257,-0.0761684579075877
1700844040.2313871,1.9221457002679592,7.749633885325382,9.224141205506168,-0.033476489222762654,0.007772241416027745,-0.0966052067698542
1700844040.2412255,-0.11791091923516955,-1.219226624821281,9.811806262016503,-0.06679423831517566,0.024857996723991072,-0.1418737423838679
1700844040.2512517,-2.8699524894074075,-6.722926452755232,10.431160025240988,0.01913519234261077,-0.010803571362562542,-0.135151277226359
1700844040.2612422,0.11198773861282423,2.7602885558364587,9.897833753971842,0.027592261136837184,-0.021498510915895164,-0.1259266537846629
1700844040.2712564,0.9282056433002207,5.162442821144398,9.608896060592652,-0.05270794171409335,-0.0010454062393647418,-0.1262709004105631
1700844040.2813249,0.8113709845882127,-2.9835586549575344,10.479582568439955,-0.03769006500373556,-0.0018636963968526666,-0.1141528067411486
1700844040.2918513,-0.9415536586675287,-4.537464775573154,8.996123831602963,0.05005599412319937,-0.01785917237294388,-0.1087273610056941
1700844040.301417,0.9441958159277326,5.746986560473506,9.25585405094684,-0.0026620039996245706,-0.009888068332014359,-0.1105622229398791
1700844040.311326,1.4100186657897698,2.4555546435580524,10.73514913823507,-0.07039054166794721,0.007071565367743779,-0.1202822429360453
1700844040.321206,-0.3126808411204912,-6.6057690274266605,10.385460541052266,-0.002327782608533515,-0.008918026531453169,-0.1053917658747737
1700844040.3312092,0.8222861370306803,-0.983685529561658,9.047450341383247,0.03605508110821272,-0.005968996985998389,-0.0781533447326724
1700844040.3412778,1.7078911438334705,4.879334603401696,8.999217679814882,-0.015220330479097235,0.014023460160353562,-0.0563239221693579
1700844040.3512092,-0.965740710871074,-0.6959194214035759,10.304789902838966,-0.03879981769953122,0.007922587457124762,-0.0762526941718165
1700844040.361208,-0.8802305097540161,-4.951820644712978,10.387258047417228,0.02955509237318999,-0.019389872189119806,-0.0771177810849253
1700844040.3712575,1.2963176924448159,1.3340798788907133,9.18758939008465,0.036566556636164475,-0.0005873778754324002,-0.0712524381698672
1700844040.3813615,1.4991601934905265,6.114807202297223,9.797147192808243,-0.04247154409024835,0.022730583367242922,-0.0781952840508524
1700844040.3913186,-0.9793956945566553,-2.9137159051177246,10.321417307734647,-0.04714122991341741,0.014648956004622932,-0.1063590002478663
1700844040.4012952,-1.4780523312844918,-6.423459603877151,9.715024155576529,0.0507939284662368,-0.009073583610586303,-0.1027926382841174
1700844040.4112058,0.13805030797944937,3.5214189173870163,9.19201220658078,0.041753126277510905,-0.002253412421244403,-0.0985030708135668
1700844040.4212794,-0.3273080127886061,6.7468456320473456,10.402376664795229,-0.05641584554426476,-0.0012483315934405147,-0.1025904220761363
1700844040.4313478,-0.016571329955628076,-3.2855589797858396,10.404231615471392,-0.038813489997591884,0.0024890061170198615,-0.1031283241929118
1700844040.447367,-0.7750792048545815,-3.5575919442476946,10.002960217910399,0.02707161125806949,-0.013233064494615566,-0.0785040659131114
1700844040.4513612,3.715492226322838,6.120089194368085,8.75487620030399,0.010667871727934123,0.005790559066296622,-0.0442183342994753
1700844040.4613702,0.16142884712878933,6.0147582283816705,9.639703277405015,-0.0711246744776291,0.014477715273184323,-0.0554478121222559
1700844040.471283,-1.4913888332593686,-5.23830586841078,10.41076106983956,-0.05102555072631372,-0.0015956851123523257,-0.1036229011835162
1700844040.4812891,-0.9867021948943124,-6.218359515581076,9.98762288560182,0.048839273331471686,-0.020666135275393932,-0.1196310025872294
1700844040.491282,1.1873338484628133,4.531697055758822,9.693308050757759,0.010749785584342444,-0.010120037303157423,-0.1252903891028468
1700844040.5023887,2.386431457475926,4.748287786477303,9.849938867211161,-0.08785685503705712,0.02362858944601409,-0.1261305612744395
1700844040.511273,0.48360836911058025,-7.665784679513983,9.414602523522873,-0.027385322332359633,0.02930506414740965,-0.1500234705628459
1700844040.521224,-2.1811032189350286,-6.350932989421192,9.466397657147247,0.08133893880227412,-0.0017426541432297277,-0.1518868607701365
1700844040.531351,1.6903487646914115,8.993181851588487,10.004228166772162,-0.012209746671710181,0.007443306287109559,-0.1335793090285365
1700844040.5412264,1.470631526434838,1.2674149971179496,9.828252124986053,-0.05869537442530716,0.027354985307218818,-0.1312405568780009
1700844040.5512333,-0.8581382101925054,-5.713710919963051,9.463212987638855,0.00359339115498524,0.02243489892853448,-0.1156257194699351
1700844040.5612292,-1.3454056936589807,0.550960043787509,10.610166379271412,0.04311704274052668,-0.015643077986124142,-0.0967595231951777
1700844040.5712972,1.926114025854687,5.11393720168868,9.482382762920142,-0.037182506444531166,0.013981361980729334,-0.0997236919821803
1700844040.5812812,0.8877326932326509,-1.8564993399745802,9.743231600440035,-0.025922361801575606,0.027933218701222454,-0.0962107581318919
1700844040.5912297,-2.016596888757017,-3.539623171895395,9.636503293224632,0.044046273327462755,-0.003620817504935511,-0.0997160327853266
1700844040.601262,0.19167143325801436,3.049070088885692,9.630300944382524,0.002642565049391943,0.0006773717119707282,-0.1073917103232447
1700844040.6112626,0.07086949322082958,0.8280387661642755,9.008283497258649,0.0090398665599085,0.0016626921158121905,-0.1145406690658633
1700844040.621351,-1.8356010853185034,0.3959364268306666,10.571547199237664,-0.0013511920053737615,-0.01643768306059829,-0.1260648173512522
1700844040.6312573,0.7809650046197961,0.2932379006767944,10.890490031736505,-0.012754213286872181,-0.02218657106359751,-0.1174599332036082
1700844040.6414497,2.4545032761329666,-0.3607398751989969,9.408453803834028,-0.01136693789171571,0.010940092309112647,-0.0808523771585528
1700844040.651264,-0.11199635921146922,-0.4947914115870242,10.020250664299665,-0.002759790026109613,-0.00043075606714636173,-0.0509282303275172
1700844040.6613097,0.7529885644440066,-1.6762975004933511,9.319446191335707,0.017232466814613507,0.0032277388108163177,-0.0494614009977881
1700844040.67139,-0.0024822691716520308,0.14054919936178434,9.050484192511846,0.030445242956235102,0.009420777489353134,-0.0610620630206172
1700844040.6812294,-0.27477270686737854,3.0714677683372567,10.614407376831494,-0.0030838141706530276,0.0008067470244462325,-0.0674910945118968
1700844040.69131,0.33476920366957647,1.1365479418666407,10.372962260112406,-0.04629529184542626,0.0037394567861823444,-0.0834609818877284
1700844040.7012732,0.07530805545187857,-5.624163335635727,9.533476140159092,0.010511133854486595,0.003688310279723799,-0.107818785053641
1700844040.7112627,-0.7044205812113269,-3.6776091647478633,8.892903874132038,0.0825029744464094,-0.005166594049509978,-0.1235825372160975
1700844040.7212942,0.9339799481151163,6.563602720768641,10.186837345206952,0.0012615884660717345,0.006271951508506159,-0.146161968749911
1700844040.7312632,0.6470888942340645,1.2739873213518087,10.032563003827725,-0.04442882883149364,0.016584499244085373,-0.1559110087575022
1700844040.741316,-0.662317190990875,-5.8711373252517465,10.4111179566158,0.005628585965592424,0.0017144611063620054,-0.1306094778002803
1700844040.7513697,1.5034659900690674,0.10559709341573914,9.11480734396247,0.03417955811492793,0.013502569352281295,-0.0913832736434046
1700844040.7612529,0.006227888439041441,0.6776081132672455,10.338574748554652,0.01895910798192093,0.015569013615917048,-0.0664340955437724
1700844040.771341,-0.1318176235946202,1.486008177368108,9.082564527562297,0.017565977270791754,0.013010756213609104,-0.0789642733754222
1700844040.781288,-0.9782068728499607,-0.2761651707209619,10.246934910490886,0.000928022863310807,0.006873414574532398,-0.1011427593649928
1700844040.791233,-0.0108587387737945,0.15372155338825175,9.655706035874395,0.01774721713638115,0.0035964656852053157,-0.0947164771379534
1700844040.8013024,0.39352611885490124,0.4488810587956754,10.303412964756008,-0.0060057214656258,0.010306881690647005,-0.1103971925796572
1700844040.811336,-0.0798098521306964,-1.4421117960312377,9.349886185757192,0.026415519667607187,0.01448668197092058,-0.0986645621480052
1700844040.8212953,-1.2491546677973593,0.4669699365573723,10.194915419768305,0.02407716288098982,-0.004647614517732189,-0.1274723810376231
1700844040.831252,0.6179606071756684,1.3749808418119973,9.078843800658122,0.007434675597991317,0.01611246563644541,-0.1394106847466532
1700844040.841461,-1.0321092720004792,1.3333369277077538,10.872638860068278,-0.018740614164418717,-0.0018313845167219156,-0.1206568357767169
1700844040.8513625,0.6229203295862623,-1.9515710021307022,9.326559022072487,0.013412550367650624,-0.0013161349991524754,-0.0983856720151011
1700844040.8613293,1.4237073988249946,0.9166614674204411,9.018777478351389,0.013478431490264136,0.0319145614858423,-0.0952874598325793
1700844040.8713844,-2.777384460374201,0.8807063348056045,11.168019594236993,0.000489178326295824,0.0012521948217960226,-0.0874349204124514
1700844040.8813674,0.31291511642678366,-0.6696843118647203,9.179793579887603,0.026270482575885448,0.0026911752390394047,-0.0879424614132945
1700844040.891275,-1.415126495093649,2.888580747333439,9.28492059005036,-0.00011640049351853151,0.004757038994239788,-0.1006628972710673
1700844040.9013588,-1.3007077824396853,2.3725004381950368,10.758018476338025,-0.03831518825188194,-0.01134798872491323,-0.1204848465742175
1700844040.9113,-0.42664252132163005,-2.0166859159605415,9.808011406445146,-0.033812471973961956,-0.010923034774849376,-0.1246294629992549
1700844040.9212334,-0.30046112859938645,-4.236470673558392,9.2130687280506,0.040055748895393546,-0.021526316937311756,-0.1116214198292796
1700844040.931322,0.1146185663357109,2.805021560066828,9.766132629455763,0.020269361043671042,-0.02005850075654104,-0.1074773845495287
1700844040.9413054,0.9915530067344409,5.506578585624434,10.46966764670603,-0.05955858398492768,-0.006265187766755027,-0.0994572145165507
1700844040.9513097,1.3343414307826154,-2.6715583160598437,10.410269151352411,-0.05714778418166104,-0.000852591261581719,-0.0954266366781298
1700844040.9614067,0.27191263502735213,-6.430011367635823,9.198425844262648,0.014776065012981562,0.0029999442949591665,-0.0951354605378214
1700844040.9712958,0.6727668367560781,-0.025702372048256067,9.244310134280134,0.04063492574399466,-0.0013126623433440138,-0.0795312700094287
1700844040.9812791,1.0422562346361637,4.073155312294594,9.621104434951885,-0.004116552691506864,0.01679087181486621,-0.0534514104248587
1700844040.991307,-1.3621733402025686,2.1062360812390226,10.706028911633949,-0.04650110813869263,-0.008347097259114724,-0.0399486039997641
1700844041.001309,0.41815033066412444,-3.2940731871135314,9.035165989336381,-0.015951703861360488,-0.007319023732647022,-0.05444696072951
1700844041.0113103,0.04974518400116467,-2.168997368718963,9.919520945394709,0.0184827190228356,-0.004523898968101675,-0.0552410473348204
1700844041.0212393,1.216699463168705,1.3828960509890154,10.287873069736438,0.009236600878507414,0.0020606553887327714,-0.0454749380470816
1700844041.0312638,0.9782732335967659,1.5946422907336717,9.328834887568446,-0.007269765677806323,0.02299012834645044,-0.0340168503345553
1700844041.041292,-1.4416871025104752,1.277341102875569,10.527892077660878,-0.023182214592835263,0.0052390117252021145,-0.0400375937344138
1700844041.0512717,0.4020623691738283,-0.009302943414408576,9.511243840430668,-0.036004342315228234,0.008330383777692246,-0.0567329366923873
1700844041.061283,0.2843025528333516,-3.644653425201982,8.775361320798297,-0.0026362518720032292,0.02656460324941087,-0.0960318622411791
1700844041.0713186,-2.766614231294596,-3.30988229523531,10.11085422343184,0.05624923410755702,-0.0069080355321976105,-0.1157356080831591
1700844041.0812745,-0.7407497622008433,3.105170544046778,9.720583406960472,0.041545667167695775,-0.008738238426896612,-0.1129275811137263
1700844041.0913358,-0.6797210547842977,6.55361024091286,11.4729185645523,-0.04635829601227641,-0.017947136451707424,-0.0999251109780375
1700844041.1012893,1.4498979141141397,-0.39349694987192546,10.215935570158434,-0.05623336156817886,-0.012716998500698077,-0.092585596186072
1700844041.1113255,1.4510560032705508,-4.30394873111004,8.955045575949812,-0.020991575192529203,0.014664090469046853,-0.09604672614947
1700844041.1213074,-0.09378311029151475,-3.6098873675614898,9.494292181605122,0.04454958518881189,-0.000460725634393367,-0.0711881918133799
1700844041.1313083,-0.21843287233264588,0.31170207322635757,8.81771218590441,0.05802287870639677,-0.0028321426305829554,-0.0650973198236529
1700844041.1412792,-0.027678548202529678,4.364715364642944,10.331510085676143,0.0026079734277618693,-0.002052834617005358,-0.0937217948259417
1700844041.151273,0.5399313405118484,2.8715498164172786,10.3730934583042,-0.04592376057553323,0.00350662293746761,-0.099957893532664
1700844041.1612868,0.799885010454178,-3.7356789116438556,10.41401672338937,-0.022111011866429976,0.002722816595726177,-0.1045526293338839
1700844041.1713393,0.3917211238710724,-2.9577181781105146,9.246284483191358,0.020750506448957522,0.01295167690329652,-0.0950499949277941
1700844041.181265,-0.13546125659179636,0.153683969641774,10.058470909556966,0.03926883503710925,-0.0010573845280558714,-0.0663237896980349
1700844041.1912842,0.6249867657173801,3.2919408791574023,9.597740994564395,-0.003044004056701088,0.005269514755329157,-0.0741004822076861
1700844041.201328,0.07549966426786095,0.09251495356246464,9.680166329707431,-0.024600361537344836,0.01004265990584157,-0.0902551812352244
1700844041.2113345,0.2787307558640828,-3.4173175551341894,9.702001197542549,0.018063693042368992,0.004503172846990242,-0.0902629223884646
1700844041.2212665,-0.39162435339753576,-0.9439115840386004,9.253061071976221,0.04255896216502976,0.0076804620401658575,-0.1080636334837977
1700844041.2313273,-0.7827882800116989,3.9613002128089376,11.401062649953973,-0.007474551313769532,-0.011614419742402168,-0.0911615369142596
1700844041.2413769,2.2524485587758214,-0.9332253381538873,9.745413457310448,-0.0093728522087661,0.008413685813913668,-0.0853436914505068
1700844041.2513068,0.7282103481398066,-2.4767542267334246,8.456580370372984,0.02425846343234468,0.03396412932984675,-0.1008239266695086
1700844041.2613215,-2.696189115883216,-0.19387656146867943,10.50427389179293,0.044110852375976596,-0.0012431362195484358,-0.1120553565444056
1700844041.2714686,0.9429054427235115,1.5642486024405584,8.861717793776084,0.032527392357466114,0.013317947031499253,-0.1250336867989604
1700844041.2813115,-1.554992224783335,5.244500835327738,10.8735366545924,-0.03866024468333886,0.0046287662393240964,-0.1125431982101504
1700844041.3013208,0.35167351301236144,-2.0748155585851333,10.463398708507968,-0.009018140571822824,-0.017810587433199486,-0.1070372116984431
1700844041.3032622,5.66246200089308,-9.400287153864362,2.606678364116461,0.019553095674731312,0.01506758366736146,-0.1279413503827159
1700844041.311307,-2.2615977072522297,2.9499702939941876,11.558433587414616,0.007790364528838963,-0.01918828556785846,-0.1120811579050128
1700844041.321523,0.150514339028019,2.484761081629886,10.179064840694156,-0.03240665865025372,-0.019543626603905642,-0.1010300916852061
1700844041.331313,1.220874204731278,-1.9189729228122938,9.576154696576221,-0.01748574435719699,-0.00891940413368296,-0.1153676537097994
1700844041.3413332,1.3013926848484019,-0.7911473810011779,9.073025805286791,-0.006989275832706925,0.009415463678400838,-0.1217938241781298
1700844041.3513002,-0.6284600381744323,-1.3571663469905864,10.154767645536888,0.011941408272072605,0.0021223114640089814,-0.119155722600371
1700844041.371328,0.9211881924078189,-0.5043628473138384,10.140640642292196,-0.01722750452537932,-0.0022187568505046855,-0.0917104286374156
1700844041.3813684,0.780690810942154,-2.448518803049494,9.224280178141408,0.010164068881126097,0.010418995300654424,-0.1046936613740031
1700844041.3913815,-1.1393764813252798,-0.28316689604309486,10.224705649204349,0.017522878850575997,-0.006441124262709709,-0.0907499593915049
1700844041.401373,1.208646929350759,1.712104445610004,9.764601587902384,-0.0018023424663777064,-0.00134824261391842,-0.0592382465721671
1700844041.4113638,0.7028091407956399,-0.8301195267077269,9.790709389096067,-0.003077585699120635,0.014136340738583771,-0.0676752281607691
1700844041.4220886,-0.555320100940529,-0.8863418924289584,9.993376094994849,0.012589825535924849,0.004671876719209191,-0.0863340896786753
1700844041.431298,-0.475481761570117,-0.3894293947687818,9.851310442377777,0.01658030778622923,0.003376785013773201,-0.0838347998680178
1700844041.4413483,0.30844534784128064,1.2356497990853703,9.347473433407156,0.007369353918151542,0.008784153550367269,-0.0908839357317988
1700844041.451352,-0.9995912627235061,1.4912801689627442,9.965287358823076,-0.0035901579693468915,0.009936796341891943,-0.0927236852468554
1700844041.4614522,-1.4613346490497376,-0.4269197877391384,10.570160562671534,-0.004625872402598238,-0.022210136169839894,-0.1037030396284167
1700844041.471393,1.1358821595717812,-0.5322011854271053,8.781980768077604,0.004509698671615566,0.004727120425106209,-0.1093143400968615
1700844041.4813738,-0.9092741598744427,0.7354420509579503,10.56914719349447,0.0074103196843056385,-0.014259104456656624,-0.0919159305514399
1700844041.4913397,0.6507608739071059,1.0762127730354685,9.592552886146844,-0.01403537123720482,-0.00924486567494391,-0.0916120213688914
1700844041.501336,0.6733176385921006,0.12744967918267935,9.572981362820324,-0.019216153878898686,-0.00011852203762631783,-0.0820544463814799
1700844041.5114572,-0.29090166308225507,-2.119456453362332,9.956347485168356,0.012339313789632468,-0.009388075008841125,-0.0811872733058039
1700844041.5213346,0.5003151683545463,0.4666809651655146,9.547326376731075,0.008253575391027895,-0.0075628747467028105,-0.08994121376887
1700844041.5314698,0.6769487023155882,2.1095317905516673,9.754501928103952,-0.015322116566229881,0.004890895822382287,-0.0695043754996363
1700844041.5413496,-0.8717734409237371,-1.1532814953412247,10.430464868881394,-0.009020752909961072,-0.015361989517201738,-0.0706521150888506
1700844041.5569344,0.9635907806096382,-1.1206953208939348,9.427297801386267,0.018572368033278386,-0.009399530500346143,-0.0976695669116084
1700844041.562115,0.7717194724596088,0.9063456703182186,9.476892446487858,0.013271806132203492,-0.0006239978264887052,-0.0968451601685587
1700844041.5713663,-0.004907279999003684,2.37936872819211,10.613184080209011,-0.014340389376238947,-0.00372311570822029,-0.0881963995517794
1700844041.581421,1.009431317568177,-0.21625145954207192,9.978047942523501,-0.026442136910080384,-0.0035579756672096457,-0.078225496155173
1700844041.5914524,1.0446714380439843,-3.2956300499321856,8.738713854395332,0.014413357296324843,0.013334260439271656,-0.0871942145051066
1700844041.6013412,-1.6794910376572834,-1.3082909689635538,10.065262353937683,0.04895742747282158,-0.007695532356323744,-0.0968293053330485
1700844041.6113834,0.04835814648769128,3.836676302302144,9.909098852430311,0.010389933576496521,-0.011470813619122795,-0.0921792117179934
1700844041.62142,1.0582768310660524,3.4605731679946485,10.270857353126598,-0.05044762589138819,0.0046984225690792775,-0.087222303193957
1700844041.631298,0.46674052104132074,-3.2268973437167507,9.95953436418739,-0.027369204799924517,0.0054152021891525565,-0.087857368332297
1700844041.6413376,0.7636680264302121,-4.7570949261229485,9.292821844619949,0.03472189400490672,0.007631689300988207,-0.0838777748169009
1700844041.651336,-0.5884401041378367,0.49167071810003155,9.271423780236912,0.056115872947671265,0.008343260686357374,-0.0878352103056017
1700844041.6612997,-1.2466411069601864,4.43418167022075,11.13954768195617,-0.0043607014931014215,-0.0115393459486853,-0.0896034938515727
1700844041.6713245,1.3021246272700675,1.939816790656948,9.45454544669931,-0.03977634863916417,-0.003970874962800046,-0.0766600025118891
1700844041.6813793,0.63349970534626,-3.9782279605864392,9.284259376524073,-0.009511725633981824,0.003572058823600717,-0.0910761234582964
1700844041.6913233,0.4451993282394597,-3.9089225270788326,9.712845250051236,0.04749679175369111,0.004118458264850515,-0.0772461769403521
1700844041.7013335,0.865453294281291,1.7827865122546858,9.649077701647675,0.04738696082515525,0.010457462702369703,-0.0663575184763972
1700844041.7114398,-0.3394141922073103,4.920849934689668,10.094639644446202,-0.016790740361103187,0.018154737741558475,-0.0607086857081954
1700844041.721326,-1.081774197749234,0.4105293238860956,10.422464164308508,-0.03889023977957144,0.0015943539322835734,-0.057279604417235
1700844041.7313292,-0.16603103110826162,-4.036857723110628,9.064147825419255,0.007498862955391248,-0.0021905403240283124,-0.0644867298425738
1700844041.7413297,-0.5848773668738135,-1.6373191955917785,9.47403082555107,0.041801665154817626,-0.008648963493886452,-0.0604865168453757
1700844041.7514017,0.22135291438751795,4.206329539265704,10.586084544003322,0.01132802290004985,-0.008923264374287171,-0.0541730997385088
1700844041.7613268,0.9644636290339268,2.0213252817608143,9.96627412666028,-0.026455575153291805,0.006691587790001356,-0.0684542236150805
1700844041.771438,-0.43635460188215985,-1.405885391102245,9.936623351837984,-0.0314820446649435,0.0012662346542823613,-0.0830680606187884
1700844041.7813952,-0.10761049149723213,-3.4953491523685467,9.365617257025349,0.02039041300199054,-0.001299496085548851,-0.0837026638211314
1700844041.7915215,1.1297386225749673,1.1722202209080324,9.650651360182826,0.014823690642144094,0.008745300858177079,-0.0730449882568423
1700844041.801408,-0.22968271107850693,2.1218849799825246,10.131231134804208,-0.016258802992893874,0.018365320500449187,-0.0557704744161669
1700844041.8114555,-0.5242604038486781,-0.6320318912163415,10.657923536174586,-0.011811498033665727,-0.0059703095779017465,-0.0605353479506079
1700844041.8214908,1.1117063299231917,-1.944450296558002,8.301882772572622,0.014237534160597866,0.018126524635409053,-0.0988969457568232
1700844041.8314168,-1.5495598426376078,0.07645049574723205,10.487593331489403,0.02354435558135849,8.403360134656624e-05,-0.1110280630411212
1700844041.8413663,-0.004225902895825917,2.3368055198851088,10.11445688565434,-0.004380407304116507,-0.004711821603430202,-0.0942158875288073
1700844041.851344,0.6720712636029297,2.2785876135897314,9.570243833213787,-0.038734994547169777,-0.0002654224478821105,-0.0851616588653628
1700844041.86139,0.6195222286735398,-3.1991749522784407,9.758681040742715,-0.012357146495689144,0.007217232928917594,-0.1014652949990336
1700844041.8714345,-0.18597860277101352,-2.9534813822232096,9.91815099253112,0.02478537914568951,0.004679741038397102,-0.0836293575586382
1700844041.8816285,1.1199898301588669,2.4896218455012162,9.591330182919938,0.011481154849449565,0.01628365905129186,-0.0543801103951041
1700844041.8913784,-0.4553515488629,-0.16528602309406493,10.473702097553232,0.021969786748037536,0.012161194957849092,-0.054980288189799
1700844041.901312,0.15207546174616599,3.3784606081452853,9.270251138930394,-0.013487248431562798,0.013083270405777786,-0.0815459517063204
1700844041.91139,-1.0531896269918806,-0.7901271600669747,9.856537067615246,-0.023127954139855748,0.010251609757912847,-0.1206033778609339
1700844041.921336,-0.9782971608745383,-2.1519480967434754,9.566036946112687,0.014874606605347635,-0.0026959443325940235,-0.1141088557662074
1700844041.931373,1.128276012756401,2.1849213751432357,10.118667348111,-0.0027823090976087654,0.007174315984015336,-0.0858633321942393
1700844041.941436,0.18522555451867187,0.6991081054715453,9.838194875260845,-0.005735150299150671,0.009753121731053842,-0.0628672120393817
1700844041.951417,-0.6959181626033223,-0.8963967009738423,9.84906143520492,0.014945237451022551,0.0059753755491199975,-0.0767976966919009
1700844041.9613154,-0.6587763146671718,2.5240281239683697,10.052699892238234,-0.015423482140957885,-0.0030209196382472232,-0.0928866219939295
1700844041.9713447,0.37941755550708134,0.04227343875586148,9.774138867588816,-0.031711977358651534,0.005600656105370373,-0.1119260442675654
1700844041.981356,-0.8497934622502281,-3.598635379462231,9.799576074882026,0.004860613777275431,-0.007460427556813458,-0.1246690106810633
1700844041.9914732,0.5704833141060056,-0.6863217700114019,9.38874833484365,0.02897799699225021,-0.002737556235594788,-0.1190336075843875
1700844042.0014277,0.23300950371866577,3.7146207551554737,10.210949307101844,-0.00463191884406005,0.0015914254920274351,-0.1094502312363688
1700844042.0114317,1.0467421572129973,2.837031079080767,10.226111459634785,-0.0702575264197931,0.009866957436784526,-0.1001978469313685
1700844042.0215,0.09849428683382817,-6.860772777382549,9.18351384824104,0.0054989567073789975,0.008683318017236666,-0.1064367098034922
1700844042.03134,-1.5434613025762338,-2.1844236128698835,9.598387841626765,0.05725134725292475,-0.010697271504739037,-0.124102639895827
1700844042.0413857,0.9349953176817262,5.131147949526748,10.116684377256906,-0.0008356126984803778,-0.0016103425536908977,-0.1063240495742861
1700844042.0514283,1.6011034422721806,3.4486617804407302,10.175580416352126,-0.05931626092210052,0.013245956087614873,-0.0850146142067019
1700844042.061406,-0.06661167117211253,-5.540150347354857,9.557955607480446,-0.0172453283112933,0.011168669836215932,-0.1025747237028185
1700844042.0714393,-1.3542103961910206,-3.8682371793361785,9.264855757308567,0.05132845253163627,-0.003754661132789973,-0.1195234534563128
1700844042.0813715,0.9486980020208088,4.440638027810733,10.167071452887429,0.017779644160385338,0.004209990815428496,-0.0949716818751399
1700844042.091411,0.8340149348410743,3.5295522181616357,10.182390450406057,-0.053387817473066757,0.015463217107472907,-0.0860959169687335
1700844042.1014802,-0.16914538254419298,-5.688445159155476,9.447165344439574,0.0045200136827674995,0.014849400089075556,-0.1007935879053179
1700844042.1113548,-1.5509815363001012,-1.451871916964913,9.661035218931238,0.045700577910546374,-0.0008202708941408941,-0.1064560068072383
1700844042.1213777,0.408323744931323,4.534734297348169,10.326865479087827,-0.003640942052271572,-6.793014786745176e-05,-0.0901078534545008
1700844042.1313963,1.5804487170943504,1.4955399020237075,9.610359505262599,-0.03963746495257374,0.026485005505754913,-0.0985275683225695
1700844042.1413903,-2.421450209034964,-3.635004465616412,9.833105596523927,-0.0025844109819271304,0.008496164059731309,-0.1308363479794566
1700844042.151399,-1.3033475864811037,-0.9869982757104648,9.986833507106263,0.028568321239288583,-0.017481600440147193,-0.1134662953437869
1700844042.161405,1.759310909413947,3.7509816127800915,9.39557127312183,-0.006683936279942238,0.012627400470766166,-0.1125194010557238
1700844042.1714184,-1.6088157272874954,0.9867666791301082,10.7240658094936,-0.03996235845574965,-0.000278792279224098,-0.1307720494689051
1700844042.1813853,0.38011191006800055,-2.9574371013041,9.222040241842961,-0.006661313733372668,0.0034059459141286583,-0.1297038895310465
1700844042.1915023,-0.8031310823722007,0.07824681687326755,9.872511853373963,0.013392338543669592,0.0022920686440117384,-0.1257215840043131
1700844042.2014258,-0.6719052102291058,3.3304283391407967,10.718933426116651,-0.04078918154275447,-0.01623741738620589,-0.1207353425444666
1700844042.2114377,2.649121505971322,-1.6863175493881235,8.562368194085167,-0.02604261443984386,0.02592819822561152,-0.1315520209492747
1700844042.221339,-2.690052294216855,-2.913257968310987,10.359996254101569,0.0032782547420565065,0.0005509894329949636,-0.1437298310221736
1700844042.2314072,-0.8580806493104567,0.13244081665446011,9.90718595934733,0.017976729102827528,-0.024690594264659565,-0.1216366318286959
1700844042.2413616,0.7069745992554037,1.4868389681049012,9.56483209035381,0.007382517543157257,-0.010987478221860282,-0.1396624845685069
1700844042.251447,-0.20456822875221942,2.7829969566468526,10.307310944459617,-0.04470734842003926,-0.014956550044217915,-0.1536035192431513
1700844042.2613354,2.291331325617432,-2.59468439674099,9.390810787961403,-0.030758839853698674,0.008547695742859204,-0.1526561481179301
1700844042.2714295,-1.2102394081732752,-4.726100952908532,9.59122920414749,0.041352538676602144,-0.0023722954721134906,-0.1502943587721888
1700844042.281405,-0.43807981181071504,3.8238766459744316,10.523010246966328,0.005410004708280106,-0.025366887010053935,-0.1370340836466853
1700844042.2914128,2.6748214757633386,1.6199247387524311,9.383693975911322,-0.03001293258981636,0.004397140856096993,-0.1221912977518145
1700844042.3014631,0.49261872706199067,-3.363271688122559,9.58489663820469,-0.003746484260076845,0.010402370601376032,-0.1283082914771144
1700844042.311471,-1.1408828654902323,-1.5569429156152221,9.551802055461698,0.0337921778487805,-0.009523131566897994,-0.1314217997016017
1700844042.3214655,1.0623178343970008,2.503142286151406,9.495956132835344,0.0012030046141179162,0.0019926291292957808,-0.1306626898469035
1700844042.3314612,0.7827810224104934,1.7504497325947093,10.480781128614085,-0.028443448271903312,0.011081571704820593,-0.1255761039675776
1700844042.3415012,-0.18737629282362112,-4.052143082791115,10.15194152091991,0.015341691405877577,0.00029230073167015654,-0.122941824537665
1700844042.3513703,-0.23593539059198093,-0.5469136877223276,9.061508507913096,0.035492961693870326,-0.0006605292440453389,-0.1284915310563151
1700844042.3613875,0.171214014519193,1.988684844935777,10.248401564205087,0.018256253642914708,-0.008963594143166227,-0.1505264592589442
1700844042.3714447,1.1075323690024583,2.2951799014419874,9.625354278047693,-0.023008454782422656,0.010441828054268092,-0.15698901836291
1700844042.3813992,0.8788120575684295,-1.7240792403116094,10.219350244153569,-0.011370654562891198,0.009797795359157806,-0.1453319442690913
1700844042.3984115,0.41618489353373866,-1.4114514896524213,9.487903815305833,0.015232688356542705,0.014026699085024033,-0.135514716547877
1700844042.4082775,-0.7091921607111057,-0.33252711922515743,9.830959961188377,0.037709612764612946,0.0025108573055299837,-0.1358165395678584
1700844042.4212315,0.05355261993578822,3.027066534436763,9.782899456384355,-0.004928257460813486,0.0011235419811858587,-0.1411891979397837
1700844042.4223323,4.022590406950232,12.350509953100271,12.070108154131685,-0.028968173146914373,0.006534579694290312,-0.1297013563336436
1700844042.4314532,0.8305669521317307,-2.579576272726171,9.563729437777305,0.0027290919316671873,0.00803630876737059,-0.1190223274053637
1700844042.441363,-0.0548290996805083,-1.1935883870688158,9.482212713398617,0.030132431698561397,0.008203055629159987,-0.1227620941819254
1700844042.4514277,-0.5295321974523993,1.74120783773714,9.964952933419198,0.01409068631257464,-0.00023740976459675546,-0.1168845099629466
1700844042.4614542,0.02752343861297804,1.4172360201141911,9.728838028502247,-0.005117863500090677,-0.002058165868773794,-0.1162191805662219
1700844042.4714203,0.16887532633159555,-0.31290985615883227,10.023183881679856,-0.009018535354366034,-0.004861823877423084,-0.1106908497633044
1700844042.4814186,1.1657768920407725,-1.2760856217049854,9.848232355490529,0.008817220274921874,0.00504185462446508,-0.0891446498455111
1700844042.491505,0.6585863138633434,0.18669563981301052,9.38209314122518,0.014902106134518069,0.011204242257703185,-0.0791170549811427
1700844042.501459,-0.08044856695400883,0.1029865618344151,10.222904862022476,0.00618414478880879,0.01443906005332953,-0.0633723763050143
1700844042.5115542,-0.18599288991435917,0.3304544123600076,9.805643786668726,0.014973099991053812,0.0013515411136369696,-0.0615408038021628
1700844042.52149,-0.07180769913363218,-0.7759356664796345,9.313528780439407,0.014292684107703995,0.0066131211648682514,-0.0587878627003733
1700844042.5314136,-0.6675470162610877,1.1065642717852024,10.584634912781782,0.004804850995038849,-0.009800847854059947,-0.0609151412965361
1700844042.5414724,1.2828965866253523,-1.1443919494945898,9.293631018623435,0.026103072135115903,0.0025479904682110636,-0.0661987913073603
1700844042.5514324,0.05758986346945021,0.8947277026562211,9.69162623805565,0.0003400480962975482,0.006666799101109431,-0.0629835379542414
1700844042.5613754,0.6273898661496052,0.08586430064136565,10.39943914401276,0.012186333151682934,0.004197588451510449,-0.0669489008606974
1700844042.5715885,0.3884984542560064,-1.2580431662832114,9.480913142270857,0.02066707367979812,0.012689763628207854,-0.0700884563149516
1700844042.5814486,0.26042969801316573,2.186161184700163,9.604491165548161,-0.010942455064801553,0.021832415722517692,-0.0822090235771243
1700844042.5914576,-1.210542779957545,-2.7471661503008575,10.458104003009728,0.02908981380680005,-6.68402594549107e-05,-0.0855063003720347
1700844042.6013749,0.4523232849966416,1.2428870592136867,9.28961157241318,0.008357221906898502,0.005914610223993277,-0.0867445719660822
1700844042.611415,-0.15427054427603645,0.6853083414371252,9.935222390644181,0.006530676726972581,0.004845250552365965,-0.0922169861616198
1700844042.6214488,-0.3199478654790685,-1.1973988311028576,10.289627543326306,0.005372280260126008,0.0014181354690686583,-0.0965078053297106
1700844042.631462,1.0636942002570628,0.8122462412399728,9.282862348354174,0.009276337828997467,0.013212387905453201,-0.090959015232474
1700844042.6415408,-0.792431653348492,-0.8896092877923533,9.854417519460263,0.012780241665495266,0.012476582520234767,-0.0934049290837351
1700844042.6515238,-0.25676927522338977,0.45534252306598516,10.175389211669389,0.006509202061232667,0.01353054829377699,-0.0845610005082194
1700844042.661471,0.2899031747742618,0.7021646902743701,9.50302996831899,0.013345206273247597,0.01945085179277384,-0.0865139764966075
1700844042.6715748,-1.8127272323902535,-0.29057774643590223,10.054368972620079,0.0005591597645318069,0.014897043492092093,-0.0881228921236102
1700844042.6816146,-0.8965126238852946,0.7509986719629568,9.988716064304873,0.010653825009529787,-0.010512197004872706,-0.0961544019402567
1700844042.691511,-1.6751354559420693,-1.0702012913034036,8.691699328263107,0.01296241425395264,-0.017821494497817083,-0.101948651415259
1700844042.7015204,-1.3588914809105495,0.2773281661460024,10.591856802330524,0.0022315584225876157,-0.04520976597788272,-0.1011712429346148
1700844042.7116635,2.77399989722256,0.08261845190179115,9.520860278621429,0.022499514354100192,-0.02247432324544828,-0.0851513249100749
1700844042.721768,2.410378341542098,1.3313794374304029,10.577158316342535,-0.016483947734914028,0.013215215961429466,-0.0759402540744845
1700844042.7337744,0.6932425485301169,-0.6435707111080243,10.315358041746942,0.002386195966325766,0.025054443494570172,-0.0700235617579524
1700844042.741975,-1.282168996914996,-2.73671340265692,8.858081501399575,0.04225263621473248,0.012939566231691159,-0.0709041086257998
1700844042.7514827,-1.2961207401398018,3.6896128510433783,9.446201466554657,-0.01035139282302617,0.011215810258200848,-0.1001352769555155
1700844042.7615016,-1.503422883136311,-0.36445726305488196,10.702152940587963,0.003208060406809742,-0.013893564046610563,-0.1120499772252146
1700844042.7715082,0.13798051669176273,-0.3300749521141018,9.269719198592744,-0.009961690050279822,-0.003934042132841592,-0.1280797672690455
1700844042.7815084,0.3957855675898644,-0.21668117882213042,10.348789344145107,-0.003305440025538993,-0.0008780106296230056,-0.1328170848311488
1700844042.7915432,-1.2595784886941475,-2.714119831473848,9.530420203566772,0.04275014247376587,-0.021201814650757416,-0.1412086588563029
1700844042.801643,-0.25830277876033325,3.4020005241726046,8.453335513411236,0.0019574574182419863,-0.012670780871594085,-0.1520924222888056
1700844042.8114972,0.32990352050767696,1.193265855343604,11.312629546388644,-0.010763992315272598,-0.023413622389975776,-0.1342607242287699
1700844042.82155,2.0994347097427704,-0.8223961545803792,10.113794176698514,-0.011655165595399683,-0.0012945207510561216,-0.0943220359505717
1700844042.8314972,3.190950326143321,0.2757768272657797,9.645039385912135,-0.009590491467487496,0.042238006119066245,-0.0616303933085505
1700844042.8415368,-3.1534698285528036,-2.5124485728433754,9.827264126545757,0.030366269656413834,0.013258601147601703,-0.0499035519780222
1700844042.8514943,-1.609804219264907,2.0046502645745035,9.414477266978365,0.008574907029466764,-0.012904440527472362,-0.0558453117729727
1700844042.8616276,-0.5272301902890492,2.404259795667132,8.68956354517101,-0.014214354045806756,-0.001057726743061739,-0.0799461183370654
1700844042.8714898,-0.3901317740601144,0.23297506282626235,11.160944363574227,-0.02251376858204751,0.001575313657843927,-0.1048872423590724
1700844042.8814805,0.051425150576285605,-1.373040021558208,10.536968077107101,-0.005971756775746053,0.007566508877120712,-0.1195335936965052
1700844042.8914802,-0.7939052943420557,0.5076245063843909,9.936961711272122,-0.0033458130740554536,0.0070119933458540635,-0.1100765940965716
1700844042.9014697,-0.879108170338809,0.7077029137766836,10.181743901677311,-0.00723360562205341,-0.014234917752816366,-0.1280885738553111
1700844042.9114723,0.9398521374961862,1.9128183229970996,8.303252495812451,-0.037751815957334685,0.010975222562499738,-0.1579458666266505
1700844042.921498,-0.394583213979069,-2.127344975886837,10.548909980682641,-0.025712514982447168,-0.0062180968967985115,-0.1456437510670725
1700844042.9314876,0.8849979330897852,-0.5617530634497373,9.237382602578464,-0.004295238193792293,0.0019088672193372895,-0.1480387700022761
1700844042.94161,0.19695228253647487,1.653198882471861,9.753601412969212,-0.023732481848490878,0.01189572404878298,-0.1329126757802073
1700844042.951573,0.3071308943212421,0.13119778788123554,10.506190779986056,-0.027856455771865785,-0.0002889402093568325,-0.1043458533705775
1700844042.961578,0.866964597596466,-2.2643859358039062,9.734447965091235,-0.006204832693011094,0.020152374523676048,-0.1008251634658877
1700844042.9715843,-2.5090840616294137,1.1168866967919668,9.697203279511806,0.001962232607030304,-0.014801122575040893,-0.0720015642465655
1700844042.9815102,1.2672870945985975,2.9989379287828073,9.125678200615491,-0.040782179253900215,-0.0031289408368180348,-0.0739751038374011
1700844042.9915943,0.4844065584110597,-1.7189687833188534,10.158798810568193,-0.03273952407905762,0.019600664986736772,-0.1000968617619578
1700844043.0016096,-1.684694282783664,-3.855628913199364,10.834479493389992,0.024157211194294793,-0.010691946476197084,-0.0965591696323458
1700844043.011532,0.039142685681022735,4.383288074448092,9.424984053426293,-0.014037015763101715,-0.010720248275567303,-0.0908413482131068
1700844043.021589,1.4787847670145486,2.1878557378047634,9.555252665088863,-0.06229916690849508,0.008653426124729725,-0.0932843116344515
1700844043.0315406,0.42965514320636894,-3.5793111605690076,9.646712490932742,-0.017899331734897727,0.021988619173132516,-0.1317463618935649
1700844043.0414584,-1.784581999313351,-2.99288885809233,10.118457099040894,0.01770427923518544,0.004375734834416783,-0.135285104555041
1700844043.051479,-0.954692470735045,4.500636444529666,9.70849360870327,-0.014917819217516694,-0.0210710647020739,-0.103345694881827
1700844043.0614927,2.951181268155127,1.1004290015524985,10.043487549151592,-0.06010313456277804,0.012943491160983847,-0.1050943759502474
1700844043.071563,-0.161874063504306,-5.297190922361117,9.720100904989874,0.0142942489163594,0.011807258041926498,-0.1079141599358622
1700844043.08152,-0.618036460358786,1.9894736479639137,9.453972849118154,0.019629777972685176,0.005594816979689572,-0.1205095676006381
1700844043.0914786,-0.8319025519119646,4.026717677700723,10.09306364968636,-0.043380952769273645,-0.00880950041668751,-0.1085630831541125
1700844043.101515,1.8642752086229002,-0.8499824731585063,9.320544648237767,-0.043885167036732245,0.01223000047495013,-0.0950519842328135
1700844043.1114883,-0.8090267609125035,-4.90535726763946,10.645967263862435,0.016004521895961236,-0.0017501249065569112,-0.0820961770834033
1700844043.1215274,0.7064714931273418,1.9466683918956018,9.692044901387117,0.017205073685311954,-0.004090408021543676,-0.0677569610299174
1700844043.1314864,0.522932946788751,2.5340959723685343,9.015001113722233,-0.025357203666473167,0.01602601894055009,-0.0867795077385012
1700844043.1415396,-1.0026061376798199,-0.4023378328586314,9.878380385274681,-0.017675391629965998,0.0037886138970011163,-0.0807997984112803
1700844043.1515644,-0.013091873228242741,-0.5227957447601392,10.338855293738497,-0.024671044042403053,-0.005834420431725205,-0.0789140192092959
1700844043.1615312,0.1284259166896457,-2.6806678143515255,9.704299399780115,0.013566513714872233,-0.0009249030027404312,-0.0829599973978106
1700844043.171529,-0.7138193527983852,0.47030578489727637,9.913603555381249,0.036619867506234964,-0.013963036799801114,-0.1070077521027629
1700844043.1816273,1.4191918891633022,5.692771495641758,9.443411766078876,-0.04791841428130302,0.008809129265760164,-0.1268720579566065
1700844043.1915228,0.24635791221335387,-1.5185382150109283,9.868742556125701,-0.05730469771936969,0.013406564278181122,-0.1311533254803721
1700844043.2015822,-0.4932172219846252,-6.012777001290336,10.24974978692013,0.01580911783012687,-0.008236674962032384,-0.1119538945378367
1700844043.211528,0.9577464181953597,1.0522237083861403,9.094519339280867,0.01690960774731726,0.007889919204848207,-0.0734745738328997
1700844043.2215967,-0.5350776766136459,2.5276723677096475,10.425708272962835,-0.009381945321489643,-0.0050439906060369055,-0.0539289628387991
1700844043.2316186,0.7089705012723403,-0.527740523669716,9.698395443586614,-0.029532841834004096,0.005266195080356781,-0.0598602657438818
1700844043.2415338,-0.6127389047196352,-3.7194533554041413,9.785826353143701,0.019098662386663825,0.0003366593508108613,-0.0666857389034335
1700844043.251572,-0.42479986701366534,1.1260919339790492,9.58191708452607,0.03106568645801305,-0.003964153050745949,-0.0866016549290721
1700844043.2614703,0.6548952994903878,3.89956055595521,10.106021694343013,-0.037592206034131305,0.012431711841227329,-0.1073079508961741
1700844043.2715166,-0.5975303344450748,-1.8646316920978319,10.052562197581114,-0.02662552826863448,0.01292759198217966,-0.1218942803563181
1700844043.2815254,-1.554399827378368,-2.5977132075298948,9.836396206651736,0.01957932649438463,-0.010597983519633267,-0.1277364296139781
1700844043.2916434,0.9039799302153352,2.847323864942312,9.662269793959382,-0.01336674666202556,0.005786729485448161,-0.1315008354605738
1700844043.3015523,-0.1707827129565403,0.600882963785269,10.145398980070578,-0.022331340300270792,0.007585265142988113,-0.1375476223649089
1700844043.3115242,-0.4058916734304599,-0.8763220257181825,9.713391489761468,-0.01948635527059988,0.001473173765711531,-0.1405724686802928
1700844043.3215165,0.20208655375030182,-0.9042689590744314,9.529234119543242,0.0010059282370034732,0.004457691613892997,-0.1289120567263667
1700844043.3315227,0.255148198500547,1.1810711624454446,9.983998881014069,-0.004167388251014115,-0.0031207560709443152,-0.1338137787999217
1700844043.341514,0.22098974627148574,0.37046018175140266,9.709941785953232,-0.008693205276762414,0.0005743303698141282,-0.1327332956017558
1700844043.3515224,0.002660104729792277,0.7026112105425877,9.983078750908172,-0.006776409740437706,-0.009791622170906096,-0.1308078122557704
1700844043.3615308,0.4809834628702237,0.9193679628468177,9.833878382561611,-0.027342957320733673,-0.006172389583054998,-0.1314235878409449
1700844043.3715167,1.2364262372139048,-1.3715602657241261,9.634229258147712,-0.014601917913819758,-0.00437978589597676,-0.0974140641511981
1700844043.381518,1.604411070063274,-1.191798047611793,9.440904371239215,0.0005786053552949129,0.00869577350727148,-0.0671272528590266
1700844043.3915164,0.1389427119250445,-1.1650541642999517,9.726267969520038,0.009772926626700911,0.0054344589858159814,-0.0469185625435416
1700844043.4091294,0.004533876420281826,-0.06735185692493263,9.673689020658314,0.021556330846930375,0.008263143224639911,-0.0354323228122298
1700844043.4123278,-2.2375260804320574,2.8702459308337325,11.67959828282812,0.00048674222325764563,-0.002982847443780306,-0.0501228821696345
1700844043.4214933,0.5977774536347185,-0.3258524464805094,9.514588333954213,-0.010182701727889185,0.011326651130733407,-0.0556226027430598
1700844043.431527,-0.9486414304315556,-3.4850464474798764,9.731040791697358,0.04665250211273322,-0.003919015886514757,-0.0740861249388758
1700844043.4415288,-0.9228606344472577,2.216333007778924,9.47161055709483,0.03348620693877899,-0.01451985121764777,-0.0993787524522845
1700844043.4515128,-0.7325637683702394,1.6960642010355176,9.98187572781484,0.010807826474331622,-0.02343259765535258,-0.1171974790515009
1700844043.4615135,0.055780466599865845,1.6480084114699858,10.480769792333485,-0.009466650357003921,-0.023526148791408494,-0.1340313804568354
1700844043.4714968,1.921655686080356,0.27887565955555244,10.327677042003032,-0.026073853525227564,-0.011726171926920473,-0.1076956865610186
1700844043.4815643,3.096752497265559,-1.6170099241457756,9.234640791505017,0.00032021036389105,0.02683967535441745,-0.0628937659086291
1700844043.5015311,-0.747942858456383,0.4255914528032683,9.625439830499644,0.011041596566184511,0.003337476419898601,-0.0262376283527915
1700844043.5115063,-1.3746132624182223,0.30147142685955713,9.509428193706919,0.00730289856974033,-0.00634708268003434,-0.0299952821107213
1700844043.521507,-1.0903079329010752,-0.31141124335358367,9.819448634970898,0.005252673652944083,-0.0253899357986226,-0.0517972250701491
1700844043.535071,0.3008834437097427,-1.8096981178546774,10.271598749263546,0.04547452804769212,-0.02216185570946604,-0.0678355125011508
1700844043.541577,-1.1699770891550618,3.5100529106553036,9.815374219108294,0.01984802672056927,-0.024170220261015674,-0.0985084873856608
1700844043.5514922,1.1754722733710121,3.1757044690580774,10.774352944799487,-0.04135013286008296,-0.013117095231641195,-0.1145108443917338
1700844043.561482,2.027014477827979,-2.407053962703976,10.110534120403901,-0.015748215828527787,0.008610831748005832,-0.0934964892686907
1700844043.5715442,0.783113346443629,-1.3505894794347904,9.177957512943214,0.0059107105949678775,0.01978430142573996,-0.0687766400398318
1700844043.5815122,-1.4906452365663356,0.323541342696498,9.202140221487607,0.007516624865483373,0.008968197251747197,-0.0571570609928671
1700844043.5915916,-1.6215950442704001,-0.8760590372334832,10.219401307870289,0.017750287665178832,-0.018498732118447252,-0.0764148188056056
1700844043.6016042,-0.6980508924477686,0.8584348226605966,9.197716355820965,0.016639534538531814,-0.017063903185892362,-0.0934933823765818
1700844043.6115117,-0.16967926795027896,1.8581365297389685,10.803775187752096,-0.00897213276727363,-0.021848103502729657,-0.0989374992670123
1700844043.6226466,1.6075881303168489,0.666658556735174,10.219136650885808,-0.03363727542519215,0.007375743441739324,-0.0985053283394877
1700844043.632341,0.2605937783726776,-1.7903081371773415,9.47021783329253,-0.009144096311090621,0.009194650691174831,-0.0796638009370867
1700844043.6415317,-1.5151947698125676,-2.9346027340048217,9.250910856048275,0.025526850661048137,-0.0012787466893936315,-0.0692460042656962
