time,ax,ay,az,wx,wy,wz
1681944481.2061665,-0.20171150947224598,1.5759968712793966,9.74728433786298,-0.0014015223694414153,0.0002891902067250635,9.331010866398676e-05
1681944481.216165,-0.06958498273040857,1.5686862722409325,9.657187160061095,-0.0014115820806731658,0.0012384022971547585,0.0008391320856981
1681944481.226168,-0.24312304527738085,1.424447552178905,9.70366258499988,-0.0005253283667042832,-0.00021744776371515764,-0.0021925290662101
1681944481.2361937,-0.05334448016542792,1.51024352869324,9.622281029834657,0.0014975016590063285,0.0006770124939797014,-0.0002833045169017
1681944481.2462034,-0.1414127385853037,1.7096383145204432,9.753479662926054,-0.002003532292343559,0.0001789183865883883,-0.0005340302909961
1681944481.256299,-0.019763502480614748,1.6512383716613253,9.663043602641883,-0.0026152306217608603,0.001391496892900414,0.0023635067895748
1681944481.2663438,-0.16330475197748887,1.3960512089891277,9.66329049652841,-0.0003673576854081526,0.000953036888194451,9.406331579620704e-05
1681944481.276404,-0.08944488938116317,1.545410422372398,9.676694805421933,-0.0002105368352513773,0.0015520716677386674,-3.632300880317824e-05
1681944481.286302,-0.20811281885462002,1.5619778754219675,9.73910009655716,-0.00016024208855648542,-0.0004916282773091016,0.0004941576312058
1681944481.296142,-0.07472086401146652,1.430664097184629,9.619130249551842,0.002665755225503766,0.00025045378955563976,0.0013081270712656
1681944481.3062243,-0.2210848067136168,1.5065496844088042,9.713898628471767,0.0034651978869299476,-0.0015119132419145786,0.0006707381375827
1681944481.3161716,-0.1767802858555864,1.6462019665672942,9.741053569044329,0.001150669434044979,-0.0023006443358709345,-0.0002397332887402
1681944481.3262842,-0.06250821651889173,1.5149238468590425,9.642364184957234,0.002477259375835715,-0.001371913022134835,0.0011248370551266
1681944481.336353,-0.05814564286478473,1.5457606775191206,9.651197142890917,0.0024291998441333725,4.221409076290177e-05,0.0005336485023372
1681944481.3461702,-0.06280599873839827,1.7097983681750188,9.710757570153667,-0.000899747510095422,0.0012391405643408535,0.0008364967338503
1681944481.356311,-0.2211899732910597,1.5554779810860482,9.734346200214716,-0.001384378400018711,-0.0006354319221374297,0.0001227374573
1681944481.3662336,-0.11626353765591925,1.4488579283071144,9.639705702510456,-0.00016696475307001788,0.0001334640082342053,-0.0013677609700015
1681944481.3761704,-0.13940175671810934,1.4924722687453844,9.678536976488084,0.0009510020030910945,-0.00018729448967785058,-0.0016471593722007
1681944481.3862123,-0.07299491076734752,1.7044752550637394,9.707453654115206,-0.0014186623452594226,0.00024076487982212808,-9.85345418802394e-05
1681944481.3962638,-0.1001891821893179,1.5216959586424983,9.668900711759091,-0.0015203290252046359,0.0010581193785579417,-0.0012328777543506
1681944481.406301,-0.17940666227199398,1.6229127067602866,9.73144854097513,-0.001975219501955536,-0.0007650754550194038,0.0004859550076299
1681944481.4161923,-0.11144518575637634,1.4904453746390258,9.664524837041965,3.756242617352611e-05,-0.000967343365411335,0.0016474998678541
1681944481.4261754,-0.2250672909822641,1.526861999537437,9.73226518655305,-4.55054877777989e-05,-0.002680609483551736,0.0006468854530477
1681944481.436207,0.0729244420952696,1.5518080190067272,9.568114282321627,0.00013402792278893123,0.0014321170703080702,0.0009042941651069
1681944481.4468875,-0.1730006796636303,1.5611083052725736,9.715952664260158,-0.0003070315278501062,0.00034991720556510345,0.0006252764410101
1681944481.4562025,-0.03259218459492056,1.4442483736306284,9.609090523632663,0.002751805167694786,0.0015062549654483097,0.0021053335489933
1681944481.4663155,-0.25429660255812886,1.459506061258749,9.729319605375231,0.0029213073309541844,-0.0002703224895890351,-0.0011870692565343
1681944481.476311,-0.05384587016411723,1.7144503827727646,9.705489082547583,0.0005233611707229449,0.000724294087446411,0.0001659574604355
1681944481.48617,-0.16562297362974276,1.502476435850287,9.697327011425548,0.0010459866191792312,9.174886501023964e-05,-0.0018524210050008
1681944481.49623,-0.045765643965806936,1.6133113012248526,9.652657768811853,0.00019178676289413903,0.001490964935929446,-0.0007117364171198
1681944481.5065944,-0.2698920160500065,1.377763026677266,9.687531955129309,0.004064616296916057,-0.0015529326563217482,-0.0006427889771065
1681944481.5165308,-0.09791143727210193,1.7481038055391491,9.737581346501939,0.001227428380743309,-0.0019642199410643923,0.0019164722593496
1681944481.5261655,-0.07798368237394353,1.4734661020418505,9.63873744245594,0.0018856766986190656,-0.0005601686554331312,0.00027025022197
1681944481.53623,-0.08948509821659059,1.573791452847353,9.673130123650427,0.0015168757799042558,-4.384265248101833e-05,0.0004289528273739
1681944481.5461783,-0.20060745764584542,1.4776399582167548,9.707753537365836,0.0021471973533096706,-0.0012321933928801571,-0.0008681846398166
1681944481.5561745,-0.02683155654995147,1.6387603600900147,9.66787113268513,0.0007129745379252982,0.0005741665557271783,-0.0002468159969202
1681944481.5672455,-0.01731914212968448,1.624502515386475,9.661405716682257,-0.0004157892347218974,0.0024815331480283675,0.0009508633788437
1681944481.5772767,-0.13108243500121675,1.6258531665322271,9.712702426592147,-0.001382155438900807,0.0019380074695123579,0.0024633311818116
1681944481.5884154,-0.1779116673708102,1.4424999648850356,9.677852599515743,-0.0003074145067967155,0.0015021464670687912,-0.0003354830282977
1681944481.5962417,-0.3166684438116605,1.6103210381521462,9.817135272359293,-0.0011463305874172226,-0.001642378684221629,-0.0002319094806215
1681944481.606166,-0.033710292767843715,1.5217761195311128,9.612682811007344,0.00013405402801542815,1.7623878385178504e-05,0.0002650497167133
1681944481.6162162,-0.03743419791057343,1.649374019166949,9.676844755411716,-0.0003819152034339805,0.0007831540658979715,0.0030728185933777
1681944481.6261652,-0.17795168074302734,1.4608206099376135,9.687526933397123,-0.0008580079153196442,0.0011672353545900628,-0.0015450819942406
1681944481.6362145,-0.16680576372563993,1.4948079668498864,9.687487490130927,0.00013739545070877814,0.0005615183663050427,-0.0026965594466081
1681944481.6462176,-0.08322435312345718,1.7114624960807248,9.72914061600862,3.420483159251279e-05,-0.000769141865127716,0.0032597991789453
1681944481.6565945,-0.10191488803943634,1.3307244239923577,9.603564533454534,0.002043269584176612,0.0014324862837789569,-0.0023407849098793
1681944481.666164,-0.19209179355831169,1.7081169508940865,9.759969239452117,-0.0001349223757370266,-0.0004774582535634202,2.4215237000094203e-06
1681944481.67616,-0.16753093990675305,1.5750828190914992,9.704875667664044,-0.0013981631844230437,-0.0006838479269113632,-0.0013647718901983
1681944481.686241,-0.059980880858688336,1.612445674990144,9.66197782151365,-0.00022023096135089177,-0.0008209428183116216,0.0029379477177509
1681944481.6962316,0.052387632084688864,1.5054052383744336,9.572556384151603,-0.00026012855730966986,0.0037082721220370713,0.0011423570954003
1681944481.7063105,-0.33424268754615294,1.4369189315850643,9.766041068111015,0.0011596271561710335,-0.00029342675818384736,-0.0008935033424994
1681944481.716236,-0.007616057150139015,1.597505632315244,9.637590761845932,0.0005326544908137819,0.0019521644628149933,-0.0003119992639175
1681944481.726246,-0.14917652173636653,1.5878124420744915,9.722326212161205,0.0002260621297076194,0.0007820534589533135,0.0007169312716224
1681944481.7363276,-0.1660656345261672,1.5920294089294298,9.723290656273633,-0.00026754018984565155,-0.00044021524854836704,0.0014765131322429
1681944481.7461815,-0.11986100442091092,1.5187284923593916,9.666329919073958,0.0008854279733982308,-0.00042305687797335656,0.0018929926495412
1681944481.7561803,-0.2425462653758957,1.5672434747635045,9.764539776098578,-0.0014261139390459475,-0.0018122505542346732,-0.0015476759604415
1681944481.7661932,-0.027991859054893698,1.4604701933020146,9.59273583978686,0.0011126792664069084,2.693178475942594e-05,-0.0004859798669121
1681944481.776254,-0.19126983289032568,1.5720891077911399,9.727460762446247,0.0023986582618136048,-0.002581507540044208,0.0027363976382413
1681944481.7861855,0.033456504855236054,1.5809030833340527,9.61733563022106,-0.00011928046183854691,0.0017591985161521779,-0.0004580283153108
1681944481.7961986,-0.27820323417358445,1.5706304569519478,9.783408845447866,-0.0003871169184880073,-0.001788027021931899,5.307685702527626e-05
1681944481.8062265,-0.05239755479261899,1.460237957447841,9.611312853455775,0.0006905981508267476,0.00034172025608740747,-0.0018729024182311
1681944481.816192,-0.23809754862783344,1.5967208634386436,9.765197656039053,-0.0005279342275438193,-0.001986577560954672,-0.0021150430280021
1681944481.826236,-0.05273817357875377,1.5449236883088562,9.641991292967813,0.001372709133861756,-0.0015328270154253499,0.0005835729802721
1681944481.836209,-0.090687955153081,1.6085490348829863,9.689725065109396,0.0003076513289226279,-0.0009677220462399809,0.0008219742716983
1681944481.8462455,-0.21918902316908778,1.5763867755498833,9.752758864949072,-0.0005938631876264749,-0.00297565416313797,0.0003250271233492
1681944481.856252,-0.05001992926347281,1.584622800771739,9.657743052190543,-0.0012796988882609521,-0.0015801526911994718,0.0001391295495205
1681944481.866328,-0.10828195506027709,1.4669459960642781,9.655009568265406,6.0661791592580826e-05,-0.0010567551025143097,-0.000539245697414
1681944481.876337,-0.12197383121352423,1.632090356353402,9.70558875348898,-0.0016723344583736996,-0.0009937854731172488,-0.000411451709201
1681944481.8862529,-0.061186960242904556,1.52412837365221,9.642318950468825,-0.0004538038762502196,-2.857151408029023e-05,0.0005086819560029
1681944481.8963518,0.018422574135355377,1.537312162950361,9.607576810775784,0.0008988371855058577,0.0023734953016099378,0.002180578446737
1681944481.9212446,-0.14001477358930753,1.519375497934613,9.68910368702599,0.001317952754688022,0.0024908169811406478,-0.0010209685738435
1681944481.922323,-0.8430818751309597,1.8325473025997188,10.177156020822313,0.0012657733442978662,0.00046057344404904876,8.548234242434366e-05
1681944481.9261706,-0.02593596712068431,1.5544409952891378,9.62321741988495,0.0005080532327054656,0.001829239596570713,-0.0013699879951081
1681944481.936213,-0.09340231918821768,1.6678187916259097,9.708503077151693,-0.0016596847190537226,0.002167841311995602,-0.000929677541112
1681944481.9465635,-0.10893301347098293,1.5365568006907915,9.670304528414421,0.00022976086346390573,0.0015330773480455799,0.0019704745040736
1681944481.9562304,-0.17927639857118602,1.6204618746201616,9.739932419862365,-0.0005961014252713552,4.331922616164451e-05,0.0023828790558264
1681944481.9662566,-0.12818693173097281,1.4222377827815353,9.634949480374946,0.00034637714815167906,0.0010830574671674782,-0.0008421171537837
1681944481.9762497,-0.21809985115195069,1.576589353595768,9.749491023791292,4.3531273450703216e-05,-0.0013186482364362997,-0.0004185446619293
1681944481.9862287,-0.0065835091564602315,1.7508151463157502,9.692097658263156,-0.0022427002752521746,-2.5972748820169268e-05,0.003056404731492
1681944481.996232,-0.2752727244789585,1.4274849617195953,9.728124303522527,-0.0020459857941866923,-0.0017161267436631628,-0.0012425807385942
1681944482.0062282,-0.0724636100904553,1.4095808692285385,9.616605477341848,0.0009126339636889025,-0.0007598583226045043,-0.0015126701059988
1681944482.016245,0.029439236106530518,1.603634488587274,9.622305478977529,0.0010854809946752354,0.001754356041739165,0.0006930798676558
1681944482.026254,-0.2871164579193517,1.641642306326364,9.80927727534557,-0.0010211629500783525,-0.0014780941849646858,-0.0002140262245437
1681944482.0363655,-0.036121756150103025,1.5003893787196847,9.610423592256675,0.0007155758292642531,0.0002266014015645147,0.0010451074026287
1681944482.0463233,-0.14698684263271383,1.4669724316121557,9.659198100901566,0.002752179174083923,-0.0004543530940377338,0.0013423789909803
1681944482.056259,-0.04456279349972808,1.8150038448374992,9.72836650413067,-0.0032768236207806984,0.0014611676119418299,0.0004665795399569
1681944482.066259,-0.11172098646827176,1.3437214638189257,9.606131773627261,0.001526167597064179,0.0014433080440727402,0.0011173793731951
1681944482.0762382,-0.1396418643451582,1.6728938960963862,9.73494323948946,-0.0007972877276020039,0.0009724088867030473,0.0011416229221732
1681944482.086202,-0.25543989549886104,1.3493383837108412,9.696594635926033,0.0031250891520522325,-0.0016967519022668966,0.0005589753540926
1681944482.0962377,-0.007218596855297775,1.6602150864893253,9.654547707916326,0.00043951008168347796,0.0012231197819622733,-0.0002945092587969
1681944482.1063142,-0.25321768601141587,1.6719412080762797,9.804346015457329,-0.0014573860277459284,-0.002055888071542127,0.0010216494824499
1681944482.1162467,-0.05552520380242572,1.3481276963593416,9.5846576572164,0.0022690225142380596,-0.00036197194976338973,-4.78629104099168e-05
1681944482.126248,-0.10957397543807214,1.542592189394773,9.6679936151274,0.00217774035944228,0.0002407748888609381,-0.0007690923835388
1681944482.136414,-0.11552891621847923,1.6169430859199818,9.702103947189661,0.001061648692767537,0.000434481434796665,-0.0004744172643176
1681944482.1462386,-0.15293695675120186,1.5731352156220006,9.70207561077667,0.0009785682490400958,-0.00028598853240578915,0.0002609477064334
1681944482.1562655,-0.19846180671333052,1.5337306036131546,9.725782978766258,0.0013030411313428522,-0.0019020096388865503,-1.5475935047019884e-05
1681944482.1662114,-0.013972845311832332,1.6014959368431192,9.636333779422568,-2.164613090706092e-05,0.0006397613805660005,-0.0004375119774839
1681944482.1762288,-0.23717386673931581,1.5584662257506394,9.743753429583046,-0.0008982250334022768,-0.001019122319689669,-0.001899721248751
1681944482.1862743,0.04091250594585132,1.5724890239744616,9.616455330872485,-0.000811036264525703,0.002169334145741184,-0.0015055946155688
1681944482.1962056,-0.27425405599878727,1.397446400294674,9.714764892957291,0.002001150160687852,-0.0006253730364306605,-0.0025162679690173
1681944482.206777,-0.046517057943136216,1.6606740910190787,9.67467611854901,0.001323536569518025,0.0001830259659151764,0.0007359204732575
1681944482.2161934,-0.26824021301792633,1.5749642565268935,9.778154562496411,-0.0001341702207795393,-0.0020551379669834645,-0.0013327320653251
1681944482.226278,-0.017577902365112003,1.4231110149540858,9.583303637831316,0.004298175247993996,-0.0006804780708367276,0.0012895004742541
1681944482.236325,-0.056754925525556964,1.7001435192634395,9.698659137738204,0.0009402065144406909,0.0007138746252956237,0.0008305452333525
1681944482.2462883,-0.14396803321209556,1.6650110630536499,9.735917507179716,-0.0007861090126258802,-0.0002967962077549973,0.002136625027074
1681944482.2563603,-0.15355678879084841,1.428119008183353,9.65805461480322,-0.00037783167144953266,0.0003763547044469581,-0.0019187328021279
1681944482.266232,-0.04789218887609289,1.5495274160103873,9.648914785782308,-0.0006467859517729607,0.002029243177274844,-0.0024216702754846
1681944482.2762685,-0.22108597861645043,1.5953924841199396,9.755560869202462,-0.0010911791324344211,-0.00040372623661423,-0.0015663021791032
1681944482.2862134,-0.17613118151900758,1.556464826478798,9.717167050915208,-0.0006415567275743434,-0.0018837688583146165,-0.000208071115171
1681944482.2961974,-0.057907462517795466,1.4939828824585848,9.625505715112054,0.0018614772166673588,-0.0010880615052628884,0.0018914916267613
1681944482.306224,-0.19796424222417586,1.5699799932444476,9.732938519660463,0.00033148753431658397,-0.0018208025328509728,-0.0003157273481837
1681944482.3161995,-0.023304114151753347,1.6769131312882524,9.670481538322852,-0.0021227266567260313,0.0003014838464054711,-0.0002032312645814
1681944482.326221,-0.15245761635939648,1.4998475791510664,9.676009501238253,-0.0012886550887327324,-0.0002617780662706123,-0.0008111916563711
1681944482.336363,0.01586379549235887,1.4401049765053444,9.579097414998147,0.002181079311085999,0.0018474921377921029,0.0009981851012208
1681944482.3463397,-0.2959718482163979,1.5016563716036038,9.775224714911445,0.0024310685339781557,-0.0014460414739948426,-0.0002333921461603
1681944482.356429,0.007943600062212869,1.7014150794096383,9.658469268981545,-0.0004433879988762076,0.0012346746866026788,0.0007463636261173
1681944482.3663616,-0.1884973185766827,1.554406734739405,9.714403696918616,0.0004026376497506461,-0.0006730432989187118,0.0026868566905842
1681944482.376257,-0.1458566243173144,1.6425038070973619,9.727896089325395,-0.0024460871778820546,-0.0005001970391706299,0.0009795661003091
1681944482.3862667,-0.014780352527859983,1.442395971267126,9.580152721389897,-0.0002194884505681829,0.0021570538990135823,0.0002732396510192
1681944482.39636,-0.15190263624124087,1.5777406120473325,9.713831551097549,-0.001182867336706002,0.001746881281086059,-0.0007288720540008
1681944482.406304,-0.2690057364905047,1.4890394723375855,9.749121455579573,0.0002849325143407299,-0.0014445430247938742,-0.0005336517083696
1681944482.4162462,0.046050277483994304,1.4165025992411633,9.550534743693515,0.0033471054996092355,0.001904877973890498,-0.0002359802915952
1681944482.426259,-0.13049670548891468,1.6807083243035699,9.721221969363421,0.0023744273122973,0.000589104489194755,0.0030660790775665
1681944482.436271,-0.25001869616496947,1.5825427471133287,9.766412738460367,0.0009916104770544064,-0.001684836867519591,0.0014947581489333
1681944482.446248,0.07599452103008132,1.560069142442412,9.573650474484243,-0.0004668666443494816,0.003363681289507481,-0.0009832947130552
1681944482.4563944,-0.3375491303159495,1.6053056338769547,9.816419885621563,-0.0005812024941755954,-0.0015511066409682674,0.0005872802261957
1681944482.468187,-0.08772626672906687,1.5259604469322552,9.646154669174484,0.00047639891781827624,-0.0010884181519483262,0.0013785261812382
1681944482.476276,-0.23728796806679786,1.518280933138485,9.73469864696602,0.0014673392194144233,-0.003386166836879746,0.0017402532516508
1681944482.4862466,-0.03490454222152872,1.5069458893637853,9.63009651497393,0.0027071110629664033,-0.0017649218366465277,0.0016981718703983
1681944482.4962385,-0.10297245233813732,1.56941372873861,9.676480613162715,0.0010694525705783168,-0.00039028931825874834,-0.001104004828935
1681944482.5063066,-0.09205876598158999,1.6025999652844298,9.67507190870499,0.0007386701176127669,0.00016402566622796227,0.0004293522483431
1681944482.516232,-0.20135749100641193,1.482650074122154,9.696638548931974,0.0019017039922448965,-0.0010604692210146299,-0.0003108730620942
1681944482.5262356,-0.09708615902875023,1.5955619931212635,9.686097295067222,0.0010747048788642642,-0.0006089695491925466,0.0001030082034641
1681944482.5362654,-0.17026972059484038,1.5628327789670133,9.705336618464365,0.000351229234756699,-0.0010712911127041594,-0.000963186993008
1681944482.546244,0.015178095744304829,1.6816348249140458,9.65792120942613,-0.002708339518474011,0.0019764140216474552,-0.0014508007175526
1681944482.556345,-0.16987297648946925,1.337384913656697,9.643970468902381,0.0025718713943009017,0.0005123312038609855,-9.670286320661442e-05
1681944482.5662365,-0.245874605045841,1.6057240879266905,9.774665784594433,0.001715807738743186,-0.0024354496543221717,-0.0001659914001128
1681944482.576403,0.12283750030403605,1.6775192419495453,9.595047079541322,-0.0004929460219480536,0.002514681973345621,0.0003708455164679
1681944482.586246,-0.24555351519950203,1.491054437652564,9.731702262225712,0.0005479270233993354,-2.448034979482288e-05,0.0002944605343737
1681944482.5962532,-0.1357787561723479,1.5390178255820381,9.690047315080418,0.0006082792252718192,-0.0002204325548203324,0.0004650883760997
1681944482.6062417,-0.10586176939550279,1.5411452447625797,9.684013986671307,4.8004636419105346e-05,0.000616263598340983,-0.0013103859114698
1681944482.6162562,-0.14989332525916357,1.468997188217868,9.673814940617183,0.0017038873297074244,8.726196388390863e-07,-0.0014690672128698
1681944482.6262982,-0.17879971258325558,1.5646175163945184,9.719027970252482,0.0013391901118176017,-0.001260522819052426,-0.0015297950326702
1681944482.6363618,-0.10291875078596166,1.8376273431326153,9.770096349612315,-0.0036381757328004766,-0.0015656195781520031,0.0003406740410947
1681944482.6462717,-0.03444648621262727,1.3499686140168567,9.56344944699796,-0.0003844919541723623,0.000810367304690628,-0.0014802447135797
1681944482.6565945,-0.16366814565819235,1.4407087927544595,9.66190156866174,0.0025271808598843204,-0.0005068982122590489,-0.0003436605061641
1681944482.6663666,-0.05572214571005392,1.714130409853458,9.704048622796398,-0.0008181354107282631,0.0007194690706960577,-0.0002833089406839
1681944482.6762755,-0.09175803029260937,1.4797707585479096,9.64655829191183,-0.00040911222004707013,0.0020814602707545167,-0.0024912703397921
1681944482.6881323,-0.17078557398410743,1.6021542570928096,9.73989919194979,-0.0005931365896441387,7.64806041129085e-05,-0.0006498851894638
1681944482.6962807,-0.1867406365898507,1.47839875425719,9.695748464072016,0.0008254703957033083,-0.0013149215114765128,-0.0003280203405073
1681944482.706423,-0.0364023302524709,1.465265003867667,9.599381892441704,0.003230884982976849,0.00044117501846836765,0.0006542972673424
1681944482.7162726,-0.14652073663421733,1.8727786591480142,9.81057301388655,-0.002756029818552858,-0.0004558600385754017,0.0017439967682231
1681944482.7263,-0.09783326161089141,1.2536384099596924,9.573666631570385,0.002223917765065188,0.0009034915826407636,-0.0005847249727002
1681944482.7363002,-0.004525166497833099,1.727122076041744,9.687715870315358,-0.00015206274308248252,0.002489721570265023,0.0017808564930101
1681944482.7462676,-0.256359920050707,1.4969180705133294,9.740161513263441,0.0005766107519443162,-0.0001276670896573434,0.0008040857769311
1681944482.7562816,-0.16634585961401074,1.615135992674653,9.718804234825937,-0.0012491545271637134,-0.0005136067707220119,-5.78098346059458e-06
1681944482.766265,-0.05502097323977412,1.51392518459351,9.619499807292692,4.835889988099781e-05,0.0008312324072772097,0.0005232154776104
1681944482.7763128,-0.19389501378859808,1.5074647249051984,9.702783821914963,0.000505482320759737,-0.0002342073213103975,-0.0004989964968762
1681944482.786317,-0.06608740905601422,1.6461065914087363,9.69629913464686,-0.0018809895088936145,0.0012320585119761757,-0.0012310248880884
1681944482.7963352,-0.180556440674879,1.4266098940746716,9.673438675442842,0.0007200502612433354,0.00017930699045355525,-0.0015912516123852
1681944482.8062668,-0.09583150041743192,1.7395685906072578,9.744946950146357,-0.0009325024123646176,-0.0008187082536401662,0.0026767963113025
1681944482.8162613,-0.1657281713859454,1.442439580386227,9.674161965427318,0.0009819267174350946,-0.0015592900408563746,0.0020833539578826
1681944482.82632,-0.08023192732872163,1.648541053855023,9.709559711606948,-0.0013869968189047885,-0.0005840167529545582,0.001482097051362
1681944482.8362732,-0.13064080936699204,1.3746316998624328,9.625052973421377,0.001992598550191962,-0.0005475103009334525,0.0007731633645244
1681944482.8463762,-0.10817761506093744,1.7034075146303742,9.747560176190762,-0.0011072231833958493,-0.00035005683676567087,0.0003812779591181
1681944482.8563714,-0.034842536436082455,1.5868209015340804,9.644230068056677,-0.0025221020980474977,0.002052747576706142,-0.0007269814691743
1681944482.8662534,-0.09722327517318506,1.4305128175470057,9.620745080599455,-0.00032232200168058655,0.0029676963528577744,-0.0015253137412718
1681944482.8763196,-0.2939450864710075,1.644711315384838,9.79417380709466,-0.0021961082570502227,-0.000569483050090461,-0.0012999539344808
1681944482.8863788,-0.048703507963442624,1.455637564678145,9.618830564287087,0.0010385433685685948,0.0003126781177324837,0.0005563671852224
1681944482.8963394,-0.19480256145190125,1.5485640129788727,9.719341550053846,-4.662348636257946e-05,-0.00041973604306338536,-0.0013658866833201
1681944482.9062953,-0.13303395723676664,1.7311431346903186,9.751341792580556,-0.002164825713962571,-0.0016662109047760854,0.0013964179356345
1681944482.9162805,-0.07913071355767001,1.4359907455877108,9.631002776040896,-0.0006255432669908781,-0.00026401217931485815,-0.0005291878792694
1681944482.9262607,-0.1376285827310424,1.519744849785863,9.67618876645632,0.0006418143663939587,-0.0009517062529305989,0.0004315734526836
1681944482.9362962,-0.003290431019660218,1.4581689462300622,9.590052494971301,0.0019668827667175307,0.0018609144888396864,-0.0009132464497587
1681944482.946815,-0.255756083759857,1.6750175892892865,9.795001041220129,-0.0009228192937020904,-0.0009110984541457667,-0.0010861176147363
1681944482.9564726,-0.0685472655071026,1.6209095874648984,9.693098316974169,-0.0019908597030130677,-4.980066710214909e-05,-0.0006178390781632
1681944482.9666862,-0.14241171394174207,1.463960993316234,9.679431631045155,-6.337818844344875e-05,-0.0006480847412877957,-0.0010659947606972
1681944482.9769895,-0.06724939228801026,1.653835160311433,9.681817370801717,-0.0020243948593358443,0.000577524160333797,-0.0006983153603277
1681944482.986554,-0.04658089166515596,1.4317531222918516,9.588066422533327,-0.0007577939851134486,0.003038079435209312,-0.0029644180636159
1681944482.9962783,-0.28216075559454923,1.642586035365622,9.800082047825812,-0.0011988692807787802,-0.0011569682881608606,-0.000244946134021
1681944483.0101175,-0.07203830178329738,1.553881759023256,9.648566491412,-0.0007600278977137571,0.0002813701963453186,0.0004151707666688
1681944483.0176082,-0.12584777764719532,1.5335080193533464,9.692425839136535,-0.0005648229114984753,9.212806265260924e-05,7.356339252973659e-05
1681944483.0284278,-0.17432587290144907,1.5805963387132451,9.738717489716391,-0.0010882181667261144,-0.0012236406791632283,0.0001041156624206
1681944483.0379436,0.01772382804714564,1.59697732146123,9.612221029217247,-0.00028915288143150595,0.0006173835503818388,0.0034799866529875
1681944483.0499213,-0.14710355110960438,1.4289522537040817,9.663220124956766,0.0021259556042668892,0.0004013342976484056,0.0019019429141418
1681944483.0573869,-0.0813675249196613,1.4398856930377615,9.624897931299225,0.0023174215152693307,0.0019082068152115983,-0.0009121682110479
1681944483.0662923,-0.10135732181049657,1.6788323804528527,9.713771283722298,-0.0009857876994394032,0.002707663275861655,-0.0021884037728658
1681944483.076404,-0.3066854526310554,1.630538208762626,9.808800409609633,-0.0005379899847933228,-0.002346448379820894,0.0013435141276796
1681944483.0863333,-0.10928507738085658,1.6045406825981554,9.701536375196346,-0.0017002759550422402,-0.0020849076069999603,0.001048848176165
1681944483.0963497,-0.04474393098776009,1.366837608662551,9.582527193454471,0.002179989301626171,-0.00038509855536329545,0.0010197968490184
1681944483.1063128,-0.08815694486936897,1.5309276082113834,9.652959777572146,0.0018107982385835962,0.0010663026690713778,-0.0009821754961511
1681944483.1162868,-0.0802036517953844,1.731518833469404,9.728285747663064,0.00010127290395167426,0.0005752911343453698,0.0025319132523373
1681944483.1263013,-0.1424091269305615,1.5273067432974363,9.685517184689148,-0.0007905831106805066,0.001335623777273129,-7.433691874658005e-05
1681944483.1363556,-0.17862850942487793,1.616891789247043,9.745214929782842,-0.0017602503953356701,-0.00015374170808382412,0.000451682336884
1681944483.1462922,-0.029363222644212487,1.594791615956479,9.6504580134048,-0.0022341279801506107,0.001357968196028376,0.0015290252608475
1681944483.157261,-0.2513247775623426,1.4143050713576484,9.70054091719895,0.00015230480158892837,-0.0007699132689072438,-1.0639693332363531e-05
1681944483.166384,-0.017213660178708585,1.5152847119824238,9.61344276671772,0.0005956052744998224,0.0012890834458287159,-0.000284032811155
1681944483.1763625,-0.19389806408749266,1.6257881387850543,9.758209890371592,-0.0016838934701708707,0.00019754079682746996,-0.0017812614410421
1681944483.186347,-0.10428039279948634,1.6003242384986298,9.692463818493628,-0.0014231226523753243,-2.2618976881945083e-05,-0.0001506987341917
1681944483.1962976,-0.0994963778134952,1.4355391875451462,9.634869376429764,0.0005076995586638416,0.000777956619805806,-0.0012231992173246
1681944483.206334,-0.05877452275187292,1.7419051281242661,9.725678934558022,-0.0024188981591262886,0.001303215018731622,0.0005358789034881
1681944483.216363,-0.30592964823130486,1.4812058741748775,9.764826871118165,-0.0013579320748118681,-0.002371785469127344,-9.48175170696272e-05
1681944483.2263942,-0.013960168944625718,1.473030293608955,9.594305011130977,0.0011264621062313303,-0.0004860321544480635,0.0014176427771099
1681944483.2363207,-0.11522287011865044,1.5981129572191604,9.700388397979735,1.595493416588668e-05,-0.00035564982441660175,0.0009583230980434
1681944483.2463193,-0.24644224313307964,1.5237798229430166,9.747089103134941,-0.0005394867404827446,-0.0021694963815712463,-0.0013904731336287
1681944483.256355,0.0019542066250767746,1.551171224030189,9.610538955149462,-0.0006195931417105847,0.0004735901932981305,-0.001729481535708
1681944483.2663803,-0.029251959709092473,1.618360441421571,9.656048290397171,0.0006224378229136523,0.0008137069054541188,0.0030530636117556
1681944483.276301,-0.23999390270557594,1.4721982659622033,9.73312519240832,0.0011201459351974016,-0.000946849533392013,0.0004166800913163
1681944483.2864714,-0.12335854278947082,1.5270239476922138,9.665129534275183,0.000998309301306969,-0.0006522116411312238,-0.0005902970756641
1681944483.2962992,-0.021793105502833927,1.7075293671489242,9.685562808746054,-0.0005041015755418841,0.000298136777287754,0.0026224108564429
1681944483.3063464,-0.20180196423355334,1.4716122716272193,9.687792744625273,0.000633608602299988,-0.0009088512336035799,0.0014895473700244
1681944483.317464,-0.198302141668763,1.529357624706538,9.720450962111487,0.0001865643006340141,-0.0020797201101142985,-0.0001723099581203
1681944483.3263223,0.034030387525450144,1.601309508851865,9.637559102254777,-0.0005286593256651631,0.0005160559500340262,-0.0007363033096543
1681944483.3363645,-0.10854712848884222,1.5532351999490879,9.670695046990497,-0.0011601298008929854,0.0013289144801427804,-0.0017548130440763
1681944483.3464592,-0.23390492115930608,1.6180427824008914,9.779394679742115,-0.0017218765397350021,-0.001707194296392722,-7.917036649351256e-05
1681944483.3563511,-0.023328040941910773,1.4147714745337947,9.592095652467888,0.00035233815828674997,0.0008774275121064298,-0.0019116389180771
1681944483.366392,-0.11524291454427718,1.5911515641371654,9.689275498442504,0.00035680558504434334,0.0005745586287273815,8.510981339449747e-05
1681944483.376397,-0.13143293303562478,1.5756934013047725,9.691572712494958,0.0010266240510044713,-0.00011908783251781594,0.00218095213992
1681944483.3864212,-0.15226410395030837,1.5583339954015036,9.7130820837635,0.0004134483154458763,-0.0005814066004093171,0.001335316073405
1681944483.3963158,-0.0803829667719324,1.6042633386173568,9.6772328556556,-0.0010353304806351576,0.0006676662372733545,0.0005019463983126
1681944483.4063816,-0.10922243388933066,1.496737888390883,9.663125353327478,0.0011223642856899153,0.0003041008592465836,0.0020125796849834
1681944483.4163835,-0.12135646536749417,1.398782080457567,9.638992862350836,0.0029674849503852022,0.0011892386884785635,-0.0002889285410991
1681944483.4263985,-0.24811772023148437,1.5844636064677053,9.757792498253728,0.002082384747257643,-0.0014933689528717467,-0.0005913850932619
1681944483.4363737,-0.08853977852705976,1.6247741065688086,9.685399884370126,-0.00021614666028885903,-2.59575922911474e-05,-0.0023970479692569
1681944483.4463644,-0.05651328279210623,1.5933073174096262,9.659588555075796,0.0012855398417735146,-1.8515366858336337e-05,0.0017313180591964
1681944483.4563649,-0.11706551752023057,1.53561347116386,9.683251326681187,0.0007856065136856382,0.00044601676219519664,-4.937223505740301e-05
1681944483.4664185,-0.20255015226947765,1.5895489618774596,9.744389562473966,-5.370555513307927e-05,-0.0011871467946646926,-0.0002281837246618
1681944483.476331,-0.0928216621791451,1.7059181374020052,9.718923022243914,-0.0017569088133774355,-0.0015563137003192745,0.0020054991013831
1681944483.4863026,-0.043279574944530275,1.572083246566434,9.642251926862023,-0.0032093940712600816,0.0006091973920705945,-0.000135043085297
1681944483.4964635,-0.14280752483663725,1.3932787292481588,9.636182280673276,0.0007833601005409003,-0.0003198819743743589,0.000508684866386
1681944483.5064228,-0.09353734428853755,1.5462472481615122,9.665424748191445,0.001433416636923294,-0.0005448784701930611,0.0006960467121326
1681944483.5163882,-0.12376210927281953,1.6172235697299546,9.728510900955056,0.0004212634496737004,-0.0015242727520830763,0.0003548185026967
1681944483.5264473,-0.11033972864869987,1.6678893247043227,9.733075792777413,-0.0034556422882718466,-0.0010544952076822183,-0.0030266108538261
1681944483.53643,0.042878869700324375,1.4594287610079972,9.59428283221697,-0.0004213860813069519,0.001079686836086397,-0.0003552352159521
1681944483.5464108,-0.11587748100090434,1.6098130014412173,9.705302479737645,9.492888907043813e-05,0.000648681897528015,0.003321667636069
1681944483.556393,-0.3347928970680143,1.5484792033629289,9.761570641709069,-0.00066538893252325,-0.0023188936768701444,0.0034132830018871
1681944483.5663474,-0.03489231294667411,1.411371373255574,9.559152854011392,0.00034936672428366087,0.001817305440841372,0.000399523732508
1681944483.5763717,-0.22833182765633397,1.5210853119257874,9.72735697940711,0.0018450776546708734,-7.179752412084818e-05,0.0015550960065093
1681944483.5863676,-0.2037259103313426,1.382980135905221,9.661354055713668,0.0043547962872422545,-0.00046216217208914725,-0.0002162476617149
1681944483.5963476,-0.1343944131309299,1.6780585178791598,9.735044356858367,0.001855883803547299,-0.0008663886447637316,-0.0001112029736167
1681944483.6064556,-0.10726835259095273,1.7215381555892364,9.742667862378601,-0.0018008651682911983,-0.000954685516458191,-0.0005765002302131
1681944483.6163385,0.022104771253965604,1.471396808462137,9.602174504620564,0.00188568622431028,0.0005004070570680801,0.0020163096318948
1681944483.6264224,-0.08003542026131455,1.673244580683373,9.70073110101432,-0.0028152787119793605,0.002357104878766243,-0.0025005989323607
1681944483.6364262,-0.18603131561117714,1.581953920399355,9.735759334874917,-0.003133409639403077,0.0005521801630388066,-0.0018363976001045
1681944483.6463442,-0.165740649630983,1.3589936929832507,9.641727638849757,0.002402753495693798,-0.0013439613189955798,0.0014135631767795
1681944483.6563728,-0.09620949961215691,1.5005467620032682,9.651104668966799,0.0015790833977524967,0.000422573287602575,-0.0016989227465591
1681944483.666367,0.00647611763733332,1.6241194986497063,9.645230184267701,0.001035941919529714,0.002693861783534089,0.0003533113899403
1681944483.6763394,-0.2718318453971101,1.4966957434265449,9.745477589682231,0.0018249562024374346,-0.00024909811265792493,-0.0001775137230059
1681944483.686374,-0.19149579395088492,1.6204102968785379,9.73478790701462,4.048393986538505e-06,-0.0012154595461698024,-0.0012742424465021
1681944483.6963892,0.010956635960219343,1.6260310369662876,9.636755365684342,-0.00011594113859043216,0.0008129789801523404,0.0010980175261148
1681944483.7064798,-0.14521643929782294,1.4302665606885412,9.663737721306676,0.0011581060892172136,0.0008413218084047601,-0.0010350750840506
1681944483.7163374,-0.08448104264907039,1.6075379957170648,9.675431359647687,0.001821217292520902,0.0004963395674799664,0.0021925152372797
1681944483.7263377,-0.240124128777065,1.4535025605055736,9.71291414473223,0.0023680995798944305,-0.0010425651695401958,-0.0006782027508369
1681944483.7365365,-0.05599106041418143,1.665684664914253,9.696620216804456,0.0002633235475995734,7.38679558479013e-05,-0.0002497864502719
1681944483.7464235,-0.046526135523881455,1.6451073248430506,9.674908599077577,-0.00010659546935088507,0.0006073348314034889,0.0026764237822727
1681944483.756415,-0.21214852533492828,1.414357657189788,9.689075339063546,0.0007137082251222223,-5.428525906568581e-05,-0.0006860286544314
1681944483.770109,-0.21752907113974912,1.5316471912384013,9.721432293316047,0.00020409690191757686,-0.0018997728552090328,-0.0027461011509648
1681944483.781711,-0.037375387518831654,1.5983860405751111,9.676812421860378,-0.00013789310069047494,-0.0005944600836652175,-0.0018196312326244
1681944483.7877438,-0.05655611445723986,1.6590908364058707,9.69381474024887,-0.00015391041248644625,-0.0006093469682779451,0.0005150139017724
1681944483.7964647,0.0428882460623189,1.6347490252234145,9.609559061307584,-0.0011530439193364417,0.0022345411852388915,0.0014034882164788
1681944483.807259,-0.2627803451553176,1.470032733124391,9.731064523418512,3.867421533808911e-05,-0.0006249839453417973,0.0002296577126481
1681944483.8163571,-0.035263924196496314,1.6317970038925933,9.675644589078624,-0.00018595896037425244,8.952159762383417e-05,0.0026004263467849
1681944483.8264923,-0.1790567265990291,1.4868324900003667,9.70684198195698,0.00018508654161697343,-0.00046293342883987215,0.0001544112724014
1681944483.838487,-0.08763541592676638,1.623036486774965,9.69051472839505,-0.0019629305949092814,0.0007086468585299034,-0.0005373916669986
1681944483.8477592,-0.1894234344854944,1.3844695869742072,9.66759648062098,0.0014751507808612892,-0.0007013518442700136,-0.0002680468919924
1681944483.856367,-0.04813622414688807,1.6896929328476027,9.690891920591499,-0.0018262110673346829,0.0012000309396557765,-0.0018684299743971
1681944483.866367,-0.013194010930181492,1.3632425596003692,9.54788436901942,0.002819961859485017,0.0030187262671180362,-7.210314155136482e-05
1681944483.876856,-0.25819730433487276,1.700093779667243,9.800352341672044,-0.0001211522658462626,-9.938824762192909e-06,0.0002453083556839
1681944483.886872,-0.03227514285730513,1.5016672554756247,9.616611201343032,0.0004346874073446566,0.0023399464338252057,-0.0001984144642255
1681944483.896856,-0.17783985084798926,1.6897206436503338,9.754773159054134,-0.003040671663916985,0.0016865224574485458,-0.0015715306240371
1681944483.9063723,-0.2790551123584645,1.5027641961860696,9.75628778469251,-0.0009332369474245939,-0.002311058705147375,0.0005604604643532
1681944483.916355,-0.004530343959616273,1.4951831616134164,9.606109165598577,0.00047750497609980793,-0.00020960953654060714,0.0012183467310615
1681944483.9266627,-0.11587920508268269,1.5585618084308615,9.694070892953617,0.0006336085258476738,-0.00044133149209673667,0.0020922984672007
1681944483.9364784,-0.16080221277045584,1.5115365484406738,9.706366949567183,-0.0004616352205520113,-0.0002595376707217233,-0.0013785529031655
1681944483.946405,-0.09829790763845399,1.4497183633581374,9.634508165273497,0.0015124163213043353,0.0003272035835787656,-0.001431442013686
1681944483.9564772,-0.13099073703723896,1.6429892056546194,9.71766781558604,9.195645666690093e-05,7.835717441153126e-05,-0.0008115481200865
1681944483.9664023,-0.10513117852255986,1.5117821409979846,9.670165750372107,0.0013917167578618808,0.00012343430774721848,-0.0001853219314715
1681944483.9764256,-0.1554261822269084,1.7984843482152384,9.783741385629119,-0.00259956758376094,-0.0013492017574690577,0.0020055026957062
1681944483.9911964,-0.06072022383668781,1.3773845954678814,9.599370244809387,0.002651598479339729,0.0005805200603698048,0.0017596525971976
1681944483.9963796,-0.14552159320544972,1.5146208499472666,9.68946375062644,0.0029261609524778554,0.0004188266590165118,0.0015323827951443
1681944484.006384,-0.19294261982895522,1.6334395814520393,9.748209966146169,0.0010672412186926578,-0.0008567219793586113,0.001010101024317
1681944484.016368,-0.15903088799496934,1.505273419668749,9.705082297932764,0.0008779951589915154,-0.0011517703044150627,-0.0009050719986907
1681944484.0263631,-0.08929483810728489,1.5707379540976185,9.663763346219968,0.0016081419749659218,-0.001212827795749739,0.0012086513720215
1681944484.0364013,-0.18599843107820252,1.4370206094407638,9.675628470534646,0.002632601945070502,-0.0015697301231736753,-0.0015070775139382
1681944484.046521,-0.02538215227446992,1.6760701101453335,9.683480411996971,0.0001739116169325565,0.0002772608854707678,-0.0012872944667241
1681944484.056432,-0.17317290990394832,1.618124514411173,9.739600293083583,-0.0005484252055246397,-0.0014311467057559664,0.0002922406106018
1681944484.066512,-0.043515618786976,1.4580578925208398,9.611476177911214,0.0010113370841760073,0.0004970859689094144,-0.0003850128582916
1681944484.076375,-0.04151662926671018,1.5377559182985678,9.648475591747337,0.0014390133901581368,0.0019231123975594153,-0.0004498331423154
1681944484.0864058,-0.17165657837385462,1.6169670196637884,9.739278178201081,0.0005781040608748246,0.0003800927759549737,0.0004773846280523
1681944484.0965402,-0.21028458299458988,1.3933569820265501,9.67473448418859,0.004726216921174348,-0.0019955189836397425,0.0017939320218511
1681944484.1064308,0.017469306418358657,1.8321425757910987,9.705825575169145,-0.002317947960096664,0.0017591777806293452,-0.0002885466988435
1681944484.1163635,-0.18856229332674668,1.4322775302401827,9.681452373561939,0.00020075074604945252,0.00048066297114072304,-0.0002240821800432
1681944484.1263666,-0.002053693345783329,1.4677120068185316,9.587361308046953,0.0017072512521782003,0.0031651039401062414,-0.0004673694807342
1681944484.1364176,-0.2906855221224617,1.467501565415332,9.752206332016767,0.0035456801278066245,-0.0005109967049524015,-0.0002020917914113
1681944484.1465,-0.0635034980584147,1.783869990086079,9.728528114443291,-0.0002772204315735441,-8.296249574911392e-05,0.0020524327678368
1681944484.1564174,-0.11383432152314618,1.4310967241057844,9.64362616299885,0.001386836952983214,0.0005272539005078399,0.0003529468935676
1681944484.166412,-0.06411188796991213,1.4759538955786682,9.624302834846509,0.0031508007608302205,0.0015919120897130447,0.0005347262753867
1681944484.1764743,-0.1541299288993918,1.6230992365250205,9.745680149659465,0.0007639888933466865,0.0012771394477996262,-0.0010246603365293
1681944484.1865852,-0.1380919223378551,1.4374530920356425,9.662039468274443,0.0024738946033105416,0.0013996697144273969,-0.0025114474433711
1681944484.1964943,-0.2226684081962416,1.7147213647722879,9.794848993913739,0.0006891181866000861,-0.0017291649867831017,0.0006036695244484
1681944484.206462,0.00037155267360586877,1.5632695208202372,9.63035107672604,0.00030801996717849374,0.0008494753772414319,0.0002315154683538
1681944484.2164917,-0.08816891516649299,1.6213041831009356,9.683445728969268,-0.000373706743549048,0.0011940701385773035,0.0015845310531086
1681944484.2264743,-0.19959497105810983,1.5495778759285919,9.72864792352304,0.0002607070007355302,-0.0006734102673928347,0.0027919123799302
1681944484.236496,-0.1382763985829945,1.4269059022256367,9.648233088465167,0.0015660496424813935,-5.5388244366629056e-05,3.5201051528106764e-05
1681944484.2463746,-0.07017902244313487,1.7621228225630008,9.733924056927647,-0.0021368945617037016,0.000581251247580048,0.0013342095457711
1681944484.2564726,-0.08496906275781985,1.3973336142621553,9.611520401398575,0.0026214000393591534,0.000695646584450238,0.004004510437394
1681944484.2665112,-0.19930125343407587,1.5783472416202813,9.741854069857519,0.00020780822555976507,0.00011708839374519856,0.0009035640664161
1681944484.2764356,-0.32306514911296114,1.5851943549901009,9.813666821463508,3.235588562116928e-05,-0.0046155231953223025,0.0020595339278453
1681944484.286415,0.11520082718033468,1.5973708637841442,9.564916442905442,-0.00165672846361764,0.0008937943660683055,0.0005053148756497
1681944484.2965896,-0.09729751973447412,1.5031848977590525,9.65350767282658,-0.0006378580556294747,0.0014131241905896493,0.000567551088775
1681944484.3063862,-0.2628994329617614,1.5960079985448663,9.777797473103124,-0.0016328544552808833,-0.0015485002150130685,0.0004047433298775
1681944484.3164198,-0.0065029453794766354,1.3993513984560422,9.571489810974995,0.0014561559829317173,0.0008811499107185561,8.624137032265528e-05
1681944484.326388,-0.14510376029230235,1.5460510689613824,9.697978977657401,0.001156253345085898,0.0007075552436038663,-0.0006223271216503
1681944484.3384194,-0.1662840346645847,1.5863303615414197,9.732835959231753,0.00018991862720776068,-0.0005199290770155998,-0.0007609011686644
1681944484.3464508,-0.13133073844546725,1.5318865017571657,9.693556070162728,0.0011540301173195908,-0.0011621736092432512,0.0005198510748096
1681944484.356454,-0.17744327529578743,1.5155748116524406,9.686141436638326,0.0030517018513208853,-0.0027446884815764787,0.0024361388909393
1681944484.366528,0.09863135774077272,1.5817476737540852,9.591003256544566,0.0013250450583895742,0.0026476596377683647,0.000112296749162
1681944484.37651,-0.3035282223556269,1.5181443567560033,9.760928878526293,0.002125967169748063,-0.0008861324323165373,0.0002196113032051
1681944484.386408,-0.2820036102626451,1.6260941733201497,9.78696094518405,-0.0004038830088947474,-0.0036253413766794943,-0.0016832814167491
1681944484.3964984,-0.08636112066321663,1.5408676471377363,9.649324074493894,-0.0005931389989874066,-0.0023278146822983893,-0.0022111550520411
1681944484.4064136,-0.10057180606204046,1.6253108543624784,9.689185497908829,-0.0015408297485268278,-0.002204890300642457,-0.0011155497364005
1681944484.4163992,0.018217370507879433,1.548778082163773,9.611109600635565,-0.0015430906465383602,0.0008755491270570927,-0.0014005335129103
1681944484.4263866,-0.09155155406567601,1.4606498176278693,9.649498328398181,0.0008053406346604958,0.001112485451627905,-0.0003891202236763
1681944484.4364965,-0.2655649558310202,1.636902983001135,9.800374310517128,-0.001616858148328142,-0.001679254631516792,-0.0017287257674387
1681944484.4463978,0.005590005518074428,1.4635220407362988,9.58700300275121,0.0020480987803336986,-0.0001678849114537718,0.0018896375308623
1681944484.4565184,-0.21803362317935085,1.5395121426426384,9.735566629116954,0.0013287481130730442,-0.0016077070677899296,2.848831124092205e-05
1681944484.466524,-0.08049404629169782,1.4457394667914258,9.633082118667586,0.002659800238501094,-0.0003221117035897689,-0.001413186461409
1681944484.476457,0.05023359310084881,1.7346093002779044,9.651908467565026,7.557075877286488e-05,0.00262607757812214,0.0006875173107483
1681944484.4864726,-0.3042950840262057,1.4987956188328933,9.761273889644304,0.0004883347369065939,-0.0008649078619093716,-0.0005288109264573
1681944484.49647,-0.03572035517296519,1.7116091105397155,9.685293300371887,-0.0010639966148621497,7.12641810563301e-05,0.0028742345434376
1681944484.5064633,-0.2745792034791557,1.3375559893284,9.693893791880349,0.0012098909618417193,-0.0017325256793601924,-0.000883470902895
1681944484.516478,0.06197002348808938,1.6131398066839455,9.603900295615261,0.0007833409945008572,0.0017472979103437195,0.0006186031655171
1681944484.5264354,-0.19653678810038178,1.746971160050313,9.798397715300448,-0.003792804636389388,0.0002843214260808298,-0.0002426979213259
1681944484.5364676,-0.09036947399309436,1.37302121386227,9.618302738264616,0.00020147256132522974,0.0005093542276124257,0.0002076675568469
1681944484.5464168,-0.08614956002197854,1.5298649616003868,9.65694192558856,0.000914134499033658,0.0012801172844954835,0.0006085183390178
1681944484.55643,-0.21862791286082753,1.5007161711672958,9.721360929224883,0.0014513020779124014,-0.0004908402929853471,-0.0004606294992617
1681944484.566416,0.007336886788741205,1.567490342480162,9.624214864439162,0.0015183462222366554,0.0019301953162561337,0.0005272922257655
1681944484.5764372,-0.19587014428295865,1.5618773492790972,9.733272035185207,0.0017854733484781477,-0.00011165002299203927,0.0013714616047446
1681944484.586486,-0.26454035089726635,1.4582386647874714,9.729009410608233,0.0025063253618498337,-0.002201893610011553,-0.0012079231987944
1681944484.59645,-0.0425577288708828,1.8974216551999148,9.770219127241054,-0.002657317056586215,-0.0017355159989597294,0.0021429653838505
1681944484.606497,0.05268005562628737,1.380067205402539,9.537955001300334,-0.0010446560270572036,0.003259724599189906,-0.0020036768715134
1681944484.6164396,-0.1700978209888,1.5835146344165942,9.705953769734556,-9.729823448161582e-05,0.0014567008112962268,0.0015111587394722
1681944484.6264167,-0.28446764297751453,1.4991232043543838,9.745889527790803,-0.0010237931697240185,-0.0006592565250573268,-0.0021746378938904
1681944484.6366236,-0.08994325066070974,1.5434545529298105,9.664983637857457,-0.0002310239031532759,-2.13067502020093e-06,-0.0014407689764401
1681944484.646478,-0.04837638221419535,1.563343503104156,9.647387740758399,0.0010869569620884933,0.0006811190027778985,0.001008610675367
1681944484.6564777,-0.19259805944839603,1.5449516975015698,9.740206897387143,0.0003888838133841027,-0.00020999592132732136,-0.0014131866942397
1681944484.6664677,-0.039639711672470435,1.6156885791484485,9.667666963011904,-3.992197066000572e-05,0.0009586189404335413,0.0003581629984774
1681944484.676437,-0.13067352443139013,1.6282418856069585,9.719574340542563,-0.0021682110745809206,0.000967194964691128,-0.0005802078253826
1681944484.6864429,-0.12867836608180044,1.461850178318597,9.653596726795701,-0.00011631522726893403,0.0007865371014516694,-0.0002531338564357
1681944484.6964457,-0.21203803529277263,1.6319275629285792,9.757490558528492,-0.002003154429751344,-0.000975541741740984,-0.0007895819458416
1681944484.7064812,0.0026786317711785077,1.4487182347930256,9.59168592007848,0.0007751554942476165,0.0013047187328334015,-0.0002099235157719
1681944484.7209802,-0.20024084404670894,1.569637964154569,9.740868022574531,0.0008720314938696276,-0.0018759326591264332,0.0007873313420214
1681944484.726519,0.17188527128269965,1.5403592471361176,9.517959807135727,0.0017932941331723958,0.0011154631832158356,0.0020274765824661
1681944484.7365308,-0.22647794054466952,1.4834258969369443,9.724458355050006,0.002083868831382922,-0.00036086696118920895,-0.0002814414060912
1681944484.7464464,-0.20080689796207982,1.542129361029593,9.705095519864576,0.0006384245115845035,-0.0008801489068122311,-0.0029845267149857
1681944484.7565536,-0.16725925729724064,1.735631774095317,9.762335562228005,-0.00168537389197586,-0.0028415498102358624,-0.0001905536360344
1681944484.7664535,0.01163548599534884,1.4588838893459497,9.597483403718423,0.0008384906785173467,-0.0004979466298112469,0.0008055729244598
1681944484.776483,-0.11483981846131226,1.466316896062295,9.665224678808967,0.0030915499910785893,-0.0006789898760372887,0.001198205075948
1681944484.7865877,-0.190468751372631,1.4666987209496,9.696865532687033,0.0031965934162774662,-0.0012120989534805048,-0.0019857982720485
1681944484.7964787,0.014022296160794725,1.7460624859781126,9.665574352917687,-0.0002399677842516623,0.0014391871445247042,-0.0008592453400841
1681944484.8065102,-0.09097095854068206,1.504848747238642,9.636606871999925,0.000839620506252785,0.0022594984673720607,-0.0003429210360399
1681944484.8165717,-0.2121888456284073,1.58880592114212,9.734983314158384,-4.8119761593841924e-05,0.0004974447435351432,-0.000436418837612
1681944484.8264804,-0.05604888932897121,1.5542525163639884,9.6538186325375,0.00018210036177294033,0.0016906679442399138,0.0001700924162515
1681944484.8365357,-0.2137245565519161,1.4483877380932237,9.697735875896573,0.0014255993469468112,0.00042070138760515766,-0.0015573698642901
1681944484.8464494,-0.13306900358545556,1.609435727667717,9.708827558223115,0.000433954663259934,-1.9264547320918463e-05,-0.0012161246582171
1681944484.8564584,-0.03276760160142437,1.5604978294810485,9.649303569321825,0.0007789037923126757,0.0013207223570714031,-0.0003056711598536
1681944484.866433,-0.2770532213498397,1.5690059523710593,9.759660428366162,-0.0007022615430619535,-0.0009342074744118521,-0.0023422871331921
1681944484.8764796,-0.09747727442436678,1.6644605666204766,9.718566014335405,-0.002525811483439262,-0.0008261521191855811,-0.0012328896287134
1681944484.886511,0.029455772475843127,1.445568351477499,9.57146582238838,0.001243418173681627,0.0014894941413841189,0.0010920482722804
1681944484.8965392,-0.19774396317708906,1.5569717107311964,9.727311443237223,0.001182342751962421,-0.0002707045225610943,0.0009061753785
1681944484.906523,-0.13255270846458456,1.4644823230073125,9.661560091825159,0.0016304913327048584,0.0003875314808255231,-0.0013677644624612
1681944484.9164803,-0.1670670578111206,1.6683586306297593,9.756753927621883,0.0005978521389791433,-0.0015809019347154322,0.000764611844229
1681944484.9264412,0.07209768539121177,1.5701481703063631,9.581756901452879,-0.0006922411387342594,0.002910296098325226,-0.0001857347402027
1681944484.936533,-0.23713434174442907,1.5011015052857912,9.736183108678155,0.0006634144435239714,0.00026572263204963163,0.0001041129848682
1681944484.9465294,0.024760864805509607,1.4848998801003348,9.57331489394702,0.0017344229092650086,0.0038338220261235276,-0.0011613456613621
1681944484.9565127,-0.27496033014190346,1.5649343473567747,9.776333679487172,0.0019054439617047338,7.609212071847546e-05,-3.148082990710871e-05
1681944484.9664874,-0.14470314540259419,1.6141632757537756,9.72296357764673,-0.0006255239396644291,0.00021766948614362458,-0.0021839539136043
1681944484.9765086,-0.11892829454347767,1.5307961782858892,9.676534323157263,0.0006082971922944286,-0.0001474116262330982,-0.0011241069610468
1681944484.986601,-0.11858513193004659,1.6557300775414205,9.71839960650277,-0.00010920660499703741,-0.0010385071023329888,0.0018013511812251
1681944484.996488,-0.1807284130344279,1.5168251987886099,9.696652261470087,-0.0011701662454533773,-0.0010031092406778373,-0.0014955251558921
1681944485.0065155,0.050355137765147356,1.543557571322588,9.578342518435127,0.00027226326445280565,0.0019786082106885857,0.0006901063875057
1681944485.0165355,-0.2526850345876449,1.604037159229193,9.763349915835347,-0.001115411396321238,-0.0004256922423309954,-0.0002643227658471
1681944485.0264914,-0.13843251100107873,1.4457229990591072,9.65455162300659,0.0013320984617316409,-0.0009617451262920044,0.000138749919156
1681944485.036531,-0.11899682115813535,1.5557860372354146,9.686657658311692,0.0009081636040110721,-0.000667850765429281,-0.0005776287603429
1681944485.0465188,-0.12759228694803704,1.6269655850549654,9.716665231717837,-0.0008691781895473572,-0.0006786323973528617,-0.0012448142829588
1681944485.0564666,0.08743608435909683,1.5948612543508733,9.58975826689134,-0.0002880630262759173,0.00293005890455901,0.0011915163754248
1681944485.0665252,-0.31689569762125225,1.5125779978505103,9.777215318040952,0.00041941148718098936,-0.0011629223629092528,0.0008674381219544
1681944485.0765014,-0.009453050868982054,1.5272328506760835,9.607076475159591,0.00122629752142429,0.0011948161827629931,0.0013889528031223
1681944485.0864837,-0.1256225049929798,1.6211335429720588,9.70554054785246,-0.00026977473779787067,0.0011005630667413843,0.0015640536998626
1681944485.096502,-0.25798899907948697,1.415265468995072,9.717490460823608,0.00034828352469394163,-0.0003493182773518236,-0.0025560992385498
1681944485.1065054,-0.015122314970698634,1.5303443143218487,9.62317114999671,0.0018175080708231286,0.0011970352306434806,-0.0009639378718337
1681944485.1165562,-0.015048659847627552,1.6640159893114486,9.667058984079818,-0.00014910636512433762,0.0032314338614557485,-0.0004036362829855
1681944485.1265657,-0.21403028756638523,1.585193302087025,9.754668682405109,-0.0004840011315357983,0.001241392208562808,-4.9357799557496473e-05
1681944485.1365273,-0.17874560591680627,1.4156009684887778,9.65856155052616,0.002319305577244487,0.0001547257152350522,-0.0001894325564852
1681944485.1465852,-0.17574436895838755,1.6458553491095198,9.740781109873469,-0.00035918041369915394,-0.0005486248154539113,-0.0016128783195516
1681944485.1565516,-0.10421081186598202,1.51853174325499,9.662946572006488,0.0010486155770339425,-0.0004599720927378271,-0.0002687903202376
1681944485.1664617,-0.14272795224846274,1.8192683778980474,9.794620431568639,-0.00413066722458688,-0.0014032294564190276,0.0006323610118352
1681944485.1765702,-0.0751239135298993,1.1955130951720838,9.535430429828622,0.0031299236341382703,-0.0002878344092848039,0.0003611609258451
1681944485.186564,0.07789044033342742,1.574699065483297,9.587482269351852,0.002723078585859512,0.003763807352788993,0.0004229944583722
1681944485.196472,-0.21499523670246168,1.7866304461979743,9.813363771981715,-0.002305668860003909,0.0018176732528022458,0.0005116618389957
1681944485.2064524,-0.1862010822449856,1.4105482977003236,9.671094725535285,1.0728149226616452e-06,0.0009355092108503045,-0.0008562767493775
1681944485.216456,-0.18510848248555736,1.5388657984974896,9.727825312915012,0.0010307184635766798,-0.0010288026648026275,0.0002322622726433
1681944485.2264855,-0.11120295100848929,1.650744342322773,9.705726218516027,-0.000966778133346412,-0.0006782632705268751,0.0006889863556944
1681944485.2365518,-0.021316262028109545,1.4846354532064532,9.59851850529734,0.0003091397822754169,0.0017208196168731298,0.0003931770019927
1681944485.2465136,-0.1566710532431532,1.5333581715102016,9.701329391844904,0.0007233747325495284,0.0007500200760178477,0.000676313267345
1681944485.2564893,-0.10084152398994614,1.5687613327285705,9.680406893005904,0.0005158840766952602,0.0011519753218297763,0.0006722372176819
1681944485.2664983,-0.12699846565086273,1.4718657079794844,9.666571245510665,0.0012557451296588411,0.0015006565408129428,-0.0007180528796515
1681944485.2771325,-0.21754051702335062,1.530826596227888,9.723597278522977,0.001169299078076952,-0.000257301311925707,-0.0015897819853625
1681944485.286504,-0.1489829499931659,1.7182683334833881,9.756968185991836,-0.0007544322366826876,-0.0016319378674687288,0.0008286853239634
1681944485.2965002,0.11354321270712625,1.6222287848714685,9.583983266269488,-0.0016008306005776151,0.0028466037960523795,0.0023277190316231
1681944485.3066864,-0.29963579042345906,1.35115105560084,9.712866826317754,0.0009245484503008032,0.00017631589216745194,-0.0010373218997619
1681944485.3165183,-0.15576737668798626,1.5704849091489708,9.706454711305488,0.0005151349631000037,-0.0003906658793572952,-0.0012898933223686
1681944485.3264844,-0.1562289258703811,1.5088360591522603,9.687232303497373,0.0017199185515648966,-0.0013655818054686944,-0.0003056462469748
1681944485.3365488,-0.19568496779986505,1.641341973761721,9.756698964083501,-0.0008807155104399285,-0.0024298775147541447,-0.0015439588192156
1681944485.3465097,0.01314781525338075,1.3714729645852775,9.548389074315827,0.0026650115734490167,0.0004225377521542981,-0.001656470502471
1681944485.356567,-0.06884003240461906,1.785472171716463,9.723379004867294,-0.000682930973678013,0.0007295239879887072,0.0011881740333275
1681944485.3664982,-0.14969879614154577,1.4528110592585985,9.667223981080001,0.0011059629121611659,0.0004236854282728872,0.0005053199979239
1681944485.376536,-0.16665875785897621,1.4942217984485668,9.694020779144484,0.0030457246444107757,-0.0008224243843398659,0.0011467734852568
1681944485.38651,-0.19834077988796045,1.7100176537296898,9.771765216283818,-0.001710713164959328,-0.0014728864290963794,-0.0012660528614423
1681944485.3965092,0.025856861053468686,1.4851017022967627,9.58182759873681,-0.0014987938471699804,0.002307529414917169,-0.0029994539532116
1681944485.4065285,-0.20117376279348861,1.4129899536789627,9.684099123895102,0.0020972680194773934,7.129119620739028e-05,-0.0020792741875401
1681944485.4166398,0.04673173479575789,1.7954729182119287,9.671876516014347,-0.0019010996132517242,0.003051869754336515,-0.0002289117860845
1681944485.4265585,-0.138643224774283,1.5251716451984507,9.685979432751333,-0.001027127003626151,0.0025176603224258305,9.44202451729284e-05
1681944485.436581,-0.28563325561943015,1.4407221617847263,9.732650653014005,0.002634824014846193,-0.0018081258935284529,0.0027103597799078
1681944485.4465349,-0.08346481842279153,1.6791889620175904,9.720858483592158,-0.0006803080072878169,-0.0005694808904234895,0.0014653315569968
1681944485.456538,-0.06130070958672421,1.4215488525701403,9.592361843023527,0.0008429661445186046,0.0016973426241537332,-0.0008223877835324
1681944485.4665606,-0.2726531550333059,1.586345447267976,9.770360201108454,0.0007297380897739436,-0.0018744388024033527,0.0003272653243267
1681944485.4765377,-0.008199439096422434,1.6573072896062446,9.65645499321203,-0.0015505325791574194,0.000555925020466131,0.0003362039255672
1681944485.4865355,-0.146301524143364,1.4785917043032646,9.6714729495398,-0.0004612565312164031,0.0002705706740947293,-0.0005880428093722
1681944485.496565,-0.19929128820566885,1.5968837660584547,9.739713731466788,-0.0006262664699663572,-0.001678134939672221,0.0004591319861584
1681944485.5065784,-0.021261817514920813,1.6300146648516498,9.666082512551613,-0.0020191754469307713,9.884160029764671e-05,0.001302547517721
1681944485.5165496,-0.16350045444708233,1.3761967705273306,9.650305032859478,-8.723787834725413e-05,0.000237039164457091,-0.0016549710731259
1681944485.5264702,-0.24454333681324555,1.5527427711992956,9.740542122900356,-0.00025822152543295815,-0.0022484759950399205,-0.0018892895045927
1681944485.536685,-0.12509606353730554,1.4906134825644026,9.661933922659182,0.0014248572149946515,-0.002349089844467508,-0.0013472669839165
1681944485.5464983,0.039744266438846036,1.6673348359997653,9.638141574261992,0.0008131617121783645,-5.2037131707763446e-05,0.001619935382646
1681944485.556565,-0.18297637826278215,1.5628957279024178,9.721638214288088,0.00010499499118783754,-0.0009815067401878189,0.0006368265871652
1681944485.5665808,-0.07675191018761143,1.4296966394616393,9.629604233808776,0.002760372120719629,-0.00014180447588401388,0.0007824940525689
1681944485.5765233,-0.1096175936211636,1.5785979663307856,9.694359788800304,0.0008351195884120731,0.0010569912780564374,-0.0019582097034207
1681944485.5864856,-0.2749289175416113,1.6062396379606374,9.783519503391783,-0.00030365124834746336,-0.002035773848428021,-0.0019988030276498
1681944485.596494,-0.09144754998105396,1.5517325289341357,9.667014763017301,0.0009830440279121671,-0.0022447250591900044,0.0003376882209205
1681944485.6065726,-0.052630652145140525,1.4917129944678043,9.617449767355513,0.00022644773710834356,0.0005476798476463322,-0.0034602625842443
1681944485.6165292,0.010575145731773362,1.6462946178407274,9.63530872774943,0.00035567163183413775,0.002047914198394222,0.000340275900694
1681944485.626522,-0.21591187826288014,1.589931544820503,9.741122058504875,0.000305033266488933,-0.0001787014934339666,0.0015830427414267
1681944485.6365745,-0.29533152762391296,1.4855980809476856,9.758841224454892,0.0018234722864845763,-0.0039017449050043895,0.0017063486861526
1681944485.646525,0.03870384390525908,1.6171742353377565,9.627371884983036,0.00016980978442783994,-0.0001407003987575846,0.0004662163241528
1681944485.6666343,-0.1263462423682902,1.5518598753957875,9.681389899586083,-0.0014544161590409486,0.0005883010750117964,-0.0022216063539734
1681944485.669846,-0.12511242150753643,1.623519813060722,9.700025659167203,-0.0017449808580400187,0.0004899924541326307,-0.0018874235998145
1681944485.676663,-0.2034671082788052,1.4546029114939119,9.69274982914568,-0.00048027669632714473,-0.00047636486596691656,-0.0024719290982237
1681944485.6864958,-0.04904313841295583,1.5725466509170174,9.64576595333323,0.0006582097826337929,0.00012080044372478639,0.00051797923285
1681944485.6966836,-0.13131070989388643,1.6659403216546185,9.720710480773922,-0.0015520366739069564,-0.00010979285818096335,0.0005649340723403
1681944485.706689,-0.020149452686628058,1.4771156728567363,9.611546327764199,0.0007297329645853003,0.0016802008660322621,0.0015965020261001
1681944485.7166374,-0.18891036566011574,1.6833949672081185,9.775290283955338,-0.001813530780485913,0.00017631980229925175,0.0016110039991554
1681944485.72656,-0.1503558988131428,1.4816024820567333,9.687625242967012,-0.0008773581220903966,-5.849997013321828e-06,-0.0002695363096198
1681944485.7366965,-0.1890817213075521,1.4667863835671258,9.686887652553938,0.0013030621302544492,-0.0014799400687797416,-7.989027884369032e-05
1681944485.746561,-0.00200884711860405,1.597191401465682,9.624572886432217,-0.0005544202034767552,0.001667904931754079,-0.00160506429032
1681944485.7565067,-0.30017103638981096,1.4724794527721465,9.755534538294475,0.00134327204539636,-0.0023810926038275943,-0.000963567205449
1681944485.766498,-0.06417484426717358,1.6250754779582937,9.679684123661449,0.0003177007081593401,-0.0013849487704438196,-0.0001726829528114
1681944485.7765937,-0.10770974874356261,1.6412320752907263,9.696522886814456,-0.0014201416045132346,-0.000999015926387184,0.0002412029693597
1681944485.7866445,0.03500044313262671,1.5117196404320046,9.571710365943868,-0.00019155168690825693,0.002202129054435252,0.0009527173510515
1681944485.7966726,-0.16513272029547463,1.7003845928066508,9.751737581766152,-0.003527178673557055,0.001528207504644153,0.0004773805535161
1681944485.8065217,-0.2920004191197891,1.538706149939512,9.769120001264389,-0.003926518477345626,-0.001507898134273764,-0.0008406165602854
1681944485.8165784,0.010140364458057976,1.511829915916962,9.59960929509091,-0.002083257835631279,0.0007142375014767852,0.0010488374659554
1681944485.8335073,-0.11688000957950981,1.539997699121032,9.683000406200774,-0.0020583006363358155,0.0011437532945687665,-0.0001909503794512
1681944485.8374465,-0.44451972126244876,1.478270101355945,9.832374715949394,-0.0012409561978734267,-0.0016125665139022783,0.0001625985291549
1681944485.8477142,-0.07286809060939027,1.370749584399719,9.590220220575263,0.003236847456984751,-0.000842563029362492,0.0011185147136212
1681944485.856549,-0.07290571799206205,1.6394333001086392,9.705788190667393,0.0014557877691004947,-4.3089956697282864e-05,0.000883467987901
1681944485.8665583,-0.14596424978215347,1.5612734627542004,9.692407833556624,0.00020966512659300972,0.00017594472575955942,-0.0010630245401761
1681944485.8766413,-0.11643070518769306,1.7416162243966309,9.737693071404843,-0.0036433842071036606,0.000209114963543791,-0.000915867657145
1681944485.886518,-0.018196323810992093,1.295262948228913,9.531381691255525,0.002580081211896821,0.0020128837458076566,0.0006249181146496
1681944485.896571,-0.16791057084885178,1.7572887252951193,9.778341656265889,-0.0004541742055331969,0.00021729485066862884,0.0030012799811312
1681944485.9074256,-0.19137144730612138,1.3887400395066538,9.67142364273903,0.001354456800678174,-0.00020142484216026737,-0.0004468550055525
1681944485.9165142,-0.15244277796297548,1.7000381472998223,9.758436501609008,-0.0007112174790720625,-0.0015525878761799095,0.0012511360377767
1681944485.9265492,-0.03566074214530798,1.5572620263812054,9.623301197418005,-0.0007786545426742079,0.0004858909126105637,0.0012831407634303
1681944485.936555,-0.11494743736957384,1.420330195565645,9.632495864429771,0.0014598534492300213,0.0010130407967492794,-6.98676181263222e-05
1681944485.946519,-0.2315175329944754,1.660307021047393,9.782208634317897,-0.000243326368479067,-0.001696754525128742,0.0005716342397728
1681944485.956578,0.05944749609022409,1.5256336953889194,9.581308166223245,0.0006064062428171799,0.0018325833056021688,0.001230263469065
1681944485.966709,-0.2263814143675737,1.6158695528624076,9.764645261367702,-0.0006154827151767844,-0.0006141914197354135,0.0013025366619923
1681944485.9765828,-0.08709713249333224,1.4721760500634533,9.63916958197474,0.0006425301116528493,0.00031155761714104314,0.0007482049672626
1681944485.986528,-0.0958150882135988,1.5710140467622271,9.681403454096518,-0.0003245606851720611,0.00130695378278458,-0.0003328511107019
1681944485.9965682,-0.07736456940605017,1.5533588536964642,9.66597972781931,0.00023987589601286605,0.0016880296606985724,0.0009564559709043
1681944486.0065742,-0.13769298876826294,1.4894186331098198,9.674299948567787,0.0013924357433230542,0.0015256317153560478,0.0004226292635076
1681944486.0165656,-0.263003702097792,1.4862475439351583,9.729276797594936,0.0023256396090164796,-0.0010262180680975835,-0.0005980989977023
1681944486.0265963,-0.05920749470394256,1.7338252716847091,9.725707935246923,-0.0013176974943906194,2.8427558849319523e-05,-0.0005228509276411
1681944486.03656,-0.03185246693552313,1.49555975247703,9.623303930787957,0.0005174045536739837,0.0015118132229876653,0.0001994740136661
1681944486.0465384,-0.19674639499070226,1.488033522299746,9.705151085481551,0.0011793622288132012,0.0004531168133863684,-0.0010738185688159
1681944486.066799,-0.13666117187235152,1.60692250308605,9.711367061556913,-0.0001405147275859718,-0.0005679815420876466,0.0015133992978599
1681944486.0724654,-0.23082744222843496,1.5468748720525458,9.746588331083608,-0.0006102664445509473,-0.0017295423026229978,0.0007336804096349
1681944486.0780065,0.07049922421216234,1.3350325553435527,9.499783881380667,0.0010519581798180428,0.0011746884423165249,-0.0007374399888566
1681944486.0866632,-0.25756537062538754,1.5364969599708538,9.744653119974432,0.0012005935683107542,-0.0011182321150055984,-0.0011263582005402
1681944486.096542,-0.06430923971800626,1.5855789001269274,9.667455410448278,0.0012393469577130782,-0.0004636866323650952,0.0001849551603891
1681944486.1065571,-0.17143856036861746,1.6474503806695917,9.749687056471483,-0.0010166811388706894,-0.0014162418394700793,-0.0002654322038642
1681944486.1165967,-0.0778961530980225,1.4720916412529752,9.632076654015238,0.001060898719216064,-0.0006086034596413298,0.0002438027563267
1681944486.126604,-0.05466620130410336,1.525945014255853,9.639383079294799,0.002117380265793602,0.0004713781144074216,0.0013271341135487
1681944486.136829,-0.0364683499181428,1.7653571841295694,9.710674172726629,-0.0031449796853896313,0.002743015207797264,0.000150284465658
1681944486.1466565,-0.18864309694929438,1.27069919016164,9.615568810192457,0.002554011691503486,0.001463401960620909,0.0001011450926535
1681944486.1566176,-0.21758868770992487,1.595171341402796,9.74126127427113,0.0019173394183606683,-0.000678250844233777,0.0009337283240393
1681944486.166557,-0.05894093167379394,1.5839768956730802,9.67158007542974,0.0007464866195077574,0.0008554300203103862,-0.0004885896655968
1681944486.1765463,-0.2700774180322686,1.5355448972900074,9.753306344975474,0.0008630884683607727,-0.0019634912475586627,-0.0008752675808272
1681944486.1865685,-0.076338091350864,1.5444665810176073,9.6495253004646,0.0013712134235765127,-0.0010917702849761986,-0.000486722829496
1681944486.1965642,-0.05085434084773938,1.5883532075623272,9.652591617887404,0.0009021899277790853,0.0003625931534462606,0.0002683975885384
1681944486.2065446,-0.24913930065259846,1.6522108285455954,9.786401969333747,-0.001617573041253243,-0.0019146891749515535,-0.0008082111913016
1681944486.2166064,-0.03346262938873991,1.4766343362613865,9.608214420030524,0.00022009334437485004,-0.00011836994395396453,-0.0003973240114054
1681944486.22663,-0.11929989348867108,1.532684358684797,9.670641306362773,0.0001761592701533706,9.32597231983761e-05,-0.0007292080286196
1681944486.236611,-0.12193395495085038,1.5463423283324076,9.67571022985185,0.0008411059313486025,-0.00018430325677193434,-0.0001618871779418
1681944486.2480035,-0.030598106237039163,1.5214000872861373,9.627001389873055,0.0020734216528744418,0.0017703829995472683,0.0006830267061241
1681944486.261103,-0.23760352144494237,1.7416391235369832,9.817128327146909,-0.0018697789150939894,-0.0024209590003804685,0.0029275115498104
1681944486.266585,0.12375725336687504,1.3970851189823448,9.511779509528433,-0.0009351156887952075,0.0009250982654961098,0.0010350531351515
1681944486.276574,-0.18233030387843358,1.5686021931046878,9.725597746037886,-0.001363152611827062,-0.00014220168406495822,0.0007381473819487
1681944486.286534,-0.1206765894696818,1.4442631320618828,9.654776650216162,0.0007252642179337643,-0.00010791287772315374,0.0004338216653787
1681944486.2965386,-0.1767644424483339,1.547927872597006,9.708934521031368,-0.00018337744291970265,-0.0006153115854851772,-0.0014664709183624
1681944486.3065832,-0.015581347941070633,1.5503252470476059,9.632536969332863,0.0012162324533268598,0.0009437264676630472,0.0004877934383922
1681944486.317008,-0.19956242331628768,1.5969678565392218,9.742659657125426,-0.0004023893689973044,-0.0005881174310587931,-0.0001853463786891
1681944486.3265824,-0.15164613289527323,1.4233413358395914,9.640153114534769,0.0019430411249244427,-0.0007650399118534964,-0.000594756480982
1681944486.3365753,0.05302014396869146,1.5505418771337078,9.595979151045272,0.0014956285347735036,0.003046682453554641,-0.0013349292881092
1681944486.34662,-0.23849482968541771,1.6301797956384774,9.77807328558382,0.0006157159569402219,4.1098909180979084e-05,0.0002285301138409
1681944486.3566542,-0.13927367370996616,1.6774395429898517,9.728991675595172,-0.0022348701666589374,-7.513724675639724e-05,0.0001357810956188
1681944486.366589,-0.18393192625785137,1.3093764318241037,9.63757891093317,0.0011480594284414894,-0.00011686514178442997,-0.0031219936522892
1681944486.3770494,-0.040705738277044864,1.726560962236527,9.694097553805596,-0.0003625316883246275,0.0004046820853070369,0.0013122310606059
1681944486.3866656,-0.17908213181324892,1.486816371274206,9.685337921005484,0.0005810844406225178,-0.0004651715103238971,0.0004904326901533
1681944486.3975084,-0.044397343350860784,1.6013678623135845,9.65725649991209,0.00043952459164821046,0.0007563490566743333,0.002248383532301
1681944486.4097726,-0.166050035790203,1.3727129712445025,9.644375922151703,0.0038462924702637835,0.0005261440039574938,-0.0001957627560249
1681944486.4182134,-0.13198832986409853,1.8969494136324923,9.810116056548578,-0.0021089692762532664,0.00014800518224377513,0.0004919267643936
1681944486.4266686,-0.1469002299235884,1.4766757869047313,9.674406236356731,-0.0015702884622537368,0.0002266127981166618,-0.0010447673580846
1681944486.4367063,-0.07809958609386355,1.6639831560939564,9.721080576910943,-0.0026059048844091887,9.845214750607124e-05,0.0012768353021466
1681944486.4466257,-0.05859252111995191,1.4946584633202589,9.63704079054398,-0.0008807286434942277,0.001093484092445211,0.0024350377766178
1681944486.456633,-0.2283256937584687,1.5630167946863918,9.74469116952865,-0.0034426344993532076,0.0003469163126981517,-0.0022752221289328
1681944486.466568,-0.02090345188820956,1.500636762189466,9.623561342568967,1.1479893049534884e-05,0.0008863561284538476,0.0021381294913818
1681944486.4765613,-0.26532932933499,1.5562013405698438,9.762643261917784,-0.0011321751880142934,-0.001514960941869657,0.0001301926945098
1681944486.4865873,-0.032415354194918866,1.5524771708860485,9.631978365620203,6.102574122254172e-05,-0.00028039476625170315,0.0021127947524883
1681944486.4966743,-0.1052913648455278,1.501985902882817,9.657371212208576,-0.0006993218267508412,0.0011948099088059448,-0.0009128983679464
1681944486.5065973,-0.15494795877084513,1.7549671103350557,9.769534052193215,-0.003735421837840346,-0.00035120270202019925,0.0010719272808865
1681944486.5166545,-0.10895824402048095,1.3742865670629838,9.628601233452718,-0.00046424246384061464,0.00026907635910038364,-0.0001324513309872
1681944486.5265512,-0.1888332554443839,1.497251331263702,9.688146926911784,-0.0007495692484951246,-0.00014034777168080135,-0.0024451051454297
1681944486.536585,-0.014965565998024224,1.543694526261275,9.607469912889307,0.0009294095521971037,0.0013806885215558624,0.0002311287366547
1681944486.5466614,-0.13018529437108767,1.5749064915129596,9.69851764629385,-6.37796697851282e-05,0.0014883598141810592,-0.0009523906360617
1681944486.5565856,-0.2572949423258145,1.4827305248931753,9.726296230178656,0.002650110061848285,-0.001989923222998795,0.0011270668742009
1681944486.5737555,-0.08342296453103762,1.597328666897019,9.706027994415237,0.0004570377582560745,-0.000689444792840097,0.0006789237645217
1681944486.5770292,-0.10410580677070883,1.3892871458180316,9.617776692047762,0.0013648790955919994,-0.00041339173701121826,0.0001719009282761
1681944486.586597,-0.23556903596949086,1.6570339266142908,9.783043261795017,-0.0005424633191273684,-0.002976024576713205,0.0006435367663153
1681944486.5975473,-0.05060927311690829,1.4856878370266278,9.619152879577204,0.0008228497479091705,-0.001174835643839044,7.690777189518078e-05
1681944486.6065989,-0.12432506362150296,1.7776400380838437,9.762646933629018,-0.0029985461127557916,-0.0015041683442491558,0.0009665173397162
1681944486.616639,-0.0781239867058264,1.274728241742541,9.564517316174253,0.0027167874347527295,-0.00033476322029937105,0.0003626668744483
1681944486.6266174,-0.06799327630055704,1.595333805427715,9.670452021911295,0.001162594164454852,0.0010048401783368465,-0.0010283607139489
1681944486.6365907,-0.12545811083907923,1.6652582349934235,9.732424272963918,-0.00024743225895016097,0.00035774466429554263,0.0008651949151181
1681944486.6477954,-0.05529102690726427,1.4600522717577675,9.613999396482882,0.0018163637731330759,0.001962244779510278,0.0009955796681107
1681944486.6571536,-0.1862115504697901,1.6378168390588637,9.735763881275332,-0.00025005649275673545,0.0010376008235777963,0.0004982405493729
1681944486.6672995,-0.13973614046741878,1.470993304482025,9.674763576903874,0.00035419114068680884,0.00131624086998243,-0.0013066825072518
1681944486.6766558,-0.25298771801657866,1.5842309970396504,9.769824336329455,0.0006213059145615777,-0.0019493378378362296,-7.434332158928053e-05
1681944486.6867342,0.037217214592159466,1.6079934663358313,9.620053879073367,0.0011067229445562083,0.0003961099001778043,0.0027043689310313
1681944486.69665,-0.12192367630957499,1.5871501737303237,9.696629153042892,-0.001231282052702798,0.0013531379914997765,-0.0002821941475621
1681944486.7065847,-0.2011715059576598,1.5094983540816294,9.719219593102371,-1.9814329293431685e-05,-0.0005910820961850832,3.818035244430168e-05
1681944486.716665,-0.12358134001852747,1.5864941202822624,9.699353613931057,-0.0007026442435336778,-0.0004901455376839188,-0.0001801302737793
1681944486.7265892,-0.13806759112211794,1.459339127080422,9.663627707965452,0.00032890599406690203,-0.0001422196621926119,-0.0019362339831194
1681944486.7367578,-0.12845168077310032,1.5039908205303898,9.683835674027124,0.0015198475534546677,-0.0006290986725862596,-0.0013878782361051
1681944486.7465923,-0.020960918795680763,1.6147320433705403,9.650262487318992,-2.8722366655467232e-05,0.0016664380967015883,-0.001491778678005
1681944486.7566905,-0.237444978501639,1.4849912227049265,9.725548814976094,0.0008068219238530584,-0.0005623852720309579,-0.0021835855755261
1681944486.76741,-0.049076860153590376,1.7075503867218562,9.702405527474165,-0.0012171066491220035,0.00016551711177610121,0.0005887783749722
1681944486.7767284,-0.03250151074836975,1.4493408093282458,9.598643063541758,0.00025287524631195467,0.0024088805856984537,-0.0009300377301177
1681944486.7866282,-0.1855105389953319,1.5595817118430897,9.7216553041536,0.0016215581417753796,1.5760058187514443e-05,0.0018285525306647
1681944486.7968962,-0.146802835141335,1.5658878443573898,9.704710268220014,0.0007245045229417129,-7.587433543429935e-05,0.000500867111864
1681944486.8065891,-0.1316761216642441,1.5775766747413766,9.700462168871525,-0.0012163593563021334,0.0004735918693543945,-0.0020967970217815
1681944486.8165953,-0.1819975173516736,1.5774757594585875,9.737522922634774,-0.000560348436213642,-0.001792127571044401,0.0005548759049498
1681944486.8266058,0.0022726402507754076,1.5301935784923408,9.609978514712706,0.0001940301239703474,0.0008625184802473932,0.0007795206888341
1681944486.83663,-0.09544751499116653,1.5166247392850458,9.662265180046441,0.0007837049391617597,0.0016042423400657758,0.0008272065583379
1681944486.846626,-0.2200024667466572,1.4783412181028934,9.7226336937136,0.0014662288086998011,-0.00021187130729804446,-0.0007869663263908
1681944486.856623,-0.1545582056366877,1.661738198544886,9.734405113156276,0.0004942841179306632,-0.0015577983956687944,0.0016955474761426
1681944486.8666525,-0.018636489559246877,1.657033442196856,9.670582900338264,-0.002128684390221215,0.0008297348843634501,0.0009110066143558
1681944486.8933778,-0.1379445979937498,1.509885767141172,9.685225068300724,0.00015489825142427324,3.887042842261836e-05,5.608142006630762e-05
1681944486.8977926,-0.18960810027982342,1.8742737621074712,9.836345997933744,-0.0024453438827204696,-0.0008887535464782977,0.0009020631236718
1681944486.9020112,-0.011251287388966627,1.0720148854544602,9.465988605812868,0.0007684833137600321,0.0007604554323354552,-0.0010991351760229
1681944486.91153,-0.21588631277893844,1.5401094732028324,9.729515550974416,0.0011033795558064341,-0.0011178445353270082,-0.0013170793268135
1681944486.9193058,0.041862281099776376,1.6745303601793153,9.632294695254107,-8.68578662880286e-05,0.0011899702864605422,9.851771525527105e-05
1681944486.9265869,-0.06619624074864594,1.6008180158855008,9.679915842400497,-0.00023475594328405735,0.0016202416219655296,0.0009732305456646
1681944486.9366536,-0.21382929575052342,1.4801311009006715,9.721071706428829,0.0008697732131612288,-0.0001876242770018396,0.0002594539814391
1681944486.946889,-0.11606099190525948,1.6002483331279844,9.691396340157944,-0.00016210890295821834,7.051592830121445e-05,0.0003287434496679
1681944486.9566529,-0.11982939810497958,1.575579657975525,9.690607659744941,-0.0017952609720301195,0.0006826054287941115,-0.0015595892059854
1681944486.9667115,-0.08492564404822153,1.5995087455870265,9.682914704370948,-0.0018377443496981564,0.000767513762358053,0.0002158585388907
1681944486.976612,-0.14658470501703713,1.4243734100060987,9.653096571157205,0.00028677386238930964,0.0006147869215025587,-0.0010518463409743
1681944486.986668,-0.11515116435880225,1.8765803602745597,9.79653380158816,-0.004260672707222946,-0.0004998209434032685,0.0032180744142034
1681944486.9967244,-0.2983912527293413,1.3602927360515658,9.701384498523588,-0.001403368674300707,-0.0031541045850343955,0.0006692472065561
1681944487.006709,-0.025344676983940294,1.5237888874876186,9.61152816694078,-0.0016209477922144986,-0.0005046781200480939,-0.0007743126794001
1681944487.0166566,-0.06103043533143058,1.5662412732342572,9.65097843326997,-0.0008088315493994695,4.7794132295488824e-05,0.0013703438139283
1681944487.0266857,-0.11860808611576322,1.448229241892336,9.65486986508747,0.00020965684248662022,0.0007094116515840549,-0.001004904190754
1681944487.0367043,-0.1997042770367102,1.5792567588171225,9.72934820151276,0.0014658436577584923,-0.0019482196322284904,0.0021533883386519
1681944487.046721,-0.1013858478450089,1.4904196642612537,9.65727648134855,0.0011678161094004654,-0.0005817732859508399,-0.0011937766417167
1681944487.0566146,0.06040991666512882,1.732220840781161,9.64566916598276,-0.0011850669911409619,0.0023280430927868244,0.0017749012576724
1681944487.067856,-0.20429953120525923,1.4591928483784837,9.69713262243549,0.0014423635403072311,0.00018711292469062764,0.0023799060995453
1681944487.0766544,-0.1490512179727817,1.612278327618802,9.710394213256945,-0.0007570204219017098,0.0004888569995881561,0.0006435280351662
1681944487.0866318,-0.08009234459297382,1.3383736471131225,9.599445000412878,0.002689936090221596,0.0018277741295555888,-0.0011382798279873
1681944487.096661,-0.26045759581537453,1.689751601807174,9.818884228698359,0.0007759155787242763,-0.001857316212469479,0.0007642287214049
1681944487.10675,0.005962534403097715,1.4280290603380503,9.574907926320481,0.002326382447306895,0.0013896492234103104,-0.0010704651090553
1681944487.1166542,-0.12216276025434071,1.7053190868567674,9.741410487198683,-9.169233524290989e-05,0.000653521951393356,0.0008048355498113
1681944487.126711,-0.24380499555730525,1.6065725985995607,9.759299369955338,-0.0015121604253385216,-0.0016613732512975197,8.176264006132944e-05
1681944487.1366513,-0.09340293632739555,1.4305916769898628,9.628366405058912,0.0006839005230649329,-0.001010187494586509,-0.0002598545129648
1681944487.1466062,-0.16034478587527673,1.5369752813639033,9.69540604775426,0.0004369135230124777,-0.001441196204865009,-0.0013919648795626
1681944487.1566634,-0.07816808427179187,1.5610459715075147,9.666342980362728,0.0003698477382605562,-0.0006644895373277563,-0.0010838908224604
1681944487.167136,-0.1027370363893414,1.4999585005835157,9.664312641459915,0.0007468274678335352,-0.00010379905227571941,-0.0027028891804865
1681944487.176678,-0.03945020330358261,1.7586717309721145,9.706548965880469,-0.0019603217621491534,0.0007216865456505211,-0.0004416498436829
1681944487.186618,-0.1547087378554833,1.6032172421071993,9.719410233594859,-0.0025224507176844087,-0.00015747274623953308,0.000661777766677
1681944487.1966045,-0.17644930934039577,1.5758396598118032,9.727777368186292,-0.0036557034245752523,-0.0008757107916507782,-0.0010846146929315
1681944487.206777,-0.0525836987947621,1.5121581757378408,9.62942983964706,-0.0020322102971716315,0.00016512984694077885,0.0005697423743777
1681944487.2166357,-0.12739199524721487,1.4643881239839975,9.652668535717304,-0.000893385142444,0.0005779197140348393,-0.0005548725917241
1681944487.2266216,-0.14925852714650453,1.482982344150127,9.675123856139948,0.0008243355013321235,-0.00023269633565014663,-0.0001603695878065
1681944487.2367408,-0.09038384724128425,1.4115691183540593,9.620888424558848,0.002890765142509538,0.0011072685941518755,-0.0021340434055081
1681944487.2466233,-0.15770281310884704,1.7002723105196784,9.760608002005027,0.0014572681678824378,-0.0008559606359201771,0.0010700616089389
1681944487.2566276,-0.06298570189839056,1.4678023762671006,9.629734153777695,0.0018197500973948621,0.0012469776424874751,-0.001502961999481
1681944487.2666605,-0.23307661823319917,1.7102749863070446,9.795115437616369,-0.0006538412770960273,-0.0016434931600091257,4.749939895654781e-05
1681944487.2766716,-0.02513997724534033,1.6218813742543445,9.657318106761137,-0.0013873569872982876,-9.823703634410214e-05,0.0016411646915595
1681944487.286748,-0.1119666599214161,1.5913731138348726,9.690183685983046,-0.003468311683867805,0.0010196976188693056,-0.0008942938025346
1681944487.2966409,-0.12153855759394341,1.3965168016418557,9.624010138399509,-0.00021054261439812865,0.0009660660414749687,-0.0006104189983806
1681944487.3067114,-0.29231139818527735,1.5780947229072393,9.78336427224072,-6.56127499870308e-05,-0.0030724992496827413,0.0004460945178517
1681944487.3166444,0.0766073739827474,1.4702394044109928,9.53734134270929,0.0009853000539160027,0.0015669608682012835,-0.0008555116678825
1681944487.3267086,-0.17938850941864357,1.7233978580228353,9.785262280615571,-0.0018872882564406263,-0.00028896950094817186,0.0010138366755792
1681944487.3367171,-0.23229441049965036,1.5202342983200983,9.731060401960585,-0.001829173667762119,-0.0023077138510551,-7.880191199993031e-05
1681944487.3468108,-0.013198885635682535,1.4480827881095233,9.588527998239352,0.0006779202566132882,-0.0001723562181512332,0.0004986164544471
1681944487.3567023,-0.059609716897120676,1.6225945403338267,9.690567808281859,0.0006920970333428024,2.1341103444486885e-05,0.0032098963542603
1681944487.3693328,-0.2683650608277307,1.541278978870493,9.769767096309273,-0.0006158372890996816,-0.0027740950033351116,-0.0007780349429002
1681944487.3767424,0.14944423599562776,1.6253192209877063,9.558430594821058,-0.001614980457126168,0.0012383954709915027,2.1783370780299734e-05
1681944487.38768,-0.1587990391576606,1.4980035380367078,9.6769427230703,0.00011392022998834676,0.0001934645119656407,0.0013099925103825
1681944487.3966854,-0.2037452442390018,1.4902602748238003,9.708054216256285,0.0005892749042469171,-0.0007523858990820776,-0.0001853407907537
1681944487.401786,-0.08998732501293755,1.6838321476970575,9.710665122309836,-0.0003725912825422706,-0.0006589081122062443,0.0005861606600456
1681944487.4166968,-0.22018370727711467,1.5052146265105617,9.72115173983165,0.00042241488607949756,-0.003224857787667724,-0.0012038325972161
1681944487.4217553,0.13116326781999932,1.5806550624598141,9.561888552466648,8.524506472315875e-05,-0.0006052468845145972,-0.000987026289781
1681944487.4356863,-0.1398950387749016,1.5965344822278806,9.718984966534382,0.00029088610957584554,-0.0022339405797684535,0.0016478666197736
1681944487.4456737,0.055596297870985315,1.611456760769802,9.606149937979854,-0.001144855727377404,0.0015904380486994267,0.0011635920068011
1681944487.4556768,-0.2875924721583492,1.4835138299196822,9.750644698019856,0.0001809909149299009,-0.0018595473482952026,0.0010663568659448
1681944487.465711,-0.05551281204051539,1.6248192190614805,9.680574914203946,-0.00027461677542047657,-0.0009926715112236672,0.0026559344528005
1681944487.4756763,-0.033069192537925084,1.631160984643226,9.684437470541264,-0.0014916788416007283,0.00042404454496904395,0.0036368063569762
1681944487.4857285,-0.23305754234069342,1.3233521749804236,9.65597456647528,0.0011890346234420847,-0.0004785782645956443,-5.2721271035720274e-05
1681944487.4956698,-0.19355740334659197,1.6218640861907445,9.738818933745645,-0.0009019792081227768,-0.0014747084529336126,-0.0012280579271963
1681944487.505724,0.04013626592191247,1.6150459762244294,9.622883762752378,5.15491400779301e-06,0.00041063188394187294,0.0030929273611628
1681944487.5157657,-0.11089625493460493,1.4313347295789651,9.634317285338541,0.002134924863329584,0.0011318420957302118,0.0016885191411939
1681944487.525634,-0.14700901600370106,1.6550922281488172,9.733699202478086,-0.000988394517877236,0.001255531606421316,-0.0001358036265945
1681944487.5357256,-0.2729160641005526,1.3563560485860873,9.703547835191518,0.0036633994537718425,-0.0023233138594089806,0.0002259479055875
1681944487.5456798,-0.06261824642420269,1.6281429644895749,9.689810496566073,0.0014531729690170343,-0.0010538009774445516,-0.0005593813571385
1681944487.5556705,-0.04167315904074394,1.6264320249585307,9.667669235238641,-0.0003602967472715357,0.0006460832308853036,-0.0009326167951575
1681944487.565711,-0.11687434266669097,1.5339851674039928,9.676659937155186,-7.307346104655008e-05,0.0009206288076605509,-0.0009900062891892
1681944487.5757022,-0.16695142086421275,1.5549791412202096,9.708037338040672,0.00045738580705453533,-0.00023829479088822975,0.0003294893226348
1681944487.5856686,-0.010832991091017418,1.482631815732591,9.588908077613919,0.0016681113276940415,0.0024364635965566715,-6.015997726981776e-05
1681944487.5956776,-0.23739065282411387,1.6143330338228026,9.765040850284569,0.0003340841955537037,0.00010292750342147382,4.8229555855046347e-05
1681944487.6057372,-0.20043865962714133,1.4182026269115418,9.696277643424985,0.003189160228151496,-0.0016244934986898887,-0.0002229678525826
1681944487.6157346,-0.07764051862227173,1.7464143403755246,9.72767575562204,-0.0004474672314199932,-0.0009658563990068788,0.0003741974628293
1681944487.6256723,-0.030461740525868836,1.427960391488115,9.592645901333531,0.0012188728203381763,0.0016202187037758797,-0.0013591893098554
1681944487.635692,-0.18918599464461597,1.6153782094644602,9.741567480351456,0.0005743838456635603,-0.0002163172467228513,-0.0003585646941563
1681944487.645734,-0.1560710651859121,1.433616949595443,9.660182176259884,0.0032334866022419796,-0.0011267404640649223,1.3594367797027662e-05
1681944487.6566591,-0.09634814499957867,1.7481910287767601,9.735017369227771,-0.001145953523995412,-0.0006935395316844167,0.0002546158770793
1681944487.6672912,-0.17539808654521638,1.365367353314719,9.648447331324634,0.001314243080661949,-0.0008496329113862666,-0.0029222999315014
1681944487.675704,-0.07173992745526123,1.7287028518365328,9.717703654116251,-0.0007734311551700791,-0.0005695112891025243,-0.001009756847029
1681944487.685736,-0.19468480467199317,1.5002816683172422,9.70944991287609,0.0014509456807514616,-0.0027972070407187993,0.0005545055878111
1681944487.6956625,-0.0459342265497216,1.5253686386456775,9.636178024246773,0.0014688207864466361,-0.0008663945613137031,-0.0002684212836674
1681944487.7056637,-0.03417601233779423,1.704351603504976,9.686910885834731,-0.0011992337027295103,0.0006054662600422184,0.000605531587521
1681944487.7157128,-0.15626283831585722,1.573199662388762,9.716375727693116,-0.0012823056860442807,-0.0003392668815979749,0.0014325582573884
1681944487.7256658,-0.1006009055929732,1.4262930350809604,9.629732323766428,-0.0003256511704299729,0.0009865664741978517,-0.0012593436136147
1681944487.7357717,-0.10494076433202448,1.5714837170072373,9.68506654404643,-1.6816782532225626e-05,0.0008684751255947152,-0.0003365822217664
1681944487.748041,-0.20484375028810856,1.4755015325298206,9.69799622758273,0.0018506754393283233,-0.0010634578541501877,3.8198047573219374e-05
1681944487.7556942,-0.19341304933292874,1.4923444747707206,9.705658493672809,0.001847676951103299,-0.0017295175030438907,-0.0016948333091339
1681944487.7658243,0.0578625071113421,1.7568170582657423,9.665693454306865,-0.0003316217842762314,0.0007094083526074156,0.0020151805924479
1681944487.7756858,-0.18002488230959648,1.5315645810940857,9.703947999995949,-0.0005778281417585514,0.00011745418140555425,0.0005150017945789
1681944487.7856507,-0.15501130339510238,1.5241210915873054,9.695232605732432,0.00027262990777336113,-0.0006730417812607289,0.0001544078963571
1681944487.7956734,-0.022002730252098427,1.5987246915479025,9.64206179829583,-0.0002314076257587766,0.0011013133488858636,0.0010160804062844
1681944487.8056664,-0.2830810395868442,1.4767783099640361,9.734572502372755,0.0012233269171869371,-0.0021702515756963194,0.000893140180292
1681944487.8156836,-0.016402678933026476,1.5808713372538894,9.63789299500337,0.0006000838044955246,0.00018003939014729265,0.0007668416633033
1681944487.8256946,-0.032090575532299076,1.5556147572973098,9.64890129930965,0.0012255564695792362,0.0016154009898331264,0.0021608401416097
1681944487.8356953,-0.23262329110314564,1.7060947130036928,9.788311807843032,-0.0008553912776771153,-0.0013771090413249123,0.0042894755874523
1681944487.8461075,0.02721869238257693,1.4897313420820295,9.58017294138288,-0.001565073347991277,0.0033308986146584657,-8.437378213321106e-05
1681944487.8556938,-0.2952616050348849,1.4994337722487916,9.756081270863474,0.00015641219974588092,-0.00025581283585468387,0.0007079939509504
1681944487.865809,-0.09136794507918562,1.5115995452259914,9.658300620026656,0.00076212153119347,0.00037860920173924946,0.0005179928534426
1681944487.8757367,-0.19653563941146385,1.6848444654331933,9.777638918435859,-0.0023853678463818286,-0.0008988102741485351,-3.670031086121933e-05
1681944487.8857744,-0.09863042932174419,1.5451405303830512,9.678906521700224,-0.0015020968069728525,-0.0009516968079995063,0.0010339553968743
1681944487.8957913,-0.14119916085633452,1.5119847497144834,9.682082522214284,-0.0007838528629010296,-0.0011491445429120024,0.0010451159591549
1681944487.9057336,-0.18444348412327233,1.3614809305218487,9.645398075163985,0.0027916778342876153,-0.002161264676736902,-5.420836035673754e-05
1681944487.9157107,0.10165970096104883,1.6015654545006794,9.56732843420419,0.0020942551181333028,0.0024677590285197945,0.000323484969581
1681944487.925715,-0.17445860695918106,1.649956799835487,9.7617733220638,-0.0001874588908080945,0.0013751278903811424,-0.0006129952694526
1681944487.9357653,-0.16980444597962752,1.583390436082859,9.715005872820777,-0.0006992990125939054,0.0003186155770683995,2.252621694887741e-05
1681944487.945764,-0.12145834428249004,1.4954772345372807,9.661586337294153,-0.0005938849093574235,0.001020467533946159,-0.0016605557489446
1681944487.9557571,-0.11097081748547079,1.512142692995297,9.660273654275246,0.0003896061469568329,0.0012465987573050841,-0.0012571007560244
1681944487.965713,-0.22523340897555377,1.5532150943546288,9.747312223209036,6.14094015364646e-05,-0.0007900428834035205,-0.0015428416977873
1681944487.977045,-0.036920436147303164,1.4952145352173125,9.616546759384217,0.002025010441910104,0.0010305313702421684,-0.0005276851902953
1681944487.9856887,-0.26982798849197426,1.6018174239107257,9.790486534790846,0.0012155071552595346,-0.001852473681984841,-0.0004803819197467
1681944487.9969437,-0.025276917798966424,1.4726694134584173,9.610768117131759,0.0027715572200563885,0.00041659689534861755,-0.0003969344857386
1681944488.0069673,-0.2385198303209291,1.7826006597643547,9.832901084601467,-0.0019502522090588783,-0.002208994285028434,-0.0001655969850025
1681944488.0157254,0.07981964619992113,1.5342178634490402,9.575430861855285,-0.0007082496325097994,0.0010200949342698956,0.0013181708613638
1681944488.0257068,-0.2708452219205047,1.5160969581703991,9.753210138364174,-8.126658255522156e-05,-0.0019582721261279684,0.0010887031362154
1681944488.0357258,-0.10703578722158498,1.4884075106254135,9.656225057372373,0.0006448000480321786,-0.0012504662614576765,-0.000367130766367
1681944488.0458908,-0.11493898684218662,1.5077276680605818,9.665791517725093,0.0008247261397178889,-0.0005642804659599201,-0.0017164390615425
1681944488.0557492,-0.08051018824137646,1.6762079201899864,9.704633212833516,0.00018247880289743004,-0.001019872775492602,0.0017488333737356
1681944488.0658016,-0.056190497107198034,1.510960090642107,9.64111209817788,0.00012884946313458667,0.0009332927693589062,-4.453261729841368e-05
1681944488.075824,-0.20769874907886132,1.5944562538652993,9.763554555411613,-0.0005979773467890119,-0.0012489793267443817,-0.0003362197044542
1681944488.0857422,-0.060319075162044565,1.5080290311995292,9.652180811596649,7.295381662326585e-05,-3.4169460430704466e-05,-0.0009005972265503
1681944488.095797,-0.05310358531544395,1.6377453637590167,9.6701595147134,-0.00045716437704882335,0.0006945108163959203,0.0016474876151415
1681944488.106675,-0.11325581636568287,1.453339151483838,9.640340672156638,0.0004615040081228989,0.0016008684675420618,-0.0005094450048408
1681944488.116776,-0.114507520522962,1.5134185922008911,9.673771310748736,0.0021717785560866126,0.001008553711096761,0.0010883342160605
1681944488.125702,-0.11150541398540646,1.7035827523016032,9.729712313855499,-0.0002992268740783711,0.0009217560391800663,0.0014280827285484
1681944488.1357336,-0.04584815515618992,1.586995304182764,9.660859648574268,-0.0005737604008318859,0.00232729639725505,0.0020036501932418
1681944488.1456995,-0.1803241123171046,1.435067658240855,9.676906228324174,0.0012519983650565536,0.0016087046178568467,0.0004334385425546
1681944488.1557066,-0.2059782841988942,1.6432314127842267,9.761339138845635,-0.0005093100588509565,-0.00013921429663476395,0.0002643002348714
1681944488.1657135,-0.21639306449882745,1.4832293313640814,9.700525491622379,0.0004380343416830074,-0.0017377225284569598,-0.0006092769640735
1681944488.1757157,-0.08447594516187773,1.6842268847021638,9.713480809158275,-0.001433549616600914,-0.0015168308768971715,0.0005377364263632
1681944488.1861334,-0.048151455568763255,1.5406387297461204,9.637040332056538,-0.00225311131853029,0.0005961511690598008,-0.000883838775312
1681944488.195734,-0.24333398906698075,1.2909030146096243,9.654031061321998,0.0029417944676062486,-0.0018129901625654097,-0.0012816986150345
1681944488.2057383,-0.019182344861884304,1.7135391203142374,9.687812367365003,-7.234026496883934e-05,0.00025789989833811924,-0.0009095421142182
1681944488.215749,-0.17086556038346035,1.621535124874731,9.732270469318882,-0.0012070514647917648,-0.0008805602098369474,-0.000148837020365
1681944488.225749,-0.12627927498629424,1.439077835360384,9.645541079598948,4.9839563787271224e-05,-0.00030090426525820164,-0.002364266345953
1681944488.2358675,-0.026358945843192948,1.6016226953021988,9.657396767929724,-0.00039049079996795723,0.0011478664826205403,-0.0013536041683754
1681944488.2457411,-0.03755271586252197,1.6747642448184306,9.69098648434704,-0.0011720177886232496,0.0017197111379150132,0.001301060952269
1681944488.255772,-0.21794454364795196,1.4286962868461357,9.690761612630887,0.0007774103347831482,-8.455870282647013e-06,0.0001391401433148
1681944488.2657905,-0.16498258928287118,1.5459204861314688,9.696378243765883,0.0012385992607180506,-0.0010485608200847354,0.0006561942550116
1681944488.2757466,-0.08411176264871979,1.6269856287823112,9.703351035409607,-0.0014067203171060935,0.00016439739171520323,-0.0013599227263829
1681944488.2857904,-0.16121205084733564,1.4591920663705165,9.666458661486159,0.0005341507100637788,-0.0006987551364076878,-0.0010931965976259
1681944488.2957563,-0.10215504075512179,1.5769019259073098,9.678164289375616,2.4906691401649663e-05,-0.00018056721023069366,-0.0010473671450517
1681944488.306632,-0.013547669067703938,1.573466517567609,9.62469625778654,-0.0004746595301320086,0.0023932203286725416,-0.000941973560234
1681944488.3157513,-0.3219020885386217,1.5810658917765994,9.810851715467166,8.003716621512713e-05,-0.0021184612436624516,0.0008122926496663
1681944488.3257675,0.020250649083466462,1.5959992148693094,9.620774665183113,-0.0008639803314915406,0.0011415389847548299,0.0003462514991634
1681944488.335763,-0.24621477026688318,1.3941477915757712,9.699765797970915,0.0010530706988417992,-0.0005128333681745476,-0.0021772493223897
1681944488.34575,-0.1033464026120354,1.7293145655017759,9.735830821308843,-0.00035917686919869105,-0.0016211374057745816,0.0019131097774016
1681944488.355814,-0.1695869690768801,1.5326999675816115,9.696994022511154,-0.0013899583324179841,-0.001605884873546698,-0.000811562788417
1681944488.3659,-0.07497141962170996,1.6458190368334322,9.687849150628466,-0.0025634357974648795,-0.0008526261109465701,0.0004609905567714
1681944488.3809547,-0.08934838974277481,1.412414899704887,9.629775268773239,0.0013127401528850644,0.00046874406162682137,-0.0010659975546649
1681944488.3857665,-0.19837024258219033,1.4503840461147879,9.696157610860014,0.002033199753777923,-9.490139176843007e-05,-0.0015935123979351
1681944488.3957217,-0.03477923410901658,1.6698361569246873,9.662107751569925,0.00041679719200215,0.0015844735791355532,-0.0006070471449992
1681944488.4057283,-0.029631085780561617,1.4769696598958328,9.621858643076022,0.002431047916914486,0.003164754286493782,9.92626568996416e-05
1681944488.4157426,-0.1524003502015359,1.7019609514674996,9.75606701255547,3.4551891145191875e-05,0.002072863943709544,0.0013587656116806
1681944488.425771,-0.16008171741246233,1.6068016227366388,9.722509434457416,-0.000855035028666209,0.0010837972416962909,0.001335320380772
1681944488.4358144,-0.2156335276250431,1.5070241144190448,9.710272964620954,-0.00031820842586519624,-0.000381722271718275,0.0004047467059218
1681944488.4457867,-0.07216814667897897,1.5718409962117632,9.686306499281132,-0.00027572976954727947,4.0345199162624246e-05,0.0010525749798626
1681944488.4557512,-0.10891934932343118,1.5618296347222584,9.67909081395623,-0.001479373468151451,0.0008691997716532247,-0.0003384716424397
1681944488.465901,-0.06867243310005135,1.4976435294091721,9.64773219481594,0.00045144814798044503,0.0014771915969162986,0.0010380550788478
1681944488.476211,-0.08400376192330446,1.4276691477641634,9.625086922976303,0.0021505609231120644,0.002766874377529057,-0.0007921991951069
1681944488.485709,-0.20422474165639504,1.7109846384598069,9.791611243781492,-0.0012673992178649604,0.0011348316932173667,-0.0009698883245936
1681944488.4957893,-0.12122768540833745,1.6250173078509713,9.72693848215705,-0.0015456859440829327,0.00021468494952721093,0.0007396593841486
1681944488.505742,-0.06537235869033957,1.4520868030449474,9.619789162720378,-0.00016097867702459404,0.0015811288307431926,-0.0003056557930312
1681944488.5157409,-0.12357277145994314,1.6463999209549212,9.71404035183172,-0.000768597193118939,0.0007611873312189132,0.0021317953337212
1681944488.5257444,-0.1024629917309671,1.5266087202614176,9.659301277459575,-0.0008047183285632958,0.0016031070337751009,0.0008245916955866
1681944488.535781,-0.18281582738926347,1.4284482758062607,9.684073791045785,0.0016655141016485545,0.0002430007875597764,0.0005652972881444
1681944488.5457962,-0.24969914110446118,1.513182049180666,9.728940029083367,0.0014296995220731974,-0.001607719314553401,-0.0014947887125662
1681944488.5558207,-0.03512938802124434,1.6434663508176464,9.673637097117266,1.8567681451488314e-05,-0.00010682685182336614,-0.0005459710105559
1681944488.565725,-0.08195025614982386,1.5281369487334053,9.655801574779066,0.0007967838522126633,0.0005071350686451833,-0.0003250177565268
1681944488.5757446,-0.1486721035396178,1.6073651590138958,9.716913503717969,-0.00021910660325578444,-0.00010420208417551293,-0.000641691646283
1681944488.5857277,0.051430156201908224,1.6303210316358145,9.613356123792903,-0.0006892796525875016,0.002955382363343654,0.0018811152817444
1681944488.595724,-0.33475229552620156,1.3980117487782409,9.745941574338245,0.0006798091489781103,-0.0004558439363488858,-0.0015163777011684
1681944488.6057248,-0.03662251443593543,1.7532822224281028,9.700342927150391,-0.0027403979982770907,0.0008465031210663224,-0.0002162348560294
1681944488.61586,-0.2733944274794023,1.3591809229219927,9.702062317483414,-0.0002000952176988803,-0.001598375692744155,-0.0028179955284348
1681944488.6262584,0.06687778360700754,1.693597228059724,9.63345391552831,-0.0008885098746476972,0.00099550521165677,0.0016933418569034
1681944488.6358802,-0.14866571180208848,1.4743038326920406,9.681032517394154,-0.0005685404833648387,0.0013073151870130792,-0.0011200161266378
1681944488.6457655,-0.0745797311340189,1.5511240381815434,9.650077359113213,-0.0004597669614089154,0.0022751533457777942,-0.0009374615351906
1681944488.6557784,-0.3127252215675366,1.5756169451476711,9.78849648933035,-0.0007734305704793303,-0.0016453330140578607,-0.0006778241682103
1681944488.6658597,-0.0679175542528775,1.4912472839008308,9.630762610798472,0.0006578155610232236,-0.00047857012817672633,-0.0004576541564664
1681944488.6758072,-0.07577537312969235,1.554639712368167,9.674760997522528,0.001691594044185011,-0.0003273448132215624,0.0015454334183824
1681944488.6859882,-0.021005127846916594,1.611175410411435,9.659507879020632,-0.0009701657487368224,0.0027445264618032343,-0.0008477057877234
1681944488.6957808,-0.23392205750814415,1.6318385431842803,9.768653894466725,-0.0015333945543380032,-0.00017944898520527036,0.0007191622548499
1681944488.7057457,-0.12362979575195258,1.5078313254885403,9.67628638832522,-0.0020921899283152896,0.000498915931353517,-0.0015569991979054
1681944488.715803,-0.03562525132703464,1.60982009692238,9.646342536481955,-0.001133689138192555,0.0009917885839788659,0.0021880200051465
1681944488.7258694,-0.24544805262998984,1.4452604114357488,9.729733810200695,0.0004588901563853496,-0.0013465765669345056,0.0007381487789326
1681944488.7358398,-0.15698244021978042,1.5991887663533018,9.721381895000642,-0.00019563372865137515,-0.0023397541433155034,0.0014362754277181
1681944488.7458296,-0.07164962079024641,1.5426916805652202,9.654139129152018,-0.0013765739378694504,-0.0005233149825280938,-0.0013714727561226
1681944488.7558317,-0.16836646898887375,1.4704090270157508,9.689266283953046,0.000944305594890284,-0.001954920452375294,-0.0001402624498358
1681944488.7657962,-0.06255152706096542,1.5677500209288748,9.649664822655387,0.0015988344498928024,-0.0012553127772417423,0.0017164355571959
1681944488.7758183,-0.14544962804779904,1.4675717373943886,9.668515726827687,0.001919203880189268,-0.000748670467459608,-0.0012671758036366
1681944488.7857437,-0.11258868657321831,1.6924949581581648,9.738327808799026,-0.001181723667387428,-0.0006823707406275648,-0.0016456562175652
1681944488.795761,0.045164232680803267,1.6234212871021467,9.61934626805731,-0.0014894210385763516,0.0021183247394969923,0.0005333003041097
1681944488.805789,-0.28897125248941086,1.4985884703317607,9.75396170563131,-0.0012629389205717307,-0.0007669494814148295,-0.0015521612099609
1681944488.8157637,-0.04895395107627179,1.4918001854371339,9.623633164441822,0.0006872476198688023,0.00020316622361728489,-0.0005537545389733
1681944488.8257685,-0.16478068860248335,1.6438843106560215,9.74190592604097,-0.0007182961980303545,-0.0012791473961042633,0.0005634438398056
1681944488.8358045,-0.09699810585807297,1.613248124595197,9.680586600245647,-0.0018861747133458123,-0.0006514460648010615,0.0008707767387614
1681944488.8457873,-0.12417185008486191,1.3911819398268266,9.624856656054577,0.00032665523699478444,2.694785976428922e-05,-0.0014381389214894
1681944488.8559482,-0.039561201853172356,1.5576506120545441,9.647976466721488,0.0012542463714410527,0.0010722600268740449,0.0002646887128003
1681944488.8657887,-0.25052732601842476,1.6975490018871942,9.807301694952734,-0.0022367163064411803,-0.0013816130903061257,-0.0009270514442822
1681944488.8760204,-0.011111697259231498,1.3152278073272996,9.543478537926136,0.003245786131361619,0.0007969691525140555,-0.0001119282410717
1681944488.8858533,-0.09198813044619819,1.6619459119800883,9.708601281215635,0.0013957982017469624,0.0011177233796357971,0.0002822241198965
1681944488.895811,-0.32605789412871156,1.60294518307939,9.773250503982448,-0.0007030492243582202,-0.001981369678263322,-0.0017264943185499
1681944488.9060602,-0.4926810053180627,1.656560640183103,9.718923702341922,-0.0016209777578965368,-0.011959222615959138,-0.0026610900263539
1681944488.9158149,1.2214501762582821,1.6220877474001394,9.645775896726102,-0.0006761754149244873,-0.0027826832963619764,0.0010417712305435
1681944488.9257877,0.22495734909110615,1.7134351999168622,9.539069262902782,-0.0027951429649929783,0.005263569438149089,5.940472825850113e-05
1681944488.9358354,-0.7948354960150104,1.5963653021545603,9.803702724766866,-0.002302275629236126,-0.007028027853430456,0.0008998351672426
1681944488.945887,-0.4297262879694167,1.726539314525017,9.680246777555906,-0.004756182299385869,-0.015548130905573146,-0.0026503416325203
1681944488.955917,1.210309053297405,1.5656995747697369,9.786834077261558,-0.0060900225303342,-0.005618396437517109,-0.003293463176792
1681944488.965948,-0.0685314557475955,1.3781319979179127,9.570274220556259,-0.004231319804594783,-0.001180418888397002,-0.00620203200609
1681944488.9757671,-0.4651999329728785,1.6218963330428549,9.740523599585181,-0.005186758732708506,-0.009169344944083516,-0.0044787238898924
1681944488.9858117,-0.09485741974214862,1.5256771567099219,9.561962147336212,-0.003502162721563798,-0.010641196617187518,-0.0036997731390646
1681944488.9958527,0.5233076696985873,1.6499678581170272,9.646089739621203,-0.003452282352596665,-0.0051620241470058895,-0.0007128484162739
1681944489.005787,-0.19002049044749347,1.7126278604778626,9.697310632393679,-0.005256820996081659,-0.006788922347838743,-0.0057460355188003
1681944489.015904,-1.9424891497704935,1.9966323099719943,9.603175915347716,-0.008762079333762315,-0.04294516877488059,-0.034427446461027
1681944489.0257878,-0.3476466430721079,1.1476982176136665,10.172921719901266,-0.013039849174139388,-0.07614979524256318,-0.0815718184772185
1681944489.0358942,-0.9582813867593958,5.723658614681002,8.687632003648737,-0.02882479355234592,-0.10318537151129216,-0.0527700829866579
1681944489.0458758,1.339096248291917,17.402851736327126,8.882038071616968,-0.2111621262521839,-0.1283863042901294,-0.0333450596395186
1681944489.0557995,8.147538279342685,5.334478809198637,7.867039111256329,-0.29292045444311915,-0.03557706391097203,0.0140453193721124
1681944489.0657957,2.989745978669531,-6.676624079843797,8.93101372200371,-0.1674093568155882,-0.0365942901757426,-0.0079470241057923
1681944489.075884,0.4511850795419111,-3.7741917721144573,9.877546364038405,-0.1056838467171188,-0.04143771530002356,-0.0712739761534384
1681944489.085781,-6.307605317598983,-5.685694847108014,9.673371368770923,-0.025584383822455568,-0.1465136108771087,-0.0459705452981642
1681944489.0958896,-2.471794016187291,-4.124917089250439,8.377658747943041,0.050966574898146925,-0.22304033271030124,-0.038607281780546
1681944489.1057858,0.8531497398043281,-2.7221120099730527,7.120625920424851,0.08101798584710754,-0.22051547471929536,-0.0207994330290011
1681944489.115796,1.6546658046619793,5.237491742664714,12.02425975343694,0.0524944549461402,-0.23592418554856537,-0.0205983548972061
1681944489.1259353,4.521353695625589,2.778900925363227,11.744171277167434,-0.007899396831601797,-0.18465983625021595,-0.000558572736313
1681944489.1358352,1.4799885205769012,9.308561354499727,11.149377895975956,-0.0757849610564794,-0.17200612911873064,0.0191091269639083
1681944489.1458702,2.578595031812376,-5.699350455445543,10.665723401657623,-0.02552729114936684,-0.14257959986229013,0.0224652670708247
1681944489.155852,0.3884870397510386,3.2890057094142704,10.599946345665991,0.0032544262266491633,-0.13967115954907683,0.015210568757052
1681944489.165933,2.0659588886479083,2.971571305038326,11.837679733138698,-0.023724166298204487,-0.09996047102247768,0.0117279457312771
1681944489.175871,-1.7740030035954562,5.372334185183906,10.42437305746424,-0.058745193179178416,-0.11003975408895476,0.0074317523662694
1681944489.1857843,0.4221148808044071,2.090496898559809,9.846382828284284,-0.07240211256443133,-0.10529085731154603,-0.0122393771621636
1681944489.195814,-0.2725426003775232,0.25584145614661197,8.627110520939036,-0.05898181447174515,-0.112082987038597,-0.021882088071411
1681944489.2058113,2.215009917710532,1.7261233436669907,8.095345613441046,-0.04650920396205767,-0.08385072965570305,-0.0183874044182947
1681944489.2157946,-1.4748859731062338,4.018595394821613,10.331995672278271,-0.09054707501050212,-0.09789486311385284,-0.0138880323234251
1681944489.22585,-1.5275690781874427,0.9505720755778772,10.914339623344409,-0.08309391503502925,-0.129336807545414,-0.0075363210949352
1681944489.2359767,-0.4148495208631761,0.21203988008833752,10.609615257036367,-0.07620974756380569,-0.1414582431589639,0.0095103297766991
1681944489.2459216,1.025531905707809,-1.7204844571687936,9.647797106398905,-0.038732224372872194,-0.1330736030318908,0.0217976857361146
1681944489.255834,-1.4053461412369856,0.31946940520994344,9.654008711520474,-0.022004890038411357,-0.1486842237273936,0.0300221022602864
1681944489.2747495,-0.12094621928018602,0.6052541013604967,9.776161517852323,-0.02851315436334544,-0.15654332202757695,0.0320452329155751
1681944489.276451,-1.1746661826238107,-2.298908084322315,9.16475796483171,-0.01757577782665821,-0.15957295239472646,0.0310719598469087
1681944489.2860577,0.5436340000957717,-0.5432139393368511,10.069450348070633,0.0018715593277025104,-0.1594915255481912,0.0298010994133302
1681944489.2957954,0.1644719980650078,0.5566763340780831,9.453423695381767,0.01120878429830195,-0.15053168586487448,0.0162927562755295
1681944489.3057911,0.1799612907807245,1.4509841169737567,9.75974649158853,0.00759219038490962,-0.1532884549861863,0.0050120422069677
1681944489.3158076,1.28711174928608,1.0959857244278481,9.026067935202047,0.009231908532666864,-0.13432037512114037,0.0045219488360681
1681944489.325835,0.7387000076732915,0.20411855940934814,10.124769972854281,0.02132197534963845,-0.1351613943791686,0.0104697522160359
1681944489.3370056,0.7308588232675601,0.1571026215381101,9.491475731765307,0.042674830332168116,-0.12865322576369226,0.0092261692893453
1681944489.3457885,0.9938940257708774,0.9958370819775683,9.64842760540954,0.039375955797085284,-0.12599976239201252,0.012952648886735
1681944489.35582,1.4631347070917493,1.9212731662683251,8.693924996320785,0.0443435297931635,-0.11756370266934196,0.0200402129825898
1681944489.3658874,0.7973211971809063,1.9920828848093226,9.450615408780607,0.023579086624892914,-0.11086663203673415,0.0172255400952645
1681944489.3758652,0.21298123951660597,0.8628015143722669,10.059829119037436,0.03533607935647223,-0.11887581106744642,0.0139460310724326
1681944489.385847,0.6664124609784505,1.8140737903519082,9.530596411150425,0.029220297863994556,-0.12085003743931802,0.0137649577495404
1681944489.3958118,3.006350651123056,1.1093652831766834,9.818915658767489,0.03747131504571675,-0.08653898175903903,0.0185295369860478
1681944489.406527,0.1883515623353745,0.6687403369049715,9.679321699585223,0.04617854109805032,-0.08821779052896306,0.0244730849203416
1681944489.41581,0.9040720111335966,1.5821002444126286,9.024010635337765,0.05423088975915682,-0.0852481987033871,0.0236500025179931
1681944489.4258337,0.7644809504981861,2.625904322794573,10.080215462779865,0.034010275541815405,-0.0728969480678802,0.0264075778809138
1681944489.4359326,-1.452180136084815,3.499175366534327,9.868708279586782,0.013967503729883498,-0.09698617373575033,0.0225523960229703
1681944489.4459045,1.1771629490118716,2.56108307398955,9.63981613344893,0.0011706935235406928,-0.08870956632434014,0.0223477304366179
1681944489.455826,-1.0073168226319569,3.256774972659034,9.004924543548356,-0.009574247743309392,-0.09692760013660376,0.0126670057338425
1681944489.4670486,-0.25845506399084556,2.3474779510450077,10.103430468939639,-0.029363935153613543,-0.10498009859846853,0.0041603644762882
1681944489.4761312,-0.35111748692192013,1.0059017635031173,10.50902995202101,-0.010380448953699235,-0.10957710115588509,0.0072616397787579
1681944489.485849,0.3422256236180311,1.114703205007205,11.120488892122417,-0.009858215683624334,-0.11614157536606642,0.0158186013263412
1681944489.495845,0.6666956278109357,1.8779531688435882,8.95555762426236,-0.0005690801459219773,-0.10167229222923563,0.0134292569395848
1681944489.5058138,-0.0740666703323305,1.8406811693375016,10.543311640229685,-0.02545030605394572,-0.11173548493707337,0.0207816202577897
1681944489.5159352,1.0337514901884535,-1.1316526979882529,8.934262296584516,0.016931519824477523,-0.10016164057379055,0.0267523125198432
1681944489.5260217,1.349951666257665,1.4513593516384675,9.575737507125877,0.01848184199725274,-0.0916533490896366,0.0202486895409175
1681944489.5358658,2.475234509710275,3.2430259446197858,8.559474561660789,-0.006492013615410503,-0.06418043503945453,0.0175457455602237
1681944489.5458362,2.3785426464736306,1.4227880392447814,9.427318757032785,-0.00640532313957601,-0.03897736699998154,0.0166217990603991
1681944489.556034,0.0778971781658097,1.2561749602715389,9.42850608904055,-0.00011637761918090562,-0.04216558040900492,0.0202607892838069
1681944489.56607,-0.9375560185504819,0.7793625507167226,10.462597102532584,-0.0012794581318841276,-0.05787829545547612,0.0099942924839207
1681944489.576871,0.347255980003745,-2.112157686638174,11.530954739508417,0.035331152957938074,-0.0663430115383839,0.0198049702134677
1681944489.586349,0.7131889264361685,-1.0366781205033537,9.984337879865196,0.06957986495532341,-0.06721677690282578,0.0292180989322015
1681944489.5958574,2.136218680508298,0.5989282316972803,9.212332861562562,0.06596023163958925,-0.05048314756554719,0.0204603698489018
1681944489.605805,0.7010436495638384,0.7838781175707698,8.494373180016053,0.07411549383946217,-0.04981970015144213,0.0142172471073218
1681944489.6159868,1.355508268086681,0.7141507335354467,9.662158487777793,0.07524828655241304,-0.05224622086074119,0.0124135816854187
1681944489.6259944,3.041593970941366,0.9811586894896728,9.032758807383889,0.08649107414514569,-0.02531182435366885,0.0276188299444266
1681944489.6358895,1.2072053499332078,2.288950367103668,9.058709648735405,0.08719786765465172,-0.025926748697117474,0.0330476079520532
1681944489.6459117,0.8326948170570181,4.260025585165844,9.545483539156972,0.05264828150556198,-0.02464570559332043,0.0509936090943166
1681944489.6574745,-0.30803310081392643,1.1198525408894129,10.58859200019135,0.051533310255211004,-0.04455815260714727,0.0650715370115586
1681944489.6658368,2.5625460788018235,-1.5181567628961192,9.900968593330177,0.09707933187672096,-0.033443605789447134,0.0721185345587083
1681944489.6758313,-0.028826610045320007,4.396764317950937,8.363087546609444,0.06186483928346112,-0.030106545069343207,0.0452638816472836
1681944489.685817,2.812743933319555,-0.4496875774362432,10.113180987521515,0.07397971297407303,-0.015567398721808047,0.0396866489586182
1681944489.695865,-1.9050725700203446,-1.1578803326850715,7.850971723726334,0.1067848944009916,-0.03499057016124233,0.0405678030487843
1681944489.7058747,2.642782838655291,2.1922758803872484,10.362480166334999,0.09886797212312194,-0.02847413829076994,0.0218140975025245
1681944489.7158806,2.63236905106367,2.8675918274614856,9.81506583113108,0.0794435824346634,0.006487127830865837,0.0239301704254695
1681944489.7258337,1.4259457730336003,2.25566064956653,10.356935034490244,0.06839587480582462,0.00990567541843487,0.0289935067680426
1681944489.735896,0.6155667317401642,0.6566152824214493,9.504432546434792,0.08323483015270954,0.01587900730963815,0.0261085711803981
1681944489.7458425,-1.6906882872592532,1.1883026682920632,10.335496658815662,0.08462458360066709,-0.013743353791877978,0.0043543368496694
1681944489.7558415,0.6172590891775203,2.6199644336240726,9.447510642447272,0.07299723150227257,-0.014357414001450191,0.0050024698407151
1681944489.7659552,-0.7494482610127571,0.4814441804711414,9.196618671708853,0.07866477927158112,-0.021053655771063454,-0.0005937799892625
