time,ax,ay,az,wx,wy,wz
1700842008.3212671,0.4892828974473632,0.15262237872014142,9.927014070137963,-0.0029136810473665005,-0.003615731859539319,-0.0012184229791365
1700842008.3313868,0.7578040152862429,-0.17666763168185484,9.666811430496342,0.0012191568455551989,-0.001035220859455383,0.0003469375141229
1700842008.3435717,0.5587891548106209,-0.11013802584057043,9.791111100785816,0.0013223616289386203,-0.0012255697067052934,-0.0032475905837691
1700842008.351276,0.8345514233651219,0.20672218120264457,9.761662796820746,-0.0004680502763741966,0.0012107699376761268,0.0002724374707121
1700842008.3613691,0.5350804815856346,0.05652480872525244,9.878035768846168,-0.0018869908279176802,-0.0008444644945004743,0.0009753916300632
1700842008.3714366,0.6156866451141068,-0.1726630789073582,9.751851505451839,-0.0005462573883618513,0.0003707128097194749,-0.0018409277191586
1700842008.381291,0.5571641356043205,0.055158487088357,9.857166475574482,-0.00023408434000725384,-0.0019162429638018622,0.0014559569889478
1700842008.3914454,0.7200891739383442,-0.1072180970707453,9.712719463055713,0.00041224484167152445,0.0011072064093529024,-0.0006182954758606
1700842008.401343,0.5519016902177771,0.0464386152371217,9.853460424905233,-0.0016664635952773155,0.0001863200745706686,-0.0014627991123325
1700842008.4114366,0.6223350231121184,-0.09085010837955868,9.766440411348182,0.0011997778089846275,-0.00039222305788483275,0.0008096195296183
1700842008.4212737,0.6123726305821104,0.04382819350976792,9.824297426296217,-0.0006855956756434796,-0.00022049532134666358,-0.0004417094979635
1700842008.431344,0.5738138887771719,0.016740709292313204,9.827339101980945,-0.0008670105357457562,-0.0012829475772383253,0.0009627240132339
1700842008.441373,0.710324660760712,0.06621594359637302,9.7737915189097,-0.0026510625608841595,0.0006124767021558033,0.0008494730053734
1700842008.4512916,0.5238526015482958,-0.3187699063580912,9.749752033894277,0.0018498400975794343,-0.0003281599603450531,-0.0017176236370779
1700842008.4612668,0.6410717487724743,0.05178181282728413,9.808043203101413,0.0011722142571673603,-8.042250305696601e-05,-0.0001071732486798
1700842008.4713097,0.6383604370871973,0.052589845469208446,9.819427415998554,-0.0005593173389506276,0.0002444231056389787,-0.0002070078272573
1700842008.482572,0.6460818758227611,-0.07186183269653833,9.777122078823602,0.000205855772237293,0.0012215750678118771,-0.0007132814144916
1700842008.5015695,0.6107134365145745,0.0035934562468831212,9.812694587311912,0.00010304351191261172,0.0004359108382113462,0.0005574137748134
1700842008.5051568,0.1968489157571022,-0.09240617455077253,9.998922245398466,0.0001309965306089152,-0.00237631131600821,-0.0004160035397126
1700842008.511468,0.6654481466155922,0.033917085447573554,9.796593345803313,-0.0005876148083457465,-0.0017117258792700848,-0.0002386769275381
1700842008.524562,0.7057847122439375,-0.11079324520247932,9.715254906408592,0.0021206615491641398,0.0008758669227951258,0.0002616512418989
1700842008.5312862,0.4780926016375581,0.03664160307183041,9.89409875408021,0.0010444374296804477,-0.0008880642654344236,-2.648676946318939e-07
1700842008.541269,0.6685193320746522,0.040562096716376596,9.807856224738277,-7.50162518571702e-05,-3.683106863849799e-05,0.0009742645260211
1700842008.5512626,0.6281684078953153,-0.10279289856020811,9.763880096781985,0.0002434971655469876,0.0011291618912624686,-0.001903904450146
1700842008.5613985,0.7148149414425264,0.006508401798860987,9.756836662596038,0.001756351912921854,0.0017509394411462744,0.0022039655949719
1700842008.5725155,0.5523886528140256,0.044806011349286835,9.844927124006785,-0.00022777135209760518,0.0005886429044808373,0.001988298062215
1700842008.5812864,0.5226219023572659,-0.11983443288272923,9.81348223984648,-0.0001387252024615298,-7.111112619184264e-05,-0.0012508444134346
1700842008.5915885,0.608937049147264,-0.021365288511360287,9.80604120041268,0.0006916465951897573,-0.0007479879999464878,0.0007362267123334
1700842008.6068172,0.5794826452180795,0.014031901723506901,9.833432312336221,-0.000957167442052552,-0.0017467422167546046,0.0002374119711839
1700842008.611383,0.9516056042528842,0.04943551435816161,9.648085773900075,-0.0011456792605998474,0.0011571211652609814,0.0011799010452613
1700842008.6212797,0.4764258672586427,-0.10476658363010735,9.85600935758029,-0.00019497210686328188,-0.0014539295463932118,0.000212826597717
1700842008.631282,0.6771291730518618,-0.07982640422498023,9.74475368298177,0.00016488045264957975,0.0005115311357311872,-0.0015715859709508
1700842008.6413305,0.6956514698245924,-0.01467838096001654,9.753900447316706,0.0004245332690525553,0.0020597554878702016,-0.0009304796923152
1700842008.651267,0.376207142364738,-0.0735292992016513,9.916665262819102,0.0014672652678072724,-0.0031023668492718842,-0.0007024687594003
1700842008.6614428,0.8228386192306011,0.09795778835529023,9.720725690425096,0.000345191111712778,0.0005875335898873794,0.0019249566020243
1700842008.671304,0.4180665871422148,-0.03317642055498733,9.911602815773337,-0.000380859157838165,-0.0029626768597028046,0.0002552995928362
1700842008.6814587,0.67975492563626,0.07462525221740697,9.803193837567184,-0.002546743999404566,-0.0016521310534526998,0.0006852004215851
1700842008.6912842,0.6899162403053588,-0.18084465975575215,9.70065696756784,-0.0007537822887539691,0.0009880012433939906,-0.0022216416774518
1700842008.7014468,0.5307152973585098,-0.09679028580804322,9.829650599637787,0.0019500527962061783,-0.001667383905250274,0.0002024004997019
1700842008.7112677,0.6651916124369169,0.12700384873950013,9.81128368224541,-0.0012581708566488633,-0.00027077917936069683,-0.000345228146316
1700842008.721274,0.5717113667670638,-0.18755651786660954,9.76352506818999,0.0018017748382684509,-0.0008794578247123757,-0.0014315097006238
1700842008.7313612,0.6183693083439604,0.07226292367642109,9.83404486176731,0.00036121397767662416,-0.0012274312934710972,-7.103874769206413e-05
1700842008.7412615,0.6403944015706339,-0.04888639560331888,9.770351606185905,-0.0006520727316169047,0.0006504944031991451,-0.0030277949637002
1700842008.7512984,0.6182757507481375,0.10473505493374244,9.840344029983248,-0.001470513633760947,-0.0004872174793581849,0.0004728673219596
1700842008.7613518,0.558661322870363,-0.10950441252165821,9.800112693270002,0.0006260853384416522,-0.0016733462568178277,0.0011106240334719
1700842008.771381,0.7130733142703566,0.07933238494736977,9.777627644496638,-0.0012857260383732257,0.0005938580646580984,0.0011195533796944
1700842008.781356,0.5365502286308306,-0.07136533184041517,9.826893544578667,-0.0013490617503050602,-0.00043171894636121123,-0.0006849714201144
1700842008.791336,0.7348444979880249,0.0894387713549817,9.771949819252066,-0.002689424089426224,0.0014469458181700806,0.0014541061017461
1700842008.8013694,0.5594061768410813,-0.19215173541276787,9.770001222248245,-9.997240251831649e-05,0.0009097641986579562,-0.0001772062033615
1700842008.8112557,0.5809683420331122,-0.0035611139164209112,9.830277156480248,-0.001001484574553604,0.0004586244946562695,-0.0010139187444202
1700842008.821327,0.5093434995689207,-0.1315007779728415,9.819766667134303,0.0005538141728970283,-0.0014722020291884467,-0.0022365505220569
1700842008.8312628,0.6956540824695645,-0.02214435033746554,9.761792344705386,0.0009442211071159241,-6.961452750220213e-05,-0.0016487022740967
1700842008.8416512,0.5751906474951446,0.02683941098553367,9.854582865856733,0.0005120881784219799,-0.0015791011058085963,-0.0006518135424904
1700842008.8512793,0.6969547854648214,-0.12260519794246783,9.72989462119523,0.002605316453157194,8.948236068077223e-05,-0.0007889099298245
1700842008.8612947,0.5978761641661775,0.10865439258291962,9.839315154272663,-1.8775243150435606e-05,-0.00016125666310486136,-0.0002364404145828
1700842008.871441,0.6799959587056178,0.05065923725363249,9.782907798822897,-0.0015342327337611859,0.001263286018262425,0.0001986779160596
1700842008.8813472,0.48689492490107933,-0.18234076078050754,9.82176755362514,0.0015410121604361008,-0.0012590898124710927,-5.426999369780787e-05
1700842008.8916452,0.761699200964719,0.12256152945196451,9.77758151525701,-0.0009661034439961566,0.0014853225110448912,0.0009146549335945
1700842008.901374,0.5475806561928259,-0.010105009724259092,9.853846641367598,-0.0021176042109886427,0.0005539905943881298,-0.0003597469413853
1700842008.9116223,0.7136616976587773,-0.06588175493431889,9.733792220857797,-0.00042145648851193686,0.002352942669845448,0.0009262012671478
1700842008.9212475,0.41563161645932906,-0.056748573783292004,9.883912228869267,-0.00038980054600569486,-0.001157027278774924,-1.627750417362221e-05
1700842008.9313133,0.5818453083687699,-0.15665930855983445,9.772775406969501,0.001210215331246543,-0.0009025963576052271,-0.0021281457385248
1700842008.9412558,0.5522401709360947,0.021054740614581402,9.838095132736818,0.0006339087730105761,-0.002300315165342049,-0.0015078849038309
1700842008.951265,0.6327253936308382,0.07944091643125277,9.82692814966674,-0.000494479005085777,-0.00275182433332573,0.0007049352924604
1700842008.961506,0.7620561372517775,-0.03055022484566796,9.716723755598956,-0.000368941020956991,0.0005346267518691548,0.0007824318953589
1700842008.972236,0.46594432893915116,-0.014756710538195246,9.88295704260392,-0.0011959581308488272,-0.0024970250112893804,-0.0006857075141943
1700842008.981289,0.7208535291696115,-0.10783874415564676,9.713792919111265,0.0005139464019658804,-0.0005050848756988517,-0.0004156269943542
1700842008.9923358,0.6905535176394029,-0.04844267827127746,9.744971350482205,0.0020278837276568405,0.0009380904332868647,0.0011843958408371
1700842009.00128,0.5421370080279668,0.04375870786281037,9.863266407062609,-3.888199737470435e-05,0.00022057983478290523,-0.0004629540136284
1700842009.012092,0.662185490221882,0.052476431466415174,9.804343829003846,-0.0005064026064785114,0.0004817256350497082,0.0019741471977703
1700842009.025866,0.5662661986470942,-0.15884408573869385,9.774843945311565,0.0017123760820282083,0.000501102101007658,-0.0015384322842783
1700842009.0312817,0.5736951842534038,0.19874910685372477,9.906615195421153,0.00016190902714305293,-0.0007234014419449051,0.0002605100807067
1700842009.041348,0.5771152458834632,-0.08566450865498705,9.809385904954462,-4.5597448806978504e-05,-0.000611275294795377,-0.0020722694108463
1700842009.051318,0.6073497898471638,0.06698064675060289,9.833493072261824,-0.00036819459164452685,-0.0017959138527938335,0.000951551663902
1700842009.061273,0.6882953788093773,-0.08261160459362385,9.75378822709907,0.00021071328614247578,-3.869167501020972e-05,-0.0002796526178918
1700842009.071372,0.5800230255254795,0.06678227027486232,9.856379896436572,-0.0014950961505885796,-0.0010482534230826762,0.0003677970152147
1700842009.0813217,0.6526904848334165,-0.11885387871795139,9.74618152204437,0.0006041027691380208,-0.00032069813350878683,0.0005723121402206
1700842009.091333,0.6557393812656171,0.077968846831771,9.814477919950415,-0.0016839732966996762,0.0004578783240434597,0.0003506561105404
1700842009.1040604,0.548324382487978,-0.10733006241893042,9.813386941208798,0.0013420856579464918,-0.0018011147309396375,0.0019495549266957
1700842009.111295,0.7679668099655504,-0.03816698147766199,9.705713019787671,0.0011699771448063952,0.0009570736330995796,0.0009336757419895
1700842009.121254,0.5545174169609368,0.09908010862597351,9.885139619214668,-0.0014839215061847775,-0.0004544398497540629,0.001379960251952
1700842009.1313822,0.6461113061882692,-0.2100121613762832,9.720024341496078,0.0024257708554194075,0.000481725033932079,0.0011598068875991
1700842009.1413937,0.5057965189790369,0.070512536979003,9.892932493939075,-0.0009366620662383574,-0.0009499166173721432,-0.0020629620058662
1700842009.151391,0.6542405421748891,-0.011671786888639396,9.784764796832878,0.000581378872837041,-0.0011857046639331317,0.0018206637240745
1700842009.161371,0.4932467495898927,-0.08780103678741036,9.841644293781902,0.00023306958172148324,-0.002610259799761327,-0.0010072022788427
1700842009.1716127,0.7111721859657617,-0.007676724515879946,9.747756957155822,0.00017940507697589494,-0.0007200532908617541,-0.0002811494278922
1700842009.1813052,0.6690285544718599,0.006600474499171868,9.782952485927536,-0.00015995776367020215,0.0003099953282253024,0.000569331360466
1700842009.1913972,0.5026228367774476,-0.022105053472418815,9.854075652585768,-0.000518700043677043,-0.0019177402234653938,-0.0001943437610953
1700842009.2013416,0.6153751609597207,-0.04858303847017734,9.791854927198989,0.0002252440164470102,-0.002035820958721045,0.0004054217050815
1700842009.2113817,0.7078265603167022,-0.003788051963937413,9.753366729760463,-0.0007437166016524462,0.0005122730842551204,-0.0003604948516204
1700842009.2213106,0.5910274632223446,0.006989652529673325,9.82750768359451,-0.001251458651791003,-0.00013481002377577984,-0.0002804015758648
1700842009.2312574,0.6162486411891334,-0.14859222483327014,9.771909514700786,0.0006189940264897669,-1.0383740436998127e-05,-0.0018684976613349
1700842009.2412443,0.6603583901738364,0.14587491903794017,9.819852067589455,-0.0018318789260286243,0.0003561733154626333,0.0008114848232161
1700842009.2513125,0.5486259895296166,-0.2060650413214186,9.767681082094082,0.0013238258059404928,-0.00044399576554271644,-0.0004160041217892
1700842009.2613008,0.7112028420264278,0.09073565365283193,9.803234071601013,0.00030720347590334373,0.00044744976817568354,0.0021790380477704
1700842009.2713306,0.510445944293031,-0.09040663575534105,9.841476700079681,0.00030868896804854654,-0.0008809764665021068,-0.0004226964311874
1700842009.2812622,0.5440356224215767,-0.06896020698286799,9.822154544960572,0.0012381331486099245,-0.0023163399936730693,-0.0012076377980611
1700842009.291291,0.8100596114227991,-0.002337165936386359,9.69695701948096,0.0021500865554416383,0.001100516907036213,0.0014619049969859
1700842009.3035526,0.5388718348400567,0.037035488292900653,9.85022654842211,0.00042379791698664515,-0.0003914795932961514,0.001075977844166
1700842009.3113174,0.6401848717609943,0.0288340747024478,9.791284756354925,-0.0007973538142110691,0.00031036057793204963,0.0004788150462354
1700842009.3212607,0.5181970082702648,-0.10609726926305299,9.826026937495719,0.0002770230244271845,-0.0013686232206129485,-0.0001828022878817
1700842009.3312645,0.6324353286981673,-0.1258057805524537,9.776959028175407,0.001908696094182704,-0.0009055519771671141,-0.0015086367139793
1700842009.3412557,0.7503222771584984,0.11468443823861374,9.777842192784565,0.0004074068355354547,0.0010043846589866568,0.0010137762937028
1700842009.3513746,0.5406708813974894,0.06097281748246192,9.877036412410478,-0.0016556538802110364,-0.0005483143613539684,0.0009012595463809
1700842009.361306,0.5614708309975608,-0.028292081259592525,9.833724386228809,-0.0017309050157339491,-0.0016305162749141236,0.0003048412098814
1700842009.371324,0.6952552535967202,-0.08345514056692553,9.729691284448812,-7.054579238721922e-05,-0.00024321912423055098,0.0014622950465217
1700842009.381362,0.6136006314530899,-0.021496085214939665,9.785108904944178,-0.0014433352984281548,0.0007357786339448742,-0.0006104675932056
1700842009.3919277,0.6213454147147158,-0.0932940831188224,9.771670598947157,0.0009836953339926637,0.0004556541868835023,0.0006676997426347
1700842009.401326,0.5549684637913197,0.04771393886475571,9.856089512178395,-0.000631950408375184,-0.0006410855759661106,0.0003432041911673
1700842009.4150538,0.6314565611837982,-0.050496868035981544,9.789316881198921,-0.0003566315154275534,0.000236969104766085,-0.0007188713289998
1700842009.421259,0.48547276099026443,-0.07741244150477931,9.857923931617679,0.00037574149616538137,-0.0014438727749458843,-0.0008537261393121
1700842009.431352,0.6507855062853072,0.02438501118374197,9.804542644436887,0.000771369961591398,-0.0015597239605778346,0.0018441354976766
1700842009.441347,0.6599925126892481,0.00591321656607156,9.78435455780557,-0.0003700582845392354,-0.00022272861048107097,0.000652405970768
1700842009.4513066,0.5489447102097753,-0.05899186798879299,9.826590470183366,-0.0016128155811551495,-0.000556514775778824,-0.0028452662164546
1700842009.4613268,0.6692051140542468,-0.007348878827322182,9.777434810401676,-0.0013721700848951517,0.0002738414287934321,-0.0012083741249717
1700842009.4712672,0.7391567614600539,-0.07158648073711653,9.716092826370636,0.0011803988024663948,0.0020381556993395904,0.0013699070322126
1700842009.4813263,0.44796242096700434,-0.019477230507350243,9.89418678673287,0.0010470373434863156,-0.0013745720375243316,0.0012439879709653
1700842009.4913323,0.6568499502838998,-0.006973489043117248,9.785055415011444,0.0002982601498212902,-0.0002726433987312706,0.0010796991763435
1700842009.5016875,0.5969801326712333,-0.006264923335897517,9.815325466157573,-0.0006964050963498992,-0.00029872388516130746,-0.0001894983225702
1700842009.511299,0.7179000231769459,-0.06597700304255692,9.735886213294092,0.0005202841001189157,0.0014290682853734093,0.000420703675345
1700842009.521299,0.41351477407922427,-0.09098159416931541,9.859126739965987,0.0005053893600520499,-0.0014733002743149398,-0.0016628558160937
1700842009.5313308,0.6507022320823066,0.06548720887492235,9.823236868404233,-0.0016031391868625523,-0.0007580602312067526,-0.0020085615916378
1700842009.541343,0.6972512258676584,-0.023494033239424696,9.749702707598503,-0.00014691438805391384,0.00012931738637723467,0.001011524413925
1700842009.5513997,0.4880710221488133,-0.0712540711659584,9.849056257163317,-0.0003696774344739122,-0.00150906232734648,-0.0009464826081148
1700842009.5613058,0.6448958763866858,-0.038129209723814186,9.77716346084271,0.0009863260759290602,-0.0014703284574429688,0.0005425117932554
1700842009.571424,0.6163825460731032,-0.016165922438412805,9.803255932305825,-0.00036857639066841474,-0.0007908366576347326,-0.0014233224438704
1700842009.581348,0.5532222236049722,-0.0887082075550619,9.80882547039388,0.002008542809242254,-0.0025178763873000666,-5.353378320257433e-05
1700842009.591472,0.6264735366259112,0.09751836798351295,9.83022646114773,-0.0007992088324677087,-0.0020593034834580507,-0.0006276013674415
1700842009.6015232,0.7315763450132481,-0.023973388148059823,9.747421275074641,-0.0004609604861731948,0.00024740499586032986,0.0002988749246377
1700842009.6115894,0.5448778637629323,-0.08401064272281167,9.819662792654963,-4.743843482669887e-05,-0.0005147815498009588,-0.0019113289537108
1700842009.6215923,0.6051836688633002,-0.02952541262644705,9.796182454714135,0.0013957277858767064,-0.0015541346302750648,0.000861029583475
1700842009.6312718,0.6715883970394709,0.025865251318551327,9.786961472454562,-0.00026649463047103035,0.00015501936022861438,-0.0002289915802157
1700842009.6412857,0.6135369905649519,-0.013554311069065475,9.804406063602014,-0.0004553795141012348,0.00025299597291606005,-0.0005266378512806
1700842009.6519578,0.5374107406769059,0.07213994778424766,9.878589183806032,-0.0024603186659529503,-0.00173818109462652,-3.005502468119629e-05
1700842009.661358,0.5585711611747738,-0.12540044389208604,9.78972522501167,-0.00032572780550793915,-0.002662415579589654,-3.974834645311602e-05
1700842009.671317,0.6760576138880666,0.012849109020789068,9.778704680524141,-0.00105961089008381,-0.0013511161859622,-0.0002625190764866
1700842009.6826365,0.6780076423399286,-0.05094336411079289,9.748878072628248,0.00035823448496556215,-0.00021192985528327324,0.0011918444423735
1700842009.6913233,0.5121884667434478,-0.04992528543371716,9.836984330633923,-0.00022998573765320167,-0.001251649111857913,-0.0007367466688356
1700842009.7013175,0.6910188573400496,0.03501300834930634,9.77250842683721,-0.0010622300254617808,0.00010546658033671757,-0.0003381442739828
1700842009.711288,0.6204427231906839,-0.14807756705310857,9.74815971788339,0.0017939578390218291,0.00015204459558554664,0.0003275599509742
1700842009.7215283,0.6310364562285278,0.014215370799442842,9.807721168740049,0.0009822151690583644,0.0005223366464678866,0.0005730700003277
1700842009.731306,0.5225945846536505,0.13034089049385333,9.89286453276483,-0.002207370227313957,-0.001191683704477801,6.008786193881861e-05
1700842009.7413836,0.6073252970546326,-0.16125569716197694,9.758410661361069,0.00022933927685537799,-0.0009618199003227221,-0.0004133950798041
1700842009.7513554,0.6193971456344864,0.011099433545106662,9.81339449107688,-0.00047250002080076307,-0.0009163722315446589,-7.736487269546159e-05
1700842009.761333,0.5173785275218841,-0.0160522669529928,9.866229432544909,-0.0006453535082879959,-0.003130688736100205,1.464263813425533e-05
1700842009.771325,0.6160056140872812,-0.10419078690804706,9.769913798062195,0.00017608288699322015,-0.0024795101777460786,-0.0013663164219088
1700842009.7812996,0.7408993672607863,-0.02057128485526115,9.730971655488903,0.0011580528331557123,-0.00040041717744793154,0.0005987641115006
1700842009.7913096,0.5352270211248578,-0.00074761001919203,9.846277695724567,9.82122215645624e-05,-0.0017590333653220444,-6.470639446894892e-05
1700842009.8013155,0.6839695838798412,-0.09513650263233858,9.731948768281994,0.0014974275288427439,-0.00015641267271964389,0.0001137304124221
1700842009.8113694,0.6784013907821808,0.22377723208670575,9.84974023691273,-0.0025102439613252643,0.0002369619929781797,0.0022557799592413
1700842009.8213644,0.4739619209326346,-0.17249664675546192,9.81805061314851,-0.00022514437677524274,-0.001875636868371924,0.0008725758879244
1700842009.8313477,0.6215609558872319,-0.03049539222084522,9.792531816875531,-0.0008696216731530628,-0.0011074842865293952,-0.0004621953349761
1700842009.841448,0.6752804103152189,-0.06244162955281091,9.761982235394246,0.0012310678118217604,-0.0006149885826141849,0.0015137042854711
1700842009.8513682,0.565735791352074,0.011780744142978227,9.838615222462915,-0.0010230911489737715,-0.0006354702731069679,-0.0008324796445868
1700842009.8613243,0.5653279184476067,-0.051943005312477704,9.82838852892743,0.000930820021000633,-0.0025942436819243265,0.0016787257399209
1700842009.871455,0.6825243335401183,-0.03880867816253204,9.757292600638708,0.0009367679811698324,-0.0008213691655321383,0.0008453709950935
1700842009.881492,0.6222996712669528,-0.03312249682074398,9.793489388984302,0.0004953299172109607,-0.00020297342794940197,1.838312063221566e-05
1700842009.891361,0.5923825454206729,0.05363596990793066,9.834895487236897,-0.0004006053270998862,-0.0008765111435336931,0.0012581459367447
1700842009.9013495,0.6194350940394022,-0.10054333411443589,9.769988677836318,0.000559770774664254,-0.000301708118189948,-9.600814620177517e-05
1700842009.9113317,0.5721137626852785,-0.015398910449428184,9.827035797096825,-7.592052193015008e-06,-0.0007591664830340651,-0.0003843373498148
1700842009.921347,0.5951854754942749,0.05909361320280765,9.829405786994979,-0.001985336587904004,-0.0011671049886784151,-0.000940153805559
1700842009.9313557,0.6532268864328937,0.02796340504685083,9.797300037329796,-0.0027233206884853703,-0.0005900314818668603,0.0001062964792162
1700842009.9413233,0.5539882053660043,-0.22858414863736728,9.774518702774285,0.0009900602478014647,-0.0015708866492003624,-0.001176325452534
1700842009.951404,0.6968383348687183,0.07527251026480214,9.795165530817261,0.0011550826775925142,-0.0013023140411265815,0.0023101577888973
1700842009.9613853,0.6145536350619935,0.04696803303420655,9.827289695841984,-0.001657150641812911,-0.0003691343048118288,7.685914796632461e-05
1700842009.9714725,0.6121036844095344,-0.2361041566161003,9.728405450045498,0.001672873716973052,0.0001822507906631626,-0.001865134655518
1700842009.9813724,0.5269742528381546,0.07154185091386395,9.879486814586178,0.0008089998475155425,-0.002404624109648028,6.120818478842012e-05
1700842009.9913745,0.6520196484510523,0.059282917436454495,9.810843300832783,-0.0014630579259405517,-0.0012348875880523272,-0.0009136978415973
1700842010.0014894,0.7733301192187971,-0.09152870673092758,9.683140303533198,4.3062445566924206e-05,0.0023086124822750942,-0.0008313661320335
1700842010.011367,0.5076941357696159,0.045947449730333385,9.866246747417994,-0.0006945367967435884,-0.00019217976276003157,0.0005250144812543
1700842010.0213437,0.7321978606878305,-0.03137337072073503,9.728258382831024,-0.0003872147862009598,0.0021178750802299524,0.0013557496485099
1700842010.0313883,0.570296236692394,-0.1439431896570334,9.77141168294415,0.00195525065932585,0.0015218441616421511,0.0008327167660262
1700842010.0413146,0.6137027360973281,0.1599440870058211,9.857556817972405,-0.0014042231254274764,0.001305756768133044,0.0015479600177877
1700842010.0513158,0.5909680010221332,-0.2683095896593306,9.739518031500237,0.0025524256783133344,0.0015940968203160407,-0.0005650308095119
1700842010.061316,0.48637631490005967,0.12292800362439046,9.909394112773104,-0.00038272343571494754,-0.0010244054701779093,-0.0003031234601713
1700842010.0714052,0.6388769801306209,-0.0945857218956471,9.765101211770006,0.0005269937113631535,-0.00013368818306453708,-0.0012385444361917
1700842010.0813217,0.605424751529655,-0.06092882275260578,9.811038184000461,0.002251061265609672,-0.0010121198661622649,0.0001848950986549
1700842010.0927842,0.6802819850392633,0.0920274790486805,9.798033513725528,-0.0006919414165896835,0.0007994879813834341,-0.0001988231898486
1700842010.1028135,0.5567270599648858,-0.12613554447248507,9.786346762014327,0.0019079576251435106,-0.0008441000560243916,0.001316253189443
1700842010.1113777,0.6364870482390914,0.05871170601341974,9.805772566862906,-0.00072247925788118,0.0003304764129076789,-0.0003027608264438
1700842010.122741,0.5719339263126917,-0.0791541049129208,9.81109057185738,0.0009930248976482753,-0.0010948117852078217,0.0001349716975618
1700842010.1313448,0.5394784759692488,0.0541827310955808,9.869728043013026,-4.1484706060493456e-05,-0.002769335953788443,0.0011154588199951
1700842010.1415346,0.8466153803629447,-0.03028341486083261,9.66464890896715,0.0003273179470493885,0.002312335267242005,0.0013285479862042
1700842010.1513429,0.47873988007332985,0.08856701169027072,9.906269698063179,-0.002268842430879765,-0.00034901819622584616,0.0004911057102526
1700842010.1613634,0.6450256633101843,-0.12267374139171952,9.751844218852552,-0.0002988926474936733,0.0004869413592832357,0.0005924391433745
1700842010.1714487,0.5843626865476645,-0.05997219531671502,9.796226310150914,0.0009360320007225262,-0.0002938699238662713,0.0014764416035995
1700842010.1814864,0.7356794908843199,0.13390448658776563,9.79466289694009,-0.0030329306698224402,0.002721724578452113,0.0002471051183328
1700842010.1913624,0.47366219119291864,-0.20520697531068235,9.822906518151918,0.0002941430450068876,-9.009382406746438e-05,-9.227255314733156e-05
1700842010.2013843,0.5029169166763137,0.16154339899680414,9.915973554682687,-0.004298008908177798,-0.0019583684893089656,-0.0016080835713274
1700842010.2113442,0.6503935790009591,-0.18206323725648563,9.728547254099729,-0.0004132712279466702,-0.0016383367903000806,-0.0006648519421197
1700842010.2213814,0.6146361724515031,-0.0796668828773749,9.784796570338353,0.0008760504410510008,-0.0014926723136837465,-0.0006179131679437
1700842010.231668,0.7061874981620494,-0.03747077976141766,9.758218364914342,0.0011636455132372962,0.0004877007756981741,-0.0015600263951547
1700842010.241477,0.6586690682316265,0.2993388097056387,9.89666815898203,-0.003330178602238994,-7.297967901216759e-05,0.0026745013082199
1700842010.251377,0.5801604936246664,-0.2725474537949615,9.731748820653012,0.0006897830241928977,8.349550915936183e-05,0.0005633812437644
1700842010.2615497,0.5299533432448843,-0.0025714743623638796,9.850269891079806,-0.0006021366198864347,-0.0013317473914781774,-0.0009304643254927
1700842010.2716403,0.5835225669163913,-0.04077639843422091,9.803741094508881,-0.00023669938553837834,-0.0017705886820962074,-0.0008116289619557
1700842010.2813742,0.5870409698236942,-0.0187808511872381,9.804535936317752,0.0010507779133346693,-0.002964906139428593,0.0014905922352135
1700842010.291434,0.6159226885344284,0.052535722911065647,9.827653731943734,-0.0014954643635335342,-0.0023237943356568527,-0.0003034961056164
1700842010.3016648,0.7560793228073928,-0.14368481650177997,9.680823975927277,0.0012113302509604606,0.000716791121598314,0.0003998381643122
1700842010.3115752,0.6696894554700457,0.07407386790619923,9.805078512738458,0.00032097583987516126,0.0011403598538350277,0.0026033466337047
1700842010.3213456,0.4614623425570038,0.013423569124722382,9.889197447985502,-0.0018042970353856181,-0.0011633624541688933,0.0002664711854685
1700842010.3314598,0.6046379029319658,-0.16926572059401096,9.750695674260903,0.00043050935584362625,-0.0007345849819883537,-0.0006454821787975
1700842010.3413494,0.585914149411878,0.12936427148860075,9.854769978526866,-0.0014138865518298282,-0.0019318821856336246,0.0016451968466662
1700842010.351419,0.7008562601681675,-0.05662055979487065,9.74578038582171,-0.0008428068436651198,-8.228304466503316e-05,0.0011460126614928
1700842010.361401,0.644486931978774,-0.13131173249534736,9.753683683136794,0.0008954071458554891,0.0007961510738189663,0.0004512474178135
1700842010.3716316,0.5124006398787189,0.1065136281316659,9.90419953727129,-0.0031390752360164653,-0.000661558275254936,-0.0018491110177911
1700842010.3813715,0.6640643043678606,-0.21366102283131794,9.710513772173787,0.0008607880787899547,0.0001609765296247269,-0.0016468396289474
1700842010.3913658,0.6375881640485003,0.016709732776818753,9.795955907002881,0.00017158368245541174,0.0004981247650571622,-0.0009204045282877
1700842010.4014,0.5901958260088193,0.056100707905262566,9.841748286464776,-0.0012760573823203459,-0.0002450885771880084,-0.0004268113635681
1700842010.4120295,0.6343736726131954,-0.12508217084684484,9.761973726471515,0.0018573010986017914,-0.0005699224333532681,0.001564731158296
1700842010.421666,0.5920234514139172,-0.13278111401859638,9.78206303229487,0.003018089770299919,-0.0002525160049323792,-0.0003228725628196
1700842010.431396,0.6851865190916916,0.10322765194712853,9.805557932001118,0.001459042207755475,0.0005629570802018927,0.0014630280555956
1700842010.441422,0.5323401129973032,-0.057368465496769695,9.85204857437612,0.0006409701265534853,-0.0003728508192880271,-0.0013067222545124
1700842010.451503,0.5479341906060753,0.09946163413651729,9.884928426636467,-0.0010081980931994873,-0.002538368657898607,0.0005507144372949
1700842010.4614296,0.684341771168026,-0.12433395120059237,9.726906934828913,0.001071624924880806,-0.001274368910103724,0.0004352232562177
1700842010.471433,0.6641036729845825,0.06782409606578277,9.819486627311944,-0.0014187333384616248,2.3888179629307955e-05,-0.0001213270817152
1700842010.4813929,0.6701420882140046,-0.1075484902473538,9.76205370178969,0.0009415986366425067,0.0005379899756918257,0.0004292674192492
1700842010.4916098,0.5413624150259692,0.06538396536391974,9.872802305671772,-0.001260028074119826,-0.0009342561222074262,0.0002079913164288
1700842010.5019815,0.46294808334931986,-0.241827577524107,9.796844326235359,0.0015581277580832104,-0.004411839559271418,0.002033745788949
1700842010.511668,1.1443183048253385,0.2831084822282161,9.693433397845032,-0.0010684994761719514,-0.0018831334153926343,0.019279613544213
1700842010.5215318,0.86241988558761,0.219833308809364,9.932858326228223,-0.0021042348457681894,-0.007385444678962112,0.0277967186765544
1700842010.5313964,1.732097926678518,0.08468990547976853,9.896838698433749,-0.002140559692170274,-0.0034785384257550985,0.0291311325626247
1700842010.5414033,1.6721344623630725,0.014676303867166526,9.719478697588338,-0.0013262508872605664,0.007034160081391348,0.0213847490148418
1700842010.551401,1.2476538686674532,-0.022084243118958194,9.35015099124304,0.003658804230855381,0.01837908297769147,0.011801202234792
1700842010.5614114,-0.8181226515123801,0.6569171992861138,9.888629756379231,-0.010151009538231106,0.001927666582128684,0.0099199501918428
1700842010.5714402,0.25308492686108486,-0.4276830854678024,10.558658168358921,-0.007870982326962846,-0.013015312861356591,0.0123863494144551
1700842010.5815396,2.584057391727012,-0.7150591448469431,9.46958402068917,0.004596283529520936,0.009172477527531756,0.0138914123298399
1700842010.601061,0.7535369934083629,0.5496183331481883,9.283853784928606,-0.0037512976106772334,0.023386443933983588,0.0219620702909104
1700842010.6141782,-1.3415467170512037,0.13556873353117477,10.292927643790012,-0.012678158281788032,-0.00884652460795996,0.0167904174076192
1700842010.6190605,1.3873198024777023,-2.463467048157903,9.733809809231696,0.0056146818482859535,-0.009733536604203523,0.0154465822623841
1700842010.6216805,7.078300744720301,1.0593460235357963,6.641920796089588,0.0034922096729353203,0.02427339517070271,0.0137649824963681
1700842010.6320002,-1.076576176617627,0.6402693640271369,9.993294464852767,-0.01340393336975732,0.009076227865672075,0.0094619974614851
1700842010.6413984,-0.34594401964740745,-1.5307533400794644,10.591979062099481,0.0003019522664263476,-0.018656303626303435,0.0101483188690416
1700842010.6514206,3.9980083197435863,0.14873328191721294,8.77017552419163,0.012116578103263723,0.02082016149387439,0.0234285475807063
1700842010.6614046,-1.5189929085472915,0.7924334394379382,8.928077091193519,-0.011213335100801336,0.018208056413724635,0.0218660416202418
1700842010.6715271,-3.271267536030595,-7.169875975235123,9.319023292425337,0.052418379327242616,-0.03974150772308415,0.0211748475329749
1700842010.681405,3.655774978186898,-3.692453942741005,7.842659362939734,0.11815381390929304,-0.012165786412512798,0.0171963883684747
1700842010.6917813,5.0934117374309,5.182572058752057,9.760793658373386,0.0542610057720818,0.06797735976004372,0.0299067994700544
1700842010.7014918,-4.724027066938171,5.675143125370188,13.831982083883211,-0.030103075853273018,0.03670064162766498,0.0182581910984389
1700842010.714656,-4.177345017894042,-3.3455853647754905,11.860212723517467,0.011434517962922193,-0.056919332375060944,-0.0158328531189091
1700842010.7214527,9.529088474394278,-1.8761869557042605,3.5806924392638475,0.052794107102549774,0.03374159157251306,-0.0125497110067136
1700842010.731394,-0.44128247108925805,6.58889429973801,7.931777755236668,-0.023969695534479935,0.07847598135385278,0.0257857771711223
1700842010.74144,-9.73673975612769,0.026277813757110354,15.347133257154528,-0.032035978729295526,-0.08871402556502962,0.0582964694248311
1700842010.7515695,4.684761214674224,-2.725515317157717,9.660554696777034,0.007399214787041267,-0.05769411033292569,0.0628248540805452
1700842010.7614107,3.653627320177283,2.28692175169355,6.59176677099279,-0.010880721520396564,0.016062766921581182,0.0726097313808076
1700842010.7716353,-5.398922022134856,0.5948127624465794,9.782450585404963,-0.03927559545760464,-0.04825774231185193,0.0546385174738042
1700842010.7815046,0.44676378027407393,-5.438222504343024,11.139804404558333,0.0023573820894617664,-0.05352217110661929,0.0270166410254113
1700842010.7916229,4.060894182823784,-3.2748182631176332,8.953680585082022,0.05305734362853769,-0.0027826915452002824,0.0192687859879605
1700842010.801505,-0.24001491763497404,2.3809837663074,7.837326956232806,0.030583759512356194,0.02010058499537115,0.0071692498521678
1700842010.8113973,-3.5665888748321923,1.417259192845302,12.124328905527237,-0.005189383612187874,-0.025894128839608958,0.0046160588161819
1700842010.8214712,-0.7290376458285949,-0.5520500140230552,10.522038153010785,0.01856815619594863,-0.044540043398318456,0.0211337855206601
1700842010.8315003,1.7929912990542274,1.3004640422892102,9.78060869332733,0.016322384147310232,-0.027912704123462,0.0417000925289266
1700842010.8413763,0.4571733210036168,2.8216795593534134,8.769935066397199,-0.012835948459496201,-0.013439552782304638,0.0762337757395379
1700842010.8514569,1.4335367062686974,-1.087703682296816,8.90006484019518,-0.005234874357682891,0.002820606100708566,0.112833739642965
1700842010.8614194,0.9220592343212484,-1.1542914380207572,10.48316617390555,0.01743851643166718,0.017742905152995786,0.1406117020295732
1700842010.871434,-1.5899978628871483,-0.3102867809142679,10.631530298469324,0.026640299964574853,-0.0032570827190518898,0.1518152741836183
1700842010.881425,-2.1001792496175944,1.4991539545610193,10.280604798109808,0.004795034279291829,-0.020130666608740654,0.1500448225186937
1700842010.891474,-2.9425946346955407,0.4369530421995435,10.43378767637366,-0.00344272076786969,-0.06500883228570778,0.1494637368367784
1700842010.9067142,2.04578565286458,0.2509798328420139,9.001191996152778,-0.009647607938894734,-0.03364336102628001,0.1447514830278032
1700842010.91302,0.8922496251489054,-2.1607451324300473,8.39766242753156,0.0038402412737064775,-0.008484402115665823,0.1409510163711183
1700842010.921452,-0.764655035680831,-2.0881369069791447,10.14188090348605,0.027691761768085323,-0.02660157293441047,0.1273111043618791
1700842010.9317043,0.4791444480423948,0.2246634077239126,9.568460349735226,0.03425834688552098,-0.006625027613538493,0.1083019463466279
1700842010.9413867,-2.504799544825871,3.3208264221915127,11.488501068484648,-0.008781144584374932,-0.04239742957529902,0.1050091100977533
1700842010.9513924,-3.461916668936874,1.873229622472286,10.7409328185022,-0.036925125565004505,-0.08820822607267338,0.0894508002446763
1700842010.961438,-1.611113845948317,1.0901671038749534,10.784630844642027,-0.04813284603942591,-0.12954335425892716,0.0806476263450257
1700842010.971505,2.9816832517025595,0.6216847687219067,9.0761284428092,-0.0612286409196826,-0.09490943216009777,0.083336034242975
1700842010.981639,3.008082084953894,-3.8696927048924787,9.460431858131809,-0.010876182656304448,-0.05819070277221757,0.0704031227277391
1700842010.9914098,2.1732415426216036,-1.6684278603609655,8.617257819941857,0.023724795717866835,-0.03314272383865562,0.0586784159885518
1700842011.0016367,0.8704920699890871,2.5068535526000653,9.689368527426305,-0.0009395362713557169,-0.026143473593676105,0.0580860873805158
1700842011.011541,-1.7766802684323926,2.3538817305711945,10.723016303236331,-0.03009933492202857,-0.05693537938076599,0.058268283878433
1700842011.0215318,0.31102675529946555,0.5680874310355591,11.029891388034944,-0.03763277852623061,-0.07817711641204865,0.0600766813503377
1700842011.0317433,3.637078235462111,-0.6410173780908999,9.510521903811778,-0.023636428140922094,-0.04546418384818703,0.0632764337705247
1700842011.0417306,3.9764968907404663,-1.0150625002404907,8.705994717114132,-0.011173458366922087,-0.0012063773989548264,0.0577296590553395
1700842011.0517948,2.8396610555326918,-1.893118133572469,7.381762429855446,0.019384528059245402,0.03386123747267843,0.0659638209389321
1700842011.0615013,-2.402084214315326,2.976424125264028,9.749074989325369,-0.008513856821073074,-0.0017029757999306582,0.0715411765621774
1700842011.0714872,-3.1852536285586646,2.5676672750454164,11.86398162599446,-0.05331860823070037,-0.06856140146447948,0.0804489640639894
1700842011.0815425,-0.8847593525388304,-1.8543199798820844,11.685281704758507,-0.04508124674562738,-0.10209486334968679,0.0839915288733117
1700842011.0915751,2.1173451745170104,-3.1188385483252237,10.719033810030231,-0.00520773963396052,-0.10429023502741971,0.082793870394098
1700842011.1014526,4.990807522642216,-0.40709167468218316,8.69204749966158,0.003283434299521361,-0.053957070214571426,0.0989472879217736
1700842011.1114452,4.087974522870215,1.8790265639328063,9.19490563126308,-0.012403007386334913,-0.015874414411055998,0.1095246164249055
1700842011.1215355,3.538436665566638,1.4517506673623024,9.101316244676742,-0.03278965974565451,0.01897291860393107,0.1170497996853463
1700842011.1314666,1.6864238457905496,-0.3273239413492753,9.028545056745617,-0.02334680170018597,0.03174058080994725,0.1109007684634797
1700842011.1414096,-0.4181499716331479,-0.9456185397430945,9.58174009296967,-0.015007153430628981,0.019406040101831855,0.0923649532841317
1700842011.1515665,-0.893591198800466,-0.5114297216454367,9.922000809130225,-0.00567528588528667,-0.007084751516141544,0.082344332163202
1700842011.1615398,-1.482203080638859,2.416814819682788,10.035311318548672,-0.03771628020133216,-0.032115874634197066,0.0745757533358209
1700842011.1716373,0.4899323958919441,-1.3567875923061614,11.729419708001378,-0.035489216040418055,-0.0503431013446666,0.0764916328834169
1700842011.1815133,0.8619582917936289,-1.5085377909933342,9.439422119064453,-0.016125393188683973,-0.04278620545830983,0.0729943527029626
1700842011.191454,-0.18812913718863145,0.24559040019789724,9.84117340314359,-0.02690287378213035,-0.05483473185342344,0.0711681855963342
1700842011.2014415,0.5630337803013409,-1.9318746014499062,9.544944230394359,-0.015386993069925546,-0.05580369773040714,0.0768668515728585
1700842011.211457,0.6320774339375904,-2.52486269367409,9.41266218145435,0.012889567727706523,-0.05824895167670693,0.0772580219553582
1700842011.2214575,0.22062616217802225,0.17088515386649927,8.83038238613737,0.01677128064629869,-0.06614902295117775,0.0948071641968362
1700842011.23146,2.789680419220016,-1.0831697179529631,10.561384284958946,0.026114478496835045,-0.050812462287080404,0.1174576146648996
1700842011.2414806,2.873877305038299,-0.24832477631854044,9.73777024355348,0.04018404488305245,-0.02269100756380363,0.1292787281917207
1700842011.2515402,1.594248409001164,2.728428618153257,9.842356097794065,0.017623826508575205,-0.012152462387529844,0.1471923230336778
1700842011.2614253,-0.6667186947514206,2.5374975645976354,10.314875375793592,-0.015515704483957246,-0.02673363364638358,0.1545744029925935
1700842011.2715335,-0.0690797303378935,0.2668818720790071,10.816632789761801,-0.018886961000391916,-0.04950398407813443,0.1580630926536195
1700842011.281473,-0.4161225311192337,1.6037427110692923,9.373441510968156,-0.03569436447181437,-0.06281965789218402,0.1604518978046052
1700842011.294401,0.617179136555319,-1.9613834454205203,10.54511627061841,-0.023679443120156612,-0.08091808093201278,0.1619120178865068
1700842011.301531,2.5863680373808258,-3.1656958178534116,8.448232295556213,0.021604645722469625,-0.06693270689608037,0.1689657060550325
1700842011.3114552,0.9997486901738973,1.3582844359020974,8.913757540186973,0.0029695859125440528,-0.06636744354309129,0.1795946000264756
1700842011.3214378,4.430086944346324,-2.1353222775172487,8.761134312403755,0.03546374149230569,-0.03280847640653615,0.1997791616366975
1700842011.3314292,3.855603946308371,-0.1888336352135292,8.906003502803262,0.04270351777558928,0.006994086623951035,0.2114168791221254
1700842011.3414197,2.1168453646016077,0.14183803886328322,8.748366844307998,0.04836516673015222,0.020585180689054565,0.2252523688720338
1700842011.3515637,1.2780236327140373,-0.09035804901463362,9.747254807463099,0.05153183608794248,0.02713695399757182,0.2288927821563356
1700842011.3615153,-0.49886189185725344,-0.654184092670151,10.500860217210843,0.054395328466521085,0.0006285623106365378,0.2286519644902818
1700842011.371618,0.7796340729948675,0.13855310464040724,9.5557824072986,0.06179404898627229,-0.0006581235464003372,0.2266674427436464
1700842011.3915465,-0.47331422477544993,1.324342066261645,9.767060078838847,0.03101459069559297,-0.04569188130674626,0.2182868210719697
1700842011.4014585,0.9673126371195065,0.1957777672404744,10.253248495018621,0.023845745184666416,-0.05648241602100142,0.2233886508391969
1700842011.4065156,7.860732196414437,-0.6325109875648821,7.958554770753587,0.04280243881673736,-0.011136574102007335,0.2415305016683213
1700842011.420463,3.6968194358254256,2.80165753991623,9.281659361392895,0.013946274643062403,0.03320929723955147,0.2625800309823625
1700842011.4304917,0.9079991822344397,2.2744688135289417,9.645955050260522,-0.015149305417915508,0.03433411241563505,0.2718127606557481
1700842011.440466,0.4463195745271523,-0.8757261455136737,10.91403414761379,-0.005886809555818751,0.016714961157993598,0.2713983593629472
1700842011.450653,1.774065437660416,1.190050679308247,10.155788696647997,-0.005524659348931956,0.02133940711035817,0.2689040539907091
1700842011.4604225,2.047589368710336,3.330329225225156,9.861616838063888,-0.04339515581932785,0.04308383912831003,0.2750542102502458
1700842011.4705195,0.13454963987672558,-0.15490592238445022,10.555867928924824,-0.05776462819003417,0.03307186725363586,0.2756124077485674
1700842011.480463,0.22011883484049158,-3.2116669170422645,8.798436373550025,-0.01369517066144743,0.030366168016375126,0.2737677035974138
1700842011.4904876,-0.9018251592207609,-0.3096086344843545,8.637214853808947,-0.012361548695484314,0.01573707017450336,0.2822441099332445
1700842011.500493,0.16067310642204544,-0.6020570130953338,9.784511279064496,-0.007836354259910536,0.0015133617697617471,0.2995853362725847
1700842011.5104885,1.598824196164175,-1.7253142670724408,9.598195733486175,0.011963749345016176,0.012266968137514342,0.3101139901326769
1700842011.5204494,1.9749422088237836,0.6757493245564153,9.26370626330384,0.015589950030998357,0.026537729497071814,0.3307056961701982
1700842011.530449,1.554324722598203,1.8879809006920352,9.713450124036328,-0.004337783481243515,0.036866530119947526,0.3466545282052629
1700842011.5404515,2.5097388385745467,1.0500470416198564,9.60283555945028,-0.009582729111375234,0.05581441926895364,0.3634348748372667
1700842011.550501,0.9289930392886819,1.7818059524725562,9.42407055854247,-0.02295107874923082,0.05761276396113603,0.3745495615647905
1700842011.5605032,0.4121603083896491,2.240375100718998,10.003349712412383,-0.05134862825268848,0.04589076838360324,0.3877487717317217
1700842011.5705168,-0.5387544494705792,1.0437987687246995,10.532157827644532,-0.06456851531721566,0.02120012760334292,0.3897521434472673
1700842011.5805192,1.1654761419837192,0.3151083535504053,10.80327929144266,-0.06882140541586797,-0.0005697328000046816,0.3907952843354814
1700842011.5904524,4.673853018988794,0.6622689488222641,9.939727552785715,-0.07122449214082902,0.04109822652977332,0.4028541682408922
1700842011.6007185,2.879007329247927,0.1738621553267107,10.572002317781552,-0.07698617880702893,0.04810011042344154,0.4113470850633257
1700842011.6105354,1.8937743935239064,2.2212918276006612,9.290268457193752,-0.09804249258375826,0.06380983843058023,0.4107155738519304
1700842011.6205022,-1.7084579859983542,0.8441876643672127,10.427203300550566,-0.12520348041217952,0.02471647124407021,0.4080189703153246
1700842011.6306283,0.9410943500689843,-5.793142378450945,10.07515495787559,-0.07559529731172433,0.02015129501331528,0.393651300494539
1700842011.640474,-0.9011494182377588,-3.9143470151409328,8.158088061864579,-0.021237215230005324,0.0018296354863431682,0.3702669380353563
1700842011.6505046,2.2777666383265274,-2.001611556037178,8.875374726473769,-0.010710145955591083,0.019530994015647573,0.3754322467492693
1700842011.6604793,1.9940840410898681,-4.034245609404942,9.00636940022274,0.039087702630644615,0.04066901190812474,0.3736765323327654
1700842011.6704924,1.9314529978188177,-0.9695945315031232,8.470945505989313,0.05870246199282911,0.0605004754982281,0.3667589960740678
1700842011.680544,0.20322847194482271,2.9319984529830836,8.818101699584574,0.021443348453245838,0.06911056558888411,0.3712109862016313
1700842011.690475,2.001430377301441,-1.762305932382958,10.726377471718932,0.029898427459897056,0.07895356495298733,0.3692810772107713
1700842011.7004962,1.4520873076373928,-0.3349881842232628,9.15360530079618,0.04958412756734653,0.10719236818506514,0.3642577467607134
1700842011.715829,-2.985662478339145,5.088183930634366,10.03275472853878,-0.023933199950683774,0.06625014493522745,0.3498369990037553
1700842011.7205443,-7.886824885603377,1.9168580428620356,14.910332284532739,-0.07041802594193668,0.004426595768840578,0.3251347182439439
1700842011.7305183,0.5143528574894835,-8.124411265408646,10.878608533763202,0.02027124036007036,-0.00407242084559922,0.2985171018289201
1700842011.7405078,-0.33935925804211553,-1.6748107819317413,7.673798083964687,0.05480191980060238,0.0012881425678838742,0.2764358757184618
1700842011.7505429,-1.2549917742521062,3.6085972625061284,9.33473011809524,-0.0021594171720351794,-0.018503498749724814,0.2708819745229356
1700842011.7604506,1.846561212630277,-2.41288720194531,11.315941074449016,-0.0005931205089441686,-0.008857940356314317,0.2669312594579332
1700842011.7705138,1.9242509563317842,-3.4861463617926254,9.10080253985511,0.05491445265527021,0.017000014075178326,0.2582037685559862
1700842011.7806098,-1.866941765634527,3.3448177184303867,9.426073772715037,0.008689180698711711,-0.0037683358763040526,0.2536321519063585
1700842011.7905502,0.6784935696000066,-1.5290448278741702,11.238923011328001,0.006638374220749721,-0.0149331907095496,0.247871824924814
1700842011.8010485,1.8310187707282002,-3.413616917145931,9.341089268911096,0.05544937936974356,0.008160521877207774,0.2348172007249467
1700842011.8104875,-1.0086657384368802,3.5818017157610136,8.641572986715362,0.024246362258526066,-0.0035943528736481403,0.2359562603877656
1700842011.8237915,0.09173862917077347,1.5670099607491543,10.996141443966714,-0.024952967977477664,-0.020936687889423954,0.2338506816075914
1700842011.8304572,3.27691669965415,-4.472017531647508,10.332267094115231,0.016230223407157428,-0.0002420295270016751,0.231128597085344
1700842011.84051,-0.3600047332453242,0.9007313603114535,8.458778906874452,0.014553754204777112,0.002600535864487269,0.2193589447187059
1700842011.8504732,-0.16847667896195131,1.0446088565405558,10.315792729732726,-0.01901410119231864,-0.01028637077792687,0.2071355668948762
1700842011.860493,2.647110745796928,-3.346792255845764,10.21933556018455,0.01689838534442844,0.00978957377656094,0.1967315016435258
1700842011.8713362,0.5705626431587493,0.9650814528200711,8.139841048154345,0.02002426604683252,0.025636790981112264,0.1854163346933
1700842011.8804786,-1.4096128841600246,3.1229650359619896,10.729350538241183,-0.034020552256607904,0.000992825693613863,0.1775832561896913
1700842011.8905003,1.8482943142922346,-3.595883157792146,11.055257575477453,-0.0030367713301033923,0.008206488566818085,0.1664971945928209
1700842011.9005,0.1889358632106594,-0.46260441090541454,8.625069573449924,0.01582874617653973,0.012706512357431433,0.155076944653856
1700842011.9105463,-0.4444081446793032,2.7830004849864998,9.838857036111268,-0.025645189314398045,-0.0030370477262576063,0.1517884520934694
1700842011.920516,3.2045361020082344,-2.4991546295818154,11.285257792252487,-0.010896670224116833,0.012830438658046587,0.1473110852883928
1700842011.930524,2.4198533368094473,0.12911750091129465,8.302686377686609,0.00347026176652427,0.04871300751606001,0.142870986287462
1700842011.9404843,-2.0684222796510623,3.3501432586409026,9.913670307379915,-0.04671005141099922,0.012914346126286697,0.137937748257982
1700842011.9505675,1.668878617220754,-2.6195077402694613,11.197518201629437,-0.03935227989694777,0.006243850597796404,0.1319543508933656
1700842011.960507,2.6778889871156464,-2.6210217082597573,9.070153184316986,0.0017586436241404215,0.0372139892223419,0.1238228170322053
1700842011.9704983,-1.272621036215977,2.8341626680934446,9.040133980205466,-0.03510219035631001,0.022074039689614765,0.1144893927620523
1700842011.9805057,-0.1735234011137001,-0.8338369289940939,11.269086909806106,-0.05624208026643756,0.0052104870845099925,0.1050122467921846
1700842011.9904685,2.2732527683369113,-4.410736479063132,9.64743693093601,-0.0007401816306125547,0.02216606172363102,0.1021571396039598
1700842012.0005634,-2.2877481706428116,1.024071891743809,7.961843190791561,-0.011712585512236324,0.006642781461239319,0.0962941436217897
1700842012.010634,-1.5418735213741899,0.10998970795859139,10.720750450292785,-0.036695180100582175,-0.03558506527887747,0.0951807661102883
1700842012.0205884,4.433987870908461,-4.8469577492284355,9.941859293669182,0.014230519695893283,0.005903538504188904,0.0981127036856286
1700842012.030589,0.05007469727695058,-0.36490415699205736,7.656515262971265,0.03403259588814477,0.0208513723901165,0.1002394644664399
1700842012.0405345,-3.1261036633003845,2.881291964466113,10.726859610464391,-0.018184948057419277,-0.029378781243248196,0.1059486283110253
1700842012.050475,2.560841682963528,-4.874239633912726,11.587733436216093,0.025663598505586475,-0.025295681527483703,0.1032211644695871
1700842012.060517,3.022638844289338,-1.1977476021157094,8.185074282736071,0.05663187330010765,0.017570070004561428,0.1036210892842881
1700842012.0708475,-1.3850715078584854,4.563530755166081,9.36106624018586,0.0012948065381482344,-0.001864875229849652,0.1095899207638375
1700842012.080507,1.5008249456922476,-0.5376924146117433,11.076384025144245,-0.018274987062673977,-0.004584456948073584,0.1049257977055184
1700842012.0905056,3.018531060606734,-3.613294813046122,9.110597246326591,0.03680480507899188,0.033151686677603924,0.1058981506274812
1700842012.1005433,-3.6582251630200626,2.5061872337907674,8.607245379068774,0.006864599497322091,-0.0037166702430623242,0.1080977929876916
1700842012.1105137,-0.7601892584891449,-0.6730447468443,11.89700394528655,-0.008455105990891238,-0.04951295669763159,0.1029686940954797
1700842012.120536,4.204566966945608,-4.321017223564287,9.569407038755438,0.04890497713253429,-0.005037542666863673,0.1015662266062371
1700842012.1305256,0.5849928401126581,2.840412791299731,8.542496460535554,0.023493117457707307,0.0007739046990570246,0.1053011654065721
1700842012.1404903,-0.9067403762821044,3.414933251567416,10.023264846915833,-0.034940731572095644,-0.02321806913312162,0.1107115013645761
1700842012.150602,3.6385077814330806,-4.265679203487554,11.417810851194252,0.001774313006628576,-0.003014321825087028,0.1144282756494157
1700842012.1605213,1.0986054853553724,-1.303928241936833,8.152740011991206,0.03836091764716575,0.023623880888928007,0.1098089752839677
1700842012.1705685,-5.205774174916062,4.318197414492286,10.301424350799547,-0.023354697204186405,-0.05398913369432861,0.1082749975966088
1700842012.1805604,2.9782070756173664,-3.2077171168343863,11.673979697059416,-0.008515644351889727,-0.055981223107001335,0.1067730946587197
1700842012.1905332,4.7718587085475015,-1.9351535784430995,7.965480657030839,0.04011788222011712,0.005954354500059555,0.1073022572444551
1700842012.2005672,-1.8073540570314868,5.971822646400583,8.64683486087978,-0.02856097887895243,-0.018758464346732086,0.1171656264113061
1700842012.2105782,0.9002368553173947,-0.06762092553474816,11.602411419959154,-0.052701750162336865,-0.03708227957296378,0.1289097456382386
1700842012.220539,4.556769331288688,-7.369932814399458,9.716881712717065,0.04039359243944515,0.008202721129374594,0.1243761791037194
1700842012.230495,-1.6998649861520032,2.4565841589932904,7.3621350125867435,0.033377942896372643,-0.0015061164814288096,0.1284580467389695
1700842012.2405214,-1.492972038333291,3.3659582225441684,11.795270447053074,-0.03541979849428949,-0.051930384026706,0.1362927792714708
1700842012.250512,6.844781206845456,-4.66202077177194,10.7703592338115,0.017524898885246172,0.00705481189128315,0.1286068795369737
1700842012.2605443,2.276034643058416,1.4598750778817648,7.2301077781674294,0.027002897823942152,0.05202482696033513,0.1337399570392244
1700842012.2705493,-4.856343285874336,5.971293688813974,10.303030699656262,-0.060561646628480896,-0.016175881867895713,0.1402466384814851
1700842012.2804928,1.0857933868880216,-4.449034197044442,12.134221567801386,-0.02927497345832934,-0.04267968214820424,0.1361053226636522
1700842012.2905345,5.908603012539135,-2.6938903427402665,8.504962317261722,0.03131463815866252,0.029586941822342172,0.1360545395063035
1700842012.3006215,-1.1666545964434374,5.722145374757533,9.114854682361809,-0.029688626453449114,0.017167738698482406,0.1431462554381959
1700842012.3128853,1.3582430117730337,0.15180542964979993,11.005040223532454,-0.06175956937827588,0.010412810077193817,0.1361990062640779
1700842012.3206923,2.86659973043914,-5.456735293240855,8.843226572340356,5.7885604568720504e-05,0.03963324410841188,0.1250416351603143
1700842012.3313384,-2.137830213146163,2.7660835825397148,8.191662353586867,-0.018232030241872834,0.020497360925205307,0.1300513683007829
1700842012.3405693,-2.968086171262834,3.335958426512781,12.003879103723566,-0.07746391080166097,-0.03584303060624506,0.1322895674155824
1700842012.350555,5.432985450157694,-3.9022095674082715,11.364525515248136,-0.034615511413005416,0.009601974884055628,0.1390090821431749
1700842012.3605378,1.7684253251510433,0.42336397342083204,7.5550747368295985,-0.016617579139341844,0.05079579009407995,0.1468171117948167
1700842012.371329,-3.1082625803346113,2.8461486125552025,9.940612123126444,-0.06975706605912277,0.005735646372850884,0.1455909250424974
1700842012.3806033,-0.006654634678032448,-4.507146197919058,10.987488598245324,-0.03621403232808514,-0.011890175313401325,0.1393251357720964
1700842012.3905458,2.3784454976627893,-3.3210477224787964,8.098660672610595,0.011641475592284312,0.02062247025287802,0.143101909582483
1700842012.4118028,-1.839056731151873,0.8332816882480572,8.450773339430377,-0.005803301013494577,0.00017930508567869414,0.1474938927339189
1700842012.4127088,-8.285755116324669,1.4530529996789814,16.569176697715186,-0.010454433439104023,-0.018452018622918932,0.1502607105420701
1700842012.4206078,3.0626625423852922,-3.7385352219249017,9.007696766439457,0.029624204294020826,0.013983355893140283,0.1530373333142869
1700842012.4306614,-2.307431841816507,1.4399348165930332,8.681870946130056,0.012275774428672632,-0.004011746140283695,0.1517029045270555
1700842012.4405892,-0.5668268790466138,-1.2568189249677426,11.314651474096028,0.004709003517608986,-0.03229975786802925,0.1462470976756684
1700842012.4506187,2.464104651703276,-3.9626791309440934,10.019566165337526,0.049779283410322644,-0.007570627620881976,0.13861597460972
1700842012.4605458,0.672733640511655,0.8595998325246103,8.184878812833219,0.04584000077219481,0.00805621525785624,0.1324477134393327
1700842012.470525,-1.5262864186908693,1.5919635785986195,10.207809503870472,0.005034363163333148,-0.020106971264716587,0.1336185274766557
1700842012.4805708,1.8971497536421043,-3.1801515120190693,10.881090642239862,0.03723768232770456,-0.016828336981048495,0.128224858467447
1700842012.490589,0.40547457501049994,0.9343022606429642,8.575347010351994,0.03675900970624867,-0.001802153470032875,0.1275733349965684
1700842012.50056,-2.332794810208326,2.3540180567879814,10.943780137717347,-0.00869425919741085,-0.04712631657491538,0.1258055506394975
1700842012.5105464,3.633272561739907,-3.419410182682695,10.869908959172742,0.020192880612807534,-0.025082026431520417,0.1179130314038865
1700842012.5205967,2.7153960906144863,-0.4969675762837617,8.286309908353974,0.04551994663254944,0.009290103198579586,0.1235202415035836
1700842012.530526,-1.3873305483784817,4.250001446396613,9.308496863631534,-0.012421528618950326,-0.012356990703770769,0.1288768140720002
1700842012.540541,1.034637849737826,-2.095170992031502,11.160258733414539,-0.004908410448454371,-0.025415873462858053,0.1276697306083314
1700842012.550695,3.4793751442972827,-2.7572678775371506,9.117482058820233,0.04544069757651357,0.008246319487490826,0.1340827880548112
1700842012.560556,-1.7382704398596274,3.914108821709992,8.770981240825359,-0.002027263554865525,-0.008760986031343223,0.1320442794011705
1700842012.5705688,0.7343984502447278,-0.478433705013834,11.464531473658232,-0.014404813598277172,-0.03129825870357874,0.1275371400760286
1700842012.5806444,3.4171975432394093,-4.086095657927595,9.238075564835757,0.04104617134518447,0.010566642141529041,0.1212200908111207
1700842012.5906382,-1.6808930323954963,3.0236452172739394,8.31554584424784,0.012085504998767403,-0.006733594844334295,0.1183054385827653
1700842012.6005976,-1.0729534523666693,1.2090445055201149,10.965515792191132,-0.022729220254225246,-0.04091951354120475,0.1216232938812844
1700842012.6106658,4.253651967802706,-4.142761733480224,11.00590093867788,0.025009786235582036,-0.009298833166687651,0.1190611435221307
1700842012.6206894,0.3862815333883064,2.2993405741484954,7.85441259204738,0.011636265660426495,0.013996821651087569,0.1185943497465722
1700842012.6306362,-2.4852311896436508,2.3830453511367287,11.282681673530515,-0.0418640772675776,-0.03661264816978045,0.1157254142807595
1700842012.640759,3.59469255609874,-5.355116111499118,10.678467625629041,0.015065188622150907,-0.012675011921982064,0.1053735925005548
1700842012.650577,2.4374313176683593,0.5685945374142961,7.782363431441565,0.027123226205549363,0.027591924123866768,0.1089931516097657
1700842012.6605313,-2.824796398106026,4.1407949719957236,9.912598589719863,-0.03784273130273106,-0.006903713726695743,0.1052265776442163
1700842012.670633,1.517773323426038,-3.7252504263780746,11.340276983191023,-0.010777246730932367,-0.01594864861334468,0.0996514273928277
1700842012.68057,3.2459541582826423,-2.2212955490899837,8.47052738720354,0.032414507326362446,0.031157068920074197,0.1034974990533464
1700842012.6905692,-3.516513835758995,4.133538518537535,9.377665618052596,-0.021718923253009646,-0.009383321486597302,0.1032297251866929
1700842012.700522,0.86622859877355,-2.1869166429791083,11.528868149802106,-0.01730713837837859,-0.031121646666817125,0.0989181710528009
1700842012.710589,4.453453864915964,-3.3498004399917645,9.412702448298829,0.03360924659996225,0.019390254669659608,0.0983551306770913
1700842012.721118,0.9163159142483015,3.9110259254532966,8.316567110530757,-0.003914251930681691,0.039484877607141845,0.1071665449188821
1700842012.7345293,-0.7984320362340888,1.603050000814075,10.749490810641728,-0.05065186617864049,0.009888470484036108,0.1122542558358781
1700842012.7425342,2.311067165321538,-4.02976887158118,10.577092854934577,-0.011569527442520298,0.018072825568056495,0.1109077124045961
1700842012.7506216,0.3658306987354838,0.27731409117575634,8.57949759462716,-0.001926971195072977,0.02542273529298241,0.1132319135712258
1700842012.7606428,-2.3917717101499507,2.4082109672360628,10.247411771268657,-0.04245321566101454,-0.01747330772302349,0.1123231141017549
1700842012.7705746,3.360673692211182,-2.265669082729208,10.773449926571057,-0.028556296639175256,0.0017672542392457246,0.1121087534474008
1700842012.7806697,2.7898054761715803,-0.7503090297998003,8.0110811883565,-0.006052887347929754,0.04467700646145121,0.1196407390879266
1700842012.7905872,-3.043394637170241,2.1021303258781066,9.16226463539785,-0.04119824546768361,0.008503712033866863,0.1180157302068345
1700842012.8005843,0.43529285841195986,-3.709709018315317,10.99380352291821,-0.01879565959715468,-0.007435405067188345,0.1187676949547403
1700842012.8106334,1.7319050249086079,-4.817199248862175,9.116938507347971,0.045880416411299856,0.012281138804441543,0.1163080943869226
1700842012.8205233,-1.7045954388468763,1.9932202592593702,8.600756271195438,0.02096939343283135,-0.004126390766001042,0.1069548515723817
1700842012.8305748,0.11509754115127316,-0.22049653193060714,10.786720375741373,-0.003685873158574465,-0.021000546260929134,0.1116512952493302
1700842012.8405442,3.2080154916987427,-3.6656713797394507,9.615217645665128,0.04148963271972773,0.008101037582506139,0.1120033128307931
1700842012.850567,-1.5740874757248495,1.8491479229995063,8.16171544319824,0.02686861583800348,0.005761934175057336,0.1155402151988618
1700842012.8606043,-2.5724304228814865,1.2887190652543332,12.075596738149144,-0.016239201557286406,-0.04952291642794446,0.1181882484005563
1700842012.8707826,2.603562056360302,-5.6797978442335575,10.9165508764493,0.046266520104531896,-0.032531675435022715,0.1056961728380792
1700842012.8805928,1.711906070630785,0.2609303723561918,8.238912350711315,0.058465206997679056,-0.008776473125378244,0.1047148866699807
1700842012.890607,-0.8372475276310047,4.11178182304883,9.395771826444136,-0.007978013170635904,-0.02214280429918138,0.1102477921293847
1700842012.9006376,1.7297949275221598,-3.426504509164734,11.025550478951919,0.01876752974613547,-0.030402892149451164,0.1152766285585038
1700842012.9106295,3.5305061437332923,-1.331087896445868,8.390814644832542,0.05693662907558547,0.010191958288484466,0.1300252465652101
1700842012.9207363,-2.779813471492625,4.375088616793448,9.907549091797478,-0.0018431236497436741,-0.03037795759434846,0.1385375348971955
1700842012.9313867,1.8752924859367643,-1.3240067673361129,11.871725101071233,0.0002718536752674364,-0.046363863694173,0.1384570388244264
1700842012.9405556,4.364345281299578,-3.371689466640395,9.163658438327921,0.04946746296499672,-0.0010237853498259774,0.1265350369857423
1700842012.9505444,0.6627110284988399,5.560258311858695,8.078346869431332,-0.005854116291820701,0.008598877093749534,0.132017874543535
1700842012.9606895,-0.730533497571855,1.5085014758141537,10.773802209889709,-0.05295781670761855,-0.019758758355201557,0.1441987542556398
1700842012.9705772,3.198965944303592,-6.293336167361373,9.864829262789748,0.022244607829443718,0.0011268121058378607,0.1408973572896592
1700842012.9806092,-0.5986761275049298,0.06341041048848511,7.768298408542612,0.04542717341407689,0.005950588816071363,0.1390131501601808
1700842012.9906929,-3.110999103186243,2.8622424625820586,10.965275919337696,-0.014622353811358004,-0.052347442142958736,0.1342963663982026
1700842013.0006273,3.9833026851501123,-4.012064968887478,10.84851489497726,0.021905100354985742,-0.02436221012064935,0.1253179920958154
1700842013.0105877,2.6648365925621373,0.4520373035663385,8.229155743219883,0.036116199134730714,0.015253281742143203,0.1253955675409906
1700842013.020559,-2.559598992819401,4.649776708718858,10.12018460832049,-0.03428357268164102,-0.015842739519015728,0.1248941583679788
1700842013.030598,1.1665520727971035,-3.688418435983708,11.565767914811465,-0.008534195153110043,-0.028335149084603713,0.1193316815541856
1700842013.0405395,3.696610085937875,-2.811249467580047,8.441428271299078,0.04386901095510621,0.02286747344739763,0.1188231570767038
1700842013.0505943,-2.8234071618008594,4.513627367538417,9.12416273059867,-0.014009674326709104,-0.005173038935705214,0.1139037026213281
1700842013.0605657,0.5021390568134151,-1.4223521012863722,11.41590535553832,-0.023243837624392166,-0.024005111840689496,0.1033519147084825
1700842013.070588,3.4615137107357903,-4.057971922566305,9.017179946487545,0.034094090365186284,0.023240775613384636,0.0979316545771234
1700842013.082378,-2.187939158015116,3.161484715627405,8.407742184058131,-0.0006136591164247329,0.007014319213542828,0.0967726348088853
1700842013.090706,-2.0221418841567926,0.7505807273636458,12.067189444404953,-0.036270321156136716,-0.0386798751439663,0.0958595363544099
1700842013.1005828,3.8605796101287146,-4.888339436136661,10.060882515662962,0.02606911607563326,-0.005352092969360604,0.0965126318977944
1700842013.1106112,0.4916544999796584,2.3942256707509197,8.088120934359656,0.01283694467810367,0.010389415762281954,0.0994343174742334
1700842013.120575,-1.1105127543813011,2.5564331530562487,11.189036423947556,-0.0414060679361101,-0.0238988588771315,0.0992762161539666
1700842013.1306703,4.670040693564729,-3.7177176119909845,10.522422529871655,0.001395419182517517,0.011207144363681558,0.0980466468380563
1700842013.1406307,2.795986708121179,0.5944663614631379,7.740555272468379,0.010608515487007369,0.057989073807065986,0.1048395423339479
1700842013.1506157,-3.807386710844244,3.342264352038719,10.249489747911777,-0.04512068482544308,0.002604136796577347,0.1027916161464326
1700842013.1607368,1.8888945751421,-3.820806906342268,10.85520068458365,-0.01452509782394876,-0.0017454749000166785,0.0909936068700425
1700842013.170642,3.1343653502489945,-2.116871701798266,8.475191203541133,0.0214753692107301,0.04032195065562331,0.0970508543895356
1700842013.1806054,-2.1553938450262287,3.3259592814391254,9.113828707712102,-0.01902086828149441,0.01502069594281055,0.095486686949598
1700842013.190612,-0.2575075716696619,-1.3546886837655971,11.069733584799028,-0.02924580240159097,-0.011157110030127334,0.089935482864248
1700842013.200623,3.421113240557529,-3.5192314765048844,9.430946922132037,0.011926975833360047,0.025343116035867762,0.0941047681616418
1700842013.2106092,-2.523011322652427,0.8919994522221899,8.4230590139033,0.0037339329654893292,0.007897606393262912,0.0947912646578424
1700842013.2206333,-2.399436662022174,-1.1355527934595624,11.437322239245596,-0.011463899315545886,-0.0469746077517084,0.0860940156625383
1700842013.2306218,3.7632572217889844,-4.481629539998641,9.89832084915706,0.036423727584869524,-0.013581813838409664,0.0791185287879579
1700842013.240647,0.15007744152512784,1.7259622557591439,7.903388805933865,0.028389603118290866,0.0016708479212433546,0.0772930694864862
1700842013.2506523,-2.150114976034743,2.135958036092434,10.764363593808074,-0.02642020279868108,-0.04080382699475865,0.080427990679609
1700842013.2606091,2.948597789643813,-4.925663626234786,10.619884453560271,0.023120782881958818,-0.023370346490112413,0.0806175185488336
1700842013.2706437,0.2562295734921818,-0.22317758005332566,8.65348959829516,0.043945548368481295,-0.019747591700782014,0.0928602976845376
1700842013.2805753,-2.5496995646067417,3.420461624141346,11.267295778483922,-0.014683963508898286,-0.07378836552047978,0.1052347658322923
1700842013.2906618,4.879597840161178,-4.103063277509363,11.033082937493635,0.026435689421171638,-0.04435599690565814,0.0985386235760324
1700842013.3008666,4.363607259105549,0.5323253715119954,7.512017052153517,0.04647514447870824,0.017756266589499945,0.1024338094638459
1700842013.3106298,-2.670863886204651,6.244087652259275,9.996089814677807,-0.040508921051647453,-0.022541358849062304,0.112270431046354
1700842013.3206744,1.8396461119785275,-3.0429535331490625,11.088728729633525,-0.01843616805526202,-0.03309246606643309,0.1112771792458169
1700842013.3305817,3.6226622839813736,-3.951320237606355,8.745097183922162,0.046619375037556726,0.007092717556423944,0.1052877990649812
1700842013.3406177,-2.5738217011359352,5.056669971132054,9.451563225388792,-0.015177141100697865,-0.026615947102156125,0.099917726044523
1700842013.3506267,1.2813297623527986,-0.6463254072728035,11.468296234404036,-0.035580619535016164,-0.04621748041739387,0.0908747477577798
1700842013.3615916,5.226360303049076,-4.4317009320643015,8.8272931820971,0.03192220883968431,0.019039944382381494,0.0857855988787286
1700842013.3706656,-1.6035253338447695,4.761321340098397,8.348846736583907,-0.008279828752014775,0.010326161108436488,0.0854290960477464
1700842013.380708,-1.868685561010705,1.6855583154197116,11.451200049217565,-0.05721750673097149,-0.0382423208778423,0.0888347266362779
1700842013.390689,4.228378186246552,-5.936282356274095,10.094598462478094,0.012591541730890344,-0.0006982808405293389,0.0883111594365708
1700842013.4006064,-0.5358662688511001,1.2984453036384618,8.104411632252862,0.022008500008992866,0.007037725637773869,0.0917633114503495
1700842013.410606,-2.4026326127124444,2.497029278921282,11.894041052344946,-0.0370762896997431,-0.049161823453043214,0.080819451634752
1700842013.4213514,6.157832371981022,-3.8354251621906257,9.681506084538055,0.0028938997464327404,0.017303820606777452,0.0730974538372628
1700842013.4306188,1.7840943314410638,1.3236200341260014,7.720636215801509,0.008702960884101838,0.05506729004179916,0.0799982709931008
1700842013.4406018,-5.179757001369314,3.4319218747015365,10.637273284154944,-0.0566719840734223,-0.013847776520004462,0.0749827189491861
1700842013.4506242,1.4498270675480949,-4.958580024025219,11.016899733908389,-0.01740517051017551,-0.018767604545862494,0.0651718242214791
1700842013.4606204,2.198734613578952,-2.743667673672823,7.853304312158039,0.035560429963676365,0.023888281524452104,0.0655510215209596
1700842013.4707751,-4.150950751914135,1.498032626301946,10.367723761155283,-0.005574434403655793,-0.027600122828272115,0.0446506602810495
1700842013.4806862,2.6213727146290093,-2.1297295263428957,10.627322772477317,0.001966980601011486,-0.01924802804430132,0.0187142597632281
1700842013.490646,4.88387837733429,-1.975964321381419,8.43662824018372,0.0328337338407348,0.05325317867780789,0.0211049182461373
1700842013.5016174,-2.9237832852967,3.429115643903609,9.155535678071923,-0.013782785346897149,0.02915609104945373,0.0260824909554593
1700842013.5106723,-3.154007622736652,0.05952942496314751,12.181815921110118,-0.02867001962098035,-0.0329356957542144,0.0282478885846011
1700842013.5206308,3.3217619313694144,-3.0631245053977056,10.4349499932261,0.002377179240369669,-0.006327255230281108,0.0344566790507905
1700842013.5306122,0.5050851948326678,1.372387367570215,8.951706945244737,-0.0015958621539131552,0.007523136313918665,0.0360893396781556
1700842013.540594,-1.1733150803634447,1.3852515542547397,10.961153581074695,-0.03660870439057318,-0.02596386396630843,0.0297325750933759
1700842013.5506198,4.231829261104778,-2.213202623913072,9.636403053859194,-0.018259976544661695,0.008253570298984074,0.027589793701636
1700842013.5606525,1.6156025033455816,0.44519081966896695,7.807020080980528,-0.010993358796838859,0.038298163872226544,0.0227039059744947
1700842013.5706365,-3.129975477937359,2.3570586250487033,10.214060112049653,-0.05459867270831701,-0.008627801585467207,0.0210613509760968
1700842013.5806189,1.4812025458329603,-2.9521982589110554,11.066131300234009,-0.03718473242727119,-0.007224049693402571,0.0184555942313544
1700842013.5907998,2.3699795142866087,-3.887384933602664,8.91038396206612,0.019590267577885054,0.022937032834605353,0.017482395668494
1700842013.600763,-3.618405246823362,0.6891182632899456,9.285170930093605,-0.0023693084819488707,-0.015405180022061442,0.0009644635200765
1700842013.6108868,0.7446137974466817,-1.8396971065706558,10.413493952035425,0.003718906389372459,-0.02626438601781393,-0.001519829348681
1700842013.6206696,2.992874102487736,-2.492446087299219,8.627486341115612,0.03162372161449862,0.009991175271097481,0.0050731621803515
1700842013.6306443,-0.9890917904314805,0.5681652626993514,8.382984784811319,0.02050110160472273,0.007287645775946129,0.0057455626437239
1700842013.6406617,-2.2009446208403185,-0.9980265759606859,10.892907179931818,0.01521823821780791,-0.03399696292759079,0.0130838951216809
1700842013.6507046,0.9169672748912916,-3.54170718336786,10.593811493627403,0.05448661724180265,-0.0416896688734488,0.0296829728530519
1700842013.6606474,-0.1821097545545394,1.164851562346881,9.776391850224963,0.05084438771111397,-0.05496334980789543,0.0502135543273561
1700842013.6706977,3.9673688746618003,1.6675592220947109,11.065196198908032,0.018486049983955786,-0.037214018100374065,0.059883718763458
1700842013.6806307,5.579809537427032,-0.8545317907331471,9.253396462065057,0.027835385820600765,0.024937194739985805,0.053927374456989
1700842013.703894,-0.1638697355254762,1.9291404755422876,8.697143854196604,0.0026791911893903736,0.02390469171921936,0.0569043209897153
1700842013.7085571,-4.9402767638093374,3.316411491026499,13.042813741908038,-0.024767300289681948,-0.030469567434794634,0.0662701813624971
1700842013.7106504,3.340272322751075,-4.315626143377835,8.592192152544609,-0.008852503539547233,-0.024464878782952473,0.0659455148624055
1700842013.7207358,2.585299438265989,-0.42983927947461037,8.442586566611,0.00886278002051395,0.0018989268293467887,0.0701873464630715
1700842013.730625,0.6483383963618131,-0.12137592905966947,9.996845391227074,-0.0007290276841823139,0.001616051492962068,0.0730798406647317
1700842013.7407608,1.6253361508063495,-1.2927715077513557,10.245339433254063,0.013514661514766097,0.0037518038059215658,0.0618573961900346
1700842013.7506936,0.6693700378787388,0.6945628022803237,8.42251107303636,0.006880639027478591,0.015300701614264865,0.0609602978573911
1700842013.7606645,-2.561120543463802,0.5557808274784046,10.198262576050425,-0.013182380982299879,-0.03165862886734759,0.068420478527414
1700842013.7706192,2.805200386656673,-3.115881086821956,10.16547484056409,0.022089970013377716,-0.024461956140467863,0.080783666496145
1700842013.7806666,1.5846021257412028,0.4390724806591677,8.435584494774062,0.033117259961940225,0.0006591754639065396,0.0918124107764833
1700842013.7906363,-1.0404737937227626,2.2455599800146913,11.077160188789334,-0.007357596696305099,-0.032712803510002574,0.1020172698544137
1700842013.80647,3.3667648946564532,-2.1107462218711563,11.106203971628933,0.01486313959018249,-0.001620910839742293,0.0998343465970628
1700842013.8106017,3.9800418719702675,-2.5953631599397986,7.2176635563318605,0.02785365477202752,0.03261030746403872,0.0719657553480737
1700842013.8206394,-2.4177135784492543,2.529726183108757,9.579146453366315,-0.022381719251596415,0.001771976597010775,0.0636361999558084
1700842013.8306794,1.5452628653529592,-2.6906257165138996,10.149434148780523,-0.0016080471526498884,-0.0032979607832166226,0.060966787313091
1700842013.840648,2.4351724007205435,-0.9506632880326424,8.145377012916363,0.020614200942685974,0.03273646383590728,0.0610742507623307
1700842013.8509564,-2.6198313232170465,2.2954709776253566,10.530442112313324,-0.0190426573791436,-0.006084548405166682,0.0705304084466569
1700842013.8606584,0.18596328370030982,-2.6493492465981654,11.590946190616615,0.004688527621480318,-0.028851135621130834,0.0702049447344415
1700842013.8708005,2.7820939544317946,-1.7698275837897444,9.446369993193976,0.03376439669698109,0.0042466701556297054,0.0640868632243745
1700842013.880751,-1.2722556504402986,4.132165511538685,9.488065231399128,-0.02520353959935785,-0.010677809041753732,0.058134668891298
1700842013.8906665,1.7072196739189542,-1.3854769214294007,10.593986567027807,-0.021308441571102833,-0.013366743976845627,0.0502653805659883
1700842013.9006865,4.4725962437621005,-0.20090426943836445,8.535696730280332,-0.007961494671904143,0.04327641517914347,0.0495357750104539
1700842013.9106522,-2.397068544669308,2.470922513047609,9.533848800955639,-0.045859925554617355,0.022851045231970377,0.0462928725527398
1700842013.9206612,-2.0216614619031903,-1.9104889633087865,11.438074591541081,-0.039288488705299655,-0.021577473998707998,0.0346166951702706
1700842013.9306407,2.262360969153094,-3.4735953992875395,10.127352066826795,0.0055219240849827215,-0.005385069280531068,0.0259410137431495
1700842013.9407246,-0.3174047355469293,1.6761919574012893,8.576354294200385,-0.01855691138384446,0.0038158840325465907,0.014225391124355
1700842013.9507177,-0.4693612170482009,-0.08270088013554071,10.609116029795048,-0.03613496965007053,-0.016419089681876352,0.0105355721087925
1700842013.9606235,3.874684052879684,-2.898121043298933,8.970980129084817,-0.005842036899961521,0.025217781783523695,0.0152749134348504
1700842013.9707668,-0.5208728475241908,-0.41393462913904966,7.909963257625416,-1.140977040621078e-06,0.039006996575573855,0.0152993112923376
1700842013.9806845,-3.995529253351419,-1.5082086305371114,10.438974856887986,0.004583263478173763,-0.022353600045857718,0.0161781873674862
1700842013.9907482,1.6870392165635302,-3.8779609496204572,10.4155293566164,0.036445801189776174,-0.015460468364130587,0.0161683535324208
1700842014.0006485,0.23036966309200663,-0.08228196788581031,8.796146946600981,0.04788341944281376,-0.006014256656443472,0.0229298001276128
1700842014.0106642,-1.096778828123889,0.7524776553692376,11.285809780981749,0.016257547131380598,-0.03836599553290394,0.029757078190314
1700842014.0206766,3.759858107422499,-1.9154306201820064,10.187943178966384,0.033551623463551165,-0.014172164488104924,0.0317916100965612
1700842014.03064,2.842035799788904,1.3199107208215863,8.232836758895694,0.02361192377757382,0.021370547760051577,0.0407837754236333
1700842014.0406451,-0.9732263241665327,1.1292563068052426,10.548445429830704,-0.003301891574263618,-0.007957459197463298,0.0526997534679048
1700842014.0506976,1.548631938626551,-1.6613181187829595,10.470680496278918,0.020225746792370655,-0.010970200147944472,0.0604217475401036
1700842014.060737,2.009774380272592,0.5168271128597618,9.503064693450602,0.022943517477238076,0.0009442982517270259,0.066869647626745
1700842014.0707047,0.13940323597755686,2.5132418502859557,10.391726256074058,-0.008600663206776497,-0.01516364314663219,0.0777905671046846
1700842014.0806513,3.5547580168462707,-0.31193390298596435,10.488875064378833,-0.004396310027209145,0.004191574294736542,0.0706213427828424
1700842014.090671,2.8989711801364075,1.4710927107656997,8.292576335767569,-0.015377918250660516,0.0445683187239281,0.0706894932435624
1700842014.1007352,-1.9539406922136056,1.2307709232371868,9.917972211657025,-0.04545074999060661,0.012702329227231248,0.0759971900032632
1700842014.110663,0.42386509848124737,-3.68867972625766,9.820714946183852,-0.00880821603619912,-0.0014220057680011781,0.0774282528208367
1700842014.1207657,0.028335932543414565,-2.699715195437082,8.611431390153365,0.031230061623339373,-0.0008196831794387165,0.0781834809230439
1700842014.1306343,-1.9130285824953226,0.788978667050137,10.062180470803517,0.014073461427087245,-0.03690320276294013,0.0817653922484986
1700842014.1406405,3.372135438797958,-0.9578704991109772,10.952744814124035,0.019324224282394206,-0.017138714236396922,0.0797910181926362
1700842014.1507132,2.9128205696127587,0.42322881529397655,8.943048262307332,0.01856785927806866,0.023832951262465474,0.0795612944410913
1700842014.1606722,-2.17533344633292,2.3192827543691643,10.15010240763968,-0.02298999114324005,-0.005608713347277794,0.0774015052364938
1700842014.1708317,1.0722536016611743,-2.2300744174828235,10.485716678901984,-0.005516898903537622,-0.013832682803521623,0.0776842845724694
1700842014.1806693,2.1832824533072213,-1.7348601420048089,8.447141245568783,0.02533968565572048,0.01568822549152756,0.0755414230869882
1700842014.1909258,-2.193585422936978,1.924751073972953,9.795458138650798,-0.009710987101682484,-0.013337160474021014,0.0812368629621141
1700842014.2008474,1.057669731626982,-2.2197587921325552,11.07447338666809,0.00782917029846646,-0.025129659136524683,0.0745972333596818
1700842014.210672,2.5770876816499624,-1.357115606186042,8.973700525822947,0.028969087485046344,0.00988314784664767,0.0658010928081147
1700842014.2206702,-1.7291549329807814,3.646453133402603,9.622411770837372,-0.025492216645049002,-0.014672661180934259,0.0647555677341096
1700842014.2306774,2.5370772827996038,-1.9183840904827096,10.721324401738933,-0.015631986957673257,-0.006954735969063927,0.0665501816319101
1700842014.240665,3.1321255503212675,-0.548230627952759,8.676956703823654,0.006340778178860582,0.036419195795106475,0.0680492607997529
1700842014.2506742,-2.677097485674336,3.192867912236374,9.96283231414072,-0.048830488900679654,0.006743587109896791,0.0749845741437547
1700842014.2607484,-0.33856785511049425,-3.6875197183993706,11.294687336880143,-0.017046120926546227,-0.020366200165973812,0.0663023306177728
1700842014.2723196,2.0518552630584335,-2.875199398107758,9.652718049747662,0.03066070963880922,0.0009486170165018944,0.0468207983420961
1700842014.280682,0.25377096461141446,4.458435072056706,8.967342804133894,-0.02357822987430575,0.013528831744773193,0.0371232716487519
1700842014.2908676,0.36420633591175916,0.20891435006106332,11.080525505042784,-0.04218339818289402,0.0013697258783705556,0.0415758391963117
1700842014.300684,2.941443084950783,-2.100567296623742,9.566540003893113,-0.019595039755129596,0.03254286183368348,0.0427485196040742
1700842014.3109808,-1.2358889828346018,1.5521196007988818,8.552404613678819,-0.03575611139776898,0.03554127903303918,0.0482884323345296
1700842014.3206477,-2.8141798730193845,-2.576937068695465,10.860067105911998,-0.023513558200811028,-0.015489355047811381,0.0536157464729421
1700842014.33068,0.9886389939454057,-5.200734745308679,9.4827894605257,0.033447482770941055,-0.009884317446681307,0.0463413497553937
1700842014.3406582,0.0329593313571665,0.07678337423835838,8.305233999331696,0.03769785184933004,-0.003934333272018953,0.0381376309441201
1700842014.350665,0.14766541634847713,-0.46637542809586213,9.865363314677179,0.022898975663001992,-0.008037347905092002,0.0434136552857034
1700842014.3606606,0.8563098820193432,-0.7005721231466352,10.260613773377507,0.028571799686818364,-0.01099057489665037,0.0530248558269612
1700842014.3737092,-0.9872637356879814,1.9300030053322828,9.170712741039136,0.001965461196995853,-0.03155025164137311,0.0698196230577104
1700842014.3806934,0.6555957127332742,-0.48099694803384163,12.05035108743986,-0.007654203317245303,-0.052039092550211816,0.0833855806039445
1700842014.390693,4.982931089989756,-4.089549561109814,9.815083015394357,0.04974499273098221,-0.01061120220291008,0.0862909792111985
1700842014.4009006,1.1450017185193044,2.968346138987906,8.848920804787413,0.028234248208046295,0.0041503222677332805,0.0942682040976159
1700842014.4107518,1.0656743468280767,2.5500849709158597,11.108013767368284,-0.015645920626660263,-0.012161980312859304,0.1081839515017144
1700842014.420661,3.5476189380832204,-1.0748531307473155,9.587455726332738,0.0011671106037839899,0.01580297479442812,0.103998394136297
1700842014.4306507,0.8794204657578476,4.221120394359344,9.07323719885875,-0.03958885331182675,0.019850843451592312,0.1137914745257966
1700842014.440678,0.780465207283099,0.061780260237566685,10.411634440637823,-0.058125739311490704,0.014861667565100658,0.1282475529359452
1700842014.4507008,0.9607678531349276,-4.578626475186819,9.790356632309114,-0.001833032266758893,0.014049215644756849,0.123489440803396
1700842014.460687,-0.9760911454065193,0.3960303934704364,8.54111982601766,0.0002597069489039649,0.000296545815559453,0.118489363615381
1700842014.4707105,0.25931078726815643,-0.7354729025819927,10.279569462100604,-0.011919353965070425,-0.016543614032307974,0.1196736557530038
1700842014.4809191,2.8881713664925437,-3.861579536766681,8.89861576282914,0.03498303230645106,0.015469859662556035,0.1034537939475648
1700842014.490708,-0.5604226486107139,1.3062261349600846,8.55326143531629,0.01949732959532935,0.01009125561278594,0.1056320680426232
1700842014.5007217,0.3039017957278324,-0.9981224279968285,10.342451661262182,0.013279187769399462,0.0005962075581029279,0.1074523044870965
1700842014.5108168,1.611719548796411,-3.3035290028641975,9.929130021591112,0.05049275815497246,0.015005785527170712,0.1032620979593866
1700842014.520839,-1.0020594216208936,1.614943766331001,9.359357953293863,0.030714808520669133,0.00718456988198879,0.0983148453878038
1700842014.53081,-1.4262043712285026,0.41484606738658275,11.67054402129392,0.006023484174239808,-0.035935024900994296,0.0837304009245507
1700842014.5407724,4.22212622621304,-1.9311540207742885,9.50366933942033,0.023520112123394336,0.004528700066820714,0.0682444883631341
1700842014.550997,0.39606070043185265,3.25819414285028,8.533497835470591,-0.012440286479759729,0.015755357415640846,0.0707081047938935
1700842014.560685,-0.7401055545174541,0.4362304374409902,10.708793096378644,-0.03489266789293898,-0.01478872705602815,0.0711182369040124
1700842014.5707862,2.358038710149664,-2.274265467604954,9.815504133182055,-0.013387211174561727,0.005805084957890204,0.0747490687416665
1700842014.5807364,-0.08913764460599682,-1.1099711565631165,9.495004796780652,0.0018786625885615323,0.00873941090681824,0.0767452282951944
1700842014.5908058,-1.0865044932537649,-1.1292758931514706,10.950061163642323,0.008241875410190915,-0.024687242565527654,0.0698353214310281
1700842014.6007574,2.8215642125209377,-0.6890074875324887,9.213998886723898,0.014014808150284198,0.004327148745689098,0.0647823004172914
1700842014.6107,-1.4400586646114406,3.148509374408198,8.511909506300691,-0.025409980930702337,-0.004819584307262016,0.0634518874930017
1700842014.620713,0.09276743624897035,-1.240603361556631,10.456016544086465,-0.023162848636793843,-0.02725621344745039,0.0654854117082231
1700842014.6307638,3.8816952386867194,-1.5058546664234,9.469563868484027,-0.004543006066639469,0.021976110256046545,0.0793098895000093
1700842014.640714,-1.9808309568499314,2.111406049309626,9.486210671032678,-0.023286493095784885,0.00581433186813227,0.0898429392026536
1700842014.650691,-1.7389659478753143,-1.256156250284317,11.770453777040647,-0.028882745572521493,-0.03337397672231736,0.0988522408650987
1700842014.6607184,0.7348924207820604,-3.9895931223337344,10.556847551009463,0.018097805723303075,-0.03928451685205596,0.0774859426663987
1700842014.6707642,1.850650825435608,2.057831291431951,7.988786733194782,0.0002891776785100991,-0.00501795929963843,0.0721702812360398
1700842014.6807234,-0.5038250831770966,0.8235710491482169,9.80209108504201,-0.03520363701027551,-0.01459665843268125,0.0889622060702912
1700842014.6907563,1.6356487252259302,-3.8337633791159407,9.236615722956026,0.007483597446342457,-0.00020237792961901136,0.0930508611844651
1700842014.70075,-1.6431362775461713,0.6200697240082496,8.509181538578053,0.01814697624361854,-0.016978514976334635,0.1071013746904008
1700842014.7107306,-1.699135190505426,1.2866584231970695,11.890664268452616,-0.01974161647917711,-0.06307493950661167,0.1337871192144029
1700842014.7206988,2.764753224861147,-4.333931590905843,11.611022013335145,0.034102088561906385,-0.05397139040679898,0.1201044259713761
1700842014.7307389,3.022037036035328,1.4475394584004782,8.897845519696086,0.03437948002882864,-0.026883632306704947,0.1081337718413942
1700842014.741959,2.476409545254942,3.7052661200330923,9.442682976395197,-0.030756597151090116,-9.813448781016419e-05,0.12412642819153
1700842014.7508073,2.6672683073092154,0.061538586200166584,10.29233275639703,-0.03179013744862006,0.010235824693240875,0.134512939874994
1700842014.7608824,1.879511492367593,0.7105424614687605,8.820514381692965,-0.029934139269959054,0.026075076651354463,0.147096404259073
1700842014.7709558,0.7219632501551878,-0.5158134823383764,10.651067450339205,-0.03784625735654255,0.02049679292438613,0.1712978569911592
1700842014.780765,0.00865316414471038,-3.843181775349446,9.920010754283117,0.018626807572222428,0.0016346764543452117,0.148344093386995
1700842014.79074,-0.2310818677906628,2.136663183099169,8.22155720725038,-0.00930125396336186,-0.006530959016540776,0.1392264155791871
1700842014.8007064,0.20211276987608018,-0.418748138520658,10.309722261152647,-0.018319205137173656,-0.019747648892477702,0.1564358411477678
1700842014.8109543,2.4141191579680847,-2.389237897238247,9.79185912821483,0.0127495058114148,-0.0072402884422956,0.1616979180024736
1700842014.8209612,0.9500821155869537,2.367666581084693,8.69498701381538,-0.012464872371503804,0.0034365003361773987,0.1814613429950349
1700842014.8315158,0.9251707568325629,-2.367187929553016,11.087835392035611,-0.0007800310168161248,-0.0036137393374097685,0.1941092996047609
1700842014.8409894,1.3100234712264278,-3.7305330576526403,9.759820438479489,0.039553014652009985,0.006632737212049429,0.1656102327750795
1700842014.850737,-0.030825957929096585,2.6359283220237226,8.333259716079398,0.008936813098497467,0.008071668556285043,0.1622987924264543
1700842014.8607793,-0.1932098204372829,-1.271252825782993,10.077360403947745,0.006271483357042848,-0.004556778330303418,0.1721776215480439
1700842014.870745,1.9293682489158226,-2.4224758878239117,10.198013295827893,0.032314083847201455,0.004795823922847263,0.1661917654918306
1700842014.8807871,-0.1857495821089945,2.4817918314344416,8.951546854851431,0.014106028264591014,0.007537823027780667,0.1701098321126573
1700842014.8907664,-1.0858501925506818,0.10395580059901381,11.569604482096814,-0.01321498622667378,-0.028635200111432585,0.1796900568650834
1700842014.9007275,3.133218954851726,-2.9204460177086844,9.854098883859729,0.02221964348308471,-0.001237725056997899,0.1553707508491151
1700842014.9107094,0.16349353811237738,1.548890606750196,8.272249245739227,0.008410679099951383,0.004589817597752274,0.1486120460675828
1700842014.9207523,0.28271199940544706,-0.6377584343811474,9.85830312333847,-0.0062262778634417865,-0.001949530989336053,0.1638954518483751
1700842014.931012,1.9660080973842147,-3.002453770068479,9.930448748655468,0.024424047527153818,0.016023149011374242,0.1590710668014161
1700842014.9406822,-1.8081087272874101,-0.2617301159713711,8.729552095617015,0.04128181088250415,0.0007302265409046799,0.1546367196487062
1700842014.9507685,-2.592079804438363,1.058835996597351,11.51409134618623,-0.000908150577095165,-0.04810351779016327,0.1629044203208558
1700842014.9607868,3.6617037617644024,-2.1075621698587095,10.63010813438189,0.024116806267898954,-0.02406075562338165,0.1444876430677049
1700842014.9723682,1.3899290987752546,1.916281682761855,8.458724831047942,0.01621354976978877,-0.0019330586436426228,0.1525451777623765
1700842014.980847,0.22388656221888467,3.0520736055238284,10.508352576691234,-0.04010621124119015,-0.007929344771938717,0.1754536865399949
1700842014.9907677,2.1872042599284103,-2.6035451282996176,10.613566296255094,-0.0050372593477899345,-0.0005139919906795014,0.1880876807616822
1700842015.000796,1.127766916921548,-2.7207313123304693,8.747018171942772,0.03357307553377857,0.014612392814593015,0.1752758411811464
1700842015.0107205,-2.086532563043493,3.1976265788216023,9.897760727274957,-0.03136843787184252,-0.015199721532217485,0.1767184076951616
1700842015.0207336,2.8511006768794287,-4.693889393027452,9.727866148017373,0.02247946376686995,-0.0005025974661208576,0.163301700179445
1700842015.0307057,-0.4218132136097506,-1.9881233124957443,8.025729995847147,0.0475824804427013,0.00619620013078286,0.139035382692682
1700842015.040755,-0.022781219909916425,2.7678900286026527,10.540369120040031,-0.0032464812328720657,-0.01020401119740609,0.1439978418992631
1700842015.0507486,3.3772525269570997,-2.124565710268163,9.974356904235755,0.016781750366286916,0.026584811015767987,0.1402644006656282
1700842015.060828,-1.430107189852156,-1.1942226882274833,9.6623262400573,0.025618066929813065,0.019332312650786096,0.1116003705309503
1700842015.0708044,-3.287747531339492,0.5498552427945963,11.117455406627535,-0.0072782472463558,-0.029842988665108476,0.1020539714144342
1700842015.0808043,2.8089376888454844,-3.48673769956756,9.871730286237668,0.03561872123896725,-0.016044838221531858,0.0801503224419229
1700842015.090785,1.905371473100793,0.8482415289835602,7.608746168397254,0.030016899250644494,0.013632740062879678,0.0648833228396051
1700842015.1007884,1.1666671121346626,3.628516772738892,9.429606658101003,-0.025738240428036876,0.019731056242986867,0.0856641022609346
1700842015.1108072,2.5903255405062593,-1.779096551640474,10.751093846510681,-0.005754244795164289,0.03555209865761662,0.1067443130658738
1700842015.1207428,-1.0511362807658395,-3.0722555513242353,9.621533907930873,0.03720346039415644,0.025821651944644693,0.1018750382708184
1700842015.1308172,-3.753436053109576,2.2028824600385293,11.738433905485014,-0.0027689649557650106,-0.0494064579110542,0.1027462495611779
1700842015.140737,3.9056455501012852,-1.5478100263911299,10.728359158332207,0.014284196603112235,-0.029944328261216516,0.0966592071698777
1700842015.1507723,2.658732655591248,1.7129959915708173,8.071422492440693,0.0007681648793053733,0.006137299205786091,0.1048672882960908
1700842015.1608262,0.09452194743314353,2.464234768581836,9.469862843138651,-0.038447547840881106,-0.008022296142360373,0.128988408868181
1700842015.170925,3.0338714047327073,-2.3799245087048173,10.248222671083836,-0.010725147955031624,0.004886628218083059,0.1506299762176149
1700842015.180769,1.5160761393402065,-2.075516408366549,8.516124736609866,0.02649722376992342,0.02583605530930071,0.1591810522721879
1700842015.1907449,-2.911458624293112,1.802192716235799,10.729971712125245,-0.012225815560957847,-0.023340809326451266,0.1777115551875703
1700842015.2007675,2.607057096358855,-3.40427528928234,10.937221136052594,0.02121853247093813,-0.024835273519006145,0.1439739702390306
1700842015.21076,3.7164304073377483,-1.143949719671146,7.634926043681073,0.03377847191223909,0.027709763403073864,0.1298497406886689
1700842015.220736,-0.6363898394291783,3.6329195218419086,9.528062028726577,-0.01802648225225823,0.017172549192482147,0.1397030143188112
1700842015.2307436,0.795345662917817,-0.8061180750886059,10.577464829263565,-0.013872080732856345,0.005708191198888453,0.1369340954469316
1700842015.2412536,1.5406417240156107,-1.3594875192671199,9.53052848904391,-0.0050165072856580215,0.02217355497332314,0.1380941210435502
1700842015.2508557,-1.4038866989584111,0.08993094023288041,10.665013454019936,-0.012769731984827667,-0.0009445254500025842,0.1499613909171693
1700842015.2608836,-0.44566554371417905,-3.1576892472437152,10.96387045704545,0.009220334733551525,-0.02493241808744704,0.1194820491717927
1700842015.2708702,2.8494505381088024,-0.5582319926862646,8.154987437401426,0.01193417932069424,0.011414767856400726,0.104849280242788
1700842015.2808027,-0.16762434019754846,2.2064693855616455,8.45435125277435,-0.020143547551504923,0.012805091459823401,0.1120818195985429
1700842015.2931707,1.4964992717062,-0.6582987407128738,9.926060711228766,-0.019888035274640906,0.014132373955646742,0.1139432875560395
1700842015.300911,1.3624379783313063,-1.7299678197575152,8.846525120219557,-0.001113151079309342,0.03425990835147268,0.1263786642001741
1700842015.3107626,-3.7527482285668388,-1.4219903187353635,10.808538963571793,0.002478476834980072,-0.009999775591553475,0.1396204022811525
1700842015.3207457,-2.1418815771909383,-3.723278671999025,12.401054766558683,0.03956262762840161,-0.06561551580271165,0.1000478951381318
1700842015.3307602,4.240794798103216,1.4037640048677322,8.370858796215526,0.025848485542643625,-0.012290388062411162,0.0903485207007997
1700842015.341757,-0.09323138739049266,3.461287526243544,8.746031642957682,-0.04708977389385552,0.0002484207352869986,0.1017226217435472
1700842015.3507495,1.2296042523213364,-4.416680558149664,10.598148155602901,0.007496764115083535,-0.010241056778290318,0.1023029251144998
1700842015.3607676,2.0082442235182514,0.3484458110042022,8.068329033732772,0.015260344511506629,0.025566146835559654,0.1224816454695336
1700842015.3708348,-3.4205016247385256,3.2867897592694417,11.182334238483058,-0.043571834219482075,-0.024657138151215674,0.1556677905963533
1700842015.380859,0.4254399178803345,-5.424621581038842,11.92507231016906,0.02261931876163897,-0.053202818982978316,0.1475487737105958
1700842015.3911097,3.4334774944267403,-0.14115713462727533,9.059494440356445,0.034348948551889025,-0.01603041912959715,0.1261642513917558
1700842015.4007792,2.4730972979598134,4.792423061364879,8.692902369409344,-0.03762182261564476,0.017349299472052583,0.1341804800675981
1700842015.4107883,1.5181732319136698,-0.6157198838658685,9.958295312400592,-0.027019533688466633,0.01698036181650127,0.1430030999826066
1700842015.420807,1.669369784942608,-1.3320306578124643,9.066861065061099,-0.021504815248974633,0.036692059023332134,0.1464920131610505
1700842015.430812,-2.358973284399466,-0.6380908164297432,9.998099716550346,-0.018315542939418117,0.01455766099416055,0.1609953878568284
1700842015.4408576,-2.784848531261387,-4.660564308847209,11.732253330586914,0.03023405330014616,-0.053537158482045745,0.125325301115381
1700842015.45075,3.309572136764071,0.7375163276754771,8.354931999674694,0.01949014029309626,-0.014667892653918489,0.1066511510060899
1700842015.4607897,0.7820433901741374,2.06505151665642,8.6753176555578,-0.018358592823759824,-0.0021268435788156254,0.1131956888483636
1700842015.470793,2.6106591434315694,0.00452399264539761,9.98409523661655,-0.013775993174429462,0.005978348574988268,0.1200179545329682
1700842015.4807813,1.7971766862433145,-0.5797869566638691,9.026468027055191,-0.014367913973431777,0.03479919463115025,0.123374597554075
1700842015.4908495,-2.0568985219775477,-0.9314150389607179,11.366743823971325,-0.020469355177579283,0.002723455272806313,0.1408431170629136
1700842015.500837,0.2839626244223875,-4.650068958751204,11.474489247338031,0.03487750827648448,-0.023289392674077317,0.1027872948096864
1700842015.5109525,2.357009238313147,1.0517260564001072,7.872127047336913,0.01912444410446273,0.01456506936409366,0.0797774581359498
1700842015.5208795,-0.7176065286068425,1.0264350346258335,9.59389236590891,-0.019890193019741487,0.004607535416634937,0.0855658663557641
1700842015.5307848,2.604090119830898,-2.2946654151024757,9.596095131061015,0.01062788328512914,0.013060068652670793,0.0832418961571328
1700842015.5407782,1.5292038661119862,0.9312592270484938,7.8839217531578925,0.006513303200955891,0.04174269569408277,0.0727615369604699
1700842015.5508454,-2.164185960575662,2.1145019413073087,11.078238953158912,-0.045264838450809926,0.0067373483285173095,0.0922797186421029
1700842015.5607903,1.9852803704196862,-4.932438517329245,11.54217664614633,0.00929465847046438,0.0036696979197957703,0.0945338545487992
1700842015.5708275,-0.9435842143752858,-1.8874488702974468,8.822241273381579,0.046303345961726035,-0.0035639341588513057,0.0572285926090352
1700842015.5807903,-0.834527423394508,3.520732450696694,11.186426344490183,-0.025966082363442507,-0.03241727531849317,0.0648025063918702
1700842015.590797,4.575380851138697,-1.1296679614159435,9.245669794822494,-0.004159639770949009,0.006384190919816337,0.0787659077094667
1700842015.6009042,3.17932166032598,-0.9392116534541817,7.872174119203467,0.004396159800872552,0.05610288696455,0.0632342634843461
1700842015.6108377,-2.8120081446849166,2.6451897813926197,9.772803513586402,-0.04109999035571808,0.02232369272971768,0.0797219140575997
1700842015.6209612,-0.4922309628828672,-2.782442088648896,10.936815610086287,-0.009860825230413726,-0.01282276626795843,0.0893828882025354
1700842015.6307948,0.12264915641702998,-4.603896154362633,9.5185307772244,0.03726536594596457,-0.00316124681009711,0.0686607373999231
1700842015.6407623,-3.4819418683956838,2.594024400679387,10.630251935365184,-0.00043323251805607875,-0.061673381905730525,0.0682949436949365
1700842015.6508553,4.7168832757087245,-2.1506395559960922,9.861589542902344,0.020439690468042972,-0.027210340003461495,0.0719193456815354
1700842015.6608462,4.259513956811824,-0.5694997016102737,8.390980708325499,0.020651858669485865,0.03811459103393787,0.0666202468918435
1700842015.670799,-1.319991370902991,3.6855943179509016,9.463570232857057,-0.02490809221777059,0.016623777044095348,0.0824841274069421
1700842015.6808398,0.26459415294006033,-1.1264334513888934,10.487398491786939,-0.020731242472257813,-0.00031540360208003835,0.094542251353132
1700842015.6907897,1.6433828754882178,-3.65503975636491,10.124796189945279,0.00947657168021871,0.017770974576756155,0.0900538725899331
1700842015.701382,-3.1397615728292405,0.21251764067689752,9.82074770138265,0.019476031153595065,-0.026048636858070726,0.0836839018510453
1700842015.7109056,1.1817308639712483,-0.819501382585779,11.167010811235814,0.014839247055309599,-0.04359166516383755,0.0788413299368493
1700842015.720913,4.48963734554178,-1.0309244098612556,8.684035873925286,0.019061207674513574,0.020040027765120795,0.0628586610900037
1700842015.730867,-0.6062151403677594,2.4025058647250352,8.886105234988232,-0.013228161730733391,0.014214282822205392,0.0709745152042977
1700842015.740863,1.0076392221507997,-0.7222304347011721,9.875256238586289,-0.006903610440452245,0.003426122930536361,0.08254488689171
1700842015.751011,1.757441300345271,0.6454269941495702,9.053558054157298,-0.02067661935305436,0.022452655007809772,0.0876030711578004
1700842015.760843,-2.0223806572355434,1.443361833111469,9.59892865023461,-0.03863244912832649,-0.003724479739911612,0.1038264645384423
1700842015.7708118,-1.5545345224448524,-3.440762935620424,11.878230588773844,-0.014751893365930004,-0.04706973803917709,0.1098538724826448
1700842015.780836,3.7279068553139973,-4.264690845684013,10.761260721254011,0.04586720505245934,-0.025065777503983675,0.0796605361746423
1700842015.7909164,1.6561366907740167,4.310457285319848,8.245493164890826,-0.011278749809094584,0.008910307212498296,0.078899191145765
1700842015.8008392,0.40467813588448925,-1.7994254268662144,10.75863501592382,-0.013222923551225231,-0.003843820906036007,0.0861833108709924
1700842015.8108096,1.8912476915996834,-3.378232487281454,8.32916202296363,0.03141079950730933,0.015386150360889346,0.0740569247053735
1700842015.820782,1.105626140776755,4.589801690351113,8.820203338388621,-0.00897868184658818,0.027452115036858047,0.0897375730918519
1700842015.8308206,-1.6337722734599036,1.3310752690051155,10.900966892189016,-0.04562975072879995,-0.006748571858367968,0.1042292503760926
1700842015.8409414,2.5302017628970024,-3.1325794439773715,10.175949003111146,-0.011979884099688375,0.014600201995157233,0.0992779595898263
1700842015.8508246,-1.6558018897217337,-2.0165858630768367,9.445487764669602,0.020922233109096005,-0.0006124989427458241,0.099054322962629
1700842015.8608117,-1.9619971062970405,0.22009935858114085,11.702619656889643,0.003195813243672764,-0.05083615634547018,0.0791458947704904
1700842015.87085,5.303638614139769,-2.1583848121704543,9.075103537616084,0.015837987929637153,0.005948000384172159,0.0628678327547185
1700842015.880775,2.989994590274084,1.3955496690993163,7.545611929109465,0.012483377989171797,0.05543304534968939,0.0769648118065469
1700842015.890845,-2.8893656094488667,2.642993325720113,10.254374754222718,-0.03545132873980689,0.009609347809607729,0.0776843441771142
1700842015.9020915,1.7930529983722403,-2.350055391402623,10.396876986812654,-0.019015491448879894,0.015255823242202088,0.0846756188319795
1700842015.910904,-0.2479214163044886,-2.049672106465447,9.147585930173141,0.01113762283882407,0.0184375340017398,0.0943779958532922
1700842015.9229803,-3.836820663854724,-0.3089156951004109,11.481275143430953,0.00026525011484757304,-0.05539459324396974,0.0844409553454988
1700842015.9308307,4.189351396493487,-2.1814244205561866,10.327669481960237,0.015622099795624853,-0.03472248449327758,0.0678795142220132
1700842015.9410536,5.762459639341858,0.3063246099992979,7.312734469870046,0.01519640465116581,0.05641694642026001,0.0703982649491899
1700842015.950955,-3.1168795968401484,1.8841765411861016,9.644719666152188,-0.018256060660926453,0.01785317029667752,0.0737538350866906
1700842015.960875,0.5228001844539755,-1.6465841773763805,10.371615606917782,-0.011856607349526257,0.0060357021840895045,0.0836130617307298
1700842015.970899,0.61131099400532,-3.2273863789075987,9.33800015540256,0.03130960673144496,0.017813344359885172,0.0901038808868997
1700842015.9809167,-4.439913966963347,0.7743005673906324,10.792746611697861,0.014438337465564414,-0.044155265396943436,0.0851590497540109
1700842015.9920433,2.2221404246511187,-0.6631840396935189,11.3339128419376,0.0074105544005325374,-0.05148805606234796,0.0736857814835183
1700842016.0008948,6.135140287567011,-1.9448505202181685,7.570330235130909,0.026526024478483318,0.029863282325537557,0.0760463414834611
1700842016.010819,-0.9000925157987266,2.631158156172099,9.060037948115427,-0.003291861961607582,0.019430399197703906,0.0845520435021989
1700842016.02079,0.7512558488818445,-0.7966685113789908,10.58052939535664,-0.008795557012110508,0.013134838635150132,0.0906382141755693
1700842016.030846,1.578630641847329,-2.6666362110116446,9.764594825010924,0.01635025162452922,0.030180828870574987,0.0944976074741952
1700842016.0408309,-3.2041186263387225,0.004082700323171917,9.545353101411983,0.017974231351238244,-0.0038467914626450867,0.0818488462017648
1700842016.050869,-1.8762830886496016,-1.095926445974979,11.682087322715569,0.007741259000522887,-0.058809368208386587,0.0644290013359658
1700842016.060804,5.3168407359844,-2.255939016294131,8.216231364231831,0.0380328694013378,0.005065387134317289,0.0566834708796613
1700842016.0708456,-0.3959623999696291,3.603733244178743,8.663668936498278,-0.0026075752171520554,0.007656462700352175,0.0589636167632215
1700842016.0808177,1.1096151641441945,0.5434711649469232,10.960679262208807,-0.026726286074597642,-0.003455676599876408,0.0684674171851747
1700842016.0953193,2.8594714321831027,-2.1470097132730923,9.708167890249838,-0.005618425887428061,0.046628012924160675,0.0778741030143373
1700842016.1013174,-5.721880266270626,-1.004873873102028,10.219556140055841,0.00809599951491778,0.0002489196812865562,0.0862280218051545
1700842016.110933,-3.158065284669658,-1.6565977123782205,11.821553050702038,0.01333888820248883,-0.0786703735024452,0.0744289172934167
1700842016.1208005,6.490412069104711,-2.209821047101676,9.029905663483369,0.03611957607640573,-0.010705474233889475,0.0653401253865831
1700842016.130818,1.810498149274399,2.431756154882115,7.9945871365798435,0.01410754866294846,0.027713056515200712,0.0701147033022515
1700842016.140812,-1.617100333873057,0.7889426117922131,10.575224256290372,-0.01599095334100468,-0.014599081974180672,0.0800453810142152
1700842016.15079,3.8546034844753807,-2.3816314384923785,9.612206088800395,0.007666720269993264,0.0206328923809888,0.0952351329969041
1700842016.160829,0.13891442181568303,0.3812380037584256,9.099856720864421,0.01776624098053359,0.029130077246442093,0.1106421290086381
1700842016.170854,-4.168889924292002,-0.358585575122757,11.965196390510798,-0.002943796684220734,-0.04014478692123888,0.1057837246106736
1700842016.180876,2.611013767717246,-2.739416799941454,10.204862737525149,0.028382656451571692,-0.0323987188519343,0.0740371955679528
1700842016.190798,3.9233742188000376,0.3889408141593888,8.088637190387635,0.02851666069808425,0.024470551783861625,0.0705876140044801
1700842016.2009883,-1.2680475086665017,2.588604112640462,9.323604354410085,-0.021087425591557355,0.006953893761310565,0.0707546485708825
1700842016.211079,1.8407399471431205,-1.0985003297327978,9.883398678578155,-0.006004274834023901,0.011233584533596536,0.0770679799960725
1700842016.2207916,1.41934919998375,-0.819596302950184,9.00323564619261,0.0004547225960020878,0.032183964690818655,0.079699025874006
1700842016.230811,-3.20118728882498,-0.12040483951023093,10.44075558135351,-0.00904699527500254,-0.003789136300261763,0.0837202532337777
1700842016.241,-1.4259283527013291,-3.483429482879762,11.978943185304994,0.02756519231358143,-0.05435712058525391,0.0600193863855474
1700842016.250913,4.50008615782594,-0.7299310022002231,8.94771166898577,0.031092003422964868,0.0015893152397603335,0.0489345019804113
1700842016.2608469,0.034115233564768595,2.912827533028336,8.432415909000307,-0.004882151030147368,0.009036557510856472,0.054915693973171
1700842016.270873,0.37293300404694074,-0.6036651073103975,10.042878770344595,-0.010896083165301785,-0.00624448097402996,0.056871128653156
1700842016.2808404,3.686246340067687,-0.7069108377010923,8.97433413718356,-0.001039926428988832,0.0384734093137419,0.0708246840284936
1700842016.2909358,-3.738163250334975,2.39954910452867,9.337846684038501,-0.029877687742881787,0.003484854032588526,0.0862187756346337
1700842016.3008437,-3.2753265101111517,-3.3426569187921205,12.86925606237884,-0.01125830085482016,-0.07563676351989314,0.0927035300181977
1700842016.3108747,4.586287189604856,-4.419221655018152,10.388449699662386,0.044047985558645496,-0.03487266119624568,0.0705079971002214
1700842016.320824,3.4707252559360193,2.0736869264922375,7.943490040012909,0.02728722637705537,0.01711791325702477,0.0774314565704934
1700842016.330916,-2.3001815297933956,3.6983702903626487,9.558096770834348,-0.03353565478542219,-0.011184032910752028,0.0896311117457025
1700842016.3408432,1.4873819017732788,-0.7085328993079587,11.171804430400059,-0.037888621908501355,-0.022815596591766008,0.0977039201305978
1700842016.35086,4.258042225002004,-2.1017464175877945,8.416884079868648,-0.0007502571275395815,0.03822761170322174,0.1073580695437066
1700842016.3608294,-3.9872269999565884,0.39270169146852085,10.076521642775909,-0.027555900847867618,-0.0027257124747144335,0.101644159679281
1700842016.3708537,-1.2600259829636768,-3.88980633713748,11.447751079434466,0.014017814794969776,-0.050901078064671146,0.0706889717029206
1700842016.3809416,2.3389644839582044,-2.501085115729348,8.496875214081708,0.03901083735651815,-0.01918503380634681,0.0542905530081861
1700842016.3908858,0.4351678645911815,4.065120917712997,9.099047760404014,-0.008534745202882246,-0.017942507437376527,0.0554446330414884
1700842016.4008665,2.952000357193552,1.7120337663167737,10.361438974664656,-0.04500540676147987,-0.001213916707926802,0.0580596601711385
1700842016.411016,4.172301387838927,-2.2665113853727474,9.23115771201278,-0.023942933601312028,0.05902997351740891,0.0635781003283136
1700842016.420834,-3.7505412966935348,-0.5696419233773865,9.457613708034991,-0.02265929283976638,0.02576789361663922,0.0623603625343911
1700842016.4309032,-4.456866847491115,-3.7782204587806394,11.83016071800221,0.01237216978347975,-0.061473508452674276,0.0426825223611467
1700842016.4408672,3.2735043696744595,-3.1640889952572726,9.422337051095871,0.03791311628890381,-0.03426911339209384,0.0199631558852069
1700842016.450852,3.1787548530418333,2.5640860122206566,7.539163211682085,0.018810746197038257,0.018272440183807446,0.0204979715989701
1700842016.4608984,-0.47177907107897343,1.503240202405678,9.986000335474909,-0.02629691459153905,1.2091456822203161e-05,0.027369493071901
1700842016.4709942,3.760322041611912,-2.3910347527473874,10.223710135262587,-0.0004947400142269322,0.03585132420566807,0.0371469458685987
1700842016.480915,-2.5877959016997893,1.5482112293636179,9.150976006731694,-0.009625555023600846,0.014039902229948466,0.0581661662207715
1700842016.4908638,-3.5739821831723186,-1.4509840907643394,12.206864427410087,-0.016357506895766375,-0.06237184531267095,0.0722164375828378
1700842016.5008206,4.3458309154034955,-4.91609893972987,9.896196430942922,0.046823397356759014,-0.03758438949724901,0.0591141371177308
1700842016.5108912,5.239185110978625,1.3256592552727053,8.201517362810991,0.042648165478257526,0.028780962499961153,0.0656935362266175
1700842016.5209088,-1.0993136456547028,4.867947121221262,9.087586966058952,-0.034343919520258136,0.015366853959736,0.0768964080260865
1700842016.530914,1.3830365891963654,-2.008193800053446,10.343393034944476,-0.020549462547437856,-0.0012658371320525316,0.0806840075300805
1700842016.5408149,4.180565124274062,-3.0916377088786664,8.28288326099466,0.018482432645964837,0.0512602443961081,0.0980597822116487
1700842016.550866,-3.9942657628160663,1.7459522444957594,10.758262542280105,-0.002919742831135672,-0.00246078320939464,0.1004927991078965
1700842016.560912,-0.47144811439328094,-2.562097785069427,12.36708931317544,0.007661265550315194,-0.049925292391562806,0.0702177895353906
1700842016.5708897,5.2203650661006025,-2.101855745603637,8.36422904475165,0.03389692734410959,0.019794937443459924,0.0513559332238309
1700842016.5810883,-0.711575311919644,3.5608101216422408,8.419397510330521,-0.013764477841864367,0.01106940902419876,0.0485986260818116
1700842016.5909147,1.0126913651760112,0.1809947277696523,9.559494798001095,-0.027452744586797282,0.0024714362198861666,0.0500765940295331
1700842016.6017604,3.401664683222731,-1.9737815624155843,8.74239092492576,-0.009377961553099999,0.0482716047528727,0.0559796555088632
1700842016.6109302,-3.3406249521720093,0.16312886273239333,9.685180994666226,-0.008482715900559537,0.01573700037359307,0.0678928507612817
1700842016.621052,-3.3521638254339696,-3.1462463457455923,13.065591321454333,0.0143476618931734,-0.06129842946766147,0.0666746435807817
1700842016.6309097,4.614423594244618,-1.5103722417158754,10.992876288085748,0.034018391366528254,-0.02548015622196779,0.0468974499152772
1700842016.6410396,2.138486010537972,3.5301378991883676,7.385861591200528,-0.004684759446899949,0.019179983350306976,0.0429612336801164
1700842016.6509604,-2.6937186434796754,1.677493913644717,9.817759550786235,-0.043443773103178304,-0.03468658414507611,0.0463863847898118
1700842016.6611297,5.289661049204975,-2.6497936870342755,9.40610407032468,-0.022272325610368546,0.014221526864076758,0.0487636154638402
1700842016.6718595,0.1766135664228413,-0.44000460621140086,7.65539634866387,0.0006633373217842296,0.036621531047939984,0.0560510432468526
1700842016.680918,-5.868500125250255,0.5556006881787996,12.407955613994684,-0.03279114310482541,-0.046747492417773547,0.0560828982041948
1700842016.6908813,2.7685877673013564,-4.009269617792964,12.716437477290542,0.014537371198006584,-0.04754578594524147,0.0426551303015821
1700842016.7037306,4.290724360127797,-0.45863085192070724,8.8633812267208,0.021805275775445027,0.023308280654377903,0.0365550903724305
1700842016.710919,-4.407122387411271,4.916516774263004,9.198332750432058,-0.0333216738322721,-0.011288949556255524,0.034081411932575
1700842016.720865,-1.6043266136889958,-0.14042324875867163,10.769189754474361,-0.04220898249069225,-0.06919524502953674,0.0385408042119615
1700842016.7311797,7.596721313609602,-2.4274032712403253,9.073432255859919,-0.016544746968086922,0.022385566043248026,0.0496945021794908
1700842016.741766,-1.6459264403313567,2.359834867884198,8.590108407940088,-0.03425593597701083,0.02252299902083773,0.0445915361987226
1700842016.7508588,-1.471513795955642,-1.5624001843131785,12.38337521933187,-0.048564930458944236,-0.018949168473264,0.0373788228379361
1700842016.7609053,1.8089413043246592,-5.369840957425276,10.184203099346947,0.016783285883702766,-0.007370994915242433,0.0218353284643762
1700842016.772478,1.3682783708520496,0.9395209275529427,8.445627629908603,0.013631655488304858,0.015922448127766928,0.0128251318009369
1700842016.780885,-4.546661015293019,4.518089408025668,10.285276721855105,-0.05407256571390899,-0.03217200228251295,0.0101193891959064
1700842016.7911432,3.9706387565488854,-2.679400691066209,11.158544914576105,-0.039550592686222186,-0.020171306129065494,0.0011387144103445
1700842016.8009484,6.545314345756042,-2.558716714009296,6.3243987113109466,0.004090136199391739,0.08587894524368493,0.0069911339441113
1700842016.8109004,-5.058867511995953,2.600931913230193,9.621704175745712,-0.03141921851062862,0.03158268158621504,0.0042320498386197
1700842016.8208494,-2.3668073985392653,-2.7996103068001377,12.014025643968292,-0.026126160019232028,-0.024669990675211122,-0.0041165105877644
1700842016.830864,2.9138232223060268,-5.050805190547518,10.124702999056646,0.04207545509853264,0.00038342810167915013,-5.66983008957959e-05
1700842016.8408723,-1.4573920000849863,2.3663894508686494,8.491063017885772,0.010798555679696037,-0.0031153877052341344,-0.0070362198977
1700842016.8508673,-1.6821506818693568,1.3870724665004388,10.917807923947855,-0.021539309741396607,-0.04888100336918538,-0.0025867804298378
1700842016.860837,6.506943410945794,-2.418756360352881,9.510807924100684,-0.0021341186689411624,0.016045396751073675,0.0045794014939837
1700842016.870973,1.818243671488124,1.1568643909353624,7.870513023414251,-0.002492485102887485,0.06255851365010673,0.0171760128931873
1700842016.8809235,-5.148695826626386,1.0564261840807454,11.532888245614778,-0.033890294969958774,-0.022415467452048445,0.0307240722821824
1700842016.8910224,2.3446187508651812,-5.223979999282704,10.814839041361495,0.016006905716298123,-0.02005597458887108,0.0342027595387571
1700842016.9012492,3.249678777572862,-0.6919102267324388,8.736684800204952,0.04532072126048496,0.015121205510540104,0.0445568649219148
1700842016.9109552,-1.3646361918013998,3.419055988066077,9.75263243936179,-0.01786681493710652,-0.0037009364482740873,0.0404746880875699
1700842016.9209294,2.327256322731892,-2.70068529904354,10.212328460158162,0.006674260983978944,-0.0058496746498404705,0.0378357334183328
1700842016.9309154,5.916760455663203,-0.8125210643031401,8.146122478802427,0.01971712878235252,0.06849919616674187,0.0487577108787172
1700842016.9409046,-3.5027118996029243,2.7599747785781745,9.239398901385144,-0.02030514504124598,0.03877082262208767,0.0573632432268731
1700842016.951044,-2.8175069233447516,-3.2531251720155216,11.843598314544684,-0.006517181297120232,-0.03399861875401617,0.0599210573481195
1700842016.960967,3.476351150664898,-4.815721632229303,9.67413720676145,0.056512008831517906,-0.0022619772489142266,0.0583717538164727
1700842016.970971,0.35415943023431357,3.1698524090901348,9.070688363085669,0.017114251157571862,0.0041207740251587004,0.0548923438535802
1700842016.9808724,-0.7804719014320379,0.24389980925724,10.344215473471385,-0.006944819799694433,-0.023172771681877525,0.0579762024925821
1700842016.991071,4.8057726899575615,-0.9099194500577586,9.69987779220511,0.001989133364564999,0.01941143285722844,0.066651993815767
1700842017.0008872,0.0523166847864911,1.582256404296394,7.8032190397894565,-0.004875015193619294,0.04130933598134838,0.0726315839336984
1700842017.010917,-4.757317593015133,-0.08830006179389037,12.025853404063636,-0.035111670790311536,-0.03845426476361763,0.0756987793491952
1700842017.0208788,2.803363443377718,-5.486088434583233,10.721430836212813,0.030370478240068683,-0.025166326958192632,0.0594513913737409
1700842017.0309029,2.3381176919833195,0.5292781491649893,8.560315201335865,0.035717780932348245,0.004825116996238112,0.0388923747585885
