time,ax,ay,az,wx,wy,wz
1682026594.805281,-0.1278528674118682,-0.978980458131386,9.73867790199275,0.00043938964515363173,-0.00021709131011218665,0.0018138973190221
1682026594.8153603,-0.214329593774611,-0.745547167076994,9.869935066537092,-0.002647017311609491,-0.0022402936745760087,0.0019647526949998
1682026594.825384,-0.029055371867410005,-1.1580228052853234,9.625970003676148,0.0022576996356241438,5.11323209510082e-05,0.0008449544419423
1682026594.8353014,-0.051817914876706575,-0.7731035971689104,9.77435065990689,3.963100672673864e-05,0.0012111981321968992,0.0016268694615578
1682026594.845314,-0.34231086644773173,-0.935794173218279,9.882428045024014,-3.9237211612735216e-06,-0.0030546427307881012,8.79637535549959e-05
1682026594.855303,0.05957141291109857,-0.8252658802443431,9.696844545257413,-0.0013964546769026668,0.0006997005547323859,0.0001457023771368
1682026594.8653216,-0.14433533693626008,-0.9307842715914926,9.760527924431937,-0.0011170648900418766,0.0007712189536071245,-0.0009256963513903
1682026594.8753328,-0.21990763584690542,-0.9105534316594075,9.811377059767587,-0.0003693633781047577,-0.0014643032440497458,-0.0007256314985565
1682026594.8854728,0.1515018365710512,-0.8361991071225637,9.64584373198174,-0.0005198864175747833,0.0037700908700783824,0.0011750097490735
1682026594.895655,-0.34806033026449346,-0.8986896176649001,9.888787859806246,-0.001009748967162241,-0.0007550254448169114,-0.0001497126778699
1682026594.9055398,-0.06937332328400793,-0.8595703625205582,9.755029010645579,-7.656696889342922e-05,-0.000981894195449684,0.0026289789692387
1682026594.916213,-0.19282106577911165,-1.0308206161884854,9.762850959754864,0.0009404381208757631,-0.0012978004214129705,-0.0012948635395727
1682026594.9254296,0.041210407365198556,-0.8147587594397725,9.708549707888311,0.00013056437188452692,0.001445515407980474,-6.10406406335274e-05
1682026594.9353416,-0.12140773109855746,-0.9187103655786982,9.762945321213708,0.0007344171228921454,0.0012860738870913095,7.455282489585483e-05
1682026594.9453232,-0.18449883823919772,-0.8455133570794426,9.813164343897766,0.0004922831175707447,-0.0004569950919481528,0.001330346176343
1682026594.9554448,-0.1987131215915145,-0.8600930349641089,9.81550005175509,-0.0009449260288949736,-0.001515352773562901,-0.0001955324679724
1682026594.9654143,-0.05887057071088219,-0.9614034137339457,9.704385418894706,2.8123907439662483e-05,0.00012452603215305216,-0.0009249352280162
1682026594.9752977,-0.07631837134212423,-0.8586337818913012,9.756816625448124,0.0007627410793929116,0.00032382193209898335,0.0008996978739165
1682026594.9852984,-0.10496158815289594,-1.0636235568524233,9.697378095374821,0.0035257763178028413,0.0012901548991549928,-0.0010955942690483
1682026594.9954028,-0.08651091377253284,-0.6539207703602875,9.826396790058755,-0.0010339704464172102,0.0015598773329620688,0.0001963722623773
1682026595.0054264,-0.13275111993321445,-0.9334574499657973,9.762709199373692,-0.00012650175471678207,0.0011039067696155213,0.0003438985312246
1682026595.0153654,-0.24015790669891574,-0.9573403680436455,9.803267482074439,8.326757537723689e-05,-0.0004677635468387588,-0.0020443826343975
1682026595.0255065,-0.0717088715604057,-0.6614302720644021,9.828396000278389,-0.003292987325654148,-0.0005657852430331489,0.0008214773132354
1682026595.0356925,-0.10253917498073153,-1.0619129806198946,9.701608348971389,0.0003011753442328685,-0.00022566438476027506,0.0005696461174525
1682026595.0461266,-0.15046547222682494,-0.9039934556559103,9.780338289422392,0.00017749737028608653,-0.0007211127229949288,-8.488110155982173e-05
1682026595.0554216,-0.07287044722449192,-0.9228127091214879,9.72067941080144,0.00039281882183039916,0.0008062513992343549,-0.0011521825928352
1682026595.0655768,-0.033433397843011047,-0.7345330566501113,9.771499590704607,-0.002322198842493695,0.0023045554870765672,6.38315564769113e-06
1682026595.0761492,-0.162341136294521,-0.9356798871831808,9.775913830932824,-0.0011129204082714866,0.001118793671726703,0.0003129700070135
1682026595.0853326,-0.20140371052028497,-0.8629678036669999,9.822528045520611,-0.0019801840288938208,-0.0002346168396193541,-0.000358710660424
1682026595.0961573,-0.13214402808341993,-0.8825201874781147,9.771588083782632,-0.0006443073998163212,-0.0015119928699407633,0.0022978055511489
1682026595.1054027,-0.03287553624126127,-1.0252114510383978,9.676061789420265,0.0022942005929864743,0.00010218542587433722,0.0026516974775009
1682026595.115415,-0.21376866415759296,-0.7872294309708207,9.850605246423303,-0.0022741176297253612,-0.00026069697999434895,-0.0015705452662072
1682026595.125326,-0.11225340234149882,-0.9407227709598612,9.736039863791534,-6.01859847835532e-05,-0.0007442042163782351,0.0005700278432928
1682026595.135388,-0.19501203645680598,-0.8234285309185312,9.828571558105484,-0.0018349017527825742,-0.002000383291812906,-0.0002867983549944
1682026595.1455925,-0.07179481358878145,-1.021851070273877,9.693373763555405,0.0006513451338664466,-0.0005147311979691132,-0.0010720918782166
1682026595.1553278,-0.06482931774881702,-0.8965281741041492,9.751948480003005,8.958437911369388e-05,0.0008952640779502461,-0.0026516242779902
1682026595.16542,-0.11434653800537158,-0.8458738133304247,9.771952370600197,0.00010820614339897989,0.0005119555043773202,-0.000790827105578
1682026595.1753566,-0.0625330853503303,-0.8508385156310304,9.760312214749845,3.9231377183737656e-06,0.0011348277236788936,0.0005670516855903
1682026595.185346,-0.16990188549011342,-0.9412246226052091,9.775716532023916,0.0015268008783567639,-0.00010161385495713046,0.0012860000295918
1682026595.1953304,-0.08978424562825728,-0.8096553595652292,9.769849799058534,-0.0010597083932212127,0.0010703694628316925,5.480866989868486e-05
1682026595.2053502,-0.2064843511375689,-0.9886178486776269,9.781112691989984,0.0004285723949054221,-0.00045960529252568534,-0.000845598884683
1682026595.215326,-0.14824897881441826,-0.7752717745034008,9.825630482256502,-0.0005727786613220489,-0.0019478549701669678,0.0016008084511272
1682026595.2254138,-0.025146306413385288,-0.886737739686339,9.724582847095748,-0.001302195776825352,0.00045681490419468597,0.0004575145302228
1682026595.2353537,-0.14003162439058545,-1.1191948554028006,9.708030221694408,0.003108550512023045,0.0001662588546683962,-4.949631524455941e-05
1682026595.2454586,-0.18584748680988739,-0.8006724118205863,9.830576742528793,0.0015655438776500373,-0.0015857581438792285,0.0006318545073159
1682026595.2553637,0.0310149619204035,-0.8773891658475347,9.69161198854304,0.0012719451270492416,0.0014880088650505458,0.0008941180293336
1682026595.2654135,-0.2547751457397304,-0.8159481085302169,9.870029398134317,-0.0009125251635155487,-0.0009505955933295069,9.370722051735758e-06
1682026595.2794228,-0.048251556463377185,-0.9349396011269754,9.71714278599889,0.00010708070358672877,0.0011899525149471515,-0.0005673187680653
1682026595.288616,-0.15551019889755194,-0.7605168729718838,9.831487203572658,-0.0020655068394166668,0.00043930983504347955,0.0002831751352064
1682026595.2953322,-0.21185884062335333,-1.0731700621448488,9.754998345224974,0.00017189742902367519,-0.0006715753408650014,-0.000626182312902
1682026595.3056042,-0.04721166162797757,-0.819262859451418,9.756763101122214,-0.0009143954305447136,0.0008468580184596001,-7.780083810162938e-05
1682026595.3153183,-0.049020833430665746,-1.1035948506249968,9.659072619975738,0.0026357867337466574,0.002795565630165817,-0.001137682831671
1682026595.3254652,-0.2841136102777758,-0.6705045963976215,9.946000473882224,-0.0007113574830752552,-0.0017168882925433014,0.0009667595021315
1682026595.335443,-0.0724335654827692,-1.0447777760627863,9.690624047718867,0.00176223860920864,-0.00022043811636058926,-0.0002808327682427
1682026595.3453476,-0.1791478360105276,-0.9242699969707567,9.790364379715001,0.0013602871706296894,-0.000809775800826599,-0.0020060095831863
1682026595.3553252,-0.08585613558718289,-0.7472038362685675,9.793980385048402,-0.0006584724501361851,-0.0006738072469849452,-0.0002078208036832
1682026595.3653722,-0.03260286746027224,-0.9408169883134907,9.703443819830055,-0.0003466603079970955,0.0017651524311342597,-0.0019113909348956
1682026595.37535,-0.15665814072212841,-0.8866498328763517,9.797677264761573,0.0005485234116494891,0.0001375619710036109,-0.0001437614102028
1682026595.3853133,-0.13966732414119917,-0.7759585999183594,9.820538371986867,-0.0006107742069210504,-0.0012568236086509268,0.0023682147019431
1682026595.395522,-0.04732419449491332,-0.9198697923853787,9.726516768434326,-0.0015480566960729477,0.0010804420504145558,-0.0006783056434355
1682026595.4053118,-0.18102519994388833,-0.8926379468345099,9.80020613671727,-0.0001443684813901426,-0.0010232388112528313,0.001411925115332
1682026595.4153364,-0.007136291197773503,-0.9059923004399187,9.701980396242428,0.0009728322523876432,0.0008312161086421621,0.0027817371172718
1682026595.425361,-0.13077097008526894,-0.8456162069860755,9.793012400363079,-0.0019150083213222869,0.0016928492322530247,-0.0006802074041329
1682026595.4353762,-0.16722227097743966,-0.9867720721446762,9.754969163556718,0.0005626880890293533,0.00032830339113082576,6.74855999537071e-05
1682026595.4453557,-0.18357552418866713,-0.8958199931511063,9.807722062674745,-0.0007706028206639039,-0.00030425618578715084,-0.0022306529700867
1682026595.4553564,-0.1125780326063015,-0.7686654488008619,9.81544580546526,-0.0027364133823810166,-0.0006872334685340415,-0.0009767400462291
1682026595.465398,-0.04332394369589443,-0.9334386341783462,9.710970842222686,-0.0012496494094025238,0.0005726687779459982,1.3444792654391169e-05
1682026595.4755626,-0.09509149666842844,-0.9267063706945631,9.754766772280519,-0.0006264451611992571,0.0012096957712055734,-0.0006932282250486
1682026595.4853184,-0.12841451521916883,-0.8614167824414884,9.780074404363504,-0.0005545216388641904,0.0005361688312016267,0.000650860705588
1682026595.495323,-0.2556831435414123,-1.0186454624374104,9.80091938496113,0.0007068817155989348,-0.0015064124666545982,-0.0018767499260715
1682026595.50538,-0.008231329557335385,-0.8823876472441315,9.713757193872404,0.0009415771500081661,0.0005804986335117587,-0.0013816506963334
1682026595.5153422,-0.15350122059971869,-0.8212823379736514,9.810692914538627,0.00035891995449913286,-0.0006391573684065224,4.209449403246631e-07
1682026595.5254257,-0.07164828592500584,-0.9340867833216291,9.741096324912222,0.002006611002493625,-0.0002587988775756358,0.0012044363992177
1682026595.53538,-0.20211479223772943,-0.7144921947497294,9.878761905518465,-0.0023788078559723353,-0.0017437134977492863,5.705467070269191e-05
1682026595.545365,-0.1398807278081026,-0.9175707032247962,9.771696910473214,-0.0019254290185984325,-0.0020972437264250754,-0.0004510864511243
1682026595.5561745,0.006447300332566019,-1.0068225104296287,9.644242594087112,0.0008510415252570628,0.0009794979389919536,-0.0002532497875503
1682026595.565373,-0.20097161610970238,-0.918833096583934,9.800857760233834,0.0016635005815103356,-0.0008697416926490978,0.0002473960501961
1682026595.5753698,-0.10140080715349806,-0.8055501864211763,9.791413147373238,-0.0007340821131720019,-0.00019956309146490565,-0.0007893321000151
1682026595.58535,-0.09188993302516317,-0.886742360269775,9.75259730107503,8.100827128900487e-05,-0.00019250266758695587,0.0008710149430558
1682026595.5953643,-0.06954404824562992,-0.9273233732355074,9.725675247749692,-0.00022406754924946706,0.0015993603415260693,-0.0011324501957855
1682026595.6053746,-0.09980865417070878,-0.8777924624003054,9.755923079365973,0.00019388853889548756,0.0015572670672211306,0.0002120109146349
1682026595.6153336,-0.24347346223377528,-0.9091347952718223,9.819538545481388,0.000346617316453737,-0.0008209530810175173,-0.0003106476634852
1682026595.6255646,-0.020948945246096834,-0.8513169425198656,9.714430629641916,0.0006137193728074639,0.0007060405122316495,0.0016149729216126
1682026595.635417,-0.10050119866582699,-0.8438013001504199,9.773888619955626,-5.645259748267266e-05,0.0008986408989141274,0.0021487937063798
1682026595.6453557,-0.1863232866634162,-0.9575780873484705,9.789283162126209,-0.0003507411793275974,0.0007086454233272814,-0.001247932798054
1682026595.6558676,-0.10534064407987151,-0.760571147344716,9.810709452980365,-0.0018006262478646108,0.00028768703182837995,0.0013497241469454
1682026595.6653705,-0.2093897552065471,-1.0280595474793723,9.770370422114322,-0.0006763501688801895,-0.00033667422676389024,-0.0022474242270104
1682026595.6753848,-0.13684758424077959,-0.840212638069931,9.786159932406791,-0.00037234125283996835,-0.0013875643672790336,0.0001259726576395
1682026595.6853635,-0.07569996647928141,-0.9365220075835966,9.734695026414984,0.0005165022780146393,-0.0005449160696760453,0.0002555987901874
1682026595.6953616,-0.09653500943998602,-0.874475413987949,9.770483582913522,0.0003879758209702462,-0.0002878612520048349,0.0006951910780631
1682026595.7053554,-0.060340277133016186,-0.704424462918091,9.797932267687063,-0.003187176422466713,0.0005425029877956857,0.0017103191802166
1682026595.715384,-0.21082739346151916,-1.0241786059115499,9.785386104244683,-0.0010757062627815416,-0.001228875560887186,0.0003215335180871
1682026595.7254047,-0.0322297944875437,-0.9042357727175732,9.718409866546484,-0.0018114595938485433,0.0013288928358194893,-0.0016636805504671
1682026595.735747,-0.18304895586606892,-0.8914072844118942,9.80991920710064,-0.0014303513590351881,-0.00036274674040504435,-0.0009703888919315
1682026595.745375,-0.18017625201191376,-1.0704122189505008,9.742419476816528,0.001566275371328484,-0.0012121033468247288,-0.0020626493625454
1682026595.7553473,-0.0984292071204387,-0.6697713383564153,9.831005790585527,-0.0019473875502025245,-0.0012922036180942765,-0.0001880894543714
1682026595.7654943,-0.12398678590317172,-1.0099308745615871,9.732439929019284,0.00031532133971047923,-0.001110798502622122,-0.0004436442524306
1682026595.7765963,-0.026766293900744368,-0.837665477151257,9.739728378747841,0.00017488497282907558,0.00043371294351540594,0.0009667479188069
1682026595.785473,-0.06504356908075527,-0.8822904776571413,9.734549651974836,-0.00019319333356524566,0.0015557831416952194,0.0006895984860025
1682026595.7954595,-0.15903035481616073,-0.8212644715117641,9.815246810428487,-0.0024100729545305055,0.0010268039645822218,-0.0003244221571944
1682026595.8059273,-0.19985930818330847,-1.0963470241264337,9.744219415322524,0.0017667096821274565,-0.0006689708562590749,-0.001091092022892
1682026595.816097,-0.09466288612470862,-0.8923880725116133,9.748508052565988,0.0018762288209383297,-0.00015300342380148945,-0.0007271255727968
1682026595.8254054,-0.07845836048026446,-0.721456652226065,9.796096993092027,-0.000995599125622322,0.0005894442014745974,-6.699505151433146e-05
1682026595.8466804,-0.0962682000199817,-0.8606010291334122,9.775645281071705,-0.0017227701900826458,0.0007727263217152279,0.0014398638030402
1682026595.847555,-1.6857857596111472,-3.2890555319076347,9.822479102907497,0.0015756094325689357,-0.0014303843787886275,-0.0006950810913108
1682026595.8615358,-0.00877630387126351,-0.7457506513791813,9.749208109990771,-0.001156904942826743,0.0009608535863786348,0.0025957985652499
1682026595.869584,-0.3514557516532776,-1.1103140615806788,9.822268422581786,0.0009676403660159505,-0.0021974390533732384,2.3892834957714918e-05
1682026595.8815472,-0.06731495658031744,-0.9526647120505544,9.724663366737586,0.0023824987184852525,-0.0007367411003013119,-0.0003102497559152
1682026595.901958,-0.12558259749514822,-0.8345925688335739,9.793111937266788,-0.0007895963948140359,-0.0006142207617027966,-0.0018421184633038
1682026595.902851,0.2886025386049136,-1.6358939164585977,9.283446701396752,0.0015215813307933224,-0.00038360844909996145,-0.0002026115672774
1682026595.906561,-0.08274738592581278,-0.7603272911521635,9.79362483126236,0.0008629423043002087,-0.00028896605361122644,0.0005338899662606
1682026595.915416,-0.024441757980180785,-0.9029080811450476,9.718775049821852,0.0007571602912092951,0.0017103817184709424,-0.0004086006794236
1682026595.9254951,-0.04225644300591005,-0.7822923186347261,9.761365289705008,-0.0014288852529816224,0.003355086462105389,-1.672877819461024e-05
1682026595.9363012,-0.23383396301788165,-0.8626664829413765,9.846093436819396,-0.0024387950041859312,0.0009183502103981022,-0.0008903149411193
1682026595.9454174,-0.16200037966794117,-1.001730915805898,9.74662138473876,0.0011561216699437576,-0.0006212701342372241,0.0014398741640039
1682026595.95629,-0.11469883755506982,-0.9304501918936035,9.748116183367735,0.0015621837275585021,-0.00020516321077052754,0.0004850658459477
1682026595.9653823,0.087873311160717,-0.7703092143222842,9.697420415236762,-0.0005306956162064661,0.003673980214339665,0.0009801788126938
1682026595.9754782,-0.29617264304355323,-0.9446955310818034,9.842814622587984,-0.0012463157785599546,0.001091622214466314,-0.002660543088626
1682026595.9854474,-0.10567970627828749,-0.865788942546532,9.782285590641393,0.0004103199030820231,-0.00029680468339683816,0.0017308127333822
1682026595.9954956,-0.20331680561403515,-1.0510353001165444,9.768009867224345,0.002153391896835772,-0.0012363188533507942,-0.0009916235122941
1682026596.0053782,-0.036962886787041856,-0.8371919101362822,9.73025186126042,0.0007817613087311997,0.0008710699213845966,-0.0015664281219355
1682026596.015456,-0.11526094594127288,-0.8233593327729634,9.793141047995345,0.0005951029802505669,-1.3687485479099404e-05,0.00038039391971
1682026596.029982,-0.20194789094632426,-0.9601273364775208,9.786741242370331,0.0015778277464329627,-0.0018327240779368492,-0.0013608065329603
1682026596.0354264,-0.01606128684315898,-0.30964535093716317,9.914658210372314,-0.004225429397187742,-0.0013376813713733306,0.0002578326837979
1682026596.0564213,-0.11584190498888254,-0.9976012667396293,9.731352066620452,0.0005358694213354324,-0.0013562798797169483,0.0002392091426886
1682026596.0628307,0.04400643414249099,-0.6827069003408365,9.750650773548932,-0.001986898409620492,0.000646804755142137,0.0006039111047871
1682026596.0653942,0.30829296369821413,-1.0743510316705895,9.487167796215196,-0.0014255094867383692,0.0032295618831335465,-0.0002930878091715
1682026596.0758965,-0.21087520565043122,-1.0032880939800648,9.78763278960879,0.0022867498553515134,0.0005123319517233799,0.0017811233027319
1682026596.0854397,-0.18937859707963473,-0.9738185057967865,9.781013767253606,0.002447682458371119,-3.7530481000080086e-05,-0.0009979665175191
1682026596.0953746,0.08869924231592458,-0.5745528293850392,9.76812758195605,-0.001913141367125107,0.002854794056825546,0.0027358762325607
1682026596.1053803,-0.2731680329578127,-1.110781111929322,9.765951000575244,0.000836878332968284,0.0011065205216996984,-0.0006023199658952
1682026596.1154106,-0.14317575912724587,-0.898855929886212,9.771935129614345,0.00044386316552098154,0.0008688291939495246,-0.0010206884600333
1682026596.125464,-0.11059938279324386,-0.8180538466618874,9.785008566484917,-0.00031572599318221897,0.0005700698394141341,0.0005715149326138
1682026596.1355002,-0.16597276916569467,-0.9871826388281543,9.758218838468707,0.0002769333959428948,0.0004214395469298167,-0.0020086326532177
1682026596.1454408,-0.12468633553929315,-0.8263906706177542,9.794572423639258,-1.9949975013980593e-05,-0.00011650678056926027,-0.0004201709654293
1682026596.1554008,-0.1555364086667711,-0.849494068375717,9.796584488090136,-0.0008633422491154662,-0.0006387937871100295,-0.0005609853088967
1682026596.165527,-0.12016971061578295,-1.0451744933669826,9.70458873419674,0.0019738454573629736,-0.00026364475229306893,-0.0012903782900534
1682026596.175541,-0.07290585947016691,-0.707619214183566,9.812097089004228,-0.0008205020707936915,-6.100079889034159e-05,0.0002183439081423
1682026596.1854415,-0.11072182678923623,-0.7842914193499985,9.798036357718258,-0.0025781121604369914,9.619829526945526e-05,0.0010397721069753
1682026596.1954272,-0.15044205543926611,-1.077530389998046,9.72365346444041,4.671209885943993e-05,0.00010923795575483337,-0.0011834899325035
1682026596.2054424,-0.12403795083335478,-0.7420769739977152,9.83460780330885,-0.001745866146021045,-0.0007956203731531869,0.0010818733006604
1682026596.2155144,-0.20042939122703202,-1.054438505903668,9.763427337560705,0.0014761280823731627,-0.002470505833956285,3.319278935718143e-05
1682026596.2254846,-0.029253416401432263,-1.0536442012787461,9.668139042127796,0.004141221286957019,-0.0001150290218879659,-0.001576840773981
1682026596.2354696,-0.16470296812735266,-0.6539340361086776,9.867339747736667,0.0002914884778905046,-0.0017809624871804204,0.0007354151328914
1682026596.250152,-0.1416385611633911,-0.9628384956608059,9.762806128490212,0.0018456699332965885,-0.0018707218812107896,-0.00051368273684
1682026596.2554722,0.2785655760985056,-0.6059524187467098,9.663769515596863,7.169712359162508e-05,0.0016127707744548335,0.0021275896741431
1682026596.2673748,-0.1087255948606928,-0.9715371413413081,9.738015153457905,0.0006301209438061184,0.0027933255994337398,-0.0007069936383627
1682026596.275524,-0.20115657986969385,-0.7638943366195272,9.863768890016013,-0.0008737922237838118,0.0008598964094179009,0.0007544199341796
1682026596.285493,-0.2228291224740337,-0.8823573025656649,9.831500039342302,-0.0017987732400003027,-0.0009282537702733785,-0.0008049906592927
1682026596.295433,-0.0725076524170642,-0.9488679755320093,9.727919461555006,0.0008391086738360972,-0.0011081768366416893,0.0020482156413495
1682026596.3055432,-0.09327781862740916,-0.8538020714530379,9.770070950223525,-0.0010254047047588896,0.00015170644699757552,1.7910251569028734e-05
1682026596.3154564,-0.09698246598211217,-0.9060313037003708,9.734577843752987,-0.0007258965488375727,0.0007343500950315124,7.6038633648332e-05
1682026596.3254263,-0.030025132646460475,-0.8293064275996199,9.750698037545952,-0.0008216372108039695,0.0018705657103163693,0.0020843494438454
1682026596.3354945,-0.16878836508387826,-0.9486379806466176,9.767542433053261,-0.0005548912074464632,0.001427622882404182,0.0005431928310431
1682026596.345431,-0.1452131643591348,-0.8403113812601399,9.798421930793406,-0.0012627157714250156,0.0004825197448485159,0.0016715862746937
1682026596.3556492,-0.22538592094380208,-1.1058150567017373,9.743109745908251,0.001879947729262691,-0.0007311891901836679,-0.0014159480471275
1682026596.3673832,-0.042140996555971956,-0.7820491497105923,9.76050788572347,-0.00017119353367793977,0.0009265839969676488,0.000287648161117
1682026596.3796897,-0.15204028270997375,-0.8185832073002086,9.804589209450901,-0.0025792367542745807,0.0006747458873560499,-0.0007997636113427
1682026596.3983057,-0.11870170684488679,-0.9290222408833171,9.74897125078208,-0.0004554469397291243,0.0004732014435127154,-5.547400918972886e-05
1682026596.3995345,-0.3492775435015585,-0.10163104998439529,10.154242775893167,-0.00260269110414123,-5.652679782762871e-05,-0.0002726331714652
1682026596.4054754,0.054909065686951954,-0.7996080760453212,9.709924858074999,-0.0022230796168315817,0.0010908568693471597,0.0023879681119583
1682026596.4153988,-0.24104956280702744,-1.0844432971774307,9.774065390315988,0.0003354713498547957,-0.00050841475872954,-0.0007051503181569
1682026596.42542,-0.15668495639300442,-0.7398525285136828,9.856499240656198,-0.0022614527689109147,-0.0018543511358842146,1.9798624504383444e-05
1682026596.4354985,0.01981154977988325,-0.8928947454904728,9.684680858838645,-0.0028210009252811453,0.0016142683485320213,-0.0009524974867813
1682026596.445431,-0.1257866490386146,-1.0793155484810224,9.707198863072735,0.00175662364156735,0.0011046719587093554,0.0002109139330573
1682026596.4554691,-0.2145671829143395,-0.7601288896797103,9.86992860469742,-0.0006022074962226495,-0.0012013079711142949,0.001134770967707
1682026596.4654405,-0.053640998596577526,-0.8261763696887594,9.747684814460255,-0.001688876529353726,-0.00011911355731983989,0.0015464223414315
1682026596.4754927,-0.10702476429461313,-0.89488679012828,9.766809862340377,-0.0015447139034630636,3.324968503702947e-05,0.0013079977232851
1682026596.485435,-0.1893314541964512,-0.9914027305297541,9.778917631021413,-0.0007936977750425479,-0.0006816546970006148,-0.001375709091138
1682026596.4954357,-0.19154256787272766,-0.9925365657975777,9.782073799217361,0.001550631923886109,-0.0024321384058083166,-0.001005417796608
1682026596.5054493,-0.011511467789643284,-0.8410561282271726,9.72634702622034,0.00041328178249170743,-0.00018056432593861591,-0.0013019462477527
1682026596.5154846,-0.05493853666378533,-0.7498221241044611,9.77663419202836,-0.0017168252482115288,0.0005682079001044449,0.0006996675964333
1682026596.5256493,-0.10803747721058062,-0.9555239431160235,9.739061847745772,-0.0015130252672012595,0.0017304913306188867,-0.0016234308842681
1682026596.535488,-0.2771945433610493,-0.9236595418674407,9.851476181372924,-0.0009646738737153072,-0.0015540813804660169,-0.0017042722448818
1682026596.5455194,0.06151251551810867,-0.8774141696338309,9.680872318762061,-0.0004550552179415316,0.0017733354421311618,-0.0002659362636618
1682026596.5554266,-0.109454155291884,-0.7797142700163872,9.802732142179025,-0.0024022705957272867,0.0016518858112900823,0.0004988580347858
1682026596.5655155,-0.145852696352963,-0.8354160293652416,9.809871441723324,-0.0033246560076157137,0.000921729957616097,0.0010274948889278
1682026596.575452,-0.18676828355266936,-1.0853383432896087,9.741494078016192,0.0005291754877871822,-0.000371319720028734,0.0006598068738244
1682026596.5854263,-0.1814514589936993,-0.9996616127410795,9.764078376159034,0.00107717050118845,-0.0003854392115818094,-0.0027011375770084
1682026596.595786,-0.007694855968678769,-0.65555857788916,9.795869881824363,-0.002962581870864704,0.0013098935946586974,-0.000912640605878
1682026596.6054268,-0.2761890706924878,-1.129281428471962,9.771807225176678,0.0015171137862785766,-0.0017034565201705391,-0.0013563275698683
1682026596.6154208,-0.022670532230548247,-0.6414693722668278,9.801277993530405,-0.003738545573995684,0.00014536904789503468,-0.0014677093260101
1682026596.6254604,-0.12316137819835501,-1.1374049922293208,9.679812055492246,0.001200077526701771,0.0002590216678685881,-0.0020611557539663
1682026596.6357453,-0.06250939064958429,-0.8410387038520141,9.754008300736086,0.0009009306502308223,0.0008338301403118137,-0.0004816335987411
1682026596.6454446,-0.16357502118388093,-0.7937712013615643,9.83096417290476,-0.0002192407490707398,-0.0006335720148980446,0.0009384563762583
1682026596.655419,-0.22603479193360598,-0.8280442172385502,9.83828739361997,-0.0024331993379479006,-0.002258207911820779,-0.0006284065440408
1682026596.665453,0.025866790471055216,-1.0339790080384248,9.635126508280242,0.0006926902244693303,0.0008617625128770436,-0.0003039353888593
1682026596.6754086,-0.13940408114054545,-0.7185488608038098,9.841167032159808,-0.0016780644678086553,-0.00037801654776017533,0.0019893636216298
1682026596.6855145,-0.06744175750187481,-0.8500682709155853,9.747996218119539,-0.0033846159459390572,0.0012704304746216444,0.0001237328268476
1682026596.6954336,-0.15551380863944156,-0.9630909250853864,9.764011107735119,-0.0018185045309875685,0.0005413766925758435,-0.0002465791896097
1682026596.7054474,-0.14704243727786862,-0.9889175120868484,9.753556542704201,0.0009691168993510435,-0.0007639479683342771,0.0012886343337018
1682026596.7154884,-0.10071831517595525,-0.9055324401609331,9.760077137904355,-0.00034362122512433764,0.0007112380114378283,-0.0018562571041397
1682026596.7254715,-0.05618088645539079,-0.9079244817087831,9.72510867724467,0.0013855999247492003,0.0013441866512599505,0.0005860350664593
1682026596.7355227,-0.15056668011125815,-0.889607849593772,9.795889282848568,0.0008409748111751667,0.0009977271546933882,-0.0005870637379698
1682026596.74553,-0.1189088408197724,-0.7208882759998391,9.82876683627328,-0.0019712577286301815,0.0005842150301881682,0.000555854161445
1682026596.755549,-0.14809784551103708,-0.9496899123718986,9.761020951322708,-0.0016222046851324453,0.0007898477899559857,-0.0014707023639343
1682026596.7738602,-0.08009500924886878,-0.8952371584221702,9.74350585775539,-0.0017514468787610527,0.0022371390261028156,-0.0018521620787791
1682026596.7816255,-0.18538120429196497,-0.8133629775029224,9.835104838931636,-0.0024693289413573096,0.00085355894917983,-0.0009249391861371
1682026596.7857862,0.15613629769071624,-0.9346486429294898,9.604705094140732,-0.0002680605974146356,0.0021436330536356817,0.0024926318891234
1682026596.7955108,-0.2675257414159704,-0.9651387890850408,9.826650076437089,8.847372784058005e-05,-9.526186077698582e-05,5.705618410187566e-05
1682026596.8096385,-0.08884378629947569,-0.9756961510715868,9.721483890966365,0.0024912659288764717,0.0007012142586142103,-0.0002800839848927
1682026596.815558,-0.027845098884528664,-0.9720966201141686,9.692417316608516,0.003445672999193283,0.0017405972317111303,-0.0003333367768786
1682026596.8255692,-0.21303980871908668,-0.6459525839492984,9.904984385174421,-0.002056198357407716,-5.430810144053022e-05,-0.0008340544428787
1682026596.8355842,-0.05539830003515257,-0.9522834133001428,9.713222530645533,0.00012830488691745372,0.0006482972245143209,0.000811396968726
1682026596.845789,-0.14042607245739167,-0.9723651582282947,9.768977535121875,0.001271619120335408,0.0004516184348192088,-0.0008906530112139
1682026596.855597,-0.08892872245884874,-0.8131050225797706,9.761087682175793,-4.305637365841443e-05,0.0010878810250118764,5.555070116000974e-05
1682026596.8656158,-0.20451751987277902,-0.9777707024609353,9.770532936118702,0.0003585555553419116,0.0003771083433083897,-0.0026966835267953
1682026596.8755324,0.04293794439197103,-0.8581455604555251,9.697649973570115,0.0007880743702313113,0.0029862886054578194,-0.000381050527852
1682026596.885542,-0.23329782481759492,-0.8406675586925925,9.843071975186053,0.0009005668300181149,-0.00016678434822313886,0.0018802044086046
1682026596.8955405,-0.1922892175726904,-0.8656214168015768,9.821567521154588,-0.001760398960929884,-0.0004696814921570686,-0.0018037570536248
1682026596.905536,0.04618394522459243,-0.8525418442116751,9.691025325120767,-0.0012545284156570563,0.0021890738553219076,0.000479869298812
1682026596.9155688,-0.1652503350083594,-0.8352713783184504,9.816006080008084,-0.0021005131610256325,0.0010979401355988808,0.0011261782363876
1682026596.925531,-0.12474766201261174,-1.058646628605813,9.713841414810402,0.0009758247318420642,0.001217157821319534,0.0001989923056103
1682026596.9405208,-0.0842849474508369,-0.9040366050720986,9.74783188943329,0.0010692848282930314,0.0022211221749488265,0.0001434614986069
1682026596.945561,-0.5065451183942785,-1.0293612936986736,9.930273616341523,0.0011561295578682046,-0.0010493075611179,-0.0024124494649581
1682026596.9555304,0.012305383907097492,-0.8541496786292169,9.698295438784193,0.0011308317461066644,0.0015192601837381286,-0.0013600516960136
1682026596.9655335,-0.15178530712037128,-0.7744666692565726,9.827206789686763,-0.00045357297297554303,0.00033054029235215213,-0.0001549113204814
1682026596.9755228,-0.16891828891741437,-0.9389219227317152,9.785101407416246,0.0008350122838943158,-0.0009010333028259985,0.0003420396113656
1682026596.9856048,-0.16361950473075465,-0.751785543300271,9.840498465859218,-0.0014891962484297216,-0.0022052811388760295,0.0013076305784639
1682026596.9955966,-0.035656668609083404,-0.9121572644344159,9.715077165917332,-0.001222092544934151,-0.00032288255477954053,0.0006136093160026
1682026597.0055914,-0.04529233347030972,-0.9401348650500375,9.721354870468799,0.0004263342613120609,0.0007872566986000161,0.0017099429004306
1682026597.0155792,-0.18752480606494776,-0.94843815978015,9.793943853923395,0.0010555371205352151,-0.0005028019787043406,0.00079948203516
1682026597.0255997,-0.09971117746239304,-0.9103771358969545,9.755455063155512,0.0014518979151440362,-0.00020888949221424684,0.0007566177390404
1682026597.0356534,-0.15743306946837554,-0.7115033489045688,9.842141221935682,-0.0031361497033606986,-0.000606017496412677,-0.0005892928585521
1682026597.0455463,-0.057706823441718826,-1.0557550716518413,9.689568104742332,-0.0003950827248011782,0.0007294983166005824,-0.0016677765071503
1682026597.0556188,-0.12216937017631022,-0.8923024312593808,9.76703667270202,0.00042335158858994944,0.00017146713566985818,-0.0004164368275664
1682026597.0655496,-0.05151153046700241,-0.8176250593628038,9.742269244593977,-0.0002569004850424103,0.0012164080951288779,0.0007905440159961
1682026597.0755174,-0.2016713118688653,-0.8196015861628166,9.851395757811268,-0.0013509954240182665,-0.0009897177765037526,0.0012685125856083
1682026597.0855846,-0.059013006889743355,-0.8132736593731319,9.76132398075729,-0.0018919042104940753,-0.00027260222638126274,0.0029672493563853
1682026597.095578,-0.12022474444158476,-1.004307470913954,9.714038630546844,-0.00036975034097395823,0.00046538973716040767,0.001415290507663
1682026597.109348,-0.1934174357771116,-0.8853613748829733,9.80740227152271,-0.002556873770979197,-0.0005345017942228234,-0.0018830915343127
1682026597.116495,-0.05953354452605195,-1.0390149282123713,9.690722918205541,0.0004431022533442266,-8.817774589708716e-05,-0.0005181370198838
1682026597.1255536,-0.18511373290704253,-0.9225886908446004,9.799122476883428,0.0015349940354617748,-0.0015354736744205007,0.0001986099976934
1682026597.1355762,-0.01256061965468721,-0.7489013345777553,9.762348698105738,-0.00135024389150495,0.00048587343800660164,0.0007931638846062
1682026597.145551,-0.16059253229335704,-1.0643388690521132,9.743622129814167,0.000596197937697022,0.00048587697325027296,-0.0022001214221231
1682026597.1556733,-0.06585872727330987,-0.8729455173188205,9.752346200052145,0.0019894793927154914,0.0005048812807844882,0.0009496436558552
1682026597.1656437,-0.17480950016576047,-0.8539902041497088,9.819186834152955,0.0009564461420602206,-0.0007211142648594185,0.0006039109883718
1682026597.175748,-0.11224776095545595,-0.9680308541075423,9.7398470557327,0.0016202893394755388,-3.6113472573201343e-06,-0.0007424053166173
1682026597.185616,-0.21879153282233263,-0.9641325421867321,9.797347012421106,0.0033674696504743416,-0.0022231206572945333,-0.0003147331427894
1682026597.1955254,-0.0633095565923051,-0.6739018360152524,9.814645243362147,-3.671113436373577e-05,-0.001991438554670003,0.0018034604889694
1682026597.205638,-0.02995478106804849,-0.9869242198877828,9.688446497259068,-2.8117153242936615e-05,0.001222730287031914,-0.0021647185914329
1682026597.2154975,-0.2008347616472796,-0.7367292293499548,9.866231840456752,-0.0007545665744173531,-0.0021054348029015736,0.0022475133172124
1682026597.2255228,-0.069708573343946,-0.9613904251449006,9.722654363814442,-0.0007691172506535568,-0.0001649319544965669,-0.0005814597372077
1682026597.2355409,-0.08733110713105736,-0.8909884789882667,9.750569945945246,-0.0002807223520740127,0.0002854530968830368,0.0001140374095998
1682026597.2455378,-0.09797332918893448,-0.9052193412203169,9.753070544263775,0.0007619930990704441,0.0003282987977303662,0.0008654374267794
1682026597.255584,-0.11608496007242175,-0.8811742536449292,9.77063040153341,0.00016482822078644525,0.0006900177788075137,-4.799234505716921e-06
1682026597.272927,-0.15460446279358875,-0.8773126587214449,9.788138836906453,-0.0006457923524561454,-0.0004417167382986503,-0.0005561245035491
1682026597.275517,-0.07167250336616676,-0.7642334825123841,9.793309571176218,-0.0024746006315805613,0.0004795248880629097,-0.0026750633388869
1682026597.2855668,0.016910886653648115,-0.8432377312588939,9.713345166703718,-0.0013424169345792505,0.0020411819255588106,0.001388086487947
1682026597.2955368,-0.2297183396016163,-1.0268065533515476,9.780168208817289,0.0006148343185609883,0.0003852962801205289,-0.0005889221921674
1682026597.3055074,-0.10699019650303203,-0.7505773621077064,9.81270869994033,-0.002487210911750743,0.0006322766579990367,-0.0008169004123769
1682026597.3154938,-0.17884114090757722,-0.9149031929616519,9.79455208751444,-0.0012060793244662489,-0.0011461822038366207,0.0007231187645234
1682026597.3255231,-0.020011247291641863,-0.9993674760820717,9.681364914791796,0.0010484888896279201,0.0008941557874885642,0.0008482944557331
1682026597.3358412,-0.14518390819226074,-0.832414878464037,9.803250233958307,-0.0010868598639166142,0.0008420149162523229,-0.0012654314179084
1682026597.3455987,-0.1133339205622049,-0.9156353460556653,9.755318500122929,-0.0007516063983630663,0.0010107714563984916,-0.0017221494473628
1682026597.355828,-0.07623054073778048,-0.9552525082297182,9.726885279867702,0.001547286094453812,0.0012730198329385697,0.0003133220469467
1682026597.36553,-0.1509546242921046,-0.7293316108847075,9.847051333575317,-0.0015871655737182393,0.0004750650436659058,0.0004750066308193
1682026597.375523,-0.07273551356771735,-1.0104159444021121,9.704619782391976,0.00034065469161108873,0.001748011400355367,-0.0005080736138038
1682026597.385803,-0.21510296332635123,-0.9574476283816575,9.794884220578263,0.0016825000931680585,-0.00019248142124770316,-0.0006973265100382
1682026597.3956876,-0.11237279080635244,-0.7488497797025492,9.808845790852422,-0.00027587645441021593,-0.0007211191647525826,0.0011332781740352
1682026597.4006646,-0.17313535780207506,-0.7663688375789949,9.845344124479919,-0.0025635627688531458,-0.0006637356248864351,-0.0007681053958944
1682026597.416219,-0.03642008973964459,-0.9490497625793096,9.701507675026626,-0.00023266070402988903,0.001824747133869755,-0.000234266639512
1682026597.427064,-0.11152258101086499,-0.6846191215162738,9.846363727617677,-0.002392955531023913,0.0003446861268864405,0.0039875950768478
1682026597.430687,-0.2936710951769999,-1.2868300663707333,9.715563745264344,-0.0016520181679154004,0.0004769196004810303,-0.0001202917320765
1682026597.4586256,-0.14661374503202515,-0.9414076946621683,9.758723605872534,0.0005336257980907297,-0.00040968135072927116,-0.000464501919981
1682026597.459616,-0.5529577057049057,-0.9636834009235162,9.991702467724805,0.00038052829237281003,-0.001130905001898989,-0.0011011524021737
1682026597.464592,0.09769953002871971,-0.9240062889845204,9.631776408516213,0.0012771973022211924,0.0007053000087379086,0.0001878046767674
1682026597.4745133,-0.2043707972982028,-0.9047000091500058,9.807320603716558,0.0013926899190695274,-0.0011383554577712534,-4.8753934737269045e-05
1682026597.4848366,-0.2129819695887588,-0.882792654259204,9.817500307787306,-0.0006819300731975833,-0.001915450545662426,-0.0031802331924549
1682026597.4945023,0.10255625457796701,-0.7426483492058498,9.698398898511702,-0.0024570299821306592,0.0017636469360724268,-0.0009193596325926
1682026597.5046024,-0.13028858445496325,-0.9324976510606453,9.763769042278067,-0.0009501654964420734,0.0011914433180285314,-2.4539780627910257e-05
1682026597.5145524,-0.241796710105615,-1.0006310244888756,9.801030508473293,0.002150040240623034,-0.0020037240034797166,0.0014171474193576
1682026597.524549,-0.030222195537301988,-0.8744975796200914,9.721299792659636,0.00130588856696544,8.726837075909016e-05,0.0008773488096781
1682026597.53459,-0.17765928040562987,-0.867218912022654,9.804539463790041,0.0001953575307021122,-0.000703993220450129,0.0001386056991182
1682026597.5446055,-0.07753780875915102,-0.7510678125189637,9.792181284422178,-0.0033935745243710994,0.0005510694436331194,-0.0007524514932296
1682026597.5548697,-0.022991180326141017,-1.0806490662216592,9.646426825763182,0.0016526871874438852,0.0021287341953507466,0.0004742569161467
1682026597.5646956,-0.07296511400101371,-0.8257488764787065,9.763652101521682,0.0014317500254934464,0.0024696149008522493,0.0024840745480619
1682026597.574757,-0.22817688470710756,-0.8683543588275987,9.846634688593065,-0.00037797963340560674,0.0008200299011574898,-7.067702822128544e-07
1682026597.584602,-0.13617924733604475,-0.9720812903541689,9.752812174855448,0.0006800657026085431,0.000941477638167322,-0.0012922362785897
1682026597.5944877,-0.06336658837190515,-0.7474672245180443,9.795916142806957,-0.0015890447302471923,0.0014328397355543674,0.0002533591922261
1682026597.6135485,-0.15357288008820136,-0.9333500463992437,9.774909984836654,-0.000369412036805031,0.000421050168772472,-0.0011454942997656
1682026597.614538,0.8848632107966669,-0.3009305971504806,9.426251718114575,-0.00048150741631639493,0.0018020205728974791,0.000918332532689
1682026597.6248205,-0.203097383702394,-0.9204601730992956,9.8119255465024,0.00025609318953146793,-0.00010457417606849429,0.0007588872557394
1682026597.6345618,-0.28556585780675553,-0.9870367426170694,9.83944537649166,0.0017149312928929179,-0.0034338540955852147,-0.0004388013750426
1682026597.6446066,0.1704905231273337,-0.8077077204030554,9.635781651659512,-0.0003280166729579782,0.00281342332639631,-0.0006422159623466
1682026597.662951,-0.06672261522918237,-0.9090138524321634,9.740182659989346,0.001122189946900025,0.004085265496936072,0.0008915568922534
1682026597.6650572,-0.8582057011976689,-0.9069263582078109,10.160341220147743,-0.0004763228521066838,0.0018209969826049526,-0.0021666091762594
1682026597.6748564,-0.2057645498462918,-0.8962733858380991,9.804639829635741,0.0005194620288778251,-0.00032847134037591863,-0.0004730721831433
1682026597.6847315,-0.09684520158439384,-0.8985653460718683,9.746798821070744,0.00012534789520806479,0.0004888429175301165,-0.0013045614015422
1682026597.694703,-0.04440083337253181,-0.8015664087663195,9.757769920434235,-0.0003243080256769102,0.0012324234049113723,0.0012226517882086
1682026597.7045383,-0.1297735048723956,-0.8837810861108065,9.778433883152143,-0.0008432369509866403,0.0011568028257794062,0.0003420407755188
1682026597.7145698,-0.19808563749496716,-0.9183118004313504,9.807375450820427,0.00017600601456329302,-0.0009997756171492562,0.0008341319497563
1682026597.7245457,-0.06711119506065699,-0.9275258369879563,9.722980207478344,0.0005459357796619265,0.0004266500792342149,0.0002455556403734
1682026597.734594,-0.11266128458037125,-0.796860959771632,9.787854168826339,-0.0006431967008981042,6.380271737038316e-05,0.0016626432933267
1682026597.7445676,-0.16978202270055465,-0.7994987661220635,9.822500628929832,-0.002630629104335137,-0.0007762594768869745,0.0015654132165368
1682026597.7545528,-0.015273949953619984,-0.9975179787684713,9.6760800298826,5.390692550359031e-06,0.0012137945686751604,0.0021343002898507
1682026597.7645607,-0.23857329009497508,-0.9722065392032816,9.804823026746902,0.0002527381134679253,-0.00024127860191757122,-0.000984538242977
1682026597.7745442,-0.059757962213453496,-0.9080519215657996,9.737072369140021,0.001607255358537595,0.0002176615486594811,0.0007026467809342
1682026597.7845354,-0.10140662722790156,-0.919411225655439,9.757642169091708,0.0014232243737632873,0.0006617273054271017,-0.0003247823462001
1682026597.794565,-0.10001429784829444,-0.8760101740099765,9.761827619901599,0.00038277200702148325,0.0015293341776291755,-0.0018227276288084
1682026597.8045917,-0.2051329659603357,-0.9531402303456891,9.80644886825936,0.001062233833283493,-0.00016607052613302654,-0.0030342139199487
1682026597.8145988,-0.0843440594766416,-0.7107661085680306,9.815478691163614,-0.0011211482385247468,-0.0004540340422556211,-0.0004462575435749
1682026597.8245685,-0.13706831018191132,-0.8874509909490235,9.775320871282643,-0.0018103081615172111,-0.00034822132838158626,-0.001912149264302
1682026597.8345635,-0.1395706024771804,-0.9308916380865677,9.771213729318013,-0.00014735805172691634,-0.0013648328055642274,-0.0002126653108857
1682026597.8445594,-0.08829366441560728,-0.8365267149256823,9.76978404766184,0.000307136116152922,-0.0016576498943622732,0.0025328729987964
1682026597.854559,-0.022564109277600757,-0.898494677184965,9.714123451582307,-0.0008860675193838498,0.0012596172319029092,6.077041494476402e-05
1682026597.8645637,-0.17426680183660653,-0.9033304667110481,9.792778240584212,-0.0005839548025788026,-6.919918589190307e-05,-8.489472215247548e-05
1682026597.8745258,-0.10373227454911045,-0.8015232617963325,9.787923047655095,-0.002145961562646328,-7.727542573767347e-06,0.0005122700111829
1682026597.884538,-0.12796145132157985,-0.9669067048655491,9.746136367501467,-0.0007758067400579328,-4.740182046479958e-06,0.0001583784922845
1682026597.8945563,-0.14407962047430148,-0.9168557819373793,9.778788702741082,-0.0007173376625708652,-0.00024279527377645463,-0.0009521412558965
1682026597.904523,-0.051377811792193,-0.8188143022724618,9.754365979541133,-0.0020282379830902702,0.0010956988667810475,-0.0003914918180666
1682026597.9145186,-0.08985800406186775,-0.9173247682648855,9.741976169444536,-0.0005627148648962415,0.0013818113370285428,0.000762604629796
1682026597.924554,-0.20395436575221568,-0.9086180025795096,9.803775419284348,-9.594861636120564e-05,-0.00025433806666916455,0.0010606326267011
1682026597.9345956,-0.10609202144801522,-0.8908053617111749,9.75889419667985,-0.0002378637125254717,0.00020164116381589015,0.0006426665803306
1682026597.94459,-0.15765431829869603,-0.8312932715185177,9.820229633601922,-0.0010846315365010634,-0.0010306903735230037,0.0013784071651175
1682026597.9546487,0.007511842293526898,-0.9643670604896035,9.673482921226718,-0.00025428671399010586,0.0020665214436525465,0.0002060620916895
1682026597.9645922,-0.14476321384494667,-0.8784545492917297,9.790280038720367,-0.0009602320483044102,0.0018634986996769983,-0.0009018333058915
1682026597.9748924,-0.053247658579469274,-0.7984064797882547,9.772079617156425,-0.0006234303878801096,0.0015297065977477717,0.0032142179423831
1682026597.9845784,-0.08411661302035606,-0.9645913692174208,9.716944668942768,0.00011823593220818847,0.002914770567476325,0.0014696496817637
1682026597.9945762,-0.3468489465931531,-1.0108359837706937,9.83419677254293,0.0023858594778870096,-0.0014695357282463151,0.0011098272387758
1682026598.0047677,0.025103334559614426,-0.794701223740449,9.719068819378613,0.0008327825209961628,0.0013590826202128827,0.0018031071902956
1682026598.0146074,-0.1806846544786797,-0.9090835066941436,9.808016429302256,0.00035777343429861685,0.0004810211231573272,-0.0002503235720209
1682026598.0369277,-0.15041794515108364,-0.9183533105094317,9.761518648797473,0.0012663992483062574,-0.0005855195111798419,-0.0005620980065427
1682026598.039204,-0.16029101867967938,0.015248162980805528,10.098905892790969,-0.0009691471719145073,-0.002098736820140533,0.0032768102699779
1682026598.0456164,0.016891951821455416,-0.9396777288304694,9.681209165992419,-0.0020495138278682776,0.0008375201273249737,-0.0001419016754366
1682026598.062625,-0.09420381437232252,-0.8914479331903286,9.769819251441646,-0.0018937904899060012,0.0012197434742468795,0.0006180716317035
1682026598.064572,-0.4323417064250711,-0.9214756048284333,9.925145215633469,-0.0020952863190365225,0.00012265495837644147,6.523179932313764e-05
1682026598.074955,-0.1653729282622925,-0.9362804504709384,9.77219044208028,-0.0021124492847299434,-0.0002830317618079575,-0.0020402945939562
1682026598.084579,-0.0013064958815864765,-0.984887872852777,9.672151042955823,0.0022036528496496193,0.00041773613316078073,0.0021953459816873
1682026598.0945892,-0.29325844624826275,-0.8024025587406112,9.890760008623138,-0.0009564867087832166,-0.002462702625460939,-0.0004924378719292
1682026598.1046138,0.02241519441505583,-0.9634855973922706,9.682936421582188,0.00045616381065735335,0.00031003870861752366,-0.000938720431935
1682026598.1145482,-0.07750476754685387,-0.775125949524037,9.77833204819411,-0.0013025521687320511,0.0008684627408594174,0.0001151569757499
1682026598.1245828,-0.09269918593352235,-0.9568105653675699,9.725370970103935,3.109811662876495e-05,0.0012536573385615586,0.0004750245587788
1682026598.134644,-0.18401306638352688,-0.8031512285540033,9.839008267420798,-0.0010097545696103572,-0.0006481049566527015,0.0019491184810763
1682026598.14456,-0.10948385971553752,-0.9677467970442908,9.757637562292818,-0.0005284491018309043,0.00011335171113955617,-0.0008012607123814
1682026598.1546729,-0.2526756709995701,-0.8878804688448295,9.84126554409267,0.000439770038403833,-0.00344393229412174,0.0007618762191273
1682026598.164923,0.08365840349154494,-0.7766458244881367,9.677740822433307,-0.0023557230189351266,0.0011850970486916134,0.0010651051869504
1682026598.1746185,-0.2713229976865409,-0.9875221399453806,9.81022378162029,-0.0003310012932851557,-0.0018942121055236228,0.0013549316662252
1682026598.19108,-0.09810700430008143,-0.8627286236130004,9.770421814787639,-0.0019462965326974403,-0.0008652964064494606,0.0002310208381973
1682026598.1945755,-0.13906736510327147,-0.8063899586449574,9.808636973863008,-0.0026950767921644758,-0.000977053959145708,-7.445925270390904e-05
1682026598.2045677,-0.18985018506009896,-1.0568516317252066,9.756743458723562,0.0003704745824694726,-0.0022842495789843716,-0.0007476158335916
1682026598.21477,0.09914899890366768,-0.7727892362937594,9.684286846274162,-0.0010365826501198957,0.0018657208655674285,0.0010952775936462
1682026598.2245862,-0.2218377742238969,-0.9714709702965368,9.79590288095828,0.0001841923808433436,3.773160612257887e-05,0.0004094610793404
1682026598.2345555,-0.18784720224500623,-0.9612231253561,9.78078587687986,0.0013666074043742924,-0.001090306907336779,-0.0001296035608388
1682026598.2445626,-0.1883045387503856,-0.8989875248849173,9.799531276165816,0.0006610246619425077,-0.002116591077638756,-0.0016711292684189
1682026598.2547362,0.03352744652677521,-0.8810172737851913,9.698346649300364,0.0010011467318166052,0.0008081268345072945,-0.0007248885359726
1682026598.2646413,-0.17888452822549125,-0.8657300965034147,9.81299750922034,0.0008566226097050281,-0.0006503210919783758,-0.0001653358468897
1682026598.275012,-0.07198056750853664,-0.8150477953556963,9.78317615148761,-0.001127858319640498,0.00030966546870236494,-0.0008131851337961
1682026598.2845576,-0.09926023295138993,-0.831426472786853,9.772613108589086,-0.0008294496899242107,-0.00012842659797548345,0.0017021369584258
1682026598.294653,-0.17408493482339185,-0.9767380939818977,9.777714674205374,0.0001726568302811601,-0.0009438876568256207,0.0001322972692437
1682026598.304573,-0.024589466747185106,-0.8207296113561164,9.734972425777716,-0.0005727967293192021,0.0007481384991821795,0.0014506735477485
1682026598.3146465,-0.1072374188305649,-1.0031870182376301,9.726841192327079,0.0003343189037023443,0.0018359165930545945,-0.0013548497937731
1682026598.3245957,-0.1716474959314169,-0.8863463816948695,9.805805408228498,0.0015800543933646588,-0.000286341429904497,0.0010561799152642
1682026598.3345962,-0.07133443388801179,-0.8092258394597905,9.769825962212872,-9.258551667168495e-05,0.0006535101821345188,0.0009976760355644
1682026598.3446462,-0.21623528048692273,-0.8597238614094022,9.83703333767324,-0.0019366314817930727,-0.0007404879799326406,-0.0013652608160041
1682026598.3626947,-0.12080814540666085,-0.9084745789404722,9.75251193809935,-4.564450437325682e-05,-0.0011331456725404807,0.001501338267059
1682026598.364686,-0.38272661691005605,-0.9215336320510915,9.894610798896931,-0.0013472691995479894,-0.001341758572936721,-0.0010922084458283
1682026598.3746514,-0.103371998974116,-0.8947745622837818,9.758262597259565,-0.00142810116755115,-0.0009658690218659827,-0.0014982632257155
1682026598.3846512,0.046706522131451,-0.882873433979128,9.677910550476748,-6.428853192491758e-05,0.0017174613155401545,0.0011038513492681
1682026598.3945632,-0.25451759380975736,-0.8866157202705425,9.832582509138154,-0.0008950255608703302,-0.0005888629904067664,-0.0001955204771943
1682026598.4045963,0.003705633492776103,-0.9563996908941015,9.681319332427849,0.0003749151744201435,0.0020855355979958233,-0.0002767121315113
1682026598.4145684,-0.3658310865755757,-0.9552071911399966,9.876069252074506,0.0014247358957455386,-0.0029301994007888857,-0.0011156754464022
1682026598.4245791,0.04323898614095299,-0.7923132084404243,9.710333528621028,0.00025722494106564654,4.144335321153466e-05,0.0008237085875012
1682026598.4352183,-0.20633360686506277,-0.9758337827186777,9.78807026561573,0.001226914704359412,-0.001390554674833159,-0.0008403746307007
1682026598.4445982,-0.13998932858516672,-0.7467649892049629,9.827018135731906,-0.0003913596609958964,-0.002489508664079367,0.0012185931426361
1682026598.454587,-0.022655691643266387,-0.9026169811566441,9.715354786652163,-0.0010362103481165212,-8.186579093080866e-05,-0.0005516681250296
1682026598.4648232,-0.20920505023784358,-0.9690930130606414,9.787353743441706,0.0005596999576820246,-0.001783955555529086,-0.0007669945608935
1682026598.474785,-0.029836695157594087,-0.8214160786400891,9.730335152831792,-0.0012422170577525136,0.0003022250620232584,-0.0008150284540019
1682026598.4846735,-0.22318605902436725,-1.0445818993394065,9.777663367123347,0.002024870567192635,-0.0019463555817139828,-0.0007882245246432
1682026598.496827,-0.024113503335353323,-0.6985865061279988,9.7878793499449,-0.0017183116178098193,-0.0006462420962473461,0.0018034590956236
1682026598.5045865,-0.1964303101905043,-0.9622645328129728,9.787877009860381,-0.0014985343173486304,-0.0013980030580126915,-6.887108442557252e-05
1682026598.5145867,-0.0044596412454767295,-1.0212386641726583,9.654399020224977,0.0008860228303807394,0.0014566835046657682,-0.00083406212629
1682026598.5246634,-0.09682083054869993,-0.7710767234712642,9.798056036361249,-0.001010882860276314,0.001725277722342334,0.0002257982140295
1682026598.534615,-0.1784308042529184,-0.9333234553013867,9.776733546019749,-0.0015830962268384929,0.0015971273818084337,-0.0026069119468442
1682026598.5533535,-0.07276378528253002,-0.9271340350380032,9.730621346124922,0.0004643634515743596,0.002969528596731471,-0.0018909062620363
1682026598.555453,-0.3710667168135342,-0.21782282918969734,10.134701831596491,-0.002181742290024767,0.001620225852726932,-0.0012300358049683
1682026598.5646036,-0.1801238287902501,-0.9342460486442539,9.778489469941746,-0.0001071213316465639,-0.00017126784795127532,0.0008374806364886
1682026598.5747678,-0.048616103697907614,-0.8107472037009674,9.76821761808095,-0.0015726412429992063,0.0012186383808879394,0.0007112027250118
1682026598.5846674,-0.1464841245510403,-0.9444846274064514,9.775995341123389,-1.5832282367743997e-05,0.0002910317235226418,0.0018072033361536
1682026598.5945752,-0.21757678590556914,-0.9662359957123843,9.776832338451062,0.001528300005716584,-0.0013916794948269035,0.0015266813733037
1682026598.6046002,0.07785790058877476,-0.7772516433509804,9.696221772481886,-0.001494046417850542,0.003262701418098662,0.0006947775708399
1682026598.614596,-0.22182944372022945,-0.8770758366968809,9.828927763474224,-0.0014024287681437247,0.0007458969325484611,0.0015467928331932
1682026598.624688,-0.2226786634111475,-0.9472492041111795,9.81898269681319,-0.0011334318299486103,-0.001090298465631274,0.000175880721014
1682026598.6346662,-0.07471757036307694,-0.9540641175244959,9.717433514751464,-0.0002404778978678168,0.0002753925915629743,-0.0006410783518217
1682026598.6445997,-0.08368729354207981,-0.9312607932160065,9.741173801080068,0.0014206156027348977,0.00036219882451523895,0.000990202870395
1682026598.6546404,-0.20489745481273883,-0.7658774335829266,9.858674496134704,-0.0012526441544149017,-0.0015149807700524768,0.0009492515108436
1682026598.6646044,-0.007977216114961027,-0.9523755334272879,9.676473650013605,-0.001474321456125909,0.0020505031831877514,-0.0021639628231636
1682026598.6746175,-0.28915796692779566,-0.9275477741379929,9.852926508113411,-0.0006722234299944536,-0.001594325439385846,-0.0022671617463342
1682026598.684611,0.08018929528115692,-0.7988989111588857,9.702831276550016,-0.0008197475838942423,0.0014473627257062742,0.000491402797576
1682026598.6945992,-0.1797293732500374,-0.908125755869296,9.800787992351474,-0.0022048528989520267,0.0010770633318913437,-0.0022355046950392
1682026598.705101,-0.18512759626981073,-0.9063684293465759,9.781970883415346,-0.0007016646180540922,-0.0006015387088692867,-0.0005650784716121
1682026598.7146077,-0.04840988597303894,-0.9501098427373575,9.714152258116236,0.0001432438673081641,0.0008297284477483855,-0.0011249879736564
1682026598.7246628,-0.19535080093273377,-0.9818505297578797,9.780194749980359,0.003268748001566624,-0.0014989471716735433,0.0008956353284307
1682026598.73466,-0.05474162956601641,-0.7726537753707424,9.766540136528942,-0.0005068413897349264,0.0006032320993398853,-0.0013823936589173
1682026598.7446113,-0.12541234900237794,-0.7293376745994656,9.826204481917465,-0.0026235532072044153,-0.00044694414497118654,0.0010073588217497
1682026598.7546086,-0.10366057968262082,-1.022132748995712,9.715293457912132,0.00033805242050282227,-0.00012358132100778244,0.0010610065527148
1682026598.7646296,-0.09196619047289274,-0.8743526539015516,9.76091535338622,0.00011490244534828895,0.00034543248466757247,0.0008941105205454
1682026598.7747967,0.002810048571866238,-0.9549119855884575,9.683405585290984,0.001106193687575102,0.0033316215319781086,-0.0003795899812243
1682026598.7846076,-0.311184769184851,-0.8007548487346617,9.895709870582193,-0.00020061537159452294,-0.000886894383322725,0.0009492481930069
1682026598.7946668,-0.10445752848965155,-0.8491066176443005,9.759240574614408,-0.0018326642003059694,0.00010851538461736549,-0.0002387237165234
1682026598.8045912,-0.25591048691983764,-0.9707071333124737,9.809823501068548,-9.370014550995962e-05,-0.0026109740494009424,-0.000497272367414
1682026598.814617,0.11775507117462901,-0.7891762450701968,9.678500919584653,-0.0019489180990733036,0.0020996599232590164,-0.0001627591101564
1682026598.8247356,-0.27300148710186817,-0.8314203849245785,9.87693316868515,-0.002936105750719776,-0.0014162558475489387,0.0005048384062834
1682026598.8357854,-0.08340717323071044,-1.050607662819233,9.69239085548224,0.0014142974555692996,-0.0010210107932999018,0.0018571145427418
1682026598.844592,-0.09029715090171418,-0.8702440161780647,9.751997210899964,0.00014919385073989657,0.00021691797660744328,0.0003170870348699
1682026598.854598,-0.19612350045188248,-1.1146797800088855,9.740680313741942,0.0037649441570381114,-0.0008198385302841989,-0.0017098704248778
1682026598.864893,-0.03961689055615139,-0.6187636421903356,9.815973093187177,-0.0003161109659401163,-0.00015858995906979114,0.0012197155609615
1682026598.8746269,0.02561230842243843,-0.8719479080341924,9.70628127893481,0.0001920129352104385,0.0020974481253615497,0.0031125026160739
1682026598.884753,-0.28811853074234,-1.0247790025338872,9.81545912759793,0.001539463994620196,-0.0005113869066222572,0.000442613019783
1682026598.8946629,-0.15612716277149058,-0.8821970014181477,9.794618068797423,0.0015785786199250145,-0.0015674887909015048,0.0011831981117725
1682026598.904689,0.08517756391758734,-0.8278076436645423,9.679768754634708,-0.0003947332700210478,0.0032172534652769504,0.0001982173288129
1682026598.9155543,-0.2945474689304471,-0.8981351587892971,9.868318761840928,-5.420210711100382e-06,-0.0011573433635583908,0.0005584662884362
1682026598.9247649,0.014351512289854715,-0.8309424799483648,9.72299159682183,-0.0008246070381175379,0.0011575486317671555,0.0007395299488567
1682026598.9346533,-0.2048520137130886,-0.9475279624274275,9.791038842949112,0.0004829654622796157,-0.0006741777948447524,0.0009987964748293
1682026598.944644,0.04699967561154516,-0.8835120173685426,9.687544247043396,0.0004278412212106085,0.0026435669956838053,0.0011265919182338
1682026598.954715,-0.25695294057631385,-0.7005007325110909,9.907058854188817,-0.003509797361761687,-0.00030128566696881664,0.0009485049393847
1682026598.9646966,-0.09817604912619163,-1.0319160071849396,9.705133412256092,-0.0012317990104310308,0.0007257954860485739,-0.0004529341951124
1682026598.974713,-0.18017700651371477,-1.0581314610213883,9.74118338135771,0.002636933619772231,-0.000699888223688425,-0.0001377803402133
1682026598.9847388,-0.05311946309137064,-0.6925787785752092,9.796750937668975,-0.0008726630272772211,0.0003126452139715986,0.0011042198037617
1682026598.9946768,-0.2684049185859551,-0.972462128005419,9.835588924156164,-0.00015554926927199416,-0.0025264047104352483,-0.0005926479481272
1682026599.0047112,0.022424080553011417,-0.83317963256025,9.703353096314942,-0.0003172203836411317,-7.850425325376206e-05,0.0013176849914603
1682026599.0146463,-0.1290370761293485,-0.849794599968621,9.799395603246127,-0.0025147652778400907,0.00042180303812201114,-0.0011130712356529
1682026599.0246515,-0.06812423443472032,-0.9080713473262011,9.732292076557304,-0.001533916888389494,0.0011452330352988334,-4.355051909757054e-05
1682026599.0427122,-0.17449491323236532,-0.8924769951211426,9.791780472467483,-0.0004602722498384801,-0.0014747435531384367,0.0018951014225026
1682026599.0455077,0.20424784135422264,-0.8026151533583707,9.619658105159614,-0.0014623663104406455,0.0007488772385682212,0.0009853846730552
1682026599.054719,-0.13181888551643087,-1.0397105454786246,9.728816381844274,0.0012652589063958761,0.00044379763662138246,0.0005293824814148
1682026599.06486,-0.19931199846427305,-0.8044174406500149,9.84268224117828,-0.0011278509215698334,-0.0008276407465234078,-0.0007755499228946
1682026599.0746813,-0.06388227792145221,-0.9285461355899948,9.72695387847208,0.00043603710240680196,-0.00012395731531673196,0.0007115778151788
1682026599.0846682,-0.16915215485218552,-0.9360957174850647,9.765951437338654,0.000728101902468993,-0.0005858804301139859,-0.0004205264978222
1682026599.094678,-0.10406057202616685,-0.8271496607350092,9.777481072875348,5.382266639100733e-05,-0.0005624255797642019,0.0006534599104784
1682026599.1046913,-0.013366304143387816,-0.9155881838497331,9.700427907052585,0.0004472188500483094,0.0016097819926402437,0.0006690928583853
1682026599.1147506,-0.1406750276552454,-0.8111325502323263,9.816487679115301,-0.001079056839170941,0.0008487190625117733,0.0007998792442381
1682026599.1246908,-0.07396891342418618,-0.9832747731860133,9.721908702029578,0.0005157588366783281,0.0017413030828436157,-1.062768336359621e-06
1682026599.1346295,-0.0639476172115413,-0.7579257179603451,9.775078283714263,-0.002194416393453843,0.0030995285849017688,0.000194122187037
1682026599.1447828,-0.3761855021210036,-0.9962110190429242,9.863820946275725,-0.0005027220040373416,-0.0020730540350262774,-0.0007610357262305
1682026599.1547012,0.09183234123125542,-0.9583428008915283,9.628610933279411,0.0007500643846145666,0.0024725733007416005,-0.0012929999631009
1682026599.1647067,-0.25446138224071585,-0.8518141289796125,9.842145006666708,0.00013315929702260057,-0.00040746807756668313,-0.001104514476668
1682026599.1747308,-0.07285510079566201,-0.8722978864559355,9.749345377711304,0.0005858013378314292,0.00035921404871541577,0.0004981317195929
1682026599.1846335,-0.07935092707256476,-0.8098298134117801,9.769138364495896,-0.001137527843657633,0.0012015097193854548,0.0006136121099703
1682026599.1946526,-0.1373005213194088,-1.0630242655417927,9.711333133636304,0.0009352215433947668,0.0018635069890623032,-0.0023964083649329
1682026599.204659,-0.08081512251805494,-0.8344488834887649,9.769038468802332,0.0009970538734612408,0.0018340722375078395,0.0001315758434944
1682026599.214663,-0.2023509536640271,-0.8654482926922187,9.82121277291083,0.0006032995472665918,-1.2570807961804938e-05,0.0001021184597052
1682026599.2246568,-0.011436498782109674,-0.8539620071051763,9.721082212638564,0.0007660886096381314,0.0018564138203551513,0.0015229352883184
1682026599.2347903,-0.14337803760751852,-0.8372492939489247,9.799356574541829,-0.00015929168746071953,0.001208211784163358,0.0017494448237417
1682026599.244831,-0.28740321320332796,-0.9923663625937029,9.824571291491289,-0.0008819299595129531,-0.0005717139310133519,-0.0036965500459186
1682026599.254691,-0.15705749165116734,-0.7832225186380576,9.821446537660325,-0.0005440895739697593,-0.0026556616150790902,0.0006840100848935
1682026599.2654202,-0.00655898208386941,-0.9364516454374783,9.687309454619934,-0.0003738483960293541,0.0006419647611432722,-0.0009681518551073
1682026599.2747235,-0.22740426403429315,-1.0183217064792291,9.781401207469195,0.0019216666148984048,-0.0012795252105133894,-0.001542232361447
1682026599.2846854,-0.0064126397424878155,-0.7032278460950488,9.764660948673084,0.00019054303606793488,-0.00016903165106243944,0.002420354272414
1682026599.294666,-0.2194051304885394,-0.9447484299950528,9.802395677180023,-0.0004401569941453861,-0.0011558331552558765,-0.0007874831918738
1682026599.3046503,-0.06752918744182913,-0.9405652766800543,9.725750174220572,0.00029334448969198815,1.686724329767315e-05,-0.0014304634079448
1682026599.3147163,-0.023581715542257804,-0.7844860986415801,9.755650453928961,-0.0010536947062171867,0.0014272362240690074,7.789138349520767e-05
1682026599.3248234,-0.05401560422668232,-0.8662701835885024,9.742724381489504,-0.0009047336518550578,0.0025914061357690393,0.0009496060537062
1682026599.3346546,-0.2162118109908415,-0.8469357674245356,9.84035831724348,-0.0015715309742008884,0.00026943232030689554,0.0015363658329593
1682026599.3462524,-0.13935796365859834,-0.9771227644034133,9.74816246140943,-0.00028779267964721165,7.274063189290806e-05,-0.0001318270934857
1682026599.354756,-0.05003822636631894,-0.8944946554048637,9.734435027891985,-0.0006800753278999952,0.001599011049656181,-0.0010083647340647
1682026599.3646824,-0.19103786891160052,-0.9643317109120747,9.776277756760864,0.00016855159070529205,0.00040467871261480555,-0.0017698285065702
1682026599.3752122,-0.1121605874452713,-0.7451823602949933,9.803990719153603,-0.001867309083923246,3.324254257437254e-05,0.0004299369046353
1682026599.3846898,-0.10882004197559798,-0.9446649069844228,9.757303150372897,-0.0012694065853047988,0.00041248403665189394,-0.0005878062348924
1682026599.3946977,-0.12688755728614626,-1.0452899215910956,9.730025136316431,0.0015510019906942705,0.000513805447139161,-0.0011816307798139
1682026599.4046962,-0.15518940777634055,-0.8501462465742871,9.811937456713427,0.0006453745979705676,-0.0002290078507621602,-0.001372360520821
1682026599.4146924,-0.10894164167169816,-0.7696773981845054,9.809809697030126,-0.0015696838077854242,-0.00039032822818350536,-0.0008597566176317
1682026599.4247334,-0.11577810811033008,-1.023426521670483,9.72561720922302,0.0023340670072927285,-0.000858205483154234,0.0008672920392714
1682026599.4346526,-0.13675297556233298,-0.6830918659688126,9.848522449233618,-0.0024853393458749845,-0.0008869042877485438,0.0003759210102148
1682026599.4447188,-0.035849277925936604,-0.9917131388657805,9.67814313236307,-0.0012030849333753999,0.0015848409858142804,-0.0013287555322162
1682026599.4547164,-0.17958572452681196,-0.9806955753010714,9.773188084366836,-0.0001566629313448835,0.0009299347013187185,-0.0029745939083508
1682026599.464774,-0.17275475819769467,-0.7433379351800461,9.84923479183159,-0.0007873527098687622,-0.0016718127726303008,0.0016332154572014
1682026599.4748664,-0.06517589428112394,-0.9596394902596889,9.709754000052355,-0.00033511001515645515,0.00015245799342912092,-0.0003397039964906
1682026599.4847825,-0.09316421377968202,-1.0162574385799057,9.711978628572856,0.002022983039719897,0.0008498660687312385,-0.0005650719523541
1682026599.494686,-0.07095244895155027,-0.6982582648511326,9.80841257724473,-0.0013729945794539486,0.001458552495333533,0.0004430021962039
1682026599.5046947,-0.15433971467957108,-0.966672560379091,9.761532567463881,0.00042222329248815056,0.0006974664812882751,0.0004399703919776
1682026599.5146894,-0.21077581689148864,-0.8957490759264641,9.815646731396669,0.00033321202973759297,-0.0011484018846663023,0.000109951348219
1682026599.524698,-0.08951370711578333,-0.9318017032943754,9.749108249796745,0.0007683347611067199,-0.0005255204923841704,-0.0004696991656087
1682026599.535421,-0.08839825052062558,-0.8328443584530358,9.783491946026105,0.00023300397413955276,-0.00041825113105000496,0.0010386535303555
1682026599.5447056,-0.10650215293003858,-0.8785278328347862,9.764820094016304,-0.0008409970687127841,0.00042998402616017614,-0.0005080941029004
1682026599.5574515,-0.11086274800273163,-0.9929084052496081,9.726302870749187,0.0017555049624557808,0.0009020059189555263,-0.0010270298354439
1682026599.564845,-0.1358934359760693,-0.8960129214215395,9.7716852473332,0.002462577419194151,0.0002810063262621943,0.0001725233031325
1682026599.5746655,-0.20050619415476734,-0.7949184759598271,9.838831642315238,0.0011501676442108022,-0.001819313469204884,0.0015978266036259
1682026599.584705,-0.08088526965017259,-0.8589981285293253,9.75818450578166,-0.0001287188920943689,-0.00045065548083752496,0.0001594958465434
1682026599.594771,-0.034607794039033274,-0.9593930381819894,9.703937073905536,0.001726100590769451,0.0011489772208947552,0.0009451549138762
1682026599.6046891,-0.2555995701266753,-0.8451050979197312,9.861350417710108,-0.0004952955531796946,-0.001019149024475613,-0.0017750557873509
1682026599.6147292,-0.1098077828646688,-0.8506264590328049,9.774765027649464,-0.0010391834839335657,-0.0009588029767868621,-0.0012937494449428
1682026599.6247077,-0.05748812057686532,-0.958692072619351,9.710815680481215,0.0019157167917291254,-0.0005516257955139167,0.0013072525779139
1682026599.6346924,-0.1335963814189275,-0.8263245363824867,9.796236875679192,0.00020245260977046702,-0.0007594952540416951,0.0007123082049079
1682026599.6451004,-0.016432672760534475,-0.886477575099778,9.704616925327905,0.00034177848496556564,0.0014272534312597244,0.0007614877411984
1682026599.6547658,-0.09853353238316163,-0.8545941585647642,9.760025560619392,-0.0007840409900311088,0.002355236089630624,-0.0004142032832018
1682026599.6646938,-0.20900902660252804,-0.7216769245792007,9.869121777264668,-0.003161489998810843,-0.00010235971228555302,0.0014965044846181
1682026599.674824,-0.11633081031910679,-0.9928994970983048,9.73645946222015,-0.0017957946106599886,0.0005093420502394434,-0.0002499142557494
1682026599.684679,-0.14568153413770607,-0.9620766360696561,9.742321280163704,-0.0005221264223408774,0.0003808208192591956,-0.0006395882357023
1682026599.694731,-0.22931136417088166,-1.0587300318030577,9.769329606405208,0.0029174394698472787,-0.001967967664018129,-0.0006314063340536
1682026599.704816,-0.03448408121114989,-0.7427111397935668,9.773138487079311,-0.0008629692952936777,0.00025676728220149007,-0.0017262542516104
1682026599.7146814,-0.06869479531679105,-0.8065823668044682,9.763569745897152,-0.0012463150950017463,0.0004720899068560467,0.0006463834887258
1682026599.724742,-0.11524979558429083,-0.9566559694457827,9.751727707620628,-0.0021757736809905046,0.001709669390139587,-0.0032934554748348
1682026599.7346764,-0.03419497432160325,-0.7574152010945406,9.769375511950567,-0.0009836818088550193,0.0009694217480669053,0.0039495933905132
1682026599.7446928,-0.07480270425941093,-1.114815674258089,9.664516603100147,0.001992090218012294,0.00301348269431048,0.0007342977786325
1682026599.754697,-0.19611414859782045,-0.8280130858283042,9.8252650540811,0.0007411445031702879,0.001428366257336818,0.0005372305039204
1682026599.7646687,-0.2269553549357675,-0.849718476525249,9.848404048958447,-0.0004450077866220084,-0.0006078817315243607,-0.0001955335157103
1682026599.774668,0.008653652003602477,-0.8936947381427406,9.701064443870791,0.0013453550099184147,0.0009575111903717939,0.0030674507014341
1682026599.7847066,-0.19469363182007918,-0.7642211514133326,9.859927972871168,-0.0023128748681714552,9.655313450942562e-05,0.0007972620531805
1682026599.7946784,-0.09833583521527332,-1.0547626090347344,9.704614678330985,-0.00014845574222529227,0.0013590918907718428,-0.0020067553397379
1682026599.804665,-0.07812952140183395,-0.8315049123073166,9.765843994999997,0.0010793917494094296,0.00047544208750790323,0.002432656810794
1682026599.814667,-0.19682272678026166,-0.9783785024545947,9.763110078168745,0.0006301220891660035,0.0005629929007559266,-0.0018000063847861
1682026599.8247097,-0.23223423774876312,-0.8165489957494412,9.856795840626448,-0.0008607419765155815,-0.001945994879039875,-0.0014092313487194
1682026599.834702,0.04057615459410424,-0.8751989501731023,9.678680025608765,-0.00017902396889441822,0.000989158608655006,0.0002742175582684
1682026599.844695,-0.048167593735926315,-0.8456889578458596,9.733996337026632,-0.00022226680957621595,0.0021812632637810427,0.0015627912378991
1682026599.8547175,-0.19198621973997834,-0.8289288875397451,9.830169201269458,-0.0016978297698311486,0.0007254047237273059,0.0012267851724177
1682026599.8647711,-0.162505435306206,-0.9609313392820248,9.769622459313476,0.00011563783648913415,-0.0003109548164077122,0.0016160695102885
1682026599.8747318,-0.2529282118037481,-0.8783619541117038,9.862054132172615,0.0003101280085905696,-0.00350726140905933,0.0021804510487132
1682026599.884719,0.02733412257426141,-0.8810205569959204,9.678227440743234,-0.000641693428281128,0.0003264377828777176,0.0004187843168042
1682026599.8947134,-0.23432419819856176,-0.9849282862847396,9.794575147856435,0.0007865789092594107,-0.001755630072498816,-0.0005587473407499
1682026599.9047196,0.023388092602739836,-0.8951385989707785,9.686295820594705,0.0008148850211550773,0.0012868270749217053,-0.0007286052115373
1682026599.9157343,-0.1809136663491506,-0.8891779506035031,9.802279994605259,0.0009262702722688507,-0.00011798775013487503,-0.0005855715263746
1682026599.9247537,0.039777149958981455,-0.8365682776236797,9.702291716107903,-6.80427957235946e-05,0.002808989523821222,-0.0004357927374653
1682026599.9347136,-0.1668430719282386,-0.8581140686432771,9.80446424845762,0.0003510900434302635,0.0010465348410614406,0.0017922819150558
1682026599.9447532,-0.1652785526663142,-0.7921002540234593,9.82719843736788,-0.0021873204524746927,0.000306318743620351,0.0007212743965797
1682026599.954703,-0.11377266264754562,-1.0798094141776378,9.695988375991654,0.0008782350738737093,0.0010319701219903615,-0.0012006418675295
1682026599.9647784,-0.11842464159867847,-0.7348457575750575,9.82720214795396,-0.001107731098811602,2.9530676585825143e-05,0.0012111528647952
1682026599.974882,-0.20192014178536632,-1.002748149045508,9.782396715437937,0.0006044180388234298,-0.0012747060266210491,0.0001069584267102
1682026599.9847248,-0.009928455554051844,-0.807976123479215,9.744138902300348,-0.0016207110225854124,0.0012082188491962264,-0.0008083208359889
1682026599.994729,-0.3055325146902298,-1.0285657653005629,9.819086671096818,0.0019466413944785406,-0.003022210066893405,7.861398048957576e-07
1682026600.0047455,0.06317629485855505,-0.8323859543961585,9.681525931210864,0.0015308972385823002,0.00044824610530236515,0.0015199726056894
1682026600.014838,-0.20583531536931257,-0.9403461773000181,9.79477104088225,0.0020170415451594057,-0.001034403475132485,0.0005256852472089
1682026600.0248497,-0.09976860062330657,-0.8754009902676798,9.762533809784511,0.0009147277447451339,-0.00018131736659213126,-0.0010508537653945
1682026600.034714,-0.12955565453418952,-0.9693944921028372,9.749312306317027,0.002679036608012698,-0.0005206805774345341,-0.0008843218803517
1682026600.0447452,-0.09738735010841366,-0.7987903284079775,9.810536232464472,0.0018728780545643612,-0.0009047755132438958,0.0005763502430059
1682026600.054875,-0.18587158959425495,-0.7690249644624371,9.858839160835956,-0.0009039512425479156,-0.0023427418520150394,9.91411378495654e-05
1682026600.0647657,-0.01557024386065345,-1.0049443479487268,9.667269578424873,0.0010372796583869824,4.144565598741446e-05,-0.0004205532733462
1682026600.074896,-0.0042875741492641156,-0.7060937901108871,9.762518180067772,-0.0022223554479186237,0.0021190325698656268,0.0009227968274504
1682026600.085198,-0.3019418887027328,-0.9211391259755728,9.859652604189066,-0.0010443984025773376,-0.0020447146552605403,0.001577707314806
1682026600.096529,0.06601565442351552,-0.9323961667918089,9.652177514432136,-0.0011636347103005055,0.0028752655845763328,-0.0005297084700427
1682026600.1293292,-0.19058969760216884,-0.9010483821249873,9.799046121245224,-0.0014985218244047804,-0.0015872431776330067,-0.0019281605620048
1682026600.1311514,0.7520057700164053,-0.8892280713968126,9.306946108150326,-0.000386155702733982,0.00105696556019449,3.507499228047931e-05
1682026600.1339946,-0.04440220403116692,-0.7292160222947354,9.7584456746615,-0.0014672285012976027,0.001654873879851751,-0.000126974553626
1682026600.1426558,-0.34591491429919474,-0.848599061084889,9.905986937480034,-0.0013710958723982091,-0.0028855166075445722,0.00112620530295
1682026600.1488523,0.17425801543762093,-0.893262959353659,9.623024192167714,-0.0018665786272162393,0.0011705804247257277,8.684605005013549e-05
1682026600.1547616,-0.06868867654606088,-0.81581745037083,9.772417059010417,-0.002507712850104395,0.001479399934057285,0.0007689502543658
1682026600.1647522,-0.17581205879072892,-0.8669932145899618,9.80448106011689,-0.0026041790177309364,3.474281053669721e-05,0.0015371144416863
1682026600.1748192,-0.23939152050014204,-1.090541797467326,9.763531534556854,0.001021650856221005,-0.0020473191151982235,0.000446340289142
1682026600.1847374,0.06457508808500394,-0.8843307989588401,9.668002311258403,0.0012019192892620215,0.001723434918900926,0.0006739598337449
1682026600.1948102,-0.2577513007057718,-0.8619119499966172,9.858182582530391,0.0006077646079969461,-0.0013979967120597615,0.0002190926914923
1682026600.2047114,0.031987713363364645,-0.9411119773234989,9.660979533663248,0.0007373479565480672,0.0023973494113228525,-0.0013697409432492
1682026600.21474,-0.2033441327435878,-0.8226594813742244,9.832514376135126,0.00023748816142775815,-0.00010569320951201092,0.0003789228957034
1682026600.2248032,-0.016415187033521534,-0.8851735642286437,9.717903411474605,-0.00032095201600234105,0.0024211665748586305,-4.129532148313916e-05
1682026600.23479,-0.2502708917521792,-1.0131972272758794,9.798473823511761,0.0006878651396481332,0.0007373014825237097,-0.002576005075883
1682026600.2448175,-0.20433918662399508,-0.9078246824859559,9.813041944428962,0.0020941534850810782,-0.0018469004205483887,-0.0005110748008005
1682026600.2548835,-0.06026790128114556,-0.8072701121141139,9.770232129422057,0.00046733850243834606,-0.00078109518127767,-0.0001489621482901
1682026600.2648368,-0.06793358382215985,-0.8645858507804357,9.752379728311276,-0.00034256048906837315,0.0003096729076654729,-0.0009539992444328
1682026600.2748742,-0.05805699202365969,-0.929555072525026,9.723267956109,0.0007158223813645359,0.0013568585443711422,-0.0003232808213792
1682026600.2847283,-0.17604296220542934,-0.9640911791088979,9.768640464115766,0.0018237011834478384,0.0005037574330214202,-0.0012874152872822
1682026600.2947164,-0.01447751829837007,-0.8615510079833802,9.723716119592078,0.0014779808275964023,0.0021376790850809652,-0.0003695070173702
1682026600.304745,-0.20364771783111904,-0.7366421777338867,9.863315187277987,-0.002313975112448695,0.0006680317554886116,-0.0015176487051062
1682026600.314891,-0.1396215319803278,-0.9275969206890324,9.776164810741063,-0.001105121279523947,-3.3072121462726946e-05,-0.0008813600417338
1682026600.3254232,-0.20734073374368353,-0.8525991907614693,9.845765162506698,-0.00039059913435915346,-0.003076240661710107,0.0017803723766124
1682026600.3352532,0.03843464201655199,-0.9277672026597829,9.664901479228948,-0.0009520007696997841,0.0011668643134303827,-0.000772561075922
1682026600.347022,-0.12178596292919805,-0.979318382902791,9.726135510180912,0.0015874911741503676,0.0009657104983567768,0.0002447910245396
1682026600.356153,-0.10779626218734409,-0.7994796212432506,9.796216805058034,0.00013763451000424983,0.000918011759340563,0.0005137685092054
1682026600.365319,-0.09389232041210417,-0.926273995071078,9.742805533655295,0.00025350514777490007,0.001567319222797691,-0.0003039426066092
1682026600.3748963,-0.19887490289249096,-0.887490138816098,9.809581136936089,-0.0007664991415781305,0.0005749192040463255,-0.0020823822252563
1682026600.3847413,-0.057235546010118904,-0.8050716493980015,9.764155937222455,-0.0003176296609064554,0.0005648595502188625,0.002201699347876
1682026600.3947766,-0.14193651824265702,-0.9207073049231365,9.77582004278567,-0.0013185885082309088,0.001081560712079901,-0.0005326416704915
1682026600.404769,-0.15911206263343325,-1.0464211512927861,9.722058217501761,0.0022621692183005617,0.00025193619010883554,-0.000125480246555
1682026600.4148626,-0.10759807290420076,-0.7045840586995556,9.827739289728216,-0.0016385898110594652,0.00020460999569092225,0.0001971112668402
1682026600.426474,-0.0691928275531696,-0.8566521401326735,9.761266367965899,-0.0021224970479057355,0.0012361499771505495,0.0007816119340136
1682026600.4347775,-0.11967276186175364,-0.9278325365880431,9.760321791916143,-0.0013144805625137305,0.0011370566053876992,0.0013359368766546
1682026600.4447536,-0.2535711067092064,-0.9998230226391658,9.799145835053224,-0.00026024531411806884,-0.0008734698758888847,-0.0009666652314476
1682026600.455501,-0.09521663107387597,-0.8193356242663445,9.794741967377046,-0.0006886325866816557,-0.001360377281288593,0.0013281169393454
1682026600.4647577,-0.08796273582022304,-0.8285836059241452,9.759569426301299,-0.0026548423488724888,-0.00019774139914455614,-0.0002763896610699
1682026600.4748578,-0.11809796337276543,-1.0356655462945337,9.718090883222981,0.0012395784685943787,-0.0006406463117726832,0.000893750273332
1682026600.4848049,-0.13867672652409394,-0.9022174072452931,9.762732447223577,9.254993861365067e-05,1.9507708462276987e-05,-0.0016964300431422
1682026600.494763,-0.09257696810253799,-0.7169714177632344,9.81840402133365,-0.001790207324284117,-0.0006279892958890947,0.0012957181478273
1682026600.504809,-0.04263054474385397,-1.044924606569797,9.676644084542579,0.0009184463030373689,0.0014343372040182853,0.0002533601235486
1682026600.514897,-0.2832639851110526,-0.8666848741282019,9.856917401733782,-5.458321028435791e-05,-0.0016859576762766856,-0.0007472451672069
1682026600.525417,0.04639821724423026,-0.6950022055279262,9.763522496634812,-0.0033760403385435472,0.001274527385383503,0.0004143068671115
1682026600.5364597,-0.1354735340591217,-0.8910761459677486,9.780539718881471,-0.0028120494383286274,0.0006628220123051457,0.0015508596278382
1682026600.5453408,-0.13673743829134113,-1.1351664850864354,9.680680840095693,0.0005738425803086452,0.0010148609185618872,-0.000393369364377
1682026600.554827,-0.26195247344526,-0.8736307982868321,9.84846052642286,-0.00035335732190410135,-0.0014851787388787119,-0.001491186803963
1682026600.5651095,-0.12155854661583067,-0.9205176998783329,9.762934547333206,-0.0003563132612040793,-0.0010541365821568444,-0.0030818785436562
1682026600.5760417,-0.06794954599958114,-0.8807555756357168,9.745152246362236,0.0010339401399360574,-0.0009129626678880121,0.0001978651724644
1682026600.584808,-0.22218547061012792,-0.7271840694247683,9.870165179018402,-0.0013420436758325594,-0.0030267041596492568,0.0015784496371057
1682026600.5950098,0.01284294225987641,-0.8771051038285033,9.70387402243913,-0.0024965339827495107,0.00030631932007828304,-0.0002815694443993
1682026600.6101174,-0.16106201765343525,-0.8878499953099114,9.799286628793766,-0.0021631128905094665,-0.001201695061318019,0.0003528356190659
1682026600.6150737,-0.2046593468493473,-1.081961326446588,9.755091573737396,-0.0007847506257375558,-0.0017478186413243044,-0.000860124257218
1682026600.624848,0.10641085080583959,-0.7975631484246799,9.689403414502053,-0.0019492760434141488,0.0022408572721857763,0.0007074854673706
1682026600.6347785,-0.2019162891984158,-0.8663445932819195,9.817326506297217,-0.001954850103836427,0.00039013955637019055,0.0014834692282025
1682026600.6447814,-0.12440300686943477,-1.065471779419385,9.714622035391383,0.0009359650639608881,0.0006442022468768088,1.01073982082566e-05
1682026600.6548786,-0.09104223205935914,-0.8659732017572188,9.759017089877073,0.00013053690056731655,0.0014883692848561272,-0.000639567513775
1682026600.6772602,-0.07983469392579882,-0.859342548202384,9.759655763448633,-0.0009278091581207767,0.002880493258310629,-4.614937474203503e-05
1682026600.6790495,-1.073051851793626,-0.7721278113613557,10.328799413159862,-0.0022446877224511523,-0.0001720134559611352,-0.0016506280645839
1682026600.6848369,0.03595210935126618,-0.9754514127435717,9.657219052116936,-0.0005828256851939507,0.0013765884266641571,-0.0007215446222685
1682026600.694775,-0.01484547186521571,-0.8638051090457595,9.719585283252535,-0.0014139416920715036,0.0038393863477546755,-0.0011875735491625
1682026600.7048793,-0.213780865094136,-0.6803325679716238,9.891968713565578,-0.004530554592527162,0.0010081090219276245,0.0011295723833032
1682026600.714758,-0.19958520801569235,-1.0745780372987697,9.754890400405309,-0.0009058147224037709,-0.0005091550779960947,0.0002906166354082
1682026600.724789,-0.07987834034518779,-0.9007122773926463,9.724548308797468,-0.0010034383262035546,0.0006717677411640645,3.357800765710676e-05
1682026600.7347736,-0.15689300348610094,-1.0691917099513,9.723732926931767,0.0018087954253933898,0.0003934981138585645,-0.0018350273732207
1682026600.744789,-0.054931783975975895,-0.7349328146484755,9.783729324351954,-6.83662752899584e-05,0.0009299258552267237,0.0004828313702605
1682026600.754781,-0.08069350620105342,-0.9815626313243124,9.715994614631809,0.0009739619076393808,0.0022497931531217986,-0.0009413376812003
1682026600.7753186,-0.12537756944521686,-0.8244736302017667,9.795135959906334,-0.0007732154963299129,0.0015915397328068544,0.0010595308720954
1682026600.7762926,-1.9358912402131458,-2.174274440425682,10.317016763064553,-0.00037310807211026804,-0.0007326872640494516,-0.0030405403941981
1682026600.7855673,0.03082862523123187,-0.7296845241188005,9.727574110438422,-0.0007046653723351325,0.0005953905368098566,0.0023145840840302
1682026600.8002598,-0.1414487617705949,-1.0265872329548111,9.725545026646163,0.0013621260035871366,0.0014954270886604253,-0.0018078541744611
1682026600.8049605,-0.20376116217848178,-0.5299232497238324,9.938858060201895,-0.0015085632243291517,0.00014427740169923326,-0.0004290923372022
1682026600.8176684,-0.10442118122137856,-0.9946616242361512,9.739624966787199,0.000852141071396365,0.0007149820744519668,-0.0011533057678602
1682026600.8266497,-0.15248660055006857,-0.932739354200005,9.773967380642734,0.0020516796653506342,-0.00029679497279652575,-0.0001553053863458
1682026600.8348992,-0.17318989795948328,-0.668410847176671,9.86976055915642,-0.001418416461883577,-0.0015466416954912916,0.0005405910650156
1682026600.8448255,-0.20279964804689413,-1.1054245088938972,9.739692036063076,0.0013759348807803368,-0.0023367767346387713,-0.0027924253501109
1682026600.8548071,0.04674933150052234,-0.8119805274251534,9.70749546760646,0.0008771102851826485,0.0001923378816726776,-0.0002055720089114
1682026600.866077,-0.09019289814916749,-0.7756269199350161,9.790416121472735,-0.002127718396228986,0.001018575780396667,-0.0005844571989141
1682026600.8764188,0.03209157657397628,-0.9511218405969583,9.660621232628367,-9.911673882103996e-06,0.003926188871767607,0.0005041020793728
1682026600.8889897,-0.41581900770879093,-0.9522197255003042,9.901693314327732,0.0008279135467303309,-0.003108268405586206,-0.0012427362509183
1682026600.901334,0.0023336860407123785,-0.8270145776734726,9.723212483754015,-0.0008011448751080421,0.0003428384159592435,-0.0011450938310585
1682026600.9091957,-0.1380093996019826,-0.8214029658950894,9.818181934862814,-0.0014281048880318765,-0.00047413407852142403,-0.0003478949785344
1682026600.9167695,-0.08413035411578391,-0.794008596162305,9.775714870088375,-0.0023460220409458254,-0.000208523199600477,0.0010192913340293
1682026600.924812,-0.10877999794023521,-1.1321133547340105,9.67387655257984,0.0017723012184916846,-9.565029430071014e-05,0.0011459565010741
1682026600.9347632,-0.1571724868119275,-0.8161939179724725,9.824252382367497,0.00044236140171345184,-0.0011469114789092374,0.0013288510834686
1682026600.9447618,-0.225228721262693,-1.000478465990757,9.786899728546912,0.0007687108280587483,-0.0022097464561013727,-0.002263811313372
1682026600.9547946,0.12331878154756441,-0.8855203982236756,9.641358780429188,0.00248718055627337,0.0018016470739832817,0.0010263758466467
1682026600.964774,-0.26594966881756416,-0.9044980770293741,9.847107635391108,0.0021362652059858365,-0.0010102005297692102,-2.7508836995784403e-05
1682026600.9751852,-0.2070946783819232,-0.7220491164687445,9.88287981364475,-0.0014422515010995092,-0.003227867656955627,0.0002097774866856
1682026600.9848752,0.035559130982048805,-0.813963872049569,9.705139557403198,-0.0027260018159296798,-5.8775104908160954e-05,0.0006538166070245
1682026600.994774,-0.24294085088217823,-1.1345993689300076,9.75227525507548,0.0004665773852464965,-0.0013976172817253335,-0.0026113822952024
1682026601.0048072,0.038585496065983056,-0.825543285242108,9.704179990475199,-0.00018273352453745107,0.0015744110179275275,-0.0015139038570336
1682026601.0147767,-0.24309832492258251,-0.844120028174654,9.853758939858734,-0.0015752530859672374,-0.0009941974510989113,-0.0021323141537718
1682026601.0249872,-0.08832957759814687,-1.013158604443701,9.7165237106975,0.0021973489639809268,-0.001075384333167503,0.0001144149444885
1682026601.0348544,-0.114504604162971,-0.7197185078305645,9.824382856112447,-0.0021679225063079097,-0.0005311233207889055,-0.0013879955642036
1682026601.0447953,0.010497158946091134,-0.9817518828172613,9.673369782510553,0.0008227165212166257,0.0015468372245450097,0.0003021646860875
1682026601.0656867,-0.19591967001286614,-0.8546823960447427,9.827425456865376,-0.002100887334223061,-0.0012218076221030888,-0.001916617750015
1682026601.0748076,-0.12495718488607915,-1.020627971665517,9.72106230982539,0.0012161184368021543,-0.0016874660446211697,-0.0003933316458128
1682026601.084828,0.05502864336486713,-0.8663579996031474,9.683082136266123,-6.8990843461588436e-06,0.002480772053001894,-0.0014785108052305
1682026601.0978107,-0.24079712235139514,-0.9314343153885888,9.80699002102403,0.0022454102307379424,-0.0011253028045938918,6.674077472465837e-05
1682026601.1049588,0.16369912421370772,-0.7452647821507915,9.662136624412359,0.00015329631731767195,0.0031159246950977137,0.000311484198261
1682026601.114902,-0.31607106939989943,-0.7897771908121489,9.913710584834183,-0.002724511186380581,-0.000515485330581991,-0.0013544618979207
1682026601.1248322,-0.03280480358740836,-0.9505383688281482,9.703299888973646,9.180929596387259e-05,0.0005052424877488895,0.0009823911112621
1682026601.1349232,-0.2168976963967547,-0.8300059297737079,9.839876520018569,-0.0025665320398369383,-0.0009338251165865131,-0.0015064763266704
1682026601.145086,0.036283607691554115,-0.9983934462026322,9.644649318295592,0.0026294669021121393,0.0007310183447145072,0.0038669024232663
1682026601.1552415,-0.20674045467492036,-0.8493103016908192,9.83205068312713,0.0009218088075917949,-0.000789661444494437,0.0025343631731234
1682026601.164883,-0.05094921545752559,-0.9697748991034046,9.705643019816915,0.001489912691338635,0.001087888119681341,0.000704128747981
1682026601.174888,-0.25436600796030817,-0.7787282857858547,9.880115132269205,-0.0011747852289117847,-0.0017761209977519461,0.000385246925231
1682026601.1848812,-0.046405516078955024,-0.9176164737822782,9.7256088510686,-0.002131062641359425,0.00044153901449828047,-0.0022802063159756
1682026601.194899,-0.11630758221670615,-1.0704642074186828,9.709359012498252,0.002758387326185527,-0.00023459553424567107,-0.0005416021578125
1682026601.2048566,-0.09651516008613843,-0.5374923689831468,9.870165258937627,-0.003946408074937379,-6.138511525211152e-05,0.0003472444239892
1682026601.2148936,-0.15375693477341085,-1.0116221908897858,9.73564623808671,-0.0016657917100912384,-0.0003642435348832622,-0.0005095732759795
1682026601.22483,-0.07546710013185326,-0.8138021890049748,9.758762283115312,-0.002556468783957452,4.4066174603951314e-05,0.0012614242312852
1682026601.2360284,-0.16345413174960255,-1.082540896117684,9.722470981733515,0.0020312029901061648,-0.0009416525566862925,0.0014074657973256
1682026601.24489,-0.03174764369747278,-0.8248497390672191,9.747819406192098,3.333240467942201e-05,0.0011050133721378194,-6.440224946660197e-05
1682026601.254926,-0.1772044437013204,-0.8590842167270559,9.81741498839327,0.00034141305406814654,-0.000765083868483298,0.0016242635991662
1682026601.2648842,-0.11406320254345956,-0.9824956698196935,9.73713053665103,0.0015267866281291407,-0.00025917512458429947,0.0005267861869074
1682026601.2748375,-0.11667037334710408,-0.8124782239945999,9.79133874279804,-0.0013383312408053083,0.0005674589569689772,-0.0018126742344461
1682026601.2848015,-0.2109695621412731,-0.9944248491310105,9.780951693568296,0.001884792157373208,-0.0020175099351324717,-0.0002622240118793
1682026601.294791,-0.03898262808739135,-0.7768038009347333,9.76991579595538,-0.0010838853054710325,4.6307351891317614e-05,-0.0013626531127951
1682026601.3048592,-0.06183974644488065,-0.8868340488431994,9.73711819488827,0.0010626403916571894,-9.192164846147973e-05,0.0027880456635616
1682026601.3148272,-0.1306092839464302,-0.9763137274090332,9.744199140914798,0.0010726869664472902,0.0007231852832663318,-0.0007107273105643
1682026601.3248718,-0.2493194751742548,-0.8521447330878988,9.845675198023953,0.0005306589235958908,-0.0021970752363568323,-0.0001400236634649
1682026601.3348236,0.06031412574349211,-0.9271621290201203,9.662467482744978,0.0010354174665422357,0.0016254539871186438,-0.0003221792996041
1682026601.344879,-0.14433905600509273,-0.7742121959965026,9.81934881416918,-0.0011639612066730264,0.0009101784437240267,0.0001773661805205
1682026601.3559227,-0.13131087937291389,-0.7735411014580353,9.821182328499164,-0.002416795650337181,-0.0002666297669882091,0.0024043401807435
1682026601.3656764,-0.12470875444356243,-1.017004044973354,9.71663548781166,-0.00034592651759944647,-8.670415903629699e-05,0.0016853618452446
1682026601.3748465,-0.2690219115757861,-1.0561151873316308,9.786741624351553,0.0013964152135422046,-0.001929604342418036,-0.0011704360496364
1682026601.384808,-0.012877383694666993,-0.8378099384590015,9.725512026453979,0.0014284461123413891,-0.0001451828993901871,0.0006098813481517
1682026601.3947928,-0.19203171731281313,-0.8281730604500155,9.833810506382832,-9.514449673392754e-07,-0.0015041622323450406,0.000565554002475
1682026601.4048977,-0.06636584598015435,-0.9352938844611266,9.729874205165174,0.0007064853837195782,-3.827689985354945e-05,-0.0002476925857476
1682026601.4148135,-0.013697023884511694,-0.9145026030896817,9.709299846260128,0.001789058770157304,0.0017349618266198005,0.0008780794322379
1682026601.4248564,-0.04070371132309395,-0.8326973385158444,9.742767589410402,-0.00012982988105900465,0.0038628409233508526,-0.0003799497045688
1682026601.4348965,-0.178354810940521,-0.8213407628173996,9.827829485909458,-0.0020170881738583173,0.0028447424821068257,-0.0010899336904398
1682026601.4449184,-0.29566848952179287,-0.9169941924845701,9.855508964216474,-0.0007933134892343289,-0.001405083661995225,0.0003263809356726
1682026601.4548438,-0.06761368441820173,-1.0393807672042958,9.688162520120901,0.0005943546686499744,0.0006859522985723975,-0.0027577675774804
1682026601.4649117,-0.08144108092828797,-0.7198315039733706,9.80269821856354,-0.0015115668698901731,0.0007198154198997163,-0.0001638688974193
1682026601.474933,-0.16578975337860413,-0.9191865940944992,9.787958118282111,-5.01263614873186e-05,-0.0008760859855080858,0.0009149784908518
1682026601.4848423,-0.05295868260044376,-1.0506894463057246,9.673621145947084,0.0024394661599032594,0.0010797040811452046,-0.000897774834942
1682026601.4954543,-0.012725911055272817,-0.6347407911546015,9.804741414413858,-0.0021307324853239466,0.0024587769599098814,0.0014454758364595
1682026601.5057657,-0.3215696626950316,-1.0040595801162122,9.833184650077431,-0.0008029949380691435,-0.0011413210855679902,-0.0006082890451065
1682026601.5149305,0.020984997161632303,-0.8200207445012729,9.719767181855756,-0.0011699361193012894,0.0009697844696284694,0.001104587443348
1682026601.5249546,-0.20333810404259595,-0.9990310237001201,9.778497604168686,0.0004635943559045419,-0.00043127634593236736,-0.0002268139634392
1682026601.5348442,-0.0030334616753994277,-0.8451021908116424,9.72192952384168,-0.0011237182848898646,0.002344058386048381,-0.001084374625992
1682026601.5448964,-0.23764770538714053,-0.8802107266578012,9.838230618452718,9.36670676876491e-05,-0.0010362747165882735,0.0008967129850648
1682026601.5548904,-0.029490223138818276,-1.0890545934397993,9.65155328130703,0.0031234343404196257,0.0014335830959311335,-0.0007923623908422
1682026601.5648754,-0.27004570049628335,-0.7669771487078916,9.880249728149906,-0.0002844548937521761,-0.0013909025180410999,-0.0020198036346696
1682026601.5750165,-0.04967991876855787,-0.7653279644719302,9.771492433428948,-0.0014478572969024543,-0.0007088331240909409,0.000393806594599
1682026601.584816,-0.27627684100983013,-1.0979644186992714,9.778112393945136,0.0018967188320465535,-0.003305354730208604,-0.0014114667557291
1682026601.5949717,0.10051242469941833,-0.6535538699453756,9.734807740253023,-0.0017555563526337067,0.0005968846163842825,0.0012416716070734
1682026601.604866,-0.24934061934506224,-1.0783823858545956,9.769212615256885,0.0007888102129792054,-0.0013499564013490228,-0.0010307469766698
1682026601.6148536,-0.01598352137702142,-0.8070390692400198,9.736112781816027,-0.0008696976255947757,0.0007384563803351573,-0.0007390406809858
1682026601.626084,-0.1781725222074898,-0.8808154466538911,9.79654072739342,-0.0005899108987542031,-0.000870870614473106,0.0002779693912603
1682026601.6350276,0.09509202527419201,-0.9378566025210753,9.638803175160051,0.0012097897681771666,0.0026491504868442085,0.0017490590165439
1682026601.6456437,-0.3676453998191529,-0.9304623955087422,9.886255637715117,0.0008022423958522687,-0.0022086107502098428,-0.0005240958545468
1682026601.6548712,0.1184612040991888,-0.8071070999796786,9.67083246624416,-0.0007933282388001067,0.0022613289471420444,-0.0007215783827118
1682026601.6693704,-0.2513762017507537,-0.9724983996092437,9.75528506494016,-0.00039060666066795957,-0.0023677039802413842,0.0014774933969024
1682026601.6748097,-0.1799980528351848,-0.3299280218210215,9.999859692486524,-0.0008458212804610172,-0.007130575535105422,0.0109065320446975
1682026601.684853,0.6112209220909616,-0.21176862353226536,9.868191803580343,-0.008201155427386548,0.0007924692346346543,0.0177428132027276
1682026601.6948342,-0.0562754383495077,-1.2334754233951537,9.783970217133795,-0.0018959686095903368,-0.0015263270338684248,0.0195116257399209
1682026601.704815,-0.0674047813227187,-0.8275038787656757,9.516432732953598,-0.00045731944240277715,-0.0006816780187774047,0.0124738138273246
1682026601.7148924,-0.4045016715426951,-0.4345037103789633,9.938390726378634,-0.009099914017884757,-0.0038795009715141167,0.0068497798509784
1682026601.7248752,-0.008050139202076602,-1.2550410261082783,10.013621390319933,-0.007975674434705841,-0.005831106329437505,0.0050023492529876
1682026601.734908,0.39911435646373056,-1.054122309104566,9.667848418783226,-0.007173625956684344,-3.8649384708491485e-05,0.0074703605949767
1682026601.7452998,-0.008603690689351127,-0.8539107046947763,9.474753670296597,-0.004184788509763793,0.004340757900093706,0.015869439217437
1682026601.7548506,-0.8548987964514055,-0.6556836364946456,10.015833176538115,-0.007423843045468417,-0.004407028829479549,0.0179235587000735
1682026601.765017,-0.1135794836243584,-0.8016918072791878,9.873627062939956,-0.007355144072448569,-0.0040422326215008705,0.0161148641362674
1682026601.7748911,-0.02684242636933181,-0.807378484600989,9.675615966355267,-0.006748204255517918,-0.0028721390396380477,0.0110872430831082
1682026601.7848566,-0.1818541854410685,-1.0002952706190524,9.72065221067859,-0.007077487927639741,-0.002819242595621054,0.006364348913718
1682026601.795014,-0.018170471973583634,-0.9950618604763577,9.785845064617797,-0.006051594127128471,-0.003023009643771253,0.0065807351946719
1682026601.805051,0.40973799648852594,-1.2291786192845782,9.781095274401196,-0.00318388534524813,0.00027322155145680663,0.0088628368556387
1682026601.8148518,0.43510533603545115,-0.9724588328308993,9.455248376709573,0.0005827908798497362,0.007538120159249471,0.0140143135666735
1682026601.824939,-0.7637301982306396,-0.3696160590728052,9.995122880469783,-0.006641522887153536,-0.0015549786398034206,0.0158277355238683
1682026601.83494,-0.3230734016340638,-0.5263406797446872,10.192958936645436,-0.012671451286306161,-0.008462756756372595,0.0130231730744131
1682026601.8448715,0.3966086078558615,-1.0421352528316554,9.836671247980211,-0.00961077657825837,-0.0068636379716546,0.0143077574774511
1682026601.854848,0.4059599575060402,-0.7482988933948238,9.405854294490602,-0.007729438838004741,0.0001498162332048186,0.0150122238427289
1682026601.8649516,-0.16065555582903232,-0.6084921798420359,9.886633771362565,-0.012365896417293836,-0.002160225373831224,0.0114322655007131
1682026601.8748724,0.02796832569507,-0.674820526552954,10.025582948557002,-0.013271571104564865,-0.004339499944396204,0.0144191306188591
1682026601.8848472,0.10222962389753286,-0.856219876494363,9.891754892343899,-0.01575291772003921,-0.0034126428939100927,0.0136018820211179
1682026601.894886,-0.09674986130409088,-0.6547135040736032,9.737287022534954,-0.017343593431363387,-0.005153557460605554,0.0155580356821306
1682026601.9048443,0.04821959375260706,-0.8371961276213414,9.908006527401643,-0.018176172566088975,-0.006894795745694078,0.0168454950779564
1682026601.9148762,0.5144905624770078,-1.009806636691626,9.588306039639232,-0.015797068097188994,0.0008363364903739769,0.020481212633837
1682026601.9248843,-0.2264866319760738,-0.6796078156467904,9.854550988488038,-0.01794443721155865,-0.0019609914610452363,0.0198868667811043
1682026601.9349082,-0.2992190291712826,-0.6829983069091924,9.954108197463325,-0.023200465769401265,-0.004877291038307339,0.0173957502573617
1682026601.944862,0.1438877945632209,-1.1380754597313218,9.791873818412611,-0.01904726534813619,-0.0031209645486004077,0.0207781946390755
1682026601.9548843,0.08436533116911588,-0.8235801528449432,9.62805643132825,-0.018860655636597487,0.00015986034614986962,0.0201292285799868
1682026601.9648654,-0.2684824651361467,-0.7236737491158688,9.715735094839449,-0.022708218613186976,0.002015922709293861,0.0222011363237984
1682026601.9750504,-0.3261018033529531,-1.0160843702107079,9.945937275579507,-0.021766715997269585,-0.00034823074517133115,0.0270053731381781
1682026601.9848742,0.054818268922593394,-1.1648423873251235,9.507109116242914,-0.01778379298513373,0.007717031573841017,0.0322605880081542
1682026601.9948342,-0.617735689293358,-0.7867873166921805,9.601337066261895,-0.018483004242301135,0.008549044435585691,0.0439751992106326
1682026602.0048852,-0.9329920329018627,-1.0835255558222432,9.907358531909699,-0.018194009567035024,0.0023475460606844785,0.0487867208301909
1682026602.01495,-0.3143147833859686,-1.620012774844243,9.786757055865301,-0.012694853113391092,0.0033018338100149758,0.0441596420585997
1682026602.0249338,-1.4620706072743361,0.14869237552749953,9.447269635290631,-0.024532641528133007,-0.008095987300753667,0.0418389799177535
1682026602.0349474,-3.6867512722296536,1.3122494719741764,10.22957941316128,-0.06036176301367342,-0.055035700796565806,0.031357190209616
1682026602.0449884,1.4330210462641368,-1.8689857232735123,10.840318578004148,-0.052029672273398386,-0.04742293247768187,0.0249236194521077
1682026602.0551033,3.228529453264492,-3.7254601921225086,9.154982651806337,-0.010728679805199507,0.0013665206822215839,0.0294901566684134
1682026602.0649345,1.8028909829244772,-1.3402419790246947,8.090696448030501,0.008121731608556889,0.036416025245481314,0.0476523885607607
1682026602.0748885,-1.159215255924484,-0.29160798598486953,9.65018999366684,-0.0015455782510482147,0.02542085556787653,0.0561010414838679
1682026602.084876,-2.6725220663428093,0.641234503254031,9.859663886848868,-0.02028504267483992,-0.0033720898850045722,0.0526417071103938
1682026602.0953104,-5.160271161881121,2.5735065302944715,11.288299025010687,-0.07147003382679555,-0.07786107939572613,0.0315490575611479
1682026602.1050322,0.672823643732178,-0.4917097293115654,11.38407425151519,-0.08742649992453376,-0.08171739324301108,0.0143661216005571
1682026602.114891,3.349374339121847,-4.0835807674093845,9.30592313857368,-0.04809559097540843,-0.03185005188798066,0.014773963588465
1682026602.1253445,-1.7472194620302424,-6.6933628290934575,4.9430523411904375,0.005129636516781883,-0.021268422860272876,0.0139278430595882
1682026602.134927,-3.585382726596081,-5.379423708619462,6.724869075091292,0.05179098600389263,-0.0611061362595707,0.0199448192596324
1682026602.145038,-1.5424221321673353,-10.989379908298107,7.181464858739458,0.14938043532241096,-0.07841374366198238,0.0112975552782304
1682026602.155307,5.206133224507896,-7.521803621011151,8.98159582211136,0.23186740448635237,-0.015494480839346098,0.012527682456363
1682026602.1648788,5.317454808408205,8.681276199494635,11.516094509397695,0.12603209228420834,0.08880139266010859,-0.0179455926537625
1682026602.175073,-1.3278674759960079,0.41813544129831437,13.938552346626565,0.06176833212829708,0.12496737597874906,-0.0862533798337094
1682026602.1849115,-8.19674009761699,-3.084562201988356,12.71644126604659,0.09534427105307387,0.040067227455342184,-0.1183470761299244
1682026602.1949964,-2.4855178526228587,1.5373207653404308,9.285063435861158,0.0966652098771228,0.010844896225373586,-0.1310675268888585
1682026602.2050838,0.981141011303293,4.822020940622253,7.938184472312934,0.043260283775247974,0.03006490831181754,-0.0749364396453015
1682026602.2149076,0.7198812255386072,4.391321025769362,9.40502465277642,0.011648245245625707,0.019855640286431903,0.0089646271534152
1682026602.2249234,-1.9131176313049534,2.103217390019349,10.079080698520816,0.012340228454027335,-0.0076294188486554886,0.0753810951590426
1682026602.2349763,-4.306808118754831,4.635940634359684,12.918225707092606,-0.031892494578390225,-0.08950682044207203,0.1014285484433062
1682026602.270081,1.6530843065548182,1.51192803515939,11.130442709651625,-0.08324731296119672,-0.0844664601289229,0.1289607906818278
1682026602.2798676,-1.7464658740487224,0.4776234337827679,9.700694088301628,-0.09677815067218282,-0.1060986682015931,0.1344207400560267
1682026602.285143,-0.6978947417970484,-2.5213983791545056,10.63241918901482,-0.09478799247487485,-0.12718926728547575,0.1180546159028895
1682026602.288318,-0.9146028126609267,2.837916993913673,8.094342919556755,-0.11879534188493665,-0.1246816518267147,0.0947340304136164
1682026602.2914002,-1.5565569913578303,-2.7969898184940103,12.08638586619941,-0.13023085115537453,-0.1357082061792246,0.0721581081032641
1682026602.295715,4.44929258461822,-6.395739475852651,7.47329239841639,-0.08744738634128571,-0.1032600243881983,0.0593336509644873
1682026602.3048973,-0.14202354532706452,-2.102996671799195,9.609050620155086,-0.09368810573489206,-0.09995225138436324,0.0152104297757037
1682026602.3149085,4.303086846341112,-6.089698581282318,10.232183999585263,-0.047400294344986604,-0.05468823837832852,0.0287615234136469
1682026602.325014,4.143804037500081,-4.5536297705312085,8.987070753491654,0.0045567703684063,-0.012724810082289262,0.0533151911675818
1682026602.3349085,8.406782400085438,-0.9347855322860118,5.454041298376103,0.010337140134336977,0.07790335983258463,0.0948810005664713
1682026602.3459623,8.648831794506597,-0.25926746403272244,6.082575636339587,0.0528248850234534,0.20541153917268046,0.2109402293443568
1682026602.354965,-0.563186438243325,0.017648299330560367,10.431516729811873,0.04707513649088416,0.1778525117405031,0.2584094578504451
1682026602.365004,1.8161692786311148,4.551245366303383,10.358252623054579,0.021080589249041035,0.18787943412901326,0.2524401718854793
1682026602.374968,-1.8593636544121723,1.818176146369153,10.943858750419519,-0.01971913454546541,0.1569401640856773,0.2297333503246195
1682026602.3850017,-1.9855049865477588,-0.36677754181997557,11.289879576481122,-0.03665601423942877,0.1324059532828374,0.229014801430691
1682026602.3949597,-3.272868265431616,0.13178841581211143,11.467780869156039,-0.03181667825951822,0.060302581241984426,0.2116669291734584
1682026602.404977,-0.7860040449596393,-0.2239784983602495,10.58517274980016,-0.04971447356736639,0.06289249339981838,0.1810369515895732
1682026602.4149532,1.8326306500121345,0.9816904565276156,11.000723999957843,-0.09152488110317528,0.06824457407919214,0.1980704540490992
1682026602.4249468,-2.1509598257957947,-4.830246002242144,8.85849431146597,-0.04589979293007228,0.08038979717358159,0.2024457180976756
1682026602.4351878,-3.3696013236699045,-1.265868776489,11.246352932687564,-0.04554644480180961,0.007155698216202645,0.1724771881580241
1682026602.444999,6.1520538547097114,0.35699100248695587,6.497305407154487,-0.07076106015973041,0.11072108206506322,0.1936218166828044
1682026602.454924,-4.928000826153623,-5.789941114077351,10.357760976464746,-0.018100577233382594,0.08019050830568343,0.1967986101388819
1682026602.4650247,-3.8186069976383377,0.7835848543081324,10.81533990549486,-0.025076797053319503,0.009644046219278746,0.1716683233260997
1682026602.474939,3.212727096168389,2.922377754544309,7.510620238925481,-0.09392867607839843,0.0763874338947832,0.1548065865516551
1682026602.4849749,-0.4963377596806977,-7.026333473191302,9.974199918937378,-0.03629966020867002,0.10284506045431817,0.1726766551017649
1682026602.4949727,-7.219105967329117,-7.631359571872042,11.518114329311057,0.05653500673702521,0.005761836014973331,0.1274620020866282
1682026602.504955,-2.656168784960205,-3.5440293089562984,7.692306360402849,0.06250164675852735,0.007537793659496646,0.0584456870436556
1682026602.5150735,1.2167384841465514,3.6339784021161665,10.42356081788934,-0.004802658463587157,-0.009413215755802921,0.0491584526479132
1682026602.525058,11.950892373883065,-2.1219275820979946,4.786028093363708,0.010881275228824035,0.17911914850877453,0.1304687136888392
1682026602.5349228,-4.460408028344725,-6.261564497811942,11.85341188427561,0.07474973471368532,0.15203042254926966,0.1235482046484835
1682026602.5449486,-8.036844646966818,-2.31001279261532,12.566457204836722,0.10907863805779762,0.04418088218519657,0.064236229854811
1682026602.554974,-3.7218188374642525,5.896920876988756,11.126939048550284,-0.00014064348509134803,0.017842355955487603,0.0401659036159403
1682026602.5650055,-4.146281694023138,0.22168595925489828,11.287475912107778,-0.044259090857657904,-0.048217117672349125,0.0313371518731005
1682026602.5749464,2.2041028025801523,-3.3759886844651916,8.598453427567831,-0.006207363518645634,-0.03228995153476706,0.0244684597581513
1682026602.585042,1.9452368659157324,-0.8051923138739743,9.311607075087027,0.001696000544321628,-0.007299229445771365,0.0303015472471602
1682026602.5949142,-3.0830623475359533,2.970608503881876,9.042982487670212,-0.037444057101787186,-0.033748720269280066,0.0265731426060088
1682026602.6049008,1.391725738825174,-0.48316705808044613,12.269941405983923,-0.05087815801381488,-0.042165952489729666,0.0186214173316844
1682026602.6150188,1.1630794911991502,-3.6484932111962722,9.73980378966909,-0.015744783197471003,-0.012319168664909765,0.0084966664306707
1682026602.6249545,2.7602818072239033,-2.0420717126640833,8.581730271775225,0.006557879751483842,0.0161109929103401,0.0338945524871237
1682026602.6349902,-1.2937182023719134,-0.7221497758626014,8.864187522090466,0.005964478383406359,0.01729281174321025,0.055350123542536
1682026602.6450486,0.1387097292900664,-0.13082835105438234,10.597119148678134,-0.01573339254857005,0.004311009217141096,0.0613742346048243
1682026602.6555514,-3.6677530067922763,-0.6617188850291646,10.013870628090709,-0.024878423273608292,-0.021319691703345335,0.0419368060409911
1682026602.6655755,0.009093768545191198,-1.3339858765554597,10.677504964704907,-0.0229931428229731,-0.0376290635066626,0.0331316726386435
1682026602.6750348,3.3798849646731237,-1.580588853497755,8.651185936040886,-0.013600004026506858,0.02028598587844055,0.0433610143244155
1682026602.6849196,-0.9765410171314021,-3.7251935027618663,8.973203716143669,0.024068594580750426,0.016503986722567626,0.0374621996760256
1682026602.6949587,-2.1640753097312375,1.6858120670513037,9.303652024562934,0.002883811319880703,-0.004529647114214065,0.0428000526606925
1682026602.704986,-2.686984394444552,2.3533763242681762,11.218139251881208,-0.04852211440982908,-0.041659422241163126,0.0390833864092715
1682026602.7151208,1.0267583915848888,-2.5398751590199353,10.543113870498772,-0.037277282599686705,-0.02839930912889232,0.0326984400033839
1682026602.7265198,1.1959604619298694,-3.244576541498004,9.490927833812146,0.007741586267626691,-0.006067920209266459,0.0438703881680853
1682026602.7349672,1.2896915251418148,-0.2315738522987517,8.784180939538352,0.002142097353640821,0.01654837870247984,0.0633824715494998
1682026602.7449613,-0.4872320684666826,0.6233158502689323,9.66225268264685,-0.0034067865332217577,-0.0029457970318388445,0.0747435862302668
1682026602.754984,3.3890924183879365,2.749394262145568,7.820257662237666,-0.02270502975169006,0.023069046005686416,0.1290066415548213
1682026602.7649286,-0.32092279002821095,3.171778005234789,7.1749722180147755,-0.05708373291372461,0.039718862233617515,0.1643371159314997
1682026602.774963,-0.4747068644645978,-6.116381215212399,6.609818143817766,-0.014996943651344453,0.03099075658110601,0.2240330005168803
1682026602.7933598,-0.1344632668547598,-11.735326001438363,8.63207867291886,0.14972478290862976,0.03515732738681432,0.2296487862348445
1682026602.806582,1.532660826817582,-6.9916555754801575,10.345785747347026,0.26661610655018325,0.007411201382205178,0.2049986595392115
1682026602.8089411,34.7460752326617,27.01117367516286,5.79011236255039,0.14461266631450084,0.16059163796711262,0.1929782206296809
1682026602.8157046,1.0690512983667337,8.530075786884561,14.134727095161805,-0.009350990396563622,0.24432748517598069,0.0759811649203189
1682026602.8251035,-17.773640035857493,-8.626320059145964,13.80532335934358,0.026725048191379032,0.06095563469071332,-0.0185335440456978
1682026602.8353105,-9.1623071590767,-3.1380349508245913,9.15368632600322,0.07570550284365629,-0.07827948598757876,-0.0970388626575581
1682026602.8462682,5.192422435033717,4.985990452333453,7.627037194277969,0.007802159420430011,0.004837476610435335,-0.0671871131181828
1682026602.854919,1.399547025093847,2.9030920677163374,8.993281449565417,-0.02730369605168277,0.042140912668140906,-0.0284639367729536
1682026602.8649611,-2.176781551948927,-3.7849797954123043,11.920010682717749,0.02098126092526964,0.023267304534221964,0.0024220013163872
1682026602.8749192,-4.166947775913847,-0.4153326839561408,11.745742764550826,0.027220188384690015,-0.04459219445821503,0.0115992721274383
1682026602.8849475,3.7774912836396384,2.185390166493589,8.903357047046935,-0.008660168283376384,0.00949688307348797,0.0575902039289362
1682026602.89493,-1.741964822966989,-1.360103206962738,9.606941879330975,-0.008481716748763432,-0.01713318744488272,0.0726137260079272
1682026602.9049416,1.438751168735105,-2.4250186152804907,8.94189134083443,0.006169580476405346,0.003536503117142733,0.0654517063975222
1682026602.9149375,-1.4395565806999255,-1.6745622578608763,10.791204026285483,0.0152743091269069,-0.02768137701852446,0.0448187241434939
1682026602.9258006,2.4357474450622796,-0.20909345934331824,9.222915130100398,-0.001083673238640438,0.012861421463207337,0.0341031575679667
1682026602.944951,-2.074354234055056,0.17810879609389113,7.859432226803649,-0.005761518320003362,-0.014614131476182462,0.0007235748797543
1682026602.9549825,-1.6645240146043643,1.1255513645604338,11.336712272761156,-0.0327860971355291,-0.06127516104645976,0.003485052949924
1682026602.9650056,4.820606315362795,-0.9799392844929495,10.289463683804573,-0.02205524227633378,0.0020148841547092994,0.0086886315710731
1682026602.975201,2.063448867883258,-2.9172090071896593,9.904514656611234,0.0008697546172869939,0.03624130851316217,0.0244692476570494
1682026602.9850018,-2.4177704535122997,-2.0083884189954175,8.868463151914117,0.02047007631621681,0.014947463342551408,0.0307500833749659
1682026602.994962,-3.0854366415585925,2.091127946214365,9.575321321816428,-0.01721783778503135,-0.02519274766519971,0.0373056518018134
1682026603.0049658,-0.7406978646776976,1.1986565985648305,10.061776416733228,-0.04653078923857577,-0.03222597236759327,0.0333953933894522
1682026603.0150435,0.8500294770479631,-4.139004905638594,10.848806576583224,-0.020860929105330765,-0.012726663807135262,0.0218772148817666
1682026603.024973,0.832705590695687,-3.1794710896586698,9.459375071590287,0.022435740177443646,0.008805639254198243,0.0236609956353791
1682026603.0349555,-0.19246635035187365,-0.20073024107105533,8.940510981003953,0.006581716981601778,0.02259302230732785,0.0321144355565198
1682026603.0452363,-3.6249961961117037,-0.48930407541833004,9.20950570727838,-0.0018390768213606336,-0.012789724405211311,0.0252980688691027
1682026603.0551088,-1.2158199280968796,0.5734765990637167,10.771172585890826,-0.024332423000482384,-0.03512293389161818,0.0306934496492035
1682026603.0649562,1.4785054190649483,-1.9534713675326412,9.958680943782479,-0.006336653339988834,-0.00477813843273555,0.0309139421313889
1682026603.0749772,0.25914143759809855,-2.33593893983611,10.05234883820028,0.005902081160472424,0.0051872441968049895,0.0353857489406951
1682026603.085021,-0.8154509170874882,-1.1736621344120524,8.957190890371123,0.021982458972518597,0.002132969314924372,0.0486674780130274
1682026603.0949996,-2.7161170313823964,2.4820848095466936,9.610876998666328,-0.01630889191111012,-0.028421847373045084,0.0583250174403079
1682026603.104957,-1.1647789915161757,0.546716261411411,10.885271050446109,-0.03996415979856601,-0.047904520891709206,0.0567244613647349
1682026603.1149669,3.744566303149387,-0.8402786266784105,9.570705783169426,-0.023299337719939105,-0.027006285411722553,0.0492585549235232
1682026603.1249814,8.276859971399432,1.344222540516869,5.816165432799217,-0.003575652679538813,0.08554842326891485,0.1026079082965739
1682026603.1350176,0.12793178298496033,8.709732049049963,7.492856963784968,-0.08861805779736437,0.08447384623091823,0.1472905898570903
1682026603.1450622,3.501413357595086,3.8995735300398637,10.13663937697859,-0.1491434018037339,0.11580516517100146,0.1760926717996485
1682026603.1550703,-0.6722144867348879,-7.412032712942024,12.092822814773834,-0.08042530353660962,0.10732057418277466,0.1667606705903895
1682026603.16751,-2.564171771549126,-5.369487969414364,13.339888791318973,-0.015310779467899164,0.03858642150122893,0.1045727232575305
1682026603.17494,1.5447085388140087,0.651290594798325,10.060130353710125,-0.050570822654583056,0.06213120570318401,0.1050215164303668
1682026603.184981,-4.441335653929936,-1.5215446670870847,11.203353461481157,-0.08352942705905657,0.01299919861452298,0.1131475070595629
1682026603.1949434,-1.0152818886904411,-2.9602556668044704,10.212962879729483,-0.08205715476937626,-0.0039643515593057255,0.1081516394495852
1682026603.2049837,-3.250036726001475,-9.769437465234006,6.54288101767008,-0.005554612078487266,-0.01123964004019969,0.0660164157032855
1682026603.2150693,-1.7648596294385765,-3.7770783856103747,6.772101094598279,0.024036873408684805,-0.021277913156676372,0.0463832901894934
1682026603.2249763,-3.1327785489431625,-3.804936007854749,7.487589907403054,0.04305803543156875,-0.044864646240528314,0.0361230062425025
1682026603.2349849,3.0269379802831113,-5.426890399667212,12.193440031416227,0.08458987392310527,0.008476793065869908,-0.0013757414545975
1682026603.2449615,3.619228341408347,-1.0414864519563127,10.019116283787554,0.09582270355446787,0.11272207205554491,-0.0427678203106038
1682026603.2550056,-3.3211230458544776,-1.2782325294682702,9.492453875241962,0.0916906168177983,0.11635442029737089,-0.0711632272124402
1682026603.2649908,-7.24889511511854,1.4263732940511265,9.892739433756034,0.0738359271808349,0.023354357674133377,-0.0732355018973462
1682026603.2750502,-1.603797599450934,5.348282090060138,9.753622574259118,0.017524079481177193,-0.011018783636796448,-0.0306421866536251
1682026603.2850668,-1.2520506172015913,3.7875453795583165,11.3924105986495,-0.02193794920172279,-0.03044250447163047,-0.0004365629412345
1682026603.2950032,2.3187791143078695,0.21695885280412258,12.006130074223897,-0.01758389176071004,-0.026784900457222104,0.0379007296740897
1682026603.305317,0.4920629552930765,-0.8605767708721639,9.777020378884508,-0.0049017207953957675,-0.012881175370523626,0.0495098890840895
1682026603.3150213,1.1073702076446208,-0.6328131947127473,9.11345426879127,-0.003011955500297981,-0.011226324693440799,0.0742923567175753
1682026603.3251462,-0.5288950838392554,0.16952165645441403,9.100042134586493,-0.020265772401309036,-0.013654950553504174,0.0862929025769122
1682026603.335037,-1.9436917455901108,-1.7519921199410202,10.078750418838569,-0.02512966148060511,-0.0448447888461894,0.0600051717936881
