time,ax,ay,az,wx,wy,wz
1700842203.3246012,0.003262520876403585,-0.20357615955881145,9.7839594705094,0.0015153131062455513,-0.0010750702023928926,-8.332958633224734e-05
1700842203.3346033,0.1765210955608145,0.07953262405431258,9.799900775482055,-0.00011710998569142447,0.0007767705910343721,0.0011370691126011
1700842203.3448966,-0.03983252410175557,0.006814660554254621,9.875927659315357,-0.0013703007576445936,-0.0004894598381940276,-0.0010660648923567
1700842203.3546653,0.006497609571346954,-0.13334754186855358,9.805670117379071,0.0002595273915415906,-0.0011123237601653791,-0.0022421351978756
1700842203.3647137,-0.007106904610389628,0.061356609503067025,9.882238081088955,-0.0007470423233723775,-0.0029652819257367244,-0.0009803855437986
1700842203.37468,0.21385139222132127,-0.03897117516351153,9.73166689673536,0.0007765845199164924,-0.0003188334008491668,0.0008547009555422
1700842203.3846164,-0.031376064531577395,-0.09509209160671477,9.848424967818435,0.0007378285623086843,-0.0013216822341177111,-0.0019746682020104
1700842203.394637,0.10914377008817035,0.14791287688186058,9.84266131761643,-0.002387673918870655,-0.0004056419927701692,-0.001221786217784
1700842203.4046035,0.1560033713111181,-0.11586516404979233,9.718380901311095,0.001045536962965918,0.0012651622611508679,0.000671781423889
1700842203.4146802,-0.15810066852040067,-0.004428993831151879,9.959066259015891,0.0005184279265687332,-0.0031813494795455465,5.934682020772926e-05
1700842203.4246967,0.17546356836099145,0.08382727400414938,9.785413755127266,-0.0016333058360260562,-0.0005587472103629632,-0.0001280363877504
1700842203.434593,0.19732183747426646,-0.04075586720602478,9.723364960060778,-0.00021734007997304994,0.002071686587919576,0.001214911032448
1700842203.4446435,-0.030526768499959743,-0.17593481859874477,9.80550326613583,0.002293146708532703,0.0006899833108479298,-0.0004237981857932
1700842203.4546893,-5.599109020143082e-05,0.1042517431498051,9.896712704586204,-0.00020130372463619714,-0.0006891490599600354,0.0001029233161624
1700842203.4646533,0.05927440760517503,-0.002093668281118638,9.810220411125249,-0.0003607476952555262,-0.000450712859581589,0.0001576894200206
1700842203.4746623,0.11139134397308507,-0.12325886663789304,9.745491934551936,0.0015920433412944866,0.0010438803034720364,-0.0002897124733045
1700842203.4847026,-0.11941411369078277,0.0034249206457324546,9.91598993165656,0.0007765878513117577,-0.0023200680221226724,-0.0006968819881058
1700842203.4946232,0.18412374267689693,0.04902974119903468,9.77297864795685,9.710049724380207e-05,1.9086819025925256e-06,0.0006255910401613
1700842203.5046704,0.10932041347075515,-0.04389931413582984,9.775720840596598,0.0006335363057766078,0.0013176803104981139,6.839610150500457e-06
1700842203.514633,-0.01002290890030831,-0.06469500850118537,9.83354339586109,0.001451970485270035,0.0001520449686598953,-0.0001161177288941
1700842203.52471,0.07812439487763717,0.017486529722175546,9.817815466733654,0.0019295521153911202,-0.00019738948649089582,0.0019212584364958
1700842203.5346603,-0.13735865271873765,0.026613893368813504,9.933358413371858,-0.00016144105377199143,-0.0035017281119529616,-0.000486406811533
1700842203.544647,0.20638568373767638,-0.09206378595895656,9.72153900049355,0.0018487178126904132,-0.000575864177740509,2.4696963819160382e-05
1700842203.5546668,0.08686178671658196,0.04434192109072143,9.8209699964856,0.0010634465442046302,-0.00031995453409153104,0.0006967332800649
1700842203.5646095,0.04891724524028507,-0.02946537551002907,9.815622270945076,0.001678112350373955,-0.000761774427895577,0.0014492447725296
1700842203.5746377,0.07417992829517855,-0.05477484311740545,9.798462110098221,0.0010626886154766193,0.0005819517493353125,-0.0012813695585555
1700842203.5846632,0.06409128368804418,0.031314251695599406,9.84748181911568,0.0007199628466416962,0.0001404911338269561,-0.0003690575477867
1700842203.594707,-0.10026146517711705,-0.02811623848298277,9.911578605843559,0.0014259064173489878,-0.0035050912129677256,5.265608241636984e-05
1700842203.6046638,0.11143422462818764,0.1455970205862005,9.848602141648893,-0.001978268530729211,-0.0024020186804318386,-1.3740146733380151e-06
1700842203.614633,0.29760076450353246,-0.16475757385031453,9.645533264329968,0.002051771312183641,0.0018686512494274917,0.0021290886569567
1700842203.6247065,-0.09276729154084358,0.24016251794719043,9.98545743367113,-0.003837931228621274,-0.0009569987588425054,0.0014015838159047
1700842203.6346295,0.07882852814099872,-0.23696520003280372,9.726991643429072,0.0002557882877208579,-7.445923170852262e-05,0.0002917880837139
1700842203.6446264,-0.04300434460233521,0.024477299253651295,9.890572607964849,-0.0016828436303209032,-0.0015496665431049374,-0.0016311943410165
1700842203.6546242,0.21940952242312922,-0.10467585437443365,9.696290846555863,0.0008134481375792023,0.001433170142267821,-0.0004536349671162
1700842203.6646686,-0.00855673809494482,0.16044119683629968,9.905625916121762,-0.002750143082967698,-0.00012437701782175314,0.0003581043628309
1700842203.6748428,0.020735659296842523,-0.09535023586772919,9.80666669616503,-0.00035738984594422055,-0.0013179723356228877,0.001943973859752
1700842203.6846836,0.12213903486130104,-0.042748440288961714,9.778084567351536,-0.0011546030196491624,0.0007406350831953194,-0.0003713035485907
1700842203.6946366,0.08539098909434019,-0.04491088737450743,9.7904520530905,0.00013433984642806355,0.0010844779086266636,0.0011762036364324
1700842203.704663,0.03955036670448366,0.09197731005949879,9.87111903374197,-0.001900410573908936,0.0007234942076179453,0.0015807588705592
1700842203.714645,0.155288865056264,-0.18202623632248702,9.714532655028234,0.0017525953237631832,0.0026658737552816493,0.0015602484699137
1700842203.7246428,-0.12145240394948167,0.05563421276904851,9.934405032839578,-0.00025792565715292316,-0.0007271285448043514,0.0009444740779962
1700842203.734723,0.006479935796600439,-0.0077655365540522485,9.85355137507666,-0.0013077146579860562,-0.0011037589363891553,-0.0006208930509365
1700842203.7446885,0.12150907539830912,-0.06680072201543255,9.767745679313201,-0.0010290790934775976,0.0008803400889045205,-0.002368416252566
1700842203.7546897,0.014865844154873993,-0.03977655803251504,9.838706439174661,-0.00020653092744556535,-0.0004224039693754483,-0.0013994815172828
1700842203.7647474,0.03644483151128424,-0.01377769091811127,9.836414649898751,0.0006413565892579716,-0.001368252780693418,0.0001170864915274
1700842203.7747166,0.11932140052397991,-0.12286338519587021,9.745718336554619,0.002518147754342313,0.00041506074350994044,-0.0006372864237255
1700842203.7846873,-0.20332795351069524,0.1709591117574007,10.021109315317808,-0.0015699689025907317,-0.004775417333805869,-0.0010869046319476
1700842203.8028326,0.18644624646998578,-0.05044083250222485,9.73813359260319,0.0004629095574572398,-0.00023501089413125053,0.0001275263847582
1700842203.806218,0.0019355198683215391,0.1265715264523334,9.902576244158602,1.5505014817356833e-05,-0.00100242549172028,0.0010942318248361
1700842203.8149369,0.08382811199298087,0.026960167920510383,9.819733417229344,-0.001348324891382799,-0.00010575592687404225,7.014957999665968e-05
1700842203.8261745,0.08161524489080449,-0.11231200222293987,9.765138238775494,0.0009874402470856781,0.0004750222139134337,4.481853728969328e-05
1700842203.8351476,0.038726983131878306,0.13539393559327653,9.879000185925772,-0.0017942311989961155,7.045342835827752e-05,0.0001666121305697
1700842203.8447824,0.02013132267922157,-0.1731012607291047,9.790918889635094,0.0011044123054588942,-0.00046076620771600085,-0.0002114750906094
1700842203.8551054,0.022512463400632583,0.005363913858140594,9.852586795688108,5.7231608201659535e-05,-0.0011979982322214066,-0.0007639431506596
1700842203.8646936,0.268019995162051,0.08848796595389101,9.73112418401025,-0.0011073090331696286,0.002506418153558476,0.0012082206439026
1700842203.8747108,-0.010157113677722727,0.000806410687146659,9.876672519974461,-0.0006799980039030706,0.0004645872092111731,0.0022557782130115
1700842203.8846698,0.030227795115481435,-0.04895856844453159,9.822167983165727,-0.0008278968873599932,0.0005078053064846576,0.0004020764526011
1700842203.8947144,0.02304148757086164,-0.01679510882444159,9.82564090850495,-0.0007474359821353963,-0.00019031597741496346,0.0004158517321138
1700842203.904709,0.10443745857750672,-0.03312472068100224,9.787418199400006,-0.0011333623274847999,0.001216354245013378,-0.0009628792405329
1700842203.914694,-0.020869682445492387,-0.03414578924894178,9.856493277430882,-0.00016703545935152684,-0.0008057304737253268,-6.968876832679589e-06
1700842203.9246566,0.020734164600899347,-0.09849281238759754,9.800150315376824,0.0003746040986118505,-0.0006686484233775416,-0.0017023527408219
1700842203.9347017,0.07323854863814323,-0.04689581098166185,9.796651954103973,0.0006614771351265722,-0.00014745626631324486,-0.0022782681854642
1700842203.9447231,0.07746888611483561,0.04786063416117478,9.837860801321124,0.0009889204713083033,-0.0011056128678661235,0.0012581513500571
1700842203.954682,0.05013023381950892,-0.06258515483417283,9.801049829717643,0.0010317722448399088,-0.0005322988427075762,-0.0003035003547757
1700842203.9646778,0.0023565068795821896,0.21650646113965094,9.929852030028504,-0.003392384228467476,-0.0019918676509105768,0.0008748075114362
1700842203.9747438,0.10631437599196292,-0.19941119648245628,9.74137058378086,-0.00036446964571203947,-0.0007386823497278327,-0.0003731674743085
1700842203.984697,0.10605187495578564,0.05232825130396565,9.815212056696742,-0.0008066670559000892,-0.00040750090823700095,0.0012566468566455
1700842203.994678,-0.019427837482975177,-0.1950442626837649,9.794376870044957,0.0014352254985433497,-0.0009297790874131394,-0.0012176723331413
1700842204.0047593,0.04370902450334646,0.08904447986968553,9.85684637480453,0.0004189600598107268,-0.0018007567950798016,0.0008230282172825
1700842204.0147133,0.14364193992849045,0.029948539661649117,9.78522958381107,-0.0005324852076102781,7.976790678495676e-05,0.0005700890905154
1700842204.0247736,0.17292509538654705,0.004457926812475222,9.760133882138014,-0.00033766805785300836,0.002421479851774414,0.0011825535101615
1700842204.034691,-0.01120602791673928,-0.10496904382109108,9.827536246080452,0.0003962272784860848,0.001625763982428886,-0.0009651175579256
1700842204.0446975,-0.02874349709748279,0.11254808039385676,9.911512607861725,-0.0021287631144956977,-0.00044401738373683636,-0.000804924021495
1700842204.0548234,0.152755785008067,-0.14086103810304731,9.725821988208248,-2.771462876439687e-05,0.0020865870881483905,-0.0019735378092355
1700842204.0647173,-0.09664331066978146,0.10325233443347955,9.951490559501568,-0.0016839678580552935,-0.0017232765768313877,-0.0006126991585097
1700842204.0747404,0.14677289134292437,-0.0003594050996486184,9.776379737647641,-0.0013457150114080333,-0.0001802607945953537,0.0004817945727062
1700842204.0847156,0.04378654503176302,-0.054461459554837416,9.829739558269317,0.00043497452435742193,-0.0010419213615562102,0.0013535078968652
1700842204.0947351,0.025424075500754532,-0.0949230526552774,9.79264736496263,0.00033960131775054374,-0.0003791824006135444,-0.00142816229446
1700842204.1047382,0.08359170389657261,0.10427748348040852,9.854656736127682,-0.0013267112988246711,-0.0006474021358784407,0.0005689664948385
1700842204.114748,0.17958539513827,0.06686083625522621,9.796311259835338,-0.0010197532959592005,0.0005297809833391273,0.0040431731967054
1700842204.124715,-0.005111048717282848,-0.1785027249592093,9.793584417216556,0.0012366450657407778,0.00012000806486094698,0.0017458002902366
1700842204.134696,-0.03523429041422137,0.042336473719083584,9.895398956016487,-0.000562282945574583,-0.001521734107802543,0.0006769976815939
1700842204.144691,0.12641393871973083,0.08113135400596931,9.806122990096467,-0.00252216029952109,-1.4464896122001836e-06,0.0006367654631412
1700842204.1546843,-0.025942006051267785,-0.1309090472121023,9.809682104311355,0.00021444210966783353,-0.0015895355752022027,0.000609571593386
1700842204.1646757,0.09377941767738,-0.0059630914483702,9.819156404264833,-0.0007809519699927079,-0.0005788593042860147,-0.0002535701142824
1700842204.174718,0.10365568189744176,-0.0193523808005558,9.794563241845902,0.0009155317552402848,-0.0007427650145099938,0.0027404380151801
1700842204.184687,0.10305093235363122,-0.08993834918079381,9.776364366344765,0.0017481340813397662,0.0006381886879270026,0.0014075371790476
1700842204.1946826,-0.08102730466554492,-0.09088746662072544,9.86271523890206,0.002055851054615238,-0.0013216672406136782,-0.0008291366622052
1700842204.2047925,0.1876404231534549,0.16572831580899774,9.80986108925233,-0.0012007990072584935,0.0010043857465728467,0.0003055937476255
1700842204.2146986,0.03181237463415565,-0.1136822015745291,9.798653848408394,0.0005981474907464648,0.0004888012625347973,-4.311362236882814e-05
1700842204.2248724,0.053950225360049675,-0.049870377281906325,9.814172672091916,0.0014240349212334292,0.000488440936789152,-2.7443130520687186e-05
1700842204.2346897,0.004404671143846713,0.024928994088202504,9.866148672150286,0.00022486966430947805,-0.00018620812740570956,-0.0009751607077396
1700842204.244703,0.012625996107995172,0.050043516873360595,9.856257388000355,-0.0006233831840532426,-0.0012617076537757969,-1.5905440805063327e-05
1700842204.2546751,0.038346422401927115,-0.1412569774270119,9.785720539117545,0.0013547579360744966,-0.0011886882572536535,-0.0011938310573078
1700842204.2647154,0.19872894698309454,0.17228480590725326,9.80212214913588,-0.0010707985717149423,0.0007965146600550438,0.0020799364782669
1700842204.2747097,0.08227991059720297,-0.08186804326098786,9.783041690008362,0.0003902641702443897,0.001393676518365126,0.0020590880075268
1700842204.285438,-0.019317492855562224,0.0042755845624920215,9.869710092044434,-0.001166538313906154,0.0003412785764226382,-4.4968060237870295e-05
1700842204.294686,0.018099643097737143,-0.03945614190202214,9.841259439752172,-0.001078593804863546,-0.00012289282705984445,-0.0009610249772868
1700842204.3047028,0.05828190949922499,0.023360648405492637,9.83199402668411,-0.0018121287549859076,-0.00019999699045297262,-0.0008611647291309
1700842204.314764,0.035730400710238135,-0.18573001223862082,9.770301868423342,0.0013256984895510888,-0.0002785905430145999,-0.0016784892296619
1700842204.3246803,0.1316750043862737,0.021937860403990424,9.787413929557312,0.0008715830660134291,0.001159733522964711,-0.0010574882263518
1700842204.334652,-0.02838789876147875,0.12103736555502899,9.922063808955405,-0.0009757877480192279,-0.0014084829603008677,0.0008371835055094
1700842204.344724,0.09159501803935395,-0.20068265076062425,9.726047717503654,0.0022715360674375904,-1.2236063236129487e-05,-0.0006253735274277
1700842204.354713,-0.04489694407422252,0.014187129911005713,9.87391898371724,0.0013093052452864632,-0.0018186346908521678,-0.0011938450271464
1700842204.3647234,0.06679356804741347,0.06459525792260835,9.835849778055575,0.0006156580225614475,-0.002333103705580069,0.0004803011314742
1700842204.3747666,0.0977780464566436,-0.010989053183638766,9.795241111163323,0.0006141595889461096,-0.0014580223955463166,0.0005030274686668
1700842204.3847036,0.058160636875465105,-0.0802517941920161,9.802751348804737,0.0025002754539303275,-0.0017832412290144533,0.0012857218743101
1700842204.394703,0.041707254578387094,0.05731387884351304,9.851025193282268,-0.00014095431047749413,-0.0012877798259256538,-0.0007155142603642
1700842204.404701,0.1009662361639263,0.02368915941036953,9.80358640576346,-0.0004997026593939308,-0.000712976110045487,0.0002660952221867
1700842204.41471,0.056847883945861925,-0.11584583264227356,9.777663771604399,0.0012228774915543936,-0.0003817980045181141,-0.0008730968339569
1700842204.4247544,0.21319591002963756,0.1317336473515116,9.773684127102348,-0.00155099429477525,0.002961649313318597,-0.0003280717293001
1700842204.4347646,-0.18183650759720527,-0.014981575341022632,9.94337249273873,-0.002075498782779415,-0.0017217799463209481,-0.0011562176160715
1700842204.4447026,0.09548481500831653,-0.13603559818285615,9.761365671213134,0.0014426614874979194,-0.001441258573486376,0.0001968031346131
1700842204.4547062,0.1982594950958238,0.13593472287820893,9.79274032756159,-0.0006710677945308888,0.0010386640139597068,0.0020545985670559
1700842204.464753,-0.12807644177076039,-0.1174398392920671,9.888526092952773,0.00031764223179473096,-0.0023923267750427385,-2.55885762363232e-05
1700842204.474746,0.10948482414726794,-0.032715354873778926,9.767019588460755,-5.788131639824994e-05,-0.0006060482794417042,-0.0013365177083961
1700842204.4847963,0.11667754266570095,-0.13817784280992293,9.744428902476368,0.0031760458321879346,0.00043888804906674873,-0.0002830222593821
1700842204.4947538,-0.08741484049298837,0.11345965779372501,9.950128212579006,0.00020773421808849903,-0.002473537463877708,-0.0004282989185504
1700842204.5047526,0.13434726115892962,-0.020209540752371892,9.777876935571406,0.001398330761002479,-0.0016588138328394054,0.0018616457590632
1700842204.5147157,0.13984645129755105,0.062202866259420724,9.804894643747524,-0.00038197987097790044,0.0002526229401668025,0.0014794223014995
1700842204.5247264,0.027729146189015726,-0.03260514946232555,9.825330903664387,-0.0013978661231684281,0.0006374450605602674,-0.0009569130717046
1700842204.5347383,0.05728690184196913,-0.02217180626209598,9.817741913663271,3.227130277316821e-05,-0.00013891014096218944,0.0014682538229771
1700842204.544803,0.03413463251990367,-0.09041119282652563,9.799096989588147,0.0011375650030618872,-0.00017577908360253748,0.0001155989074413
1700842204.5547714,-0.005858195731027269,0.0384381661030346,9.878590933481833,-0.0005224168123200914,-0.001389116417700412,-0.0005106249237633
1700842204.564721,0.1833254289010367,-0.0023226178068858575,9.760871299839087,-0.00020056985729779796,0.0008080572201379189,0.0004300086064994
1700842204.5747716,-0.02828679238185438,-0.043315828473325484,9.854209597258235,-3.403569346539454e-05,-0.0008403757280279275,-0.0002934325249135
1700842204.5847342,0.12660011231208806,-0.1264247318702765,9.750673306446998,0.003416704111504212,0.00013712911404303998,0.0016627140929721
1700842204.5947464,0.10452264862697452,0.07272046322748489,9.82799830892271,0.001489961909097536,0.0011239721441924718,0.001656385523247
1700842204.6046982,-0.01905432491431546,0.04573109888133396,9.871831611029005,0.0004878594983576994,-0.0005140476441349244,0.0018717071860827
1700842204.6146982,-0.022774178976758895,0.0028107212813857857,9.861111216117735,-0.0018192084632319922,-0.000716323758007432,-0.0017969555566288
1700842204.624781,0.03602485828176844,-0.13659010271316432,9.793943130744674,0.0017015777909527169,-0.0018409868541800231,-0.0002733199736304
1700842204.6347144,0.14462464566105088,-0.019757241974654224,9.763747253349091,0.0022290786881753923,-0.00035834183807630614,0.0008263891276237
1700842204.644683,0.0648310014670506,0.11503663655685006,9.86083559615733,-0.0006636172370951239,-8.228291841528757e-05,0.0008379345298544
1700842204.6546872,0.0649460546705264,-0.014537189990790473,9.82061855800311,-0.0007396035870274649,1.755850165286093e-05,0.0005045181996046
1700842204.6647296,0.03020524397593966,-0.03088126334007694,9.829589476011884,-0.00018714684696220866,-0.0006190980815443427,0.000916537107414
1700842204.674762,0.06085452033071993,-0.17587976426636548,9.758131136809954,0.00255652877554836,-4.390469830165525e-05,-0.0002923210496283
1700842204.6847415,0.09500548825400824,0.2570459497393006,9.907453806788995,-0.0019398992001457686,-0.00029797339567576677,0.0014652663729884
1700842204.6947365,0.06143620256781037,-0.10949663987590665,9.774521707497964,0.00040964971593698477,-0.00032033811125572277,0.0021633908971943
1700842204.71621,0.06101809977507499,-0.07283759685779678,9.7995211310243,0.0006190073641954964,0.0010613809979010606,-0.0011718695396758
1700842204.7213514,0.1456745094804137,0.18707003461993513,9.84280542126739,-0.0001432009794397149,0.00114110670695816,0.0013587188212931
1700842204.731002,-0.018279247541465034,-0.10524860067944343,9.833134560432521,0.0008205427319955368,-6.291433901545952e-05,-5.860020892278035e-06
1700842204.7405982,-0.0015990463415510132,-0.0540737369851822,9.842040639120174,0.00148998271374883,-0.0012762298048187718,0.0001535812397286
1700842204.7467315,-0.0013419946280343207,0.06034764810569898,9.87434949103774,0.00012950309304234507,-0.0016949520609353817,-0.0003921618564255
1700842204.760898,0.11361569096850256,-0.0686236889036602,9.764843586434017,0.0017451484770322065,0.00029361446138732026,-0.0003984948499328
1700842204.7682416,0.22194519557055611,0.19688306602536443,9.810493111723373,-0.0015357120667545635,0.0027712884166030912,-0.0001447930927589
1700842204.7747712,-0.10849564591114443,-0.09231949463483671,9.88137736588369,0.00030272976882593305,0.0001557601080102731,0.001283854397925
1700842204.7849717,0.06707871793697834,-0.1611526433824092,9.769030719076568,0.002904835325021949,0.0008125455878545306,-0.000177578615976
1700842204.7948046,0.05394011200561373,0.1626177122764292,9.887196410323444,0.0002714396010220458,-0.00015156385179027884,0.0015628706086226
1700842204.8047705,0.14418432527650218,-0.0396718593627822,9.764765294176579,-4.150142660072215e-05,0.0022046720019369003,-0.0001600899496316
1700842204.8148828,-0.10112071604916817,-0.1024674849601435,9.86576781956267,0.00026510533874741176,-0.00013407572612325096,-0.0023278273521191
1700842204.8260818,0.04732138110100132,0.08085610404404737,9.857426946574053,-0.0010394906336414279,-0.0009864093683395086,0.0001010723998569
1700842204.8369317,0.059616542706034586,-0.06479570317254164,9.81030036338854,0.0003895333219964359,-0.0012632034057258,0.0006632116991476
1700842204.8450005,0.08342316620047659,-0.12861215410798624,9.780770829669832,0.001626700423867598,-0.000363166406909137,-0.0011740936543993
1700842204.854806,0.039126457575675094,0.14905192483126317,9.894307142713357,-0.0006259855553629862,-0.0015381233859209959,0.000594296589852
1700842204.8647282,0.1588930413811417,-0.05332182519496714,9.743844188147532,4.7145912333869945e-06,0.0008415907326696542,0.0004437818705718
1700842204.8747654,-0.035186325471276585,-0.06710713620653055,9.837628680187757,0.0010731187046095557,-0.0009878992917728366,0.0004791896125333
1700842204.8847528,0.15905573628139727,0.029624428040363356,9.77278376322037,-0.00015400863780739644,0.0014242261798260649,-6.657317236210473e-05
1700842204.8947282,-0.08435973830396168,-0.13563062941429005,9.854267338882405,0.0019276948561942446,-0.0011741737044031388,-0.0007483063610471
1700842204.904765,0.027244754785772155,-0.05712981527494844,9.810021404539507,0.0018204167768064371,-0.0010125054123087862,-0.0021341050388492
1700842204.9147267,0.1468461212976232,0.12917822357921546,9.813767528508833,5.014613358047976e-05,0.00012969032190952487,0.0001245531083349
1700842204.9258018,0.04834859349404372,0.0006902060325798527,9.827377391835462,0.0001872424448658498,-0.00041197211162670986,0.0015569191081248
1700842204.9347472,-0.023152588606525075,0.041505624483485624,9.878402244100034,-0.001175095594482931,-0.0015898983018696735,0.0008800206477553
1700842204.9448314,0.06476826421994505,-0.20945195311703174,9.727276193510724,0.001824885522456739,-0.0011104622580949133,0.001560630545
1700842204.954818,0.2661286573636203,0.17773465028717114,9.892755315694622,-0.00018603149292316251,-0.0005837049103660259,0.00483852011429
1700842204.964789,0.23100238946090132,0.006103754077679026,9.792635572593,0.0001730826681707471,0.0009943373949127025,0.0054774032095246
1700842204.9747462,-0.12918752860755037,-0.19388624466380666,9.816661222740807,0.0011330936770014074,-0.0007286224203096491,-0.0001354873175933
1700842204.9847374,0.29246718908884367,-0.0940005655491499,9.686249070697487,0.003190202030273029,0.004877935857221821,0.0030790913505278
1700842204.9947717,-0.41203177353475745,0.19499637721214388,9.922253188700067,-0.0005335567037254287,0.0017614065526809785,0.0066180721977524
1700842205.0047607,-0.29634412232169577,-0.07548058251723476,9.862665744505732,0.0015738081254485958,-0.0016185826330369203,0.0057530760885946
1700842205.0147464,0.08022267517402648,0.14766905604257433,9.846903426408078,-0.001891878815744024,0.0009321181703835661,0.0055288075590305
1700842205.0247386,-0.025493096516290236,-0.29168847734615105,9.785820290964761,0.0006678084414519343,0.004173508899011158,0.0056871216865055
1700842205.0348222,0.8155707967306615,-1.2634707619434487,9.392394725866337,0.01584957560513004,0.015714774667012585,0.0120297376187317
1700842205.0448158,-0.5664511241114355,1.053386691916633,9.633759507684733,0.006604595882605628,0.017957479202439047,0.0112625056998603
1700842205.0547564,-1.3852535298103967,0.15010958718971126,10.47250253858165,6.555456274880958e-07,0.0006084722995683916,0.0096575267733805
1700842205.0647526,-0.19439376751930915,-0.28303024388497916,9.985917606717045,0.00034962600301525587,-0.0022169655760819126,0.0121643053488605
1700842205.074782,0.4198078304579882,-0.013865916443752548,9.585625712895611,0.005106790965939619,0.006123997462515846,0.0094445696221463
1700842205.084807,-0.6070963381982706,0.508937798991096,9.465925431232826,-0.003022354099625036,0.007282269227733349,0.0152518287421934
1700842205.0948913,-1.0953015085886901,-0.07152079598582604,10.253114144333571,-0.0025907300075877666,-0.006700210484483796,0.0176986022041909
1700842205.1048164,0.4963840462109185,-0.27465068343332233,9.737938523500445,0.004531039523059535,0.004686593138702332,0.0209783589588277
1700842205.1147597,-0.3013622345519119,0.463560123054604,9.706405009226321,0.0003512411233736057,0.00919919242685435,0.0247282566623561
1700842205.1247563,-0.9947165131308556,0.11045168628559172,9.841238736540149,-0.0027571147028738314,0.0050418137565030165,0.0245643308507077
1700842205.1347349,-0.7119220231083397,-0.39624427843934,9.971074288033819,0.0008702513384041281,0.0013989639789876948,0.0235670426981322
1700842205.144794,-0.3750964295225744,-0.062169066911029025,9.636429178712133,0.0022127041071595844,0.006423214412795749,0.0212338859336249
1700842205.154808,-1.1281378780842517,0.06277093836216935,9.673727748033263,-0.0011070633330655325,0.0016927088150805985,0.0246686445670001
1700842205.1647418,-0.8061415663029098,-0.695321502207401,10.036965685181805,0.006502065867060481,-0.006692373490854942,0.0299876308189504
1700842205.174804,1.151581185473906,0.319549916490455,9.974998781593225,0.007209443577918208,0.006983580250853782,0.0357459684954755
1700842205.1848233,0.5499334093822397,0.20449821212363062,9.200942133809919,0.0014234981123154911,0.030371244727603792,0.0411232276009195
1700842205.1947389,-2.0535030638300227,-0.5704502692187337,10.244012473918591,0.0086096829189477,0.0025810256472285054,0.0478897107885949
1700842205.2047467,-1.6716947815718788,-0.9438460109409303,9.316028419830715,0.017711584597429136,-0.02041085612034645,0.0619374489532582
1700842205.214778,0.4509606120289266,2.9281830787239462,10.356091423744656,-0.0060772713011270135,-0.029703305718469578,0.092248053674566
1700842205.2247555,-0.16358650018006063,-0.6281468476068943,8.956384983453606,-0.00024903484135402576,-0.03068386302773055,0.1186967281745546
1700842205.2347853,0.9654451335498807,0.8933449295608724,10.4933310069705,-0.008264560747988876,-0.04719540466854751,0.1690042702602021
1700842205.2448092,3.6172882942343754,1.7805792704720178,10.219897510486659,-0.0042679088331875675,-0.009928627410476674,0.1956186978267305
1700842205.254753,0.0847032821219093,-1.6035480771955688,8.43265192236173,0.010216978876665396,-0.008261519236652422,0.2226498065637223
1700842205.264752,0.00014797856642257022,-0.27273610026039813,9.399670122142549,0.002919553518529506,-0.01894336941330908,0.2437868801997773
1700842205.2760894,1.157119410892225,-1.6254883942574572,7.8125619639387285,0.04232992651866331,-0.012464354499914522,0.2732233343766801
1700842205.2847629,2.5254725715028554,0.3776521408890973,11.045761480765867,0.04113654491406441,-0.002728231843515088,0.2828798828767412
1700842205.294897,3.89472056327171,3.26956898877662,10.904626751577856,0.0026611163938825514,0.05940988588834787,0.2442949352906816
1700842205.3048306,-0.2629258414697722,0.18619215231451067,11.560834373990733,0.00611702156714206,0.05531259354593154,0.1998620120929353
1700842205.3147645,-4.922833361875659,-1.5833774501223026,9.197130439380253,0.006406656624614802,0.004150405907290341,0.1449667303012483
1700842205.3247766,-1.7088044838014613,1.2406836276703048,9.079110621188473,-0.00886106074616717,-0.03947551324291604,0.15389997643696
1700842205.3347793,-0.11986328767555501,-0.9588936907254941,8.561352062500202,-0.004581511923591555,-0.0391451245166287,0.1680851815389268
1700842205.3447518,1.5551998606917317,-0.6363753860101323,11.000972454009665,-0.0027509114358066746,-0.050746958873570176,0.182249346201288
1700842205.354947,6.674885842782465,-0.18569799056891156,10.774157742056168,0.018438457781945465,0.03990670683907688,0.1757454065726869
1700842205.3647957,1.943636972243626,-0.15344255439042292,10.0956467417125,0.017344063099276743,0.06775339420242485,0.160295525019037
1700842205.3748567,-2.5180368400970434,0.16491735349032396,9.117610436120778,0.02030555667951256,0.04897013074823427,0.1337915448592775
1700842205.3848577,-3.355266150694483,1.5816741919190174,8.978259545145207,-0.009075154385953675,-0.013049347514934497,0.1509646264957063
1700842205.3948348,-1.1398091384635258,-1.2799380351492184,8.35893339061454,-0.0043900687326696814,-0.016704646734179693,0.1877331523345582
1700842205.4048502,-2.450041760182663,-1.3777881228328626,11.199592968078315,0.013765054149438436,-0.08576032996647215,0.2016825763629548
1700842205.4148154,9.851025474395401,0.664976259210578,10.26765212607825,0.020029529194519675,0.0385306894077092,0.2233055321620576
1700842205.424812,0.89632211922295,1.9125515588581095,11.308033943224126,0.007576081296155494,0.07006909068812671,0.1950696049378984
1700842205.43477,-1.0897402123540931,-1.7144583432116092,9.817639190404105,0.010668175689268705,0.05846133646709806,0.1609625904010408
1700842205.4448595,-4.540416813957636,0.5643236109711091,8.050220507846774,0.020537277238783017,0.01455571704658861,0.1559382168696992
1700842205.4547608,-3.3100052813454273,2.801513115399908,10.675686127361447,-0.032384286418914894,-0.06044925806754594,0.1635539321349733
1700842205.4648004,3.2975132829317535,1.9185115404718334,9.144596049261681,-0.037826694944056174,-0.01915562723170086,0.2026391862081163
1700842205.4748604,1.3669168435280366,-1.6266800053949804,11.619853976727269,-0.021685511259621225,-0.003716861720174728,0.2106172530101411
1700842205.4848535,0.020100466757953767,-1.4694751700650128,10.060553076430594,0.0029964928625689424,-0.011131406582241715,0.184722655837404
1700842205.4947827,3.320583857844613,1.4001240947218188,8.561949817381771,-0.00044773688485924936,0.025665300320177834,0.2133660404132478
1700842205.5047824,-0.7859870239269018,1.6231422211048088,9.341930267975343,-0.017049144833521438,0.028381505121855412,0.2353825507806413
1700842205.5147748,-2.2799394757114055,-0.5534690460414504,10.537711798556336,-0.017978350254127032,-0.016990395793991555,0.2314556626723878
1700842205.5248,-0.25795371924549126,0.20803629245301908,8.75614877045217,-0.021256224072918474,-0.0169156332592208,0.2498383013652436
1700842205.534797,-0.38467926232333455,0.010112588175064392,11.01343629104621,-0.035125960828771806,-0.032904787388221286,0.2764606712506883
1700842205.5448463,2.8045063943595543,-2.3683007735595645,10.438110137108415,-0.007964759841549651,0.001844478269270472,0.2576859532045
1700842205.5549393,0.6151390075660134,-0.6235232952136873,9.725213909639145,0.01142832266705561,0.019643526726753447,0.2342097995923631
1700842205.564854,1.3479410429413563,0.376276678214408,8.868480674348946,0.015492473382370562,0.03873541187244772,0.2132425097869508
1700842205.5748932,-3.0386794819379195,1.114508724731919,8.702214283640576,-0.012546083626141716,0.021658949468117004,0.1900248019145601
1700842205.5848382,-2.757142405108721,1.168655739553284,10.938900188643611,-0.04102210684799577,-0.030594992663959254,0.2058355746911638
1700842205.5948038,-0.895945556166596,-1.1578890730537892,10.649750603872146,-0.03840695351504629,-0.0416538769165326,0.2057187048839204
1700842205.6048076,1.2819750938624381,-2.3573074180822107,10.727950363123467,-0.016244318987046365,-0.03029049619068291,0.1862052915738694
1700842205.614817,2.4046945931027994,-1.020394849234801,8.996190823035905,0.011800633694787708,0.009843820965061685,0.1743993995832078
1700842205.6248262,0.5201416952025143,-0.18822378181653554,8.458048981996049,0.012803277950832782,0.022453257939784747,0.157773637597429
1700842205.6348474,-0.5255594424223047,2.5306638583638676,8.59434656829192,-0.02556756159743359,0.023592083534333865,0.1841753063844316
1700842205.6448183,-1.3375230331192791,-2.102706021097395,10.866415396747467,-0.009740240077339991,0.003208633421321243,0.20804477614628
1700842205.6549144,-2.1265596976585184,-0.4948319691767664,11.81225711968189,-0.001737116917896712,-0.034760345979337706,0.1791920004533403
1700842205.6648805,2.8355805391201963,-0.018982162905241413,9.526752845771625,0.00028244429608973755,0.005064208488633132,0.1619454411910646
1700842205.6748762,0.4562246920700571,0.21016324638116274,9.21423402029182,0.008199775909247638,0.02058572789503084,0.1497588841365449
1700842205.6848788,-1.0004180081731704,0.6360797744624969,8.314861038251665,-0.0023654938640560942,0.014983381065583778,0.1464763222383134
1700842205.6948364,-0.712185382352561,1.2555295689914123,10.233316411264713,-0.034802273259660954,0.0018827638065851216,0.1941680548833482
1700842205.7048438,-1.1927886547626354,-2.1739614734370343,11.245950520534507,-0.001021251801350168,-0.026513840309344904,0.1971312848971955
1700842205.7162251,1.224828053366041,-0.6584992769008867,10.135299174167452,0.001772257435005622,-0.010594078614821159,0.1600827811406724
1700842205.7279117,2.8709276874194742,-0.11218144836225233,9.369638647144104,0.027081245711344605,0.03328194917816489,0.171333515469896
1700842205.741263,-0.25357651507804446,1.184981215835949,8.53334554765877,0.020622543875495947,0.03899915741223095,0.1727930842088334
1700842205.7450051,-5.915991205776169,4.2756795172314535,12.925442017377748,-0.015710645903811573,0.0030128335496930904,0.1563664911435716
1700842205.7548037,-0.21281103662793607,0.555905498842734,10.640470977703952,-0.022281578795207226,-0.017529912135923288,0.1703176735089891
1700842205.7648866,1.3040420049761061,-0.3204732041182766,9.58126076492972,-0.004618026142068218,0.0048463307292529265,0.1805104551957719
1700842205.774819,-2.2130457582627265,0.6575248786963803,11.321955069862446,-0.009201588336383999,-0.037118474545917574,0.1528328297780626
1700842205.7855446,3.976024026188074,0.9869441172175482,8.665906473835799,-0.024784896597136456,0.008098644238041373,0.1702841905997865
1700842205.7954895,0.46814276713209535,1.7710326384409278,8.85496517467087,-0.035832120417008353,0.022226627505950444,0.2128442911552064
1700842205.8117816,-1.1550046702543124,-1.1547613718593635,11.139515793920639,-0.017959172645953272,-0.02534340463179336,0.222920441453325
1700842205.8223262,2.0184453929560355,0.4575336382065509,9.904899450634064,-0.023025755304726357,-0.010004228867327384,0.2176146743939988
1700842205.8309317,1.3899676451588983,0.13083713753260312,8.467427921791202,-0.0177891936588816,0.015527543582728745,0.2215856401370637
1700842205.8444216,-0.5190961510849411,-0.0635337507820809,10.13725405886148,-0.01635315185920801,-0.00558007665877201,0.2316887764381044
1700842205.849254,2.306714835306009,1.5870956768941196,9.588876722959244,-0.02960674144211141,0.010372514182097014,0.2385244606183641
1700842205.8600123,-0.8615670776319663,-0.04481612112584878,10.213493376795501,-0.03669841836581668,-0.0057315206237274876,0.2367955384896867
1700842205.8750825,0.1363318670447842,-1.7288181126724436,9.947583968537941,-0.013026129439690186,-0.004569716015886117,0.2303248284505479
1700842205.8789492,-0.1646814687335279,-1.7876231472584252,9.264098628139147,-0.0019055123210039815,-0.005081770498693838,0.222370126669275
1700842205.8855605,1.1248497539449527,1.840640664354999,9.234230489742057,-0.026418598191563347,0.009407704119783908,0.2213443158315294
1700842205.894825,-0.7925515545556521,-1.163772527636519,9.9477339791198,-0.02604642965202598,0.004870936685819872,0.2341185895846955
1700842205.905992,-1.5325274072666029,-2.0384695206101746,10.617263227645658,-0.007472550190278202,-0.02205242741524896,0.211646774237024
1700842205.91484,1.313748029923716,-1.255030016690505,9.268966061253753,-0.0031362621589810335,-0.004967385932016644,0.19597042483555
1700842205.9248695,1.8165043143673358,-0.8917000997132306,8.985373007670521,0.01656596136210753,0.02998180208349385,0.1980864195273988
1700842205.9348335,-2.0003309052333016,-0.7690329913089945,9.94465553579434,0.02822073627013893,0.012690352335085007,0.1691305725024812
1700842205.944884,-1.3901467538671552,2.332937626619017,10.123735016769793,-0.00983618406134602,-0.005190573745449205,0.1380906937764756
1700842205.955037,0.11187632749503172,-0.32880966308504156,9.161213481834407,-0.013383996279122817,0.0037106215211676436,0.1443776128934495
1700842205.9648354,-1.5537495714085476,-1.1695353011174086,10.104955340506821,-0.004389393912257024,-0.01357503873454338,0.163277873222696
1700842205.9748323,-0.8281964665613646,-0.6595303794550068,10.969818661049446,0.015709825220629102,-0.03277737422256054,0.1564120886968248
1700842205.98974,1.8172247554317087,1.043178363028187,10.139935213687453,-0.008518276839813058,-0.004174140389978276,0.1370093016074769
1700842205.9950144,2.285297073631052,-0.8339821695355597,8.144124945446126,0.0048865821739457515,0.021001481989580226,0.1416169641660325
1700842206.005983,-1.5491498583633958,-0.10772250864162848,8.80971218081595,0.011658821311674271,0.005943492403326762,0.1606016097711198
1700842206.014877,-1.647577564987612,2.333029459207169,10.730545341427264,-0.011077915947393512,-0.022928364490291116,0.1832322267936341
1700842206.0249074,-0.26336188467585203,0.7423897087999864,11.23256104952014,-0.029942280809861523,-0.03572604214666954,0.1683172373221986
1700842206.0348663,1.7009622256532595,-1.265407304267418,9.465631550388444,-0.00736145629566202,-0.011228968687262024,0.1656697927163713
1700842206.0448337,0.7108329406243146,-0.22047022218076165,9.502636856266804,0.011546036163561342,-0.003837729522319595,0.1757675944017045
1700842206.0548427,0.5836710461520935,1.8116441350922816,9.291005535629319,-0.0003305501424697436,-0.00039396112496607136,0.1885832635806672
1700842206.064829,-0.28487230212352643,1.727059472862551,10.144486550716891,-0.02067072317015343,-0.008775755056729223,0.1899542896197908
1700842206.074898,-0.40330632521052906,0.45481018546766333,10.124719788641102,-0.021051030059464248,-0.0195107816953468,0.1987526802466981
1700842206.084869,-0.1483444528070112,-0.015987524386054545,9.796268258513809,-0.017215422399335035,-0.028764070381018542,0.2015971033023469
1700842206.0948608,0.5043041912144804,1.736819871646311,10.213224282078842,-0.03564012621362174,-0.03259658058505122,0.2256375191854112
1700842206.1048546,1.4987156259826817,-0.42710206286959396,10.082121670152285,-0.028755890783267755,-0.02189482588178257,0.2346138147758119
1700842206.1148305,1.0054215336624235,-0.3024610470622326,9.746927553305916,-0.02249954384130812,-0.007637496061986183,0.2362901060031526
1700842206.1248047,0.1649243496081529,0.01686108400153741,9.630229679014798,-0.01630374614558713,-0.014347605219960782,0.2358032999681108
1700842206.13486,0.11351948151611978,-0.05142541015429492,9.183103888521103,-0.02112782389989155,-0.011523371137682028,0.2446441589044206
1700842206.144816,-0.2963708650236353,0.8279650965793725,10.183336818504836,-0.026782259176420322,-0.02849350930664921,0.2575898109124773
1700842206.154821,1.3729541610970895,-0.19373889251060722,9.970121266707364,-0.029207479078015252,-0.01303666417033527,0.2544443844007127
1700842206.1648326,0.37275567397344583,-1.2234946260896515,10.105964550102268,-0.01918347163902206,-0.008134109437470881,0.2400452731298082
1700842206.174852,0.5444917219062226,-0.5380179690631823,9.046936687256382,-0.012731018538362266,0.0014256880439945671,0.2292730299876802
1700842206.1848583,-0.7147940104134681,0.34659088447109654,9.766812019773715,-0.02003202284060518,-0.008514929024278028,0.2341907112048738
1700842206.1948566,0.5688272248436296,-0.5644853445945006,10.134814489858798,-0.021165963956226,-0.003600761785772698,0.2268487302707307
1700842206.204936,-0.39877072770830246,-0.3239601694017415,9.960513670187988,-0.019813474902825045,-0.006430655996360614,0.2173372743772142
1700842206.2149675,0.15161600544943515,-1.0668821322879394,9.661673516176498,-0.013978183512693818,9.003486698356794e-05,0.2017552791284196
1700842206.2248352,-0.9608361627465682,-0.22838577095058493,9.743838671376269,-0.019006140096784387,-0.0075352243136036015,0.1988033441947572
1700842206.2348568,-0.14126483380466986,-0.07062528246337672,10.09795741942398,-0.02470955913855657,-0.012601459165420095,0.1981650082515351
1700842206.244912,0.16227369093266422,-1.4656069023526306,9.954253414542455,-0.015215672666436598,-0.005925148910531148,0.1909895477937333
1700842206.2548208,-0.5409837272008107,-1.6685119424676158,8.964073967705083,0.002767019846042682,-0.006735430994178992,0.1881697116540544
1700842206.2648766,0.03430560162633547,0.0014722987601485803,9.602834092064027,-0.0043415358570019266,-0.00592239267687289,0.2059911577151887
1700842206.2753727,0.21979708241229562,-0.7330203542589993,9.668116132399073,0.004647930691943913,-0.00406543244783047,0.227168688003885
1700842206.2848618,0.41295122714400445,-0.7902205879925863,9.700661547109203,0.011513078093168374,0.003342571629962486,0.2430197237180345
1700842206.2948472,0.7971110567509688,0.3899116238534761,9.879786083046683,0.012363435093379074,0.014967844711381474,0.2584064839528673
1700842206.3114386,-0.33282572626744067,0.7653344826684891,10.668667217202904,-0.001963373441963948,0.01677665306330064,0.2296260682986848
1700842206.314927,-4.5295960082049955,-2.872586528862049,10.390137184275993,-0.005881254078036895,0.003676940126021352,0.1869366554664247
1700842206.3259842,-1.7430312412238618,-0.18581318526216062,9.539813902441187,-0.01837296731426326,-0.011781367188946719,0.1818441240237825
1700842206.3348448,-1.1539627559365815,-1.1994049649757101,9.80847814340517,-0.014268901031822002,-0.02322847675636632,0.199227654759752
1700842206.3448894,-0.593813638777216,-1.550662815324743,10.401409952644515,-0.009853402229299741,-0.0315597582796627,0.1872817067550294
1700842206.3549168,1.8033302248305125,-2.4815479147129715,9.395222981638481,0.019464076735877123,-0.004303320438300888,0.1667958585666291
1700842206.364931,1.8551584724359658,-1.9457726027100366,8.66068234318849,0.05416342701077818,0.029510369506925187,0.1637479452537172
1700842206.3749022,0.8119318871026802,1.2333750456631103,8.589757205626718,0.04755590551548189,0.04922855939226162,0.1759573904918306
1700842206.3849866,-0.9249901086681871,1.8556365101032537,10.007241220018637,0.019661732802768166,0.04778517752577993,0.1830618022130601
1700842206.3948736,-3.7010543675973175,-0.14422821399374983,11.275689741545756,0.0004308745764633178,0.0013176406571688175,0.1618050573514573
1700842206.404891,-1.8840292283400597,-1.1671810664929552,10.842903095113854,-0.0017047770915847738,-0.0193174771988036,0.1419041989492051
1700842206.4148664,-0.6939319561265782,-1.1955004854511593,10.1866361534382,0.009402959279608943,-0.029710199268178333,0.1240682540582292
1700842206.4248629,2.1727717272334623,-0.6932532436497957,9.337203577462445,0.012241286783970906,0.00013897524555945672,0.110045106534826
1700842206.4348638,2.357964956574232,-0.7131340039336794,8.434917360007208,0.034085406410967925,0.03177799356503384,0.1239248974369638
1700842206.44487,1.6206501286612798,0.3434499041651002,8.939542958966877,0.04193462963786193,0.05449798622934577,0.1488307951139085
1700842206.4548724,-0.22770361690329216,0.6450241070270715,10.164766630223955,0.04708366064359304,0.045392529861229935,0.1689221350597017
1700842206.4648445,-1.5260706558150203,1.9189498571834895,11.315249797266711,0.03140117839748746,0.01769832440226821,0.1515610752748124
1700842206.4749258,-0.8464641783918854,1.6848569723867226,10.328039841765193,0.010154539591114325,-0.0003042691732296561,0.1288247196124665
1700842206.4848864,0.42549047115562694,2.529338229009093,9.455221127043657,-0.01544704812450354,-0.0018867912281083836,0.1468219993756883
1700842206.4948485,0.5870758089026016,0.7062765611458866,9.838090287658487,-0.021933452226391505,-0.0070208994107688796,0.1864759860681169
1700842206.504838,-0.668811444385163,-0.47944493454580617,10.653363987503255,-0.009474257415633701,-0.029679903145796473,0.1970135806249253
1700842206.514866,2.0421173346010457,-0.24643326262599263,9.997676151388752,0.0019926690309124977,-0.02538699532628168,0.1839682696508043
1700842206.5312247,2.442322227223082,0.4917428784426324,8.694652404079466,0.008495403217859987,0.015880813692400582,0.198700630490648
1700842206.534877,1.7340029472647582,3.6548253031610836,10.06894790952637,-0.00020899064726656946,0.014310858267829936,0.235226252500879
1700842206.5448833,0.5333173655327255,0.5582299851653709,10.090509879255784,0.003568286830075826,0.010594288652740211,0.2473412094758622
1700842206.5548666,-0.5777041836537077,1.3186050570953523,10.665085016392009,-0.015001327843122443,-0.00943536319579207,0.2235557971643083
1700842206.5657024,1.4373001416194413,0.14025818263057666,9.604153367785159,-0.029340950462940857,0.004444408281369772,0.219326057855951
1700842206.574921,0.1340489784695151,-1.2754279605077317,9.843192789842439,-0.014612929020254095,0.0017743471718796478,0.2288917539762132
1700842206.5849974,-0.07014567173929596,-0.37324110170626096,10.22664106648674,-0.005256235748908363,-0.012755600103701345,0.2246319739268892
1700842206.594947,1.3318856402097545,-0.40401465956481747,9.34765156068882,-0.00247383559129372,0.004118781635827426,0.2139144031451814
1700842206.6049223,0.30914092046037467,0.3737020140099498,9.722639072539312,-0.0047741629174706994,0.004525551620925044,0.2170430509494416
1700842206.6148612,-0.2145486387824646,0.24794709044232538,9.381768462405544,-0.0038250623070379165,-0.000921668246125842,0.2203841893123262
1700842206.6248932,0.15639141465826073,0.7865092378405054,10.319344656347807,-0.015581006270306974,-0.0020749748121807144,0.223090091173517
1700842206.6385355,-0.04264356502987958,-0.5923555346885823,10.177799273131473,-0.011922152874705914,-0.005556121295816846,0.2119512198613755
1700842206.6449888,0.3058568972971806,-1.1040976717269557,9.551402472708256,-0.0045449291329249155,-0.0012309887514583926,0.2024520872281663
1700842206.654896,0.11226790085924765,-0.273394212538847,9.216868505258102,0.0012305665104594503,0.0005759265377565599,0.2101974127935044
1700842206.6648817,0.3956307323137436,0.36372046873702624,9.791548111943207,-0.004795810748773768,0.005291315717977076,0.2197221605228059
1700842206.6749458,-0.32816151159292306,-0.5538660826422547,10.011281950515992,0.0011307436268537423,0.0011480447153751892,0.2211333302901857
1700842206.6849115,0.17127524811807,0.05617855559269241,9.880440687338057,-0.002983063975981926,0.004755648463390924,0.2109666703389756
1700842206.6948795,-0.38162296685590047,-0.3937719965458632,9.853923059711521,0.0011886798296979419,0.004561509044663324,0.2011210112022035
1700842206.7048802,-0.13250870439343204,-0.029968254703589277,9.707456509995513,-0.001654355738379646,0.005025330876218291,0.1959130255626313
1700842206.7149289,-0.8881192404080533,0.08678692398921986,9.816650511293245,-0.002863772990373715,-0.0023410713227934206,0.19128332418667
1700842206.7252154,-0.4473292314402123,0.12932547560059113,9.97603832989008,-0.008360095644967107,-0.007250252799389901,0.1870606480287187
1700842206.7366848,-0.6058001156957653,-0.4447847729333358,9.695321123722477,-0.0069202876491884086,-0.00797450548305965,0.1794794587539308
1700842206.7448995,-0.8099056171371923,-0.17225062241156971,10.17882124369193,-0.010670448337564777,-0.01907285000024565,0.183008366649019
1700842206.7549105,0.41911770474374477,-0.33040424591780615,9.76935832364666,-0.0056750746950134535,-0.008230248014378464,0.1826834915326707
1700842206.764956,-0.11865129920683239,-0.4060932010901942,10.050516876944991,-0.005119295267992053,-0.0061650559598183784,0.1750689683602922
1700842206.7749534,-0.15139930350783393,-0.7085133369221799,9.272992955857674,-2.762540290068888e-05,0.0008935477363066588,0.1729761449740998
1700842206.7867906,-1.1347817396472357,-0.13930775323262043,9.417492099005031,-0.0022076028805072664,-0.012884338977918134,0.1839656470464341
1700842206.7949724,-0.02532049948757011,0.6245398320880231,10.403670792282076,-0.013331312034837886,-0.01463672642563038,0.1952527849124543
1700842206.8049588,0.05786384321822755,-0.6782664045233225,10.158461968764126,-0.005625589957748035,-0.010277105843595676,0.1901627866672151
1700842206.814926,0.11032181188278409,-1.005830732389928,9.87393639997558,0.0031584788497913247,-0.0008232874988773603,0.1679403273509614
1700842206.8251216,-0.9082932422976218,-0.6638122543936608,8.813337097514557,0.0064735695683575895,-0.002597378997726412,0.1659162579225175
1700842206.8353384,-0.765353867546365,0.6728665252247075,9.726798420339977,-0.009698303877019938,-0.012813792543686997,0.1894560245917909
1700842206.8452897,-0.3368867305594965,0.3417142449570369,10.351109286714408,-0.012857879803478175,-0.017440124396904913,0.199165546719896
1700842206.8548791,0.24557721208646582,-0.9762941459031348,10.50125510342909,-0.010548856442643244,-0.008650194296291642,0.1702258376525514
1700842206.864881,-0.055168587418940714,-2.5384467301504974,9.004503839348628,0.016125978124473708,0.0020462657345466633,0.1542620150493257
1700842206.8750782,0.24746039974181472,0.2353794373738691,9.264686830810044,0.010626748879389216,0.008167197865837417,0.1764703927682512
1700842206.8850274,-0.19486482122022464,0.5258197453391995,9.813683350161384,0.0024109905130836624,0.009614497911671167,0.2018654732154481
1700842206.8949623,-1.1186708430537105,-0.8748133411618115,10.693721527296614,-0.002465523431631611,-0.004168770620633391,0.1868577687190644
1700842206.9049993,0.20252034827552065,-2.4307616845525173,9.221317151009405,0.019083483611048932,0.005789106738704914,0.1783263472961061
1700842206.9151137,0.23678018108702428,-0.9457083433709544,9.397734712444496,0.028594307120000054,0.012463725291081104,0.1957202194379441
1700842206.924873,0.23930388337530467,-0.18220123173925099,9.798009051312029,0.030757731948385138,0.01677314126126362,0.1990128247188203
1700842206.9360504,-0.17622004019720117,-0.15419962683179667,10.325170162521921,0.023444674020590802,0.015424859202648198,0.1725771067784898
1700842206.9450328,0.16288399698986084,-1.7999091821580988,8.808910182304627,0.04436170083239974,0.02506891084229141,0.1581828085826509
1700842206.9549537,-0.04966589213313905,1.0083332438854689,9.552203083724677,0.028099375107026245,0.026924397533517178,0.1776443658517472
1700842206.9650023,-0.7913268707365761,0.5165658433344807,10.424116495353838,0.02330862011950922,0.013587163824153483,0.1801107911513917
1700842206.974911,-0.48071680567809016,-0.525460897586883,10.888105193840433,0.022690710733407247,0.004164153995836967,0.1499229459212892
1700842206.986791,1.1428026933705488,-0.17559663229507388,9.919949736199156,0.04212418544440114,0.01448863342233846,0.1264889625953309
1700842206.9951217,0.8753415291872818,0.9985563599495009,8.36652658073542,0.03876105601420484,0.0301869382111015,0.1178205398963563
1700842207.0049264,0.852774416785304,4.489656428216474,9.340394608522379,-0.01912170647725579,0.036846720773866394,0.1638471422837846
1700842207.0149846,-1.2472635480497367,-0.9048051806772257,10.882878010616125,-0.005127818411741679,0.012139951851616444,0.2007532952474229
1700842207.0251024,-2.3590012406476233,-1.9189707079975613,11.594608536598876,0.01929909583074588,-0.034873252135578965,0.1701366989062898
1700842207.034903,2.4781471082459414,0.08874839588279212,9.464623347995834,0.030208305938424274,-0.012116329999168847,0.1418856917070024
1700842207.045043,3.328206493387306,1.94115547085652,8.163887853450992,0.016842730840421736,0.03525877710855449,0.1538470028089158
1700842207.054916,0.4714574780771987,2.2558604025149687,9.536677509806559,-0.016386959601389167,0.03961983040365725,0.1929779438422792
1700842207.065078,-0.707261591879954,-0.8799589880886279,10.776375929362167,-0.001403904920488511,0.016776401228160303,0.2212909845756166
1700842207.074945,-0.7062680646678862,-1.396570279806857,10.69985834085823,0.013054563766223553,-0.001794971853707353,0.1905131874726884
1700842207.084946,1.5811089385702763,-0.9374307516254093,9.263690335019827,0.02785460881797065,0.014921908285738094,0.1762970326589219
1700842207.0950136,1.5028054000814273,1.2619511421264888,8.970070128905407,0.02046164816070423,0.03424645769951739,0.1931741623328798
1700842207.105189,0.04782608407239077,1.5304752807824564,9.95611847094694,-0.002583832020103161,0.028516643022181223,0.2093082754062288
1700842207.1153772,-0.4550151737165502,-0.2169580040482173,10.475682108781644,-0.005852874265923472,0.017332638593918013,0.2144572077439897
1700842207.1258554,0.45566396312031676,-1.065000254149299,10.144228924130216,0.007547129053781071,0.015400194710857346,0.2019449560092561
1700842207.1351118,0.5473080543468959,-1.3761350333298716,9.202306607185443,0.027003701100181306,0.023066081661594934,0.1884222714351289
1700842207.145003,0.7548796472184495,1.5751672688293616,9.512781421810498,0.014186593086273852,0.02760661586789901,0.2109717665361039
1700842207.154946,0.16363100614780215,1.4065087532701377,10.232830030128435,-0.009427693958283056,0.027481528737560792,0.2253441302226655
1700842207.1650827,-0.9110185634246664,-1.5644910424548568,10.402552091533313,0.0031389290777346607,0.01134049575647549,0.20940215272175
1700842207.1749797,0.5146966865855491,-1.2422745126085124,9.252604388040394,0.022819808699549398,0.015435236203283496,0.1988063095258348
1700842207.1849065,0.7045082963306041,0.5109025350226751,9.48979307358234,0.018475213214249823,0.0231147150470749,0.2064535109447114
1700842207.1949449,0.5806032014044828,0.8814216363679254,9.828000038641013,0.010182554972581316,0.028023405622578906,0.222962179605829
1700842207.2049286,-0.527059616183037,-0.17586806180812065,10.105409663101044,0.015672708872821236,0.02035026094949195,0.2145461080716722
1700842207.2149162,-0.8346687757001872,-0.2351371689167838,9.944668503510185,0.014033636719583735,0.008881878704373134,0.1931700645135514
1700842207.2249858,0.4487264261346733,0.7111427306078077,9.529838376988396,0.0069930529473305626,0.012132401187034443,0.1995878754304521
1700842207.2349374,-0.15429888629431046,-0.37859892145136637,9.931188219450929,0.009945096971011293,0.011383260592105595,0.2033633081363313
1700842207.244938,-0.22416411950826437,0.12328476303704879,9.916650776363808,0.014211317223919325,0.004323233055717257,0.1946705071376435
1700842207.2549074,0.16183082040950175,0.22593065232343507,9.608754043997257,0.010195973848962621,0.008927709149235472,0.1880959062026612
1700842207.2649765,-0.48965323538001626,0.41738070981065617,9.753131022645633,-0.0010311004678135434,0.00434496972435562,0.1848859576629274
1700842207.275185,-0.15596915924079358,-0.2930702440519352,9.850056842482415,0.005237376601736844,-0.00028422863444060647,0.1938030956433885
1700842207.284974,-0.12336738780540908,-0.28553891111266916,9.998763522624804,0.0062460925575525015,-0.0004633241782648722,0.1896974532054536
1700842207.2976108,0.1484465491054158,-0.06122487148369883,9.889555504380226,0.008258062448606072,0.0006876212399238475,0.1769156841682069
1700842207.3056457,0.18376054816621964,-0.1421281640422053,9.381973945947408,0.009478221295632217,0.007150338646922064,0.1727280257390611
1700842207.3149383,-0.7085475840209339,0.640896751911764,9.582503528502729,0.0021880245054747586,0.0010781717851751913,0.1779352514194123
1700842207.324909,-0.3341634672736855,0.8843191157024617,10.329346367412953,-0.012100226251060503,-0.005264140499675411,0.1875118402885072
1700842207.334905,-0.12494149037618849,-0.9735712442778491,10.152002684862197,-0.0035525419511181883,-0.004169531834541042,0.1759421764062516
1700842207.3450108,0.4176941499922048,-1.6648657309017367,9.797855147282219,0.010095543959660582,0.006391102839149611,0.1620398847507112
1700842207.3549705,0.35130557957534647,-0.7892841492627156,9.184269363973158,0.017405510472084103,0.014892787903531471,0.1791521547483079
1700842207.365092,0.5033883727649813,0.3912245564784918,10.141960976092278,0.009641439342873094,0.023279466783699694,0.2065856693433397
1700842207.3749774,-0.833168846780273,-1.003050519968954,9.99437440301601,0.021343080377525126,0.019282550054789335,0.2050494043277375
1700842207.3849535,-1.1262048429687377,-0.529553707152735,9.487641572142167,0.01733874738888135,0.009387776309378554,0.1992468772576921
1700842207.3953514,-0.17776701803725914,0.006058159569712827,9.695261522792523,0.011209446838207779,0.007054933899727657,0.2194091914342515
1700842207.4054763,-0.1532812658512321,-0.5677136633334422,9.977355456529235,0.022310027762676436,0.008806520348652867,0.2236366657661073
1700842207.4151742,-1.1410633832470716,-0.4098833765846053,9.63977865526144,0.023673573162379714,0.0025857771815188195,0.2093490151809327
1700842207.424977,-0.2786653873192236,1.131495288623329,10.110605911589127,0.0045771518146684375,-0.003980924425227678,0.2071832953141801
1700842207.4349723,0.6923120626507762,-0.49603974391202293,9.835203151103023,0.011416160493688219,0.014741996473358169,0.2033164588855378
1700842207.4449704,-1.480266353530519,-0.9386496085043488,9.706572235836234,0.02354141014854504,0.00011340375595179058,0.1929273842023484
1700842207.4551136,0.5310867290726564,0.944038283836761,9.764093747017784,0.008186182678186027,0.006764896195004718,0.1987333236383073
1700842207.4649868,-0.09078916524019494,-0.03630501706929431,9.974399411861281,0.010131309205119097,0.010729092659243674,0.1977001069234483
1700842207.475013,-0.6839805682223697,-0.6822464575600886,9.830990651330056,0.01767170219317429,0.004650117835399243,0.1910656033204667
1700842207.484995,0.3875291033099021,0.3732776566361167,9.672301558387613,0.015289026743598711,0.010364990884001911,0.1966981230424516
1700842207.495021,-0.11713642525567124,0.3590840470190367,9.83513548408499,0.011183712626729814,0.011231150962771021,0.1932130990670793
1700842207.5049577,-0.6898054520925403,-0.52023778079649,9.721960597574917,0.012001134096448946,0.005047157266565117,0.1882308511184327
1700842207.5149128,0.4023751812283029,0.41721715965283596,9.690381607574425,0.010127188506749872,0.009874903140642823,0.2062270281957261
1700842207.5249336,-0.2711234464050296,0.20439254110724817,10.296840911448252,0.00633416081062407,0.006006160474085423,0.2032098261760347
1700842207.5352814,-0.47690840821712827,-1.2482466537926618,9.507767491209302,0.015180971545193083,0.0038320300258960376,0.1907420246051423
1700842207.5449712,0.32749592468571925,0.02495830282131364,9.505603557810206,0.018108893167766222,0.005971686683666704,0.2071010707067125
1700842207.5549753,0.6298705888789986,0.6119353760772225,10.183748030461556,0.01663208043738882,0.014252689708275071,0.2141110388682954
1700842207.5649452,-0.4387474493640037,-0.21421765826305417,9.992442252473282,0.018509522753836355,0.015538173162951066,0.1951420543836229
1700842207.5749586,-0.8187554300203532,0.059465654379348726,9.527094266535604,0.017230400448864952,0.00399727257807374,0.1821169940875642
1700842207.5854828,0.17875911927498606,0.46168082580600966,9.521266302631284,0.012868841459329396,0.005859114529334377,0.1887244073794954
1700842207.5959632,-0.22720316175221003,0.9316828488083725,9.772160178364933,0.005506402099908082,0.003952256724392125,0.2003067074464433
1700842207.6078312,-0.6777951268150852,0.4396060775550288,10.089572237836641,0.0011938512808730905,-0.005196574324269422,0.2026092050717942
1700842207.618016,-0.6284151998713752,0.6810721811604307,10.426379755140665,-0.015253417466505825,-0.016394330008188324,0.1950609771655671
1700842207.625069,0.627812907672044,-1.7478615703584983,9.74144040338272,-0.004640529833220024,-0.01124396973032929,0.1843689618753068
1700842207.635201,0.8921139841109557,-0.971721042829519,9.249507786398269,0.012921850271877913,0.0027779489502097734,0.1843032924579255
1700842207.6449864,1.0900364510915466,0.7607853601825023,9.827673684975823,0.015682021333027797,0.017129082546853455,0.1901626674579255
1700842207.6550095,-0.9451513922236375,1.0471501846114266,9.743837291956055,0.0036120876419100203,0.011554677921142181,0.1856578825162523
1700842207.664964,-1.377318189361729,0.626709697902348,10.229331585046353,-0.005762987104836721,-0.011132297818947853,0.188766890590059
1700842207.6750276,-0.05059437287972017,-0.2809637701331278,9.849738663582471,-0.005646439157866796,-0.01390674936898258,0.1802505491422288
1700842207.685254,0.9116195470262565,-0.5489983714327827,9.557303944124865,0.0037748591880520117,-0.005332750584468063,0.186094486539232
1700842207.6949744,1.4932110084688621,0.5255341059281207,9.522691305889548,0.008449260852197387,0.0123668859984698,0.2019478617356889
1700842207.7054498,-0.5442655534536003,1.0667555886842102,9.946137360661767,-0.004828710665661107,0.008806871154022471,0.2108360616611116
1700842207.715557,-1.1598487085398264,-0.08729343711318464,10.173109753517615,-0.01120305523809028,-0.008787815706473075,0.2198237715409867
1700842207.7275932,-0.3791590886518041,-0.5597649580568861,10.04919562957385,-0.011994940855769317,-0.021525279173616914,0.2205495176957719
1700842207.7349925,1.3025661580757388,-1.5191463375708447,9.863736946736577,-0.00014315443567212023,-0.012296891541229746,0.213033208076822
1700842207.7451513,1.4826776602423304,-1.387606874855784,9.00133972427375,0.0212511196663645,0.014390679267385409,0.2074105082200639
1700842207.7550318,0.37990328312329685,0.8483052911713495,9.60727495774198,0.016489104888421,0.017350582999088822,0.2132503328965776
1700842207.7650487,0.3409115993745907,0.7025299216534848,10.15039937180683,0.008302489588267178,0.028316458045566727,0.2036338089154832
1700842207.7750092,-2.1308954927980364,-0.3041739209381584,10.15655645402919,0.005186949591271282,0.005187416387687558,0.1727841733144395
1700842207.7849767,0.04160747040042615,-0.33838999887887694,9.561286431103705,0.0040571796560803005,0.0014078200002469819,0.1781550137446992
1700842207.8035235,0.2871403290704534,-0.12293733248990286,9.937047209816834,0.01439599334944062,0.007313519411744967,0.1911360709117524
1700842207.8049731,-1.332690263555395,-1.5571370835268248,10.00178115811542,0.01804264168965571,0.004210867046659559,0.1865068463729493
1700842207.81504,0.042388635535990433,1.404153240545473,9.60153882198371,0.007941938240673857,0.0030684534308152585,0.1965251503633134
1700842207.8249598,0.7174835763569074,1.023669209630908,10.152662187070915,-0.002626693726694394,0.009619529518110403,0.2017668722318284
1700842207.834952,-0.5835395731670457,-0.28381096888641444,10.10543499315747,0.005484863098337749,0.001961162111523641,0.1876600919412248
1700842207.8450089,0.10379994692347583,-0.19906086299831321,9.330929743464653,0.010156704901866256,0.0011049630996996522,0.185424634640085
1700842207.8549693,0.3563817135396992,1.3515536789712779,9.893160221739631,-0.00772640979913681,0.001700831009352606,0.2009679315732591
1700842207.864976,0.3574954854258081,-0.8970102556257336,9.947420128873016,0.008502249822660641,0.002724488619845842,0.2022416232274644
1700842207.875082,0.4734430841151114,0.339991875184242,9.843868968111575,0.007848908180833055,0.008426365459910705,0.2039574472354524
1700842207.8851805,0.12693516781199335,0.4822810788327748,9.844677925716402,0.006860806477615428,0.011804460737164105,0.1927847353862397
1700842207.8951025,-0.9430129690078746,0.24636056531399142,9.360620967882364,-0.0006047581183667544,0.002057299187230273,0.1968649266408555
1700842207.9050677,-0.16603794170610353,0.659048746313474,10.112512854913597,-0.012301265084277322,-0.005333115248687549,0.2121624140189759
1700842207.9150372,0.2288669122115707,-0.8979683184481243,9.98380382883377,-0.00030654164445240986,-0.0031429980588237446,0.2111227749036424
1700842207.925026,0.48154217648727327,-0.5083418613660142,9.746128667473284,0.009489233953485764,0.0026750417354748837,0.2023880420373552
1700842207.935018,-0.04122456548835379,0.3990106199426861,9.79415119345061,0.011184346166236448,0.0023664725219427643,0.1934003023551576
1700842207.945052,0.03919833196425052,1.0131277127418867,9.736399503655177,0.000328093422059447,0.0036600656712079426,0.1868249563621156
1700842207.9550278,-1.0643746659208768,0.7550811442227423,9.709183010314005,-0.011491149811582403,-0.007316272320689712,0.1833035735534303
1700842207.965053,-0.30864247829158176,0.3751117408286747,10.051783867840612,-0.02241614138227732,-0.017713228440649643,0.1912858424829118
1700842207.975103,0.7652099826999231,-1.05868332066604,10.094548613665777,-0.014409341133899242,-0.011151221023154023,0.1923640905068986
1700842207.9850793,0.8028518313729259,-1.3935697344546145,9.723559035380704,0.005676780701203808,-0.0003050174986908461,0.1843115029977433
1700842207.9951005,1.0742645904948538,0.28948591389235206,9.531447422325048,0.008609006111076598,0.016169388018891978,0.1805949149774186
1700842208.0051513,-0.38884326164279737,1.118507968889221,9.879337460126967,-0.004765796423559889,0.015947973426375304,0.1777763752387635
1700842208.015081,-1.8127764077448432,0.5061744435530615,9.678218160205809,-0.01715854001561253,-0.0017376603937277722,0.1771565465377443
1700842208.0249786,-0.7061679356619073,0.10118327815260264,10.366458738063711,-0.033395860570045066,-0.013604232574780046,0.1968366293357484
1700842208.0350084,0.5016391957991254,-2.037309500850175,9.814070073474351,-0.011590896673132307,-0.005780069037059359,0.2073687402652375
1700842208.0449886,0.7390848351654017,-1.9896798249549836,9.768515943373,0.010045838079606722,0.008595987482241258,0.2066838083909623
1700842208.0550032,0.07734918150135454,-0.1534897378890801,9.179681971134963,0.01807137660450696,0.024609112316046254,0.1981669006990068
1700842208.064982,-1.7925068073133623,1.6591067522863074,9.754979476272382,-0.005399807881597792,0.011076336046169817,0.1997825442002885
1700842208.0751011,-1.4139710660185647,0.3894374631117148,10.394628119915318,-0.022656069227066557,-0.0034774113664006014,0.2094529060767762
1700842208.0851626,-1.1825187759050386,-1.5081890786709116,9.968188958276821,-0.007727677397148025,-0.011259328912350007,0.2020580558227174
1700842208.094985,-0.14098156325825173,-1.4413517432789444,9.705926440738232,0.00343695126096694,-0.009500845384141962,0.1878324089692704
1700842208.1049948,1.3537192873368291,-0.9454171461850236,9.124582928077592,0.019460068738938806,0.016598151160386824,0.1899998722718827
1700842208.114982,-0.7055990869052274,0.5917925114786167,9.65218675298904,0.016927000307799943,0.017130764093796363,0.1953512815879457
1700842208.1255634,-1.4127461689794805,1.0737564018281607,10.079023913215837,0.003780967607394832,0.0027867573573545634,0.1986177204297654
1700842208.1351695,-1.4168414543779748,0.3934012016184664,10.561894733211266,-0.010257367326213093,-0.012179361256898025,0.1918624429153077
1700842208.1449823,-0.11381080779641377,-1.6135460432934254,10.013006959702382,0.0042347173947285864,-0.01638456832550953,0.17282087487446
1700842208.1550589,1.4983536332405385,-1.0041895788297066,8.825132078228975,0.027225828049434075,0.006572157357531767,0.1757497577117555
1700842208.1650689,0.884955914650893,1.5655806738014457,9.533899239193923,0.01593267029524112,0.022648436065290618,0.1954481093333833
1700842208.1750646,-1.601541395751623,1.8140849193626214,10.132723048313082,-0.0035168274814413457,0.005352269517769934,0.2036362974094026
1700842208.1850047,-1.0626974304185217,0.22438316027115904,10.617344077597073,-0.020001600116387533,-0.012077733255075045,0.2106235711024873
1700842208.1950042,-0.3452544006974954,-1.5285338296272937,9.92773046524622,-0.007979497436471434,-0.02153973568315139,0.1991537151979081
1700842208.2050393,2.303584385589469,-2.1395899329721146,8.890091815384597,0.017455282449837132,0.008486173478674728,0.2044643847392671
1700842208.2150578,0.6865541212995624,0.2030227723023194,9.432169623349337,0.027885276745428282,0.023542934197655848,0.2207547960923783
1700842208.2279875,-1.3809882107723104,1.4677550497113416,10.26903314748877,0.008934531326493408,0.004573942731911641,0.2086677787946336
1700842208.2350185,-1.9141308392722483,0.7119159234200925,10.677326855746529,-0.006948942901763642,-0.01434695547870287,0.1965651748822801
1700842208.2450397,0.28496812485341844,-0.8385066660146846,9.929356174154172,-0.002851915780580171,-0.019391777432551983,0.1885178027795427
1700842208.2550702,1.6029188489678117,-1.2308414246817319,8.901829408619067,0.015153490831379698,0.0028464354866414255,0.1898291198657624
1700842208.265108,0.9163967511546551,0.7022905544266311,9.705100353593407,0.01401631914976657,0.014356614641154782,0.2085986672090165
1700842208.2750432,-0.9752053367423146,1.2640454668568029,10.361601188295339,-0.0030904303281023395,0.006683426768961955,0.2124476371453874
1700842208.2850857,-1.6517836802963053,-0.45421556963930415,10.77824232064448,-0.005323967877651404,-0.02036475531251982,0.1909238932775132
1700842208.295007,1.679341163428245,-0.433580384731658,9.280583873012885,-0.005995542032933456,-0.00360311619286583,0.1863438425706498
1700842208.3050752,1.681784862493765,-1.0720196765146897,8.861516104603371,0.013778221412444292,0.02225293862901976,0.1941242901729219
1700842208.3161929,-0.14215201005938385,0.6777325360046785,9.590265829015626,0.014932725637453485,0.023140052521956812,0.2076141176866166
1700842208.3250325,-2.204570721610165,1.7456912320723739,10.594045176405782,-0.007621615584910283,0.0020761102800131844,0.2064259139941804
1700842208.3350277,-2.127711610174861,-0.5338104531483456,10.95385501815966,-0.010063804353396382,-0.03417077755528172,0.1878043798850648
1700842208.3451586,1.5109281235357646,-1.0273464511132093,9.146561775170746,-0.0026151844123814454,-0.01846911552968919,0.1710084019349687
1700842208.3550222,2.544223126805402,-1.1589478029705826,8.870269000404798,0.015185464217628473,0.017881137246715213,0.1812536804126374
1700842208.365025,-0.19218937018873092,0.6322190743098762,9.516713440315002,0.019415600976282008,0.02323022948140817,0.1904459534333818
1700842208.3750677,-2.1465462118255667,1.360920965727594,10.641626487123272,0.0009354768784682358,-0.003168998337037361,0.1911298273252122
1700842208.388763,-1.2815845816215674,0.22871576051874778,10.51529781086653,-0.010356750641712221,-0.030070798335945368,0.1819757310794465
1700842208.395036,0.8395336054366629,-1.2946221909511002,9.364397093315194,-0.005290911532016306,-0.025447058882947536,0.1647390065835588
1700842208.4051368,2.362849530345446,-0.8542090359912095,8.669839009813632,0.008720870125705847,0.011230892970302097,0.1798946796105973
1700842208.415017,-0.06650028478724127,0.5641797123400878,9.611792051549383,0.015334691950200098,0.015053128216100744,0.1954995332406633
1700842208.4250064,-2.1819467189027915,1.238947777379459,10.816018920193107,-0.002384432360209654,-0.013074537868630007,0.1980495093511216
1700842208.4350135,-1.192363848553491,-0.28623565290798264,10.689580410688542,0.0011057375537761275,-0.03690853453676436,0.1812144009517305
1700842208.445016,1.7538601919853298,-0.14234503359106543,9.297954410110073,-0.002332274977005926,-0.014325305810583812,0.1597733138249986
1700842208.4550514,1.6463503621082078,-0.3265830707421248,8.654923093435734,0.010249262486060185,0.012704677747459652,0.1705346046136491
1700842208.465084,-0.11912066222047797,1.0866832833189672,9.475358533745155,0.003664832907104667,0.017767757267773854,0.190618389670717
1700842208.4750395,-2.959261685596039,1.0181056851874226,11.166741438143593,-0.014741947329587151,-0.020563023489852464,0.1874797580884568
1700842208.4852352,-0.8842011794036689,-1.0489363162292986,10.6636073296315,-0.010167822057172921,-0.04499495897080935,0.1770127503322236
1700842208.4959905,2.2135527569523834,-0.8639939157509566,8.878564186037007,0.0009732904861346739,-0.010776934746607243,0.1792201487468354
1700842208.505082,1.124822417191031,-0.580091436951027,9.369595735742541,0.009573841590908235,0.006269319852263202,0.1930509893344514
1700842208.5150447,-0.29065225167816067,0.3473471654736568,9.302172632929928,0.01586526573731262,0.011099154929998408,0.201765382115709
1700842208.5250194,-2.140756776390766,1.1006252522806073,10.707405115814723,0.0008082643666528556,-0.017639555076305734,0.20697634798752
1700842208.53505,-0.7105094636094087,0.39570296012671424,10.208456483298463,-0.0025792748218263395,-0.02983316936925248,0.1986419497178666
1700842208.5452044,0.6809462466193756,0.0006439176966689279,9.314435697446768,-0.002500105047605162,-0.016636028390951508,0.1937528936313264
1700842208.5551083,0.6206949378596529,0.24478176969975948,9.372438673656077,0.003399689915425018,-0.00781089454746974,0.2087025134013765
1700842208.565055,0.307164334182027,0.8966704091107389,9.657869157946855,0.009598569895886163,-0.0010361614950572416,0.2214094935105912
1700842208.5751927,-0.9569168413240375,1.630451477337838,10.354091165571411,-0.007466376945436344,-0.011864266934664228,0.2271225838111512
1700842208.585014,-0.051005417638175746,1.0002124660580187,10.247781772263407,-0.009686839894106236,-0.01293941209609863,0.2276871292041414
1700842208.595088,-0.6193959658416114,0.10362834126849106,10.184618789711553,-0.012204838230788767,-0.020967134386339077,0.2013438431666963
1700842208.6051583,1.3232115369114583,0.14149929945005463,9.242971730770465,-0.010908195941099081,-0.0034388580131253206,0.1992641179011934
1700842208.6150138,0.48513815732907134,0.060324095131176224,9.317362036089063,-0.004402853422019337,0.009426836958190288,0.2019645361350648
1700842208.625303,-1.3465043597459896,0.27728936256297737,10.036612762021308,-0.010078566543623477,-0.01003089180372343,0.2004669247315995
1700842208.6350574,-0.008951441440640806,0.6561309942558026,10.201452313332888,-0.021805643306895786,-0.012559981528016137,0.212819197599756
1700842208.6450822,0.08455538916135649,-1.1787793238611997,10.290684272703963,-0.006067893479364453,-0.017721095713054698,0.2118675796435945
1700842208.6550293,1.0400180707847404,-0.6209048110537345,9.080575752698874,0.0022908082963097125,-0.0005906935017072661,0.2084618298457734
1700842208.6650424,0.2655631440800219,1.0615135786039238,9.530162870137794,-0.006163136085748864,0.0001676600375041781,0.2267616478847139
1700842208.675059,0.2622153530269876,0.0002060411461316899,10.220478663796596,-0.007298848936042252,-0.0026795917227695745,0.2347943572448365
1700842208.6850371,-0.29713517968512715,-0.6289492206015342,9.802845240855016,0.00012356499796835116,-0.005979018745041033,0.2268352447198503
1700842208.6950424,0.07324889506210466,0.6627669463129768,9.72316709588378,-0.007930339600704356,-0.00779033493324085,0.2296502826856248
1700842208.710718,0.44667046034325336,-0.48451486632922125,9.915970851958454,-0.010472187682183262,-0.0007375368691744442,0.2354428855823152
1700842208.7151115,0.2415343530339584,-0.008884779082448757,10.226418100882308,-0.010206860886844233,-0.0016069462630573291,0.239887142007219
1700842208.7253697,0.4716780031398578,-0.9987211241952197,9.724498501565902,0.002148701637746857,0.006468225062990709,0.2254315106319062
1700842208.736006,-0.5149597971699722,0.049146045442524516,9.493938226844032,0.001931883270014192,0.0029408816801297817,0.2132864235089891
1700842208.7451222,-0.06213553014414884,1.1755624890277487,9.933069318605831,-0.015742431395932857,-1.170741879368091e-06,0.2211013374971025
1700842208.7550273,-0.5509827106744808,-0.5364451609865367,10.117554810873786,-0.014744380413018834,-0.007049584161332394,0.2159131704019181
1700842208.767409,-0.05658144278029708,-0.8841312674017432,9.715112640575036,-0.007816022487373769,-0.00833987269091476,0.2097167609380357
1700842208.775075,0.3257798507183386,-0.20226541497550793,9.710362598025236,-0.008270269670493581,-0.0051113450055303815,0.2197520224498384
1700842208.7850733,0.035427767550645695,-0.7940809925497138,9.687854744268991,-0.0010780097621463736,-0.0012586546459924335,0.2227683303998582
1700842208.7950616,-0.9576289318503992,-0.21179045916531566,9.703818809125233,-0.009157147365093215,-0.009788521040513547,0.2253090081857316
1700842208.805638,-0.14019087167980704,-1.061475121269356,9.692786369929681,-0.0011709113230511685,-0.011202794202941678,0.2333472011731736
1700842208.8166173,-0.07688675406369785,-0.7369837844100094,9.978530531547957,0.010566333555914676,-0.012027577719448668,0.2262822626279466
1700842208.8250296,0.059047692282583865,-0.3988345939719438,9.741418133850914,0.019159580426772304,-0.00696282997194675,0.2074142782138459
1700842208.835061,-0.09422118161115964,1.1850102748308935,9.569880333642109,0.008715156434031077,-0.0027973579831903884,0.1910050151990525
1700842208.8450644,-0.17718765497766906,1.3717897939860937,9.96596414767777,-0.006098633268767706,-0.0029462453413233686,0.1842920122789018
1700842208.8552036,-0.7717240149926297,0.4862883137882388,9.896437133340855,-0.009793346292806895,-0.01105303154234858,0.1839365152763002
1700842208.8655803,-0.41041157570641884,-0.2780401263760079,10.180148188112753,-0.006803017567342842,-0.018781335771815105,0.1764500675843827
1700842208.8750875,0.9736898178316131,-0.34225995474347926,9.764306795446902,-0.002811231169135624,-0.009834559033692562,0.1700778989242189
1700842208.8850834,0.980544335106925,0.030418113273645124,9.297229862174461,0.0023403670865694186,0.003938238437543879,0.1714104203628175
1700842208.8950727,0.13074866065642676,0.9033541860061758,9.753182040581434,-0.005814569063214314,0.005435478489532319,0.1784079609559648
1700842208.9051058,-0.250901184380428,0.6387129013387286,10.055851295759863,-0.011856516924235193,0.002844212458013219,0.1959240226195924
1700842208.9151125,-1.353081816646637,-0.5921886660160538,10.758732780902564,-0.009392794064607878,-0.020065904695320307,0.1808943836139314
1700842208.925075,1.086775768296677,-0.8826158110238311,9.772097547311693,-0.009528136640280356,-0.015157958020803006,0.1624983040736787
1700842208.936299,1.9884654416940535,-0.32467532281022965,8.511017419642581,0.007664481523880967,0.019873165984802814,0.1758311478541963
1700842208.9451818,-0.4443489628404567,0.876683847560908,9.936860434848699,-0.00197052363806766,0.012640368231027491,0.1939789442466371
1700842208.955057,-0.7384593679053123,0.36782249147745216,10.20627389743013,-0.005484445686259224,0.00446087264294761,0.2026803283141725
1700842208.9650822,-1.8474105401270475,-0.08010995067830062,11.104778857673281,-0.012811694633382427,-0.025143422977211543,0.1747212795661561
1700842208.9751863,1.9056872110043772,-1.8252427267323956,9.1669347398071,0.0027951439795175733,-0.0028952814228535586,0.1624162135766618
1700842208.9851973,1.078085703845747,0.4347668849837189,9.013925068791597,0.00904929680315875,0.017035994156151413,0.1743498681233995
1700842208.9951506,-0.6035773696334417,0.8330459116543082,9.910556832439912,0.005544364467445731,0.009293356400309382,0.1777743933843248
1700842209.0052574,-0.875842598178378,0.8644278936785029,10.290728978393322,-0.007997225977953446,0.0012297666339833994,0.1783425299571626
1700842209.0150883,-1.3799569043965312,0.4464961310955632,10.749891660552164,-0.015692287402705396,-0.02341163815626471,0.1589327393220536
1700842209.025106,1.563945280529389,-1.4311262521940804,9.184805229738663,-0.009543545673942519,-0.006270099931623169,0.1485444394992463
1700842209.0351975,1.6633110611130033,-0.33755912809751615,8.809345032242982,0.011364507416493537,0.01897793080243061,0.1721622435496919
1700842209.0451171,-1.0627452368239703,1.3048107769459747,9.944947654348022,0.00529640218892444,0.002789663845500112,0.1852603046344392
1700842209.0550933,-0.42490247984540086,1.0710249430660552,10.46258031886227,-0.01183880166614084,0.00017211125043783916,0.1919743953393571
1700842209.0651195,-1.2192194861275132,0.013356461604289509,10.78547868401541,-0.011334596063703855,-0.025323268622627584,0.177534887020456
1700842209.075156,1.5090282788371698,-0.5969134456495049,9.139036008618415,-0.014296994244224428,-0.005379301105719141,0.1665022609876268
1700842209.0851505,0.6913303786775353,-0.7925990800591689,9.062974432422532,0.008976820094609058,0.00554997821555492,0.1802677152799241
1700842209.0951912,-0.6681336369659202,0.9043976552130687,9.541107283628458,-0.0009208524304060358,-0.0005874432100334788,0.1902063427613847
1700842209.1052742,-0.7835232948401465,0.42959226043498794,10.478398885403376,-0.014626958811113613,-0.0079217395011968,0.205544718925821
1700842209.1151388,-0.7997820701658086,-0.7344955453450743,10.508383437744492,-0.017705377820958206,-0.02117332331143882,0.1913500664876573
1700842209.1250896,0.9880968348283599,-2.0176532515997825,9.254083978397514,-0.008529215272535404,-0.0031027422725501165,0.1864354996131532
1700842209.1368878,0.12032674073556865,-1.36636158303574,9.371499221873792,0.01780457236515412,0.004558579889106753,0.210917347495424
1700842209.1450648,-0.8436363549509857,-0.049156717449623924,9.82648589880567,0.019237764166109124,0.0010564573747262576,0.2050750045226686
1700842209.155058,-1.4943094135801485,0.6235897740451976,10.052710008975726,0.005501108360940425,-0.010399159668919114,0.1859593628095262
1700842209.1663086,-0.3727717336172405,-0.04929259479217495,9.79999135775037,0.0031252669971157023,-0.016983470358337888,0.183338069741594
1700842209.1751497,0.5242745528318836,-0.25730247872426654,9.716655251610433,0.008236073207245927,-0.006413099708317879,0.1792183755086534
1700842209.1851168,-0.02034660903548742,0.07218020276302867,9.806932602866175,0.01455074614668073,-0.0006010602331448557,0.1765802739308946
1700842209.2037506,-0.28615354210000055,0.613957962048838,9.809361110623316,0.012281979831814593,-0.004012057884048902,0.1658965287850969
1700842209.2050843,-0.5856927692645133,3.6721005897889074,11.105976014017717,0.0012824513998213145,-0.0040658728136146694,0.1621508089946382
1700842209.2151597,0.1743945724559586,0.12134806991497638,9.760967318166234,0.005866695997958809,-0.0017078827953666922,0.162520387594568
1700842209.225276,-0.503099484476808,0.28841608307143224,9.657950944202822,0.005157230298521267,-0.003991212370572371,0.1594912795470826
1700842209.2351153,-0.036841119549736484,0.9110313739371976,10.025240144904279,-0.00263408898734592,-0.010876714112563746,0.1748285679267518
1700842209.245108,0.7934888110241273,0.36798839774738623,10.293787394672727,-0.006683702705439739,-0.0020603705616776347,0.1783923147367112
1700842209.255071,-0.159510746826895,-0.9720707807265766,9.662246000528992,0.0060578273325485816,-0.002307273177149644,0.1747925965236299
1700842209.2651806,0.2283289106418657,1.1499984724137826,9.588068888657185,-0.00910558509034066,-0.0019166608620284063,0.1893207071469896
1700842209.275108,0.3628984197891644,-0.33725750044022723,10.100566343836968,-0.0011557588628828175,-0.002412901446834717,0.203969099943506
1700842209.2851338,0.21230078716685036,0.10478686799090552,9.966405827778036,-0.0013837453545536412,-0.0028054885685008272,0.1998656330751054
1700842209.2951877,0.2159365311208078,0.06330960561327352,9.697689227428727,0.003283835151212072,-0.0004911803300918891,0.1959302364038102
1700842209.306533,0.5968890463281105,0.5841000524841078,9.697895036912586,0.003032474468350783,0.0021333850876144094,0.1976021615909211
1700842209.3167896,0.09985531927619236,1.1711529580146776,9.84523741394882,-0.008975547061799314,0.0022001984353830733,0.1976376114534013
1700842209.3251169,0.10218143155377767,0.5653102003313617,9.99041592839539,-0.013148016557089113,-0.0020091455323521124,0.2016302881883256
1700842209.3351047,0.37842654335540193,0.11561679365115463,10.112158706009213,-0.01395329301540349,-0.002355489741816123,0.2003215937064759
1700842209.345153,0.6045907568805555,0.2050774983053045,9.700514343107287,-0.012898183036750391,0.0012549098157474592,0.2036884663747422
1700842209.3550923,-0.019228124387576425,-0.41058850477641906,9.439480432248823,-0.0122256813436977,0.0008356660331169118,0.205753573601114
1700842209.365152,-0.26717347631566024,0.2613299560169855,9.607284596266254,-0.017414257958946647,-0.005580432212937526,0.2228695241855256
1700842209.3751028,0.5701492278776804,-0.8522376017259408,9.985893448134144,-0.014601272222217503,-0.002574691093116704,0.2483703432725541
1700842209.3851497,0.48455741761116633,-1.5621924858597913,10.276227961365937,0.0022406499618581465,0.002077190474744183,0.2417606053994767
1700842209.3950732,0.6077271760834225,-0.8129372736142474,9.609341815555624,0.018477661362482967,0.015857015087115026,0.2200025556729905
1700842209.4002037,-0.9761751975654471,1.078694358476235,9.825259098633897,0.007200771527222132,0.013491748992277031,0.2033116458104722
1700842209.4153204,-1.0162921057807537,0.8696966066964391,9.198369515463394,-0.009376280580953574,0.005127191021463902,0.1919638751195543
1700842209.4207103,-1.693817700214467,0.7447226181619342,10.532087268370036,-0.017357250344400287,-0.01311219371913582,0.2000542221711747
1700842209.434131,-0.08592466590236184,-1.2776059181245196,10.204065077060287,-0.0033050270317332153,-0.014214562030553147,0.1946108577893846
1700842209.444081,0.8577392238920615,-0.9323613541198664,10.076946658541024,0.005964646727466087,-0.0042681743858410505,0.1829045204566591
1700842209.4540918,0.6770581010232053,-0.10565896983275094,9.277649688483935,0.008177823146489793,0.016233569901261687,0.1773234395431153
1700842209.4641612,-1.2531717923004007,0.2571869915416489,9.756536538297018,0.0002826237565077554,0.0026489738004313425,0.1806200383351915
1700842209.4741304,-0.6484234100053197,0.019203903687235915,10.059692639159609,-0.003355303891309526,-0.007417416111821275,0.1879897652314775
1700842209.4841063,-0.024310958788493705,-0.759527045584457,9.893821808895643,0.0029973335253326255,-0.008553472631514864,0.1883366344617479
1700842209.4941268,0.9738769517316805,-0.8775414276190121,9.825301807497603,0.014091123264492961,0.004772901818491175,0.1832997141526811
1700842209.5044007,0.20342396665812665,0.1065994279703288,9.678453807721409,0.01964625279321854,0.012524813071316787,0.1820396868632905
1700842209.514464,-0.9750273744473476,1.0425923620210393,10.067153511057182,0.0009767710815094112,0.005056653579721075,0.1754538057492845
1700842209.5241008,-1.3189709988326592,-0.2983861715835593,9.698865192525181,-0.0013287130438701705,-0.011621307703652089,0.1678955344604127
1700842209.5341687,-0.2742687902886584,-0.8931745762548734,9.638199109550877,0.004443754206539269,-0.014653457034077786,0.1709980754302613
1700842209.5449476,0.4315481707661019,-0.3474868184532443,9.838597514973978,0.012029503739836727,-0.010982433399009723,0.1836745230601899
1700842209.554113,0.8765617272740961,0.18163779467085006,9.886967412467525,0.011251770573950938,-0.0009349064535883395,0.1858307061837785
1700842209.564106,0.03007915497868481,0.8346902181634821,9.998826936730646,0.0007434884827235296,0.005375376225767575,0.1811308203385942
1700842209.574149,-0.7354912100101051,-0.5399160180190483,9.608162255752488,0.0043921776641975985,-0.0038118570396591003,0.1796365467952363
1700842209.5841436,0.12642472135639285,-0.053441709327359005,9.483345683948164,0.006963213488783061,-0.00388059393038502,0.1889918832229249
1700842209.5941582,0.24230644762472767,0.9737794564230723,9.992580708997297,1.1814732627321503e-05,-0.0018126049170820282,0.1953747956203096
1700842209.6041448,0.6468968233131651,0.2658287616143082,10.11463427137699,0.004163987713009393,0.003065133950915386,0.1948242275165193
1700842209.616994,-0.1772719981889774,0.2949754369834433,9.400299950115066,0.004686879106093062,0.006098134451667429,0.1881183026479356
1700842209.626125,-0.6107505258978141,1.6208506566066383,9.923423861528647,-0.012585948859081198,-0.010290307184576762,0.1950221596406572
1700842209.634122,1.2356042353714092,0.5408629075310063,9.724399967038691,-0.015530437496960073,-0.00025237861135411684,0.2102843908713929
1700842209.6541684,-0.16622178758494213,-0.6703921165894128,10.262020630840519,-0.01757359842321543,-0.017330549114454825,0.230301850859987
1700842209.6641376,1.1982306276965087,-1.0323854156882064,10.598015621456673,-0.010981798273156377,-0.013300234112181137,0.2145345298694246
1700842209.6741755,1.6947918331062493,-1.8549955252545043,8.76280933957408,0.016712216704240414,0.0234966923227852,0.1915559856341951
1700842209.6842108,-0.8937292582800671,0.3821979697247355,9.53929635168599,0.013479170337372724,0.013705773335671086,0.1925206868098848
1700842209.6941464,-1.0106208313229383,1.7535932800418188,9.629500496748163,-0.008306902113418278,0.006044522846429519,0.1900058774398439
1700842209.7041466,-1.5997848815556681,-0.5999675859603445,10.813043845152068,-0.00932583920618673,-0.020147261132478066,0.182065093343126
1700842209.714184,0.675983232842049,-1.3069415547212364,9.440172474366205,0.0057773032899343275,-0.01024011418597561,0.1693158237384431
1700842209.7241824,1.1574750576264248,-0.2747995388745852,9.418619781868113,0.013168263379350604,0.004511910653562586,0.1761531917499177
1700842209.7341046,0.48749563307579946,1.062132419915906,9.912358742883395,0.007317726821024037,0.013389795557739746,0.184066259686815
1700842209.7441356,-0.8619207994710011,-0.15900102479215777,9.958672031758114,0.005093692118310671,0.006924393743513095,0.1783258257554643
1700842209.7541094,-0.7634547702686019,1.1596918052131402,10.211489812845178,-0.006580339570609368,-0.009192346217370686,0.1875348774837129
1700842209.7641068,0.5774568444787307,-0.6121846261460588,10.008543339402278,-0.0007904538047855162,-0.00457596275705086,0.181226202671396
1700842209.774177,0.6252480216285705,-0.2999118534590657,9.223497694437533,0.004869714298617178,0.004591393778167425,0.1812790719913118
1700842209.784191,0.7629082702843741,0.4876149928882676,9.69156313140312,0.00421616196026706,0.010375280555287674,0.1991590498136155
1700842209.7941368,0.21002182709903847,0.5494562919420704,9.992049829969673,-0.0027788740708613166,0.015814210974814606,0.1986858187364213
1700842209.806238,-0.9246623979843019,-0.5695791081658028,10.069619167090725,0.0034183362152981544,0.0028718275899969024,0.1853384463237397
1700842209.8144674,0.19667590056781778,0.7577693432555002,9.852696309609492,-0.009673576508084718,-0.00011237341231958271,0.1899013755963914
1700842209.8249197,0.8468081055050855,-0.7848153981331978,9.734802975013968,0.0019486942381610423,0.011841546005870533,0.1899085430549257
1700842209.8341956,-0.001972662633999472,-0.7079002818771486,9.631210443514187,0.011030274855128051,0.013530950139470513,0.1860234378026597
1700842209.8442097,-0.6046715496272766,0.4491400370941539,9.730947239462116,0.007030411136343606,0.008078727579204779,0.1830385713027589
1700842209.8542695,-0.43086446555195435,0.7166395496937996,9.838473407171726,-0.013245625470109545,0.003175446684068126,0.1869821636127107
1700842209.8641791,-0.2224367223334778,-1.1426667740717578,9.96555775656625,-0.007090738686923891,0.0012938885032155484,0.1982201574491136
1700842209.8742082,-0.0851564357862009,-1.329208083504806,9.97183631496807,0.009727929667315519,0.00036878545994387406,0.1920850215600602
1700842209.8841336,0.3925817472283858,-0.8130249351660288,9.656546109097226,0.016091264600688732,0.01024567941513258,0.1715198991941087
1700842209.894258,-0.12986283917968441,0.9522836598321883,9.553687824157493,0.005656006881622234,0.013810501220139458,0.1675675450013749
1700842209.9042363,-0.5591397220245293,-0.2801033059127552,9.66928349486579,0.004751154033780643,0.010598201483752864,0.1611806986974351
1700842209.9141357,-0.5534122560821259,0.24361797668196444,9.801832343661667,0.0030067104006725564,0.0053647465276280195,0.1709506301330201
1700842209.9241457,-0.8058902729647426,0.10101809592303844,10.656665011127027,0.0017830904510487704,-0.0026490289155219047,0.1557395843909852
1700842209.9341297,0.4592132369452926,-0.7112572169721985,9.539007065696635,0.008648438310869857,0.0021299585203349296,0.1274525163816087
1700842209.9441862,0.6995806933502171,1.362386888319597,8.963026444362432,-0.0025768328208549698,0.01848496339553821,0.1269445655988328
1700842209.9541705,-0.45349800382546707,1.0069023243235964,9.985427107420866,-0.011855690576543886,0.006605148198901949,0.1417425213502519
1700842209.9641805,-0.7140248307776034,0.877606643829987,9.678967274970665,-0.01773853956553851,0.0002890530629346776,0.1496069071935289
1700842209.9743066,-1.1718471501495349,-0.27429468179909583,11.006248883808418,-0.019226245451762405,-0.023565529962943966,0.1632313815997712
1700842209.9844162,1.193560007369947,-1.6099229181582249,10.12053602067852,0.00640258674981402,-0.014277191928058316,0.1365544883655183
1700842209.9941435,2.1604184981258023,0.11986914283410369,8.772426118579894,-6.981589804877838e-05,0.019038268789713774,0.1248008025930993
1700842210.004204,0.3553999654327406,0.6178263374882571,9.258849845462608,-0.0012429504483513329,0.026652265445814314,0.1507690040515535
1700842210.0143104,-1.595193576950591,0.8362110616440854,10.160988102348389,-0.013002406104804225,0.003945842485471363,0.1677568493531816
1700842210.0242553,-0.7566239256338935,-1.5656210099167776,10.378946379730264,-0.0038486679531627814,-0.005968740499574713,0.1856992332385652
1700842210.0341504,-0.4291944597274508,-0.42048822414979153,10.076968127425316,0.007449967847422585,-0.01774831406601955,0.1720586059735887
1700842210.0441926,1.8960850087647219,-1.0549981926901517,9.12860361382889,0.00243852883410443,0.011528306270943414,0.1614046184466951
1700842210.0542157,0.47804295644690753,0.7156489731183413,9.232737568786339,0.011383513965894671,0.022793987849463525,0.1853305338071458
1700842210.0641296,-1.6906238076740265,0.7585552128981708,10.540369604634328,-0.008315735666632264,0.005677951929312502,0.1819736002133958
1700842210.074165,-0.7111189318716683,-1.730456273928819,9.87158392930559,0.018575185875658706,0.00036228967891032484,0.1795639036344163
1700842210.084179,-1.4925285975429663,1.8787209502938496,10.433021332151418,-0.013223569446664234,-0.01910213196899227,0.1566216735290162
1700842210.0957527,2.21738607331668,-3.357297913475711,9.004076904046935,0.021516253783121043,0.013832596093973132,0.1570105044292085
1700842210.1041608,0.0567268946747687,1.9151685202622182,8.861410481847855,0.022850985661930747,0.025259346481089653,0.17543939632641
1700842210.1141405,-1.5124427873523263,1.9032754599607364,11.612114932128414,-0.012752492837423156,0.00032120972836709774,0.1905794082330339
1700842210.124164,-0.29648411223031823,-2.198895907288965,9.18650992374674,0.02746892903564848,0.004572925084591023,0.1808827905105226
1700842210.134164,-0.9860000416344984,1.8933738502567996,10.647719963127074,-0.014949289962915568,-0.01583995385068133,0.1622657863544099
1700842210.144196,3.8233841984337262,-2.866502454240092,8.414184280030995,0.043856630858246724,0.03165140060190045,0.1703602461265199
1700842210.154175,-1.4362255415337242,4.533117873982384,9.914524962358714,-0.005003705095988951,0.029983804931982196,0.163387486164438
1700842210.164135,-0.9849005483743501,-0.27068628472715617,10.81187702374162,-0.009555483915400296,0.0065714888542795485,0.1729691712306611
1700842210.174245,-0.9312544047184633,-0.35419146241067245,9.24245965701261,0.01283978611302289,-0.0036378642647247298,0.1661300150798433
1700842210.1843033,0.4278145775850853,-0.08512637660771195,10.363964197623995,-0.009501754554661844,-0.007980237173080103,0.1498396186278932
1700842210.1941822,2.5780356733889795,-0.6669980227928549,8.686892262315865,0.026469550800622306,0.025002344580295068,0.1746966181443803
1700842210.2043526,-1.1041771892226717,2.2954843860932033,11.061666618840068,-0.015942715507052632,0.015591168990241646,0.1605841605113618
1700842210.2142663,-0.511921373448389,-1.2023201475104965,10.125496077433908,-0.0001489403863117508,0.003647433808598953,0.1546818105624788
1700842210.2242336,0.21492389519252425,0.09675378958234014,9.239280893583063,-0.0016711997567687583,0.0054647516396294235,0.1468927500890367
1700842210.234192,0.07047557984528366,-0.9422558416539665,9.583561130043206,0.006577875383501906,0.0021349882214098965,0.1522757498668306
1700842210.2441986,0.8650815723576313,1.618992144499245,9.655421685452504,-0.0008620992693526406,0.00979633275289557,0.1658637760327928
1700842210.2542193,-0.7615778432310317,-0.1920936545720544,10.446572462383353,-0.011230370209952522,0.001821114361815147,0.1572365848468415
1700842210.2641673,-0.6287965294942629,-0.5170208790278151,9.876749767426322,-0.006471476674492149,-0.012401814371451218,0.1500632850574128
1700842210.274203,1.1524868112073094,-0.993723867594931,9.437390652613425,-0.0006686136352694183,0.0006408633197316381,0.1574725149320237
1700842210.2842412,0.6231793357775136,-0.07387226601637582,9.470615244513395,0.014270495359925528,0.00395833404309687,0.1716319857286088
1700842210.2941911,0.6387070553540566,1.3946051308835332,9.898473729997356,-0.00044179140694468615,0.0068357469478292,0.1814041970418565
1700842210.3043358,0.41315072474919434,1.8692488906227636,9.678090414660328,-0.009517312132896263,0.001784519094539247,0.1857815323518388
1700842210.3179474,0.17279347215711158,1.3413860807013023,10.100903714531816,-0.03623909289729401,0.0009486529975690075,0.1850561438249223
1700842210.3248885,-0.2708425189899215,-0.634868325703456,9.97407262767713,-0.02516219393297163,-0.005262822647570528,0.1877677081273668
1700842210.3341722,-0.20190778519847524,-0.5426935337511081,10.355362681570174,-0.032641628222363925,-0.01038120253937374,0.1663436083243959
1700842210.344185,1.0504949893428799,-1.469475843108309,9.494043685599198,-0.0226275614425637,-0.0034775974388522365,0.1564672676967256
1700842210.354156,1.0825080523838724,-1.2359491651638916,8.421286175775556,-0.013219152881019002,0.022925732648063753,0.1640545068429582
1700842210.3641655,-2.549511105476742,-0.2737053443380933,10.007763807145508,-0.014388095151138439,-0.011046029944617829,0.1830357847856157
1700842210.3742008,-0.8286560050034548,-0.8984282843001077,10.187625473429794,-0.008126017958709687,-0.0156740932710089,0.190412530128824
1700842210.3841686,-1.458574302401007,-1.3914922144242892,10.583788967429342,0.008357665762226638,-0.025018483895737124,0.1729804663108461
1700842210.394194,-0.08667634252709308,0.9460290900392889,10.424405463298092,-0.018042306718424352,-0.018137836598377716,0.1387557773040406
1700842210.404228,1.091455846873607,-1.882917876119788,8.660276694182643,-0.0010176581145182992,0.013319391529438208,0.1288637755559556
1700842210.4141655,-0.8447821326496494,-0.42980172216080353,8.85202815236282,0.00674801936061959,0.010837450513517758,0.1506408093618028
1700842210.424244,-0.786307925443292,0.7522817742368982,9.862810962066314,0.007669801128197981,0.0013134521509183153,0.1918640522407167
1700842210.434204,-1.9125506107961259,1.003616218831639,10.768173573903454,-0.007910108852226636,-0.009405054043188827,0.1965598700688951
1700842210.444245,-1.1878134992867053,-2.4971362645463007,10.983230390863326,0.01907650334125021,-0.030357822767531024,0.1710797486947648
1700842210.4541686,1.1461818582756507,1.3090075175737237,9.064972545719705,0.007948159591458979,-0.00785523438700689,0.1442616371558778
1700842210.464268,1.7113787815392612,-0.5195099487652819,9.201280405710405,-0.001405334805397507,0.02610413325097581,0.1488328663753144
1700842210.474228,-0.7479625908485733,-1.1622069889775533,8.642122213716785,0.038118869991928574,0.025270207101463615,0.1669788150237672
1700842210.4842129,-3.136824483364471,3.872774107160292,11.34841139966018,-0.015212807484189994,-0.009949341128130298,0.1774571327613466
1700842210.4943218,-0.8684913688107209,-2.262219716551349,10.578102380955,0.006191859427120437,-0.029460084347899942,0.1736279664682023
1700842210.5042744,1.4623336695484708,-0.317753266512448,8.871476808455187,0.01680922359882625,-0.012428271073012281,0.1638259677337281
1700842210.514173,2.4665233060029075,0.6183482395565105,9.358321178415174,0.009851342320423683,0.023768722754110818,0.1851054964707963
1700842210.5242264,-0.1653742010037419,0.3114263853851602,9.259456059469462,0.024821737388770897,0.028574644009461792,0.2073645977424257
1700842210.5341952,-4.07339025474505,2.3260806503614595,11.493955293160978,-0.02784373195949873,-0.020869724153984918,0.1908757774280183
1700842210.5442474,0.006730945948730422,-3.332348861015363,10.605625585463319,0.012744271788242431,-0.04023484516269942,0.179526978556978
1700842210.5542424,3.6676095306700276,0.023859073570675692,8.320697239784167,0.023929494190826964,0.008512949418790917,0.1638469932721727
1700842210.5641963,1.028339872621682,2.1571079876504613,9.782083918697444,-0.0034119661312489867,0.027193853569599642,0.1620654849456422
1700842210.574343,-0.6783566034932063,0.45514070282325897,9.752761697439631,-0.0020817189055627487,0.019706858064622145,0.1764896301673524
1700842210.5842576,-2.940406297673115,0.33152124032035435,10.708230143386684,-0.023129378188299066,-0.014839145584949733,0.1622899709390275
1700842210.5942,0.14736381107262855,-3.1110685481558633,10.247552983584065,0.006091908373283916,-0.03134588057892638,0.1562023101495378
1700842210.6042073,4.078598085811576,-1.8575521280082585,7.283501624026147,0.0420511118550526,0.02928860249930864,0.1645776866124742
1700842210.6142502,-1.5072653781196683,3.4880955707947865,10.839662169853892,-0.0030302832211820587,0.019418514353129242,0.1656211702273957
1700842210.6241882,-0.3795885479012795,-0.6741592923477168,10.467992772762834,0.007008110685965801,0.009281233533247363,0.1740164099382035
1700842210.6342113,-2.3848853650298865,-0.02979911623462883,9.910148128802916,0.012498843192320804,-0.011122744281344837,0.1490611223624818
1700842210.6443045,-0.050530816735920935,-0.1685697628775021,10.43555770059015,-0.0017729557495554426,-0.026941686306903235,0.1385112343476884
1700842210.654271,3.408160919507316,-1.2025568931947785,7.834494603667087,0.03530392949521724,0.01661654584614938,0.1543721346305482
1700842210.6642296,-0.5557077998738452,3.645918362691772,10.378656936059945,-0.015792927590551023,0.016099833563587223,0.1583045659707658
1700842210.6742113,0.16946741669179333,-1.4989017949739467,10.444768452744382,0.0010626383951044813,0.00788161501539475,0.1801185099528901
1700842210.6842265,-1.3039086751046678,0.5693164381753503,9.665970418118587,0.004988059359396079,0.002295570324417387,0.1727936057494752
1700842210.6942115,-0.7888776538845197,-1.344411455808261,11.268331346071081,0.0007079355532772976,-0.026328420572055238,0.1611783890174501
1700842210.7042215,3.1993317032075543,-1.2625505439561198,7.930512234750491,0.03752228999811667,0.017159609651318675,0.1593531159804933
1700842210.7143393,-0.5986578914967987,2.0930363315845444,10.176702735000687,-0.0006357455346978829,0.018898429203389674,0.1561331985639207
1700842210.7251933,-0.6039203037480365,0.29407081646280586,9.848587417842047,0.009462502691927948,0.0014373714720417234,0.17875950915085
1700842210.7341807,-0.770523492005039,1.1082770295139603,10.414662979439944,-0.020793578773939794,-0.002739087530985246,0.1720476536201112
1700842210.7442603,0.24946546461772914,-2.813148775248088,9.95117927034211,0.026371323814923627,-0.010647908976382875,0.1772288767741792
1700842210.7542531,0.947781217108699,1.5973258048941543,9.307398910657946,0.006977291247966619,0.003707726518739895,0.1637872843192689
1700842210.7642226,0.821001652427023,-0.44543413674312615,9.804800329523438,0.00904837657986301,0.018468725901341763,0.1693744598077409
1700842210.774247,-1.4948562413598676,1.4922675030504393,10.069294831254156,-0.002527468905926356,-0.0055913953544025775,0.1701511232303254
1700842210.7842543,0.630256435770803,-0.8322092617276363,9.810568986575628,-0.002506104056423513,0.003153834971008659,0.1727081922935121
1700842210.7941947,-1.0447148136894728,0.12137145253940529,9.71608679461701,0.006165399994129654,-0.015035394372645242,0.1771856932090394
1700842210.8042068,1.390109605629453,-0.23128249543152798,10.123951845830327,-0.008581716677506759,-0.0017149005351134226,0.1707635758565538
1700842210.814368,0.10729083708399574,-0.9527176543773689,9.376569171174209,0.020636199023647276,0.003164129287976543,0.1634528575585954
1700842210.8242166,-0.5968792816678092,1.573744169531803,10.026245888816685,-0.014400758498788737,-0.004319394125368877,0.1503035662816636
1700842210.8344991,0.3553009628657265,-0.5022660084889944,9.542504791885005,-0.00770611170752784,-0.004058505922452463,0.1643687872336976
1700842210.8442917,-0.4853322533903541,0.3439704403042252,9.979576938156692,-0.014988512445284128,-0.00818193708679915,0.1593114821361177
1700842210.8542092,0.4250292187190237,-2.3364723628754356,9.94588173396857,0.008262625363596955,-0.0054166310491460395,0.1588508872436158
1700842210.8642693,0.1870751609057018,1.5003543734159441,9.785399955274489,0.0013665923146723479,0.0019902794609967253,0.1479006646321885
1700842210.8742898,-0.3460496702584666,0.2742007329517082,10.511920812491296,-0.01919474500221615,-0.004385234356031063,0.1372342644380204
1700842210.884294,0.5994998944289028,-0.9071731984771757,8.552741556583975,0.007526791299348983,0.009959342052063735,0.1466639576600663
1700842210.894215,-1.7070944920742048,1.9445705349897806,10.179895493090651,-0.026101550690935522,-0.012058008197227459,0.1519745228932969
1700842210.9047444,1.2465352750530045,-2.0048137736684524,9.225243523138545,-0.000888419824497458,-0.0003664832342673688,0.1768470196174257
1700842210.9142628,-0.5977920061763725,-0.015268788991567146,9.908488632286916,0.009946085342687662,0.004625036841282033,0.1783621100829713
1700842210.924292,-1.8574429671227641,0.5751212716616347,11.261146340235138,-0.006168711909320776,-0.016154072174306033,0.1516643403218858
1700842210.9342144,-0.20314942095043337,-0.8339585487361093,9.849657071276818,-0.0026021635151259686,-0.013408861830268053,0.1291605619834535
1700842210.9442365,0.6590897996712074,-0.6682184748001295,8.951969373789654,0.008643406638787824,0.0009776491507215786,0.1248980475710504
1700842210.9542367,0.4338294982735881,0.9285850015086933,9.108983658962009,0.002993198877173276,0.009887970223456704,0.1485661951945893
1700842210.9642286,-0.5716732961928146,0.7098281229214778,9.45108515823223,0.005933365279666451,0.00913835182852872,0.1649240343021028
1700842210.9742482,-2.949459697812255,1.5109818408054265,11.123570000576645,-0.019691809353571645,-0.02236061957893054,0.1727881519244783
1700842210.9842255,0.13967757359022406,-3.3565014587786983,10.213286633065533,0.01765985016953584,-0.02693218554136566,0.1554311303542726
1700842210.9942632,0.8166928825332034,0.19267675482775878,8.748419132777393,0.026138802409384137,-0.005047140986269787,0.1444655595468156
1700842211.004216,0.2964926315697445,1.4829143013643078,10.53289328955673,-0.0010322760032898696,0.001527268172888311,0.1468181995795839
1700842211.014308,0.20582269511674695,-1.7158269125178318,9.039040334392991,0.033585847277650585,0.014066442242016761,0.1514411358283632
1700842211.024228,-2.522629412909619,3.182556601299776,10.353843305679783,-0.005414275028690019,-0.012971607755739524,0.1505940942214601
1700842211.034313,0.15484612458334024,-1.4549556584327121,10.386919179446497,0.00176312387907123,-0.016181120017098843,0.1680722175286882
1700842211.0443532,0.5629208940363931,-0.918689083631624,9.16332205894285,0.03226886427342301,-0.00848911088182781,0.1670143691943757
1700842211.054277,0.028516881796593813,1.6325302884726984,10.230607823745785,0.0006945807715139599,-0.0036163849207043867,0.1644664345430009
1700842211.0642626,0.7052849432445858,-2.0825001295860854,9.247786372810413,0.037639748563831676,0.011482859869287043,0.174000689213144
1700842211.0742884,-2.015558804937888,2.708475157715607,10.246430202512004,0.006515525255987142,-0.01017004137916819,0.1634261695788972
1700842211.0842524,-0.34722069845916115,-1.0175392413607085,10.384865300791594,0.006644103080747912,-0.020484290471588798,0.1742612360166185
1700842211.094376,1.4947361753114952,-0.5564041460481807,8.513026829284396,0.036060619794087555,-0.00093942575494478,0.1935302106784455
1700842211.111926,-0.6763258662576874,0.4949321870737127,9.899572006325561,2.034329724793262e-06,0.0014018678671900123,0.1921059576915376
1700842211.117161,0.6190561129355148,-2.456066978181953,9.712170618047223,0.03662918823520763,-0.0022432806236917587,0.2102165756867997
1700842211.1243358,-0.3914763997809405,2.5436333446865205,10.066877789435113,0.005890544741675689,0.0053488085406800355,0.1819546608375184
1700842211.1348786,-0.6172297099732723,-2.063684782454724,10.369619099803042,0.023514519691655224,-0.005007827045277981,0.1689743189262025
1700842211.1442823,0.274310756763841,1.3093227933196512,8.657992626854574,0.02535259174313979,0.0003138169565339895,0.1769389597819917
1700842211.1542354,-0.7527285275532362,0.8176781434184478,10.13381785291669,-0.012492609546601688,-0.00513938575975538,0.1843830285714738
1700842211.1642327,0.8641519332297968,-2.9146896093993124,9.564056862899966,0.04466554646093561,-0.009943350293579204,0.2040740041183107
1700842211.1742587,0.1816254049319565,2.334179393017554,10.155428504326187,0.017943922291117152,0.004613444006093788,0.1691415993617646
1700842211.18437,-0.16515371238334098,-0.25888937641792437,10.809844620980366,0.014179485474063306,-0.0005618241325883491,0.1603770492719285
1700842211.194336,0.2625244388919407,0.7111056187122214,9.173942519359862,0.02281358813483898,-0.0009617692842162619,0.1573302833484285
1700842211.2043595,-0.6311893629346065,1.0403569053861517,9.345542905673799,-0.005686887222675272,-0.0017005069364395772,0.158786633436548
1700842211.2142828,0.38668755110175773,-1.0591579952423171,9.425222000781202,0.017633155411965227,-0.010339276030184977,0.1918061016248338
1700842211.224267,0.5404849760481922,1.0805480937811232,9.962853376147667,0.0040779822678968635,-0.003026422556317832,0.198789337103235
1700842211.234247,-0.148947338165566,-0.08213143502807305,10.869993621160331,-0.004556487279166679,-0.00966647204736117,0.1994690833734147
1700842211.2443006,0.4410265646092237,-1.7598154489478237,9.68170544154982,0.029640642128991156,-0.0014560016427477042,0.1842966912435167
1700842211.2542708,-1.0470393044375446,0.6528030589869136,9.946132189471378,0.014849139021833798,-0.014959134194928319,0.1784784285472505
1700842211.2642574,0.7896305481280277,0.9892126963241583,9.49115808105581,0.004710532667128526,-0.01314109649839496,0.1998328356193177
1700842211.2742646,0.49818500374331726,0.21305317834281748,9.483210347369013,0.0022871278290860046,-0.008357036233380561,0.207870432560312
1700842211.2842536,0.22998856131182785,0.024301886111945885,10.135806019953144,-0.0008242818391571091,-0.01359789417472775,0.2179970083879106
1700842211.2942631,0.6833920829509632,-1.3188436407453312,9.582397187359225,0.019329509777989657,-0.0021375688562049683,0.2017941860602967
1700842211.3043065,-0.9876125668428151,0.6778029323125886,10.340911774450994,0.015381090253643464,-0.01716528508836273,0.1818996457503907
1700842211.3143866,0.5178302430762183,0.7085479929329547,9.81356554322252,0.004888334138539357,-0.011518302761890078,0.1683881668494813
1700842211.3242848,-0.18814153364689712,-0.031932553203873934,9.314728433595633,0.0032460021953514854,-0.012133798651756827,0.1635921685145967
1700842211.3343651,1.2775360235628392,0.21360671419488045,9.81815413867547,-0.0006696850512928037,-0.003114766560684483,0.1667864857362382
1700842211.3442955,1.037328167994449,0.9292106179489416,9.607169216540482,-0.006038667070326241,0.013298161746167715,0.1818279711650483
1700842211.3542843,-1.0391859009950504,-0.3267377310013282,10.567495717095252,-0.01301478493373216,0.0003190725783652606,0.1675355075048082
1700842211.3646302,-0.39393373558253936,-1.6100402558726405,9.62865931290983,0.008517851147075543,-0.009838213283060573,0.1699687479184739
1700842211.374253,0.2997034837887659,-0.3963722026023069,9.356260839518967,0.019728564346523772,-0.004798001500855005,0.1722917495416276
1700842211.3842738,-0.3639775639660423,1.2076009539967165,9.985202677490125,0.004123091862550502,-0.008311439861828479,0.1724265603469484
1700842211.394347,0.7217626651295744,0.1360981175422025,9.712214158036291,0.004651217279973218,-0.001063620175706744,0.1820286451028459
1700842211.40446,-0.6197327495990423,0.28307304065688504,9.822584253717874,-0.001196215544558685,-0.003038087630114456,0.1798086850093476
1700842211.4143276,-0.11269700904373726,-0.5268089621550843,10.176287575303094,0.006802763841101563,-0.007215707061991109,0.1724997995542161
1700842211.424395,-0.004001297993128201,0.009928460773846022,9.368492399616574,0.006329088972650721,-1.4834862009235942e-05,0.1757785765575044
1700842211.4342587,-0.6165759599800907,-0.9293980266755087,9.768055159564671,0.008786608264280456,-0.007998177138795953,0.1779092190908067
1700842211.4443192,0.30754595107742533,-0.2463186901561994,9.481132896541267,0.02526885327553478,-0.0033731112231467344,0.1875375894950502
1700842211.4543014,0.2133535683663522,2.0688784327755823,10.546587109471696,6.274704774834366e-06,0.0016302454032063323,0.1830851225303285
1700842211.464359,-0.5375591675630583,-0.3523475781711158,10.08940253592753,0.00015550496390140828,-0.0012066668965917634,0.1663022576020829
1700842211.4743235,-0.31291823299255095,-0.9061703089805062,9.039283277955766,0.017377414862249245,-0.0042590099220548815,0.1675461916373841
1700842211.4843242,-0.4545573116785988,1.1739398346931469,9.73997962157361,0.0027073546202882872,-0.008648787281592765,0.1723654655860536
1700842211.495581,0.6203974355351973,0.07530473437941977,10.201311763491123,0.0023605121389593422,-0.003988456790666923,0.1740516660855882
1700842211.5046306,0.10680940003361787,0.36294639549521013,10.07214630323853,0.0021368659003330845,0.0013006841702717222,0.1648184893773668
1700842211.5149834,0.013945057795590974,-0.3181928906526423,10.049147842546672,0.005755766390489355,0.0010152913673410213,0.1582191376136415
1700842211.524356,0.08175950683896334,0.06222710305141865,9.052278888773918,0.012478926440228176,0.006934412020056647,0.1614634631322496
1700842211.534424,-0.9274327266630267,1.358088899820206,9.842655192635549,-0.007689983113125885,-0.008777739252850405,0.1836283145593278
1700842211.544274,1.003583723161802,-0.7627962147013045,9.551078338886928,0.00901588046542022,-0.0017339219458858237,0.206071281258928
1700842211.554348,-0.4883055762249425,0.4409793564300587,10.091748201992209,0.0108325281937567,-0.0026623640840749228,0.1931096999095552
1700842211.5643976,0.022695645011734236,0.4220511791396555,10.57813527101585,-0.001997537275244373,-0.0038385682614671406,0.1850911615537278
1700842211.5743337,0.12802475557003848,-0.9012021128257502,9.408527547134677,0.020061784965959496,0.0018999567873571115,0.1749913631127946
1700842211.5843816,-1.0529343922284176,1.9498573880361196,9.7532938903855,-0.010428264364135213,-0.011724081875818557,0.1732754645990007
1700842211.594265,0.3548948520554087,-1.0428367999886166,9.586789688881325,0.0024898892870666377,-0.014922832372381041,0.1879204152272813
1700842211.6042774,0.015487889832118299,0.13883680022261277,9.81939764453781,0.0011132630731144173,-0.020005912681264906,0.1957582919047944
1700842211.6142812,1.2553715155738203,0.08229109988980986,10.427358417881043,-0.002296430809701993,-0.0108618157806539,0.2047587869809739
1700842211.624269,1.0364778903236795,-0.6669718006202662,9.62366950730444,0.010433533567400904,0.005135375431644863,0.1950459567950837
1700842211.6344168,-0.10371131070030375,-0.07626763712386951,9.817625173246332,0.008076916783932067,0.004785651497784488,0.1850644139693849
1700842211.6442602,-0.6391142997355145,1.7334886506583158,9.806568374573704,-0.015484220853965386,-0.00472459310090835,0.1965460119889848
1700842211.655455,0.07600180125362486,-2.2279057821767503,9.788630168741257,0.00445189440170921,-0.0072719214115802575,0.1989906964944474
1700842211.6646855,-0.4591543171780112,0.07316708160199405,9.447867609963229,0.009581908014894485,-0.013825931627008969,0.198902645532953
1700842211.6742792,0.8021102467472762,0.7192062702426434,10.096421966780998,-0.0006785323190362725,-0.0060891581498300745,0.2020553438113801
1700842211.68428,0.1389571820481335,-0.8864448355219234,9.849444984881131,0.010043078965489933,0.0063414538934760635,0.1855917362617128
1700842211.6942973,-1.0921951390629387,0.6682437352727516,10.146632281552007,-0.00668649480586844,4.367935777712119e-05,0.1760953454421632
1700842211.704296,0.03078261244981319,-1.2372389776558959,9.454522044638296,0.008998646502110819,0.002066067927057186,0.1704145906613939
1700842211.7142534,-1.3434500387037287,-0.6940796329076351,9.392613502877628,0.011531912122948547,-0.0032856127829804607,0.1605397252486818
1700842211.7243075,-1.1827932517714954,-0.06199133539425828,9.907306897701723,0.008277411109157935,-0.02369268123114998,0.1857131658242814
1700842211.7342534,1.1241629129729105,-0.5550639691422713,9.479136334596284,0.043719036973951665,-0.006144839597629045,0.1991128562139146
1700842211.7442648,-1.843387407968053,2.535863127862295,10.732744540524486,0.004996733027977757,-0.023248065363729985,0.1973373232530229
1700842211.754316,1.4747584162349152,0.3066169990663439,9.739310818587226,0.013971153421977998,-0.006585259956782463,0.2149597792075746
1700842211.7642894,-1.1578775931828047,1.1013700898211236,9.687685353846673,-0.0029042651451274865,-0.013178897667829249,0.2045373855279557
1700842211.7743127,0.6995707673052952,-1.6079955378977917,9.617429462068015,0.012221504072737617,-0.007749204545038017,0.2060340581582658
1700842211.7843804,0.11407137526016685,-0.0667742720054444,8.945258952037607,0.03153622391096323,0.0022501722072791135,0.2084185419725053
1700842211.794724,-0.8332242538545799,1.8840024946467577,11.136983365096514,0.004115218788983131,-0.01264645403228225,0.2045679925130479
1700842211.8043137,1.3302748448147945,-0.043833568168230676,9.749065867442328,0.01219903299704558,0.007389338140648566,0.1905059753106706
1700842211.8143132,-1.156094293603434,0.769732414566424,9.64146314399074,-0.0015375908051727595,-0.0021317155983745723,0.1781107423947923
1700842211.8244233,0.21370629338067942,-1.673477109771413,9.23606607221175,0.016223711619873016,-0.005163164454844913,0.1836794702457063
1700842211.8342977,0.12970680712133548,0.9030488188888238,9.038498501398509,0.012939408837973735,-0.0054230231113960685,0.2058678655074708
1700842211.8442967,1.0930895375412408,0.8764005243143304,11.266980125434376,-0.002210341355692145,-0.004797938878607154,0.212916055147516
1700842211.8543005,0.9548111675700122,0.18052503082840718,9.794150232982785,0.009255883968298862,0.014481125425074612,0.1937763480590455
1700842211.8643365,-0.9425730292001018,-0.16556913043250518,10.205337571520701,0.0015694990451097554,-0.003122552645544247,0.1809598295138948
1700842211.8743784,1.1121145483071457,-0.051012092321531956,8.777651073732068,0.013668988436812409,0.007868377120788205,0.176031985704767
1700842211.884296,-0.5473239310173948,2.6752452522381547,9.723553831947978,-0.020919309744258447,0.0023855236826110775,0.1830332217858903
1700842211.8943927,0.4219129866985657,-1.688811230847298,9.820368318920403,-0.0074223701676343285,-0.0011309454505532013,0.1944061754392259
1700842211.904848,0.1952967343730936,-0.6589140773523867,9.775663127347308,0.011670016383487069,-0.0005904007414809152,0.1998854814218156
1700842211.914776,0.0860333145646105,1.712575179507595,11.120268447122823,-0.01547342822538383,-0.005600852130986127,0.2041477648662202
1700842211.9243057,1.74463032789533,-3.2125626320064944,9.339346326389117,0.023032376354954965,0.022882041782583375,0.1746491877483003
1700842211.9343245,-2.401975262078144,2.1941517815841216,9.573798386007423,0.000603732408432268,-0.000172667321638951,0.1577474562572114
1700842211.9442968,0.9435070420528001,0.04726025128539916,9.953259492025621,-0.010029403403190359,-0.0014392472655187715,0.172979542438852
1700842211.9543655,0.4435096463978209,-0.4646660688456071,8.655859384183978,0.011793346865666368,0.015520078369801914,0.1724274097131364
