time,ax,ay,az,wx,wy,wz
1682026401.8106468,0.050791659494916784,1.856182771086749,9.79707267107066,-0.002367244836268906,0.00016103124604233105,0.0007898122292831
1682026401.820778,0.14673186807237,1.4040670229473728,9.587812377137656,0.001571103786297952,0.0010793266867007718,-0.0009555021662376
1682026401.8306532,0.05038132135121076,1.7926796451125877,9.773420899523435,-0.0013577093122814894,-0.0007874274297778458,-0.0002264465566836
1682026401.8528223,0.11181851385225593,1.623937886438561,9.677813253671665,-0.0030251568816958437,-0.000477839043107907,-0.0030621275201551
1682026401.8550563,0.3269373834692161,1.5182931120176617,9.525234252090282,7.542028656019616e-05,-0.001139090565354508,0.0016369475286924
1682026401.8606884,0.18203573153098174,1.4143506476528462,9.584872815576288,0.002187296461186842,-0.0002707271268921887,0.0004213920200132
1682026401.8706057,0.08981853923990099,1.7403787006275186,9.726322681818031,-1.361073405407623e-05,-0.0013302038400612884,0.0011552568047195
1682026401.8806171,0.25608410934814235,1.6074837527592178,9.592518290914013,0.0004304542187773504,0.0012625911787633667,0.0008475630764737
1682026401.8906257,-0.014343679203563654,1.6827827405243594,9.769083210135452,-0.0010376877798721712,-0.0015976751541183264,-3.832358756286299e-05
1682026401.9006822,0.23137048000344926,1.568585553690988,9.60208313666317,0.0021537707402549777,-0.0005449222024161651,0.0027049783255793
1682026401.910633,0.14542177163334374,1.6396360043393199,9.643003405614282,-0.0007139456182211883,0.0018437434402753861,-0.0019564750965796
1682026401.920852,0.04035457513111351,1.6452150650642874,9.712261586657382,9.502258192828377e-06,-0.0005445476799840219,-0.0002219769068173
1682026401.930647,0.09202170386403044,1.6700750403007865,9.701791050514819,0.0002862753050477109,-0.0019646175592230894,0.0017624798418696
1682026401.9413452,0.13000888074878236,1.5258661330831302,9.65233685068375,0.0021865472210427315,-0.001765678645974028,0.0008166269270591
1682026401.950652,0.16904400680578505,1.7869703776668013,9.709537249076025,-0.0007962877805721076,-0.0013626144873702245,0.0012971925769821
1682026401.9606445,0.13002622779645565,1.5767412934005398,9.640036442209883,-0.0005157807356478319,-0.0007393621987057989,-0.000145974931132
1682026401.9706142,0.3389646420466653,1.6098331608077165,9.559855322561386,0.0007437142740327765,0.0030444104669811256,0.000852764687676
1682026401.9806204,-0.12689764211174723,1.691195381803797,9.825316968727789,-0.0020163267246728974,-0.0014896434301501613,-0.0016476469010226
1682026401.9906795,0.0851589566694862,1.5306929593393583,9.655714150678353,0.0008733809035049777,-0.0029600183202385705,8.616816427584528e-06
1682026402.000607,0.29787719418655473,1.737475348910083,9.618992082383725,-0.0008473525546978627,0.00017592386755212888,0.0012200820946023
1682026402.0108175,0.12574567880458556,1.5511005234489041,9.654010496055731,0.0012879978581888292,-0.00026290046645365526,0.0014465800357871
1682026402.0210931,0.051396778069319526,1.6296344499279385,9.712640078215264,-0.00012499307021616033,-0.0011554953547911037,-0.0011153066426627
1682026402.0308678,0.20995305951136883,1.6886895649470217,9.650942563680465,-0.0011025048693949567,0.0002996063208515863,-0.000489461830642
1682026402.0406404,-0.013684196512729995,1.5441367946815707,9.71934101093679,-0.00029450751359142064,-0.002121488833856301,-0.0017448825657479
1682026402.0521195,0.24664140379849753,1.5862956176071976,9.58910222440775,0.0025035595210617686,-5.129295207170554e-05,0.0010043629316501
1682026402.060689,0.0950634297657693,1.6911048809112268,9.71901011517376,0.00039952334799795515,-0.0001343950935489947,-0.0010430362437031
1682026402.0706391,0.06887036982666925,1.700640491539589,9.724976121887746,0.00040138932793303266,-0.0022246492031963087,0.0016101235831743
1682026402.0808675,0.21941904243866106,1.6004912194502712,9.606982012151443,0.0006558208923520164,-9.675757272436226e-05,0.0008918837864771
1682026402.0908444,0.16267684119685807,1.713685561764237,9.677062017934292,-0.0006577292665862466,0.00044937138885221356,0.0016876018688495
1682026402.1006863,0.047857885854827795,1.6031634557371932,9.703312523376228,-0.00044239875891044907,-0.0010850824478559516,0.0009674958872497
1682026402.110642,0.05752730891554599,1.5338687536425268,9.68179673976262,0.0007489508719776854,-0.002177708575411878,-0.000677588525053
1682026402.1207905,0.11894079844975662,1.5577446135312636,9.65967894454424,0.0019641479471742907,-0.0024142731445413548,-0.0013716035883985
1682026402.130654,0.2298168539745584,1.7599581825781963,9.665245120650331,0.0005768469141928769,-0.001180067602680171,0.0007693157402687
1682026402.1438017,0.21725499150408245,1.5536796831473914,9.597712882919952,0.0015882614775878004,0.001893310113027612,-0.0013652466133348
1682026402.1509342,0.0016789096271301537,1.9548255949242999,9.841561701939709,-0.0015934997605918373,-0.0010932778232257496,0.0019603057315694
1682026402.1607466,0.21526962800293412,1.4772620009434791,9.577774728294074,0.001099859598231917,0.0008491069195484935,0.0011522921139262
1682026402.1706777,0.07611671752907388,1.6060642124801083,9.699684164439073,0.001421009380483388,-0.0003627720031839889,0.0009984237129688
1682026402.1806242,0.20423761772373952,1.4028342932883375,9.558957766158072,0.004949956185164284,0.0018206488644114205,-0.0012758845824859
1682026402.1906674,0.05403747913963959,1.8203870358172882,9.769272026385208,0.002371695994125305,-0.0007062215717817035,0.001482331035601
1682026402.2006357,0.1832357488724962,1.7630005377159452,9.690816416009405,0.000356678765216756,-8.334208276086526e-05,0.0030681883089132
1682026402.2106323,0.08877285256370478,1.5600581216640383,9.666963271625756,0.0002311407757744002,9.732333696391627e-05,1.7548316333468794e-05
1682026402.2216766,0.16239155899406113,1.6453159106151332,9.662656653866135,0.0004960061250976548,0.00044713368827816526,0.0009529710967913
1682026402.2307167,0.0303619004217103,1.6495506399652105,9.735080805199466,0.0001536558059667227,-0.001577556822153276,0.0007771447288692
1682026402.2410965,0.28838953034566506,1.6863127491524466,9.61117070323436,-0.000859270134270384,0.0016474200230834422,0.0009492328843921
1682026402.250844,0.08874920430873544,1.57279881826241,9.673652470184974,-0.00035519663864656007,0.0013274058855326989,-0.000318847725924
1682026402.260656,0.11078637675511892,1.6070825973191296,9.67275653923287,0.0014623404076942017,0.00021543041371773877,0.0018731245526001
1682026402.2706783,0.11767895961681267,1.5725772052797764,9.647336311566702,0.001112535843282937,0.0011072493146043567,-0.0010933381401113
1682026402.280668,-0.005015721604422515,1.6523923659184183,9.754519484155697,-0.0002877683424775222,-0.0013115916784556543,-0.0026393233694247
1682026402.2907112,0.22974413018453227,1.6454586254348607,9.628874154267208,0.0007958868506691944,-2.7463774696761813e-05,-0.0006410760235152
1682026402.3006415,0.19734481627319733,1.7431274229172742,9.6803044322312,-0.0006625674981302433,0.0005302036562324163,0.0009414194372371
1682026402.310735,0.0834926116716061,1.4932407652607496,9.641521890829274,0.0014113086880048887,1.965556262504197e-06,-0.000128103898663
1682026402.330665,0.10679606136218697,1.6196135517254386,9.69267190181923,0.003095147107672799,-0.0018357151558897893,0.0010565522114634
1682026402.3409345,0.1894839228453187,1.672088623123767,9.667522230748254,0.0013848686979877857,-0.00027069817331541095,-0.0002964645519964
1682026402.3528516,0.204644736512651,1.7341538039265691,9.65033962631032,-0.0007754371470062673,0.0014361927931586577,0.0006895849818252
1682026402.361626,-0.06942619808451972,1.5492990735674552,9.75747031146172,-0.0006576870748711467,-0.0015105195531318271,-0.0018551462691388
1682026402.372245,0.19350919991625803,1.6858791637386987,9.660708799849033,-0.0009888858129280906,-0.0007106995571770021,-0.0002555210504792
1682026402.38068,0.10632791771710702,1.581344747828721,9.66865869759303,0.00023299634801355755,-0.0013611274607191613,0.0006079913454018
1682026402.3906794,0.21392589877950344,1.5629857404729313,9.597782908141491,0.0019257757836623611,0.00023441898247518914,0.0011541413131058
1682026402.4006712,0.17995863111751578,1.7682501868384306,9.69103385091728,-0.0012396393347554608,0.001389260354176205,0.0008021194824837
1682026402.4106634,0.1067009105283704,1.5535952964652444,9.659083367324602,-0.0001466053770890035,0.0012048641788332097,-0.0005006197735778
1682026402.4265993,0.0805190432852798,1.616556433974305,9.696273132961874,-0.0008160658259415548,2.9894666349917626e-05,-0.0023331096291653
1682026402.430724,0.5996330784541136,1.7151885730721674,9.454659416341004,0.00045874670588748833,0.002858889322607442,0.0011679287289157
1682026402.4406855,-0.04294211910593158,1.6735919935112826,9.768037123940541,-0.0016076790071116957,0.00010440465813006333,-0.0010512360733113
1682026402.4506729,0.13303643999263648,1.5624950513885614,9.637350327585562,0.0006129793167949176,-0.00025768242747584863,0.0003774246305115
1682026402.4607208,0.11105065380354893,1.6733141690898103,9.702904700172029,0.00011639894359644818,-0.0009628879507864415,0.0009667605498694
1682026402.4707038,0.10889532050369115,1.5932831110558716,9.680931981166719,0.0005980765939224734,-0.0013801313514419137,0.0005562251770757
1682026402.480906,0.23603816634958616,1.4650536876235467,9.549408332830847,0.0026946769326434777,0.0018761797404257103,-0.002310351830732
1682026402.4907093,0.1171195047194997,1.8413644012418422,9.748070872533093,-0.00023116371426861335,0.0006602325664097517,0.0003848852228261
1682026402.5006835,0.09934389126640501,1.6119848911174712,9.685497615890762,-8.551593908218888e-05,-3.56612865735663e-05,0.0002064362505339
1682026402.5106933,0.06288872463099233,1.6065549230766738,9.701768342263161,0.0003335933226534389,-0.0015555766662506407,3.878770972418392e-05
1682026402.520847,0.20120398564776903,1.630836281947167,9.63092893961047,0.0011304178624692257,-0.0004446910930509636,0.0013322146713622
1682026402.530684,0.20474261407086589,1.6788061084448684,9.646345867254736,-0.00020697085134193817,0.0012257223846904768,0.0010982624824978
1682026402.5407305,-0.0013436506834133318,1.5667235888285427,9.722476334567787,0.0006792953480392272,-0.0013268503460496695,-6.365730782223141e-05
1682026402.5507278,0.12941890384591012,1.7528968582893465,9.732439731317779,-0.0016274013789736722,-0.001699377638889872,0.0003427705831714
1682026402.5607097,0.2544354685199049,1.5670169737939317,9.576945251492917,3.2568996335831726e-05,0.0007377148806742536,0.0011526446777284
1682026402.570764,0.15718146668421717,1.6643061974026816,9.674611850584366,0.0003224207069642084,0.0005957632301676947,0.003197838655848
1682026402.5807328,0.07918414499413787,1.5304112630547912,9.663937359889369,0.0012924477763985268,0.00015359386922806866,0.0010259450517483
1682026402.590684,0.0075396473205634335,1.6298994534689095,9.734491274205485,0.00033693680425552527,-0.0017437069024573745,-0.0006805650320015
1682026402.600666,0.13213726977218787,1.7935718437182833,9.722861500866196,-0.0036483599846259683,-0.0011845251232402883,-0.0018961323786638
1682026402.6106937,0.19900538758132244,1.4193186903905675,9.562332129370098,0.0020963928427796706,-0.00044023145273809947,0.0003397877897955
1682026402.621852,0.1030726410100103,1.7028772402184205,9.710200358827116,-0.00013207195061607006,-0.0009528285800905349,-0.0002480532404146
1682026402.630677,0.103305962674107,1.521197030036709,9.64666771035934,0.000620441241964393,-0.00045286992418614743,-0.002952977911394
1682026402.6408622,0.21718813744733878,1.729953444379758,9.660105753497724,0.00034252241651994874,0.0002724229867629476,0.0004366614028699
1682026402.65307,0.13938830969820581,1.6639741339280383,9.67732371845234,-0.00017566205671074497,0.00015097202570949077,0.0013169392931163
1682026402.66072,0.0666602907168148,1.4169385154065774,9.63514522985314,0.0023046202081614424,-0.00024057012493568504,-0.0004570909205935
1682026402.6707745,0.1432035593534024,1.8439034506877026,9.730549435254293,-0.0013312484779560666,-0.0004402378707397235,0.0006780429847426
1682026402.6806903,-0.008620274922348434,1.4015230911545453,9.689458130504674,0.0020830179079872847,-0.0026418899289912413,-0.0021296885226033
1682026402.6907074,0.28882329599388945,1.708780794448142,9.616517791321728,0.0013829890425020026,8.543154157368961e-05,-0.0006395758956782
1682026402.700684,0.20972339362860268,1.7877779510345475,9.688509568917162,-9.966584974092965e-05,0.0005700657561362255,0.0020295902666989
1682026402.7107646,0.06995809011146911,1.4565224094807667,9.638824530248698,0.002255086468065702,0.00018004272516636868,-0.0002569902118406
1682026402.7207558,0.11074949153213236,1.7385133434200883,9.716311622174686,-0.0004148223060651493,-2.8944530686855513e-05,-0.0008303049381933
1682026402.7307265,0.12046235164108715,1.5462894898261494,9.647095761030714,0.0013498507848946457,-0.0002889915370799522,-0.0005844462558738
1682026402.743322,0.061145106742606925,1.7192553092568221,9.737722724671375,0.0006055456300643878,-0.0030266899111510526,0.0023264902864471
1682026402.7507186,0.2505169804983794,1.6994420027939305,9.624320065290007,-0.0009993329762264466,-0.0008157415954455578,0.0014190092204958
1682026402.760902,0.10718057318488163,1.4568622404759528,9.616980909581178,0.0013729598520265235,-0.0003493203402505799,-0.0013704771537445
1682026402.7706945,0.20929847378788188,1.7696438856607246,9.681015744215165,-0.0011032591873802585,0.0008114546866024379,-0.0001247628953419
1682026402.7807117,0.1675836052926634,1.5039499305792556,9.608568024245269,0.0015495038889208432,0.0015051226538863036,0.0001926405692361
1682026402.790706,0.0502854378707628,1.6673252866564692,9.735266736807468,0.00016036407880435567,-2.5620045431895617e-05,-0.0008184061281494
1682026402.8007784,0.16612678819904558,1.5511091870587392,9.620358557335239,0.0022852608460259475,0.000533947711898436,-5.433022865277922e-05
1682026402.8107278,0.06098496336984194,1.879736295681487,9.78813270576346,-0.003295591210145941,-0.0005132512061537054,-0.0005691781535856
1682026402.8243127,0.2063209499481096,1.5443011241416174,9.597713975720577,-0.0001231441378917929,0.0013579669202683537,0.0005268032999597
1682026402.8313994,0.1110779682826896,1.5280351229568032,9.652133631448677,0.0019559423650384474,0.0007187147175685267,0.0017271005161606
1682026402.840743,0.06243075518401011,1.692009288141232,9.73494106044857,0.0016150867859291115,-0.0010742944264026718,0.0031561163358278
1682026402.8507917,0.14815006616727885,1.5967221486853873,9.653641613576424,-0.00018907682933432598,0.0007660155557452524,-0.0010076457530371
1682026402.8607268,0.15200539838269647,1.757320265706666,9.707421789576587,-0.00180882027894876,0.0003838106756563211,0.0010040032665133
1682026402.8706937,0.12651187441806871,1.596644213936829,9.658652359157358,-0.0015648180522566182,0.0006177486108421631,-4.6147046435598494e-05
1682026402.8807526,0.1361316808240942,1.6606801670235973,9.676930231185198,-0.002010379948021567,0.0005976248072950932,1.3831175107534763e-05
1682026402.8949423,0.09910998197484727,1.558164993199204,9.682832128040129,0.0001666944468214214,-0.0009226571268210658,0.0004578870592527
1682026402.9012735,0.26263708780812683,1.5967449106198877,9.583195855637085,0.0006126091444348624,0.0009161426911679986,0.0003863553155102
1682026402.9107306,0.017404337149887112,1.6623910388093532,9.744277454309406,-0.001044004956173362,-0.0006898228273619246,-0.0013257825177274
1682026402.9229982,0.16677662378241706,1.617457742546325,9.636470132226798,-0.00044536893400916495,0.00021392662058649563,-0.0007967931579909
1682026402.9329305,0.19753294427196458,1.697251953185774,9.655839096262275,-0.000635361034219033,0.0008155628279356159,0.0014935014349762
1682026402.9416676,0.00559428979903056,1.611324627718394,9.74195649339995,-0.0011889258704989164,-0.0009837549028996184,-0.000598615397524
1682026402.950729,0.2642371125382204,1.6041391524420063,9.592345959523293,0.00025683672636306933,0.0008196646446053014,0.0011537743720114
1682026402.9606905,0.0065867306538284105,1.5981752409215768,9.73309630871588,0.0004270763091107893,-0.0015880029747575562,0.0001244613539316
1682026402.9708066,0.1271371290305597,1.6611381767724425,9.670466576705376,-0.001343900956908212,-0.0008146045500167306,-0.0017616412498168
1682026402.9807022,0.1887007859086645,1.598305119209957,9.628227009528704,0.0007072327383238907,-0.0003772745897412524,0.0007234997918717
1682026402.991043,0.037799269807519166,1.7972842879371493,9.770727788665045,-0.0020807600374075238,-0.002764446381378731,0.0019174491625167
1682026403.001047,0.16678216712496594,1.436912962236053,9.59264672292559,0.0001797152529105317,-0.000917069738898068,-0.0012050935894362
1682026403.0107331,0.20420340227728412,1.6085238005071236,9.639933801181167,0.0025259187018226033,-0.0008365934008838595,0.0020079701952059
1682026403.0210123,0.07911189948106558,1.6598857714425834,9.69789003990224,0.0006927099389828287,-0.0011714940634742006,0.0005160006565861
1682026403.030784,0.13003822265329565,1.5987285615239961,9.660447899374219,0.0003071535978763075,-0.0006559399385678572,-0.0011033731408528
1682026403.0407765,0.28931686186325856,1.7098091834727387,9.620950771840924,0.0005973418915415753,0.0012979839749260164,0.0025097781197987
1682026403.050729,-0.007737022909006836,1.6267312924485602,9.739448918488435,-0.0008320821834631528,-0.0005858984236258521,-6.1427023086671e-05
1682026403.0607114,0.21022084188759002,1.640477229935388,9.621391055521698,-0.0012109549273014953,0.0013482920158967117,-0.000655964844685
1682026403.0707178,0.1810055013292658,1.6286781914674657,9.654883514589528,-0.00027066894329334676,0.001661952312629406,0.0010960334201231
1682026403.0807345,0.1504728808467939,1.5757200231744986,9.636448344108318,-0.0005426121572323452,0.002985557245769529,-0.0013216665376089
1682026403.090701,-0.02905510201145036,1.5585832336438368,9.731151257820017,0.0008353743943626422,-0.000265135328310567,-0.0016223184194527
1682026403.1007333,0.12128743857409127,1.67084895037894,9.693639112973056,8.660122782613042e-05,-0.0004614675645575905,-0.0016744715523086
1682026403.1107478,0.058827666702577185,1.6861564789060555,9.721389672185197,-0.0006513779764793894,-0.0023766412652977175,-0.0004883337661735
1682026403.1207974,0.24429094726816666,1.6653532853351505,9.625278511400564,-0.0013074149140933473,-7.850816139240161e-05,-0.000289035158988
1682026403.1307368,0.1811036932404113,1.6919059913824679,9.669086878352854,-0.0013263931481131324,3.2875639865117156e-05,0.0024009949282631
1682026403.1407192,0.05618174108201761,1.4402928997868978,9.642067523952996,0.00032464389204165284,-0.0002822861738841755,-0.0018313069723658
1682026403.150726,0.1004130841886565,1.689624823750463,9.729949059990881,-0.00015552973477544788,-0.0014866669330609512,-0.0005945026770345
1682026403.1610334,0.2522598031481361,1.659865805780372,9.601550435566105,-0.0006875288651436019,0.001221607457674522,-0.0003914897225908
1682026403.1707122,-0.04382502637330703,1.5693094706099062,9.748465905825023,-5.3069872200227545e-05,-0.002057770333149616,-0.0012967150088511
1682026403.1807616,0.16948392240380272,1.7655013457055226,9.693639046826755,-0.000730725825693427,-0.002471632187513895,0.0024352698109001
1682026403.190723,0.17907899993519777,1.5062140289067938,9.60424149243245,-0.000245341758832109,-6.471431840096243e-05,-0.0016506294615678
1682026403.2007282,0.17591067417702527,1.7365672609420573,9.687983952655538,-0.0020338431709112695,0.000577880240790155,-0.0007882303454093
1682026403.210739,0.08630707489856826,1.3670475743041983,9.611292857977034,0.002750542321136932,3.215001505358677e-05,-0.0018931523792557
1682026403.2208395,0.08494049924579976,1.94062693591237,9.813823173961445,-0.002642173630309007,-0.0018413123640999608,0.0001341582845784
1682026403.2307236,0.19873371448191104,1.542505935534834,9.603316992615667,-0.0006748603160947133,-0.0005445335471024638,0.0003379342250414
1682026403.240797,0.06851792789754164,1.613468364361385,9.711312138477703,-0.0003946951097985258,-0.001950464980231082,-0.0004179276421777
1682026403.250758,0.1453585695755088,1.5587304176115107,9.638039538193627,0.0009251625004455701,-0.0015794362502184924,-0.0004268797475956
1682026403.260737,0.11087306719919705,1.810913261940375,9.7539832037361,-0.0035384978568827404,-0.0017325359893748968,-0.0014475878689549
1682026403.2707467,0.11770911910151911,1.4646515024537659,9.623506591301021,-0.0005869123117187681,-0.0017336574439070238,-0.0022805709287635
1682026403.2808805,0.29358572520026543,1.7166423532699047,9.611448722386305,-0.001526441698638715,0.001303562083771678,-0.0008023971587531
1682026403.290737,0.057850007121890416,1.5280214009889137,9.688707858532728,0.0007370221902369609,-0.00044060060406068984,-0.0008925356797985
1682026403.3007326,0.27642834412608425,1.6436423942184464,9.602043894645222,8.397643961835916e-05,0.0028182766102707456,-0.0018901765707991
1682026403.310728,0.07452755294990303,1.8345172812875605,9.770183178917664,-0.0012503991409994325,-0.0002435323167215556,0.0035103816643245
1682026403.3208275,0.11062375800964096,1.4458174399196073,9.613847728289292,0.0014668159322470309,0.0002828523592302824,0.0016488634808925
1682026403.330794,0.03792920481460983,1.8252326240662065,9.787696810568,-0.0036733450493118937,-0.001093649759507481,-0.0003601746995113
1682026403.341324,0.18870070794807012,1.5280715885623373,9.609164082588128,-0.0006025844521998577,-0.0005091488018272445,0.0014905443402827
1682026403.3564565,0.11536023107652552,1.666796578770845,9.689436851233157,-0.0021385182609176484,-0.0009498546034597743,0.0005666661180444
1682026403.3607483,0.30699623402726317,1.479577890670535,9.522962431920542,-0.0007858690071288806,0.000602476056307045,0.0005413311172165
1682026403.3707924,0.131026415065015,1.5345292189965611,9.638685996745833,0.0017678187052260653,0.0003648079147201571,0.0015717416407428
1682026403.380758,0.11387241436181869,1.5193874613582017,9.647127192525033,0.004342740292109159,-0.0002498572204199654,0.00195397067169
1682026403.390781,0.11272639677935609,1.791572824092176,9.740113924536244,-0.00020732016395153062,2.2452453202908962e-05,-0.0001951434079669
1682026403.4007485,0.2458436126776048,1.6193405641946546,9.603659984294497,0.00032573629169019205,0.0021902096056244102,0.0004310739330835
1682026403.410742,0.09400912275558192,1.8069981351730604,9.748940344531684,-0.0028783463388329733,0.0011471119034885723,0.0011932476644292
1682026403.420759,0.0005943872734057524,1.417648194033921,9.667831408080628,0.0013666079297406715,-0.0013760319584078908,0.000488799401734
1682026403.4307778,0.1610366157860464,1.494890660118442,9.608617380377579,0.002858963667291716,2.0224018699440154e-05,-0.0021803541004769
1682026403.4407542,0.18597305458480412,1.8364278547677302,9.705464186059094,-0.000181250564990388,0.00045458433435885116,0.0005055747331939
1682026403.4512544,0.03162554533117247,1.4636071498356311,9.674859005942395,0.0031521511162898638,-0.001515699063808207,-0.0002033346228413
1682026403.4632018,0.18968807750019115,1.7148106568916694,9.663471788293469,0.001616208142952459,-0.0003891841426687382,0.0007398995675035
1682026403.4723198,0.1980407060435188,1.6884785326599794,9.644313891099445,0.0002788312907327377,0.0010886232119391,0.0005197210574411
1682026403.4812036,0.00024018453536605938,1.6742105306975854,9.755535893013416,-0.00107979786480427,-0.0010273436530245101,-0.0005386291433237
1682026403.4908493,0.180899392011767,1.6045812074622223,9.6418442234458,-0.0005899122801476343,-0.00018577948403895967,-0.0004082304787002
1682026403.5007384,0.15987820089675647,1.6467461183055119,9.661697559857387,-0.0010026821331086111,0.0004314716177578447,-0.0007792980305962
1682026403.5107818,0.08715977849925878,1.6278068860021815,9.694072965372595,-0.00033694771638268157,-0.0008682712039834782,0.0001691887026541
1682026403.5207863,0.2795182746013663,1.6463790236414684,9.591970770033933,0.0005045639299533568,0.001544609355192033,0.002048202690145
1682026403.5308063,0.049237761574994925,1.676635702335202,9.749201382480997,-0.0007914539012342259,-0.00028042241586438157,0.0015903651381964
1682026403.5408037,0.14629708420074797,1.4906221821440782,9.608107169422263,0.0003704633093346596,0.0009988493140044733,-0.0012442005228362
1682026403.5507777,-0.04243632222766851,1.665289018847051,9.75913422906464,0.00033732327529368736,-0.0030054746289920817,-0.0001217610098533
1682026403.5608003,0.380352003179111,1.7556575567857982,9.585801555581398,-0.0006599438717496217,0.0010115109369268393,0.0026599202409275
1682026403.5707676,-0.011903301858817657,1.5480086134733757,9.713315219125088,-8.514995763801891e-05,-0.001209499851198217,0.0004955035272874
1682026403.5807674,0.23167959763998847,1.5890869677113901,9.60174893179479,0.0013673417764997213,0.0006553801937915897,0.0020284707005489
1682026403.5907707,0.22750316770871504,1.7266299634965896,9.655153845871117,-0.001210187047334137,0.003024655655611152,0.0009801747963652
1682026403.601016,-0.09923023730834338,1.4848987609490418,9.74506307357933,0.0015092930797630404,-0.0014684212821116584,0.0001375092996172
1682026403.6108592,0.2525754839474605,1.7024826717612631,9.628905886109612,0.0005939661206534247,0.0008878406799769613,0.0012956959998123
1682026403.6208525,-0.09348086315024759,1.6522780090495326,9.810549571290041,-0.0007273703074401548,-0.003313177352510989,-0.0001456120645738
1682026403.630784,0.3010977127232749,1.530213810043883,9.549048376619613,0.002124702880927158,-0.00032511350454926595,0.0012673905456327
1682026403.6408715,0.15412844612167226,1.629476550999137,9.658924224220591,0.0030023684545903923,-0.0004949548437035556,0.0026368109264299
1682026403.650838,0.1387148402275795,1.6481109979437165,9.678615274841706,0.0020874308181563117,-3.638567736273087e-05,0.0016402801355584
1682026403.6607893,0.07872359112988338,1.6840832914533561,9.722036883517276,0.0004874435563041019,-0.0008731220219082283,0.0007298313883953
1682026403.6708012,0.18434872820262194,1.7063258840160336,9.660207789960575,-0.00041445395787964194,-0.00025210781220888007,0.0020862108666338
1682026403.681387,0.048744386894706115,1.4942633576663715,9.667959130143956,0.0010551746105196974,-0.0009442605215677479,-0.0010333472292981
1682026403.691436,0.2393694963942974,1.5470802956304508,9.59668356281422,0.0022402174934414588,0.0017383132239414958,-0.0025409533538035
1682026403.7007935,0.1372194499748673,1.8802689545167182,9.758028363049512,-0.0010116000842643775,0.000662819106547875,0.0007510528538264
1682026403.710765,0.09282491091910598,1.5778661787179447,9.668152357727156,0.0002724882649486056,-0.0004391099743939673,0.0015546170342136
1682026403.7215216,0.21648725893748272,1.4577141781853769,9.566598403211685,0.0016213529451564908,0.0030540473279085795,-0.0032440232008807
1682026403.7307954,0.05685523274079854,1.837501241632471,9.793544204726164,0.0005418200842464304,-0.00042644466966685604,0.001968501894095
1682026403.7418149,0.1947652212250647,1.6492077467626816,9.646377467889327,-9.593741987712779e-05,0.00107595576478063,0.0017825782577861
1682026403.7513666,0.00945367260745047,1.544033906901818,9.701783496729094,0.00027136520708708763,-0.0003955210540836487,-0.0006641679339222
1682026403.7607937,0.06431180336378972,1.3752523965290169,9.630071736227556,0.004190354448792207,-0.001108549203989107,-0.0029001155763976
1682026403.7708223,0.21576153582225516,1.8937335522352032,9.709836775719637,0.00014172588011497576,-0.00020515487288957337,-9.08442435897628e-05
1682026403.7827966,0.10946907598404093,1.5471344798229245,9.647983231787414,0.0018646714883521144,-0.0002964185162274142,-0.001005033626046
1682026403.7908351,0.24115503237688157,1.7497326793560668,9.660167670954042,0.0008156203691850506,0.000953782166068445,0.0009298819803521
1682026403.800832,0.016053786967638334,1.7125276987515163,9.76639519690897,-0.001637095764618432,-0.0012545884221481288,-0.0002070784231759
1682026403.810824,0.16299115419266516,1.4845775207468732,9.60480465656444,0.0020934113527402865,-0.0010191329582989893,0.0007052473828085
1682026403.8229156,0.09864333880677452,1.7151168366347178,9.725303805935788,-0.0009020954922840785,-0.001447156680797086,-0.0008344206854812
1682026403.830803,0.35804225488011016,1.5389717990717235,9.510793549462653,0.0012123958887953735,0.0019294202171427491,0.0007108431180827
1682026403.8408556,0.15227157898548438,1.806297042843206,9.71941615796459,-0.002098293308538528,0.002265446586692769,0.0011057352984212
1682026403.850789,0.05666790864651559,1.5597990499110943,9.685919917073246,-0.001701168132188847,0.0014849981588163361,-0.0007174419134966
1682026403.860772,0.0961378447259953,1.5497318390746277,9.663322595515588,-0.00018646994126680826,0.000985458211476837,-0.0012426829327009
1682026403.8770845,0.205405749827326,1.6797600895457279,9.648918730128148,-0.0007597995064847155,0.0030239127240177313,0.0010129374439716
1682026403.882009,-0.2983541150504849,1.1759539635161194,9.736385270646421,0.003135750201760152,-0.0008671532493426233,-0.0004928106337897
1682026403.8907628,0.09546832762865153,1.7927393747134879,9.746928853471415,4.859704270925415e-05,-0.0016256088055889072,-0.0004890830151848
1682026403.9008343,0.27715469866363013,1.6454885551358893,9.597554605736288,-0.00010116417511819777,0.0013166160234504129,-8.414489106458819e-05
1682026403.9107852,0.07371623752594482,1.6165548839120336,9.693837929420116,0.0005649158809958493,8.318465050762315e-05,0.000446346459154
1682026403.9208338,0.23894503041842732,1.7241428895189854,9.65105724340209,0.0004762273017402282,0.0010525056493196129,0.0039417893729992
1682026403.9309194,0.06262670306126393,1.5440455416236691,9.676553016665657,-0.0005716846112772852,0.0013065604491972508,-0.0010765531461797
1682026403.9408104,0.12026576915591496,1.750626527845683,9.724443179895877,-0.0028168597085056137,0.0008341900098833652,-0.0006381055701635
1682026403.950788,0.23772863701772604,1.5904019114723809,9.609595805509187,0.00011564870234298442,0.0016045806075324655,0.0033598884345852
1682026403.9608262,-0.01046301546669444,1.577561013184042,9.72475610299013,-0.0010965636924576303,-5.133585669056801e-06,-0.0009793456539623
1682026403.9707806,0.20721708066177635,1.6594404091841528,9.647507162434398,-0.0008257272577524815,0.0008554271199269886,0.0011206391953751
1682026403.9807963,-0.001282879064659478,1.5861382890985194,9.71845260876954,0.0005273060837725178,-0.00207973024885638,0.0021059543813467
1682026403.9907873,0.21261356153310673,1.5378014714381976,9.603417406210596,0.0010056280014108837,0.0004653766230440389,-0.0010203184921405
1682026404.001377,0.06075188812544787,1.75759565828715,9.76093404333774,-0.0016504920057179983,-0.001349576608218692,-0.0005475754279754
1682026404.0108025,0.2059495238486686,1.610220173504446,9.623914470171036,-0.00015256216847570717,-0.00048642892476742573,0.000990964692261
1682026404.0209296,0.31256481350597426,1.633216635783667,9.585981014297516,-0.00039470627877917193,0.0034649922551164467,0.000730960617017
1682026404.0308352,0.0030675453596062936,1.611997936488211,9.747017536593814,-0.0006513801174206571,0.0009966146879010775,-0.000461510744702
1682026404.0408084,0.17018439897174173,1.5246631949774232,9.594883749340834,0.0013971579490941568,0.0020165897064420733,-0.0005974917568377
1682026404.0507913,0.07703121393842592,1.819183768627852,9.762270174104284,-0.0014936772261055981,0.00022100421867983638,0.0013806406803783
1682026404.060927,0.03508990334155784,1.5410161620502874,9.699028206363462,-2.254956266846268e-05,-0.001617420951825884,0.0008695323939323
1682026404.0707886,0.08462634001607472,1.5841018346232951,9.670355375276511,-0.00029188215813077885,-0.0018640408028305785,-0.0013246642321459
1682026404.0807831,0.17323097268001297,1.631153835057763,9.648980920434173,8.397927839369994e-05,-0.0011908592138982369,-0.0006846547022573
1682026404.0908043,0.1955993004175292,1.5881080852746114,9.631379690657662,0.0012250388031137217,7.566501603683355e-06,-0.0003236717440299
1682026404.1016643,0.20469086605783565,1.7920363134037032,9.690225713001398,-0.00133982425575729,0.0009031055134240097,0.0018574801086802
1682026404.110775,0.1676722754855563,1.5947009804686454,9.640505493628417,-0.0004204332698374174,0.00143247356716901,0.0022061718208138
1682026404.1212168,0.1355624624311042,1.588647032957352,9.670222169053243,-0.0001365558141163625,0.001683556325443413,0.0007682079320661
1682026404.1311138,0.045872296210443635,1.5135204236302326,9.677814071407768,0.0018583415025538003,0.00014948404737217006,0.0001270692899711
1682026404.140823,0.18689433547829962,1.709724484964677,9.661138319017887,0.00021621813128229356,0.0013494038440616772,0.0001404827797673
1682026404.1510108,0.1366841742945146,1.7640153006294166,9.714269026095291,-0.0012790852871314435,0.0006062014347956716,0.0027158172323256
1682026404.1608062,-0.041189216551300416,1.4787936764059646,9.70988266539549,-0.00018348691016934417,-0.0018021858969415373,-0.0008612437069527
1682026404.1708312,0.31106824026366264,1.528197313245754,9.55291482536235,0.001502194203088905,0.002167874024186338,-0.0016997832700721
1682026404.1808827,0.022568863940716014,1.859955593359091,9.81021034693416,-0.0014292279450312689,-0.0014289325624664182,0.0017066102535468
1682026404.1907914,0.16179496893527404,1.3523530142409705,9.571956941103428,0.003389816637513399,-0.0004313019921360879,-0.0001605195121951
1682026404.2008915,0.07866977922024898,1.7827662377507567,9.755867050642337,0.0007094691285270888,-0.00197617374921362,0.000716421507474
1682026404.211007,0.23727952120802787,1.6338506109635513,9.630576898108695,2.408459802309481e-06,0.0006076851725868039,-0.0007271374471597
1682026404.222798,-0.005958545889234809,1.7648965293158791,9.7982529677066,-0.0018904096070803283,-0.0038939488889055485,0.0020511867349855
1682026404.2308116,0.27278578388585545,1.3907320428149323,9.502919926824326,-9.896048639335745e-06,-0.00016344645938892914,-0.0016070496186725
1682026404.2409265,0.2809762237502093,1.663297690526337,9.600877151281011,0.0009229218890248513,0.002005058208879064,0.001435058731528
1682026404.250887,-0.06988053098341478,1.5260153217562238,9.72679322122891,0.0011259335411724248,-0.0007944899267958444,-0.0019911226246617
1682026404.2608786,0.19024922314715068,1.7017818659213224,9.66301990111763,0.000491168456963878,-0.0003314495522184628,-0.0004108486592881
1682026404.2709074,0.08115073517261592,1.5677469861925257,9.675876356664913,0.002038276526780902,-0.0014337684504110604,-0.0001657290978468
1682026404.2809258,0.12225199808337871,1.828785369906228,9.733215779629152,-0.0011587622749881813,-0.0020339139124344067,0.0019312375242011
1682026404.2908657,0.13795110412351388,1.640728890929202,9.67958390361551,-0.002326274390956086,-0.0014378623682293427,0.0003487426891811
1682026404.3011472,0.14792823856133264,1.4780125116848855,9.613977891069494,0.0007459727150561607,-0.0011610816193371053,0.0001930019223951
1682026404.3108091,0.15302751130501632,1.6085041440448815,9.6465678763106,-2.2167991709304408e-05,6.416827962185952e-05,-0.0018242279894761
1682026404.3229167,0.152626367041609,1.6188446259547171,9.648768934597818,0.0008782025870321727,0.00046427406464215603,-0.0010199434019736
1682026404.33091,0.24174345578197504,1.7709181431147212,9.663966726290258,-0.0012735465472841956,0.002244208101273082,-0.0006857750833146
1682026404.3408442,0.08861556104503468,1.6629807074543506,9.710234556863606,-0.0005426068117502652,0.00023628578775913446,0.0019707148766033
1682026404.3508096,0.09969854233246495,1.3976711997016806,9.603181566388384,0.0017644987476789454,0.0012517971976707745,-0.0026318550936989
1682026404.360816,0.15115130102793226,1.689624594335726,9.688000236304928,0.0012287506000655045,0.001144127901469679,-0.0009849410399906
1682026404.3708088,0.07431631051018883,1.6521383820679187,9.715207431132018,0.0011918955526616067,-0.0004156318029410901,-0.0001448526874296
1682026404.3809035,0.1333485735410851,1.6667233461533202,9.685284124113902,0.0006174504071088998,-0.0004495452269464846,0.0003684745041542
1682026404.3908238,0.14761522445939043,1.6937141250862142,9.69692896683045,-0.0004535673948636162,-0.0006089816461986537,0.0005893934156634
1682026404.400825,0.0985926028547471,1.566851414841951,9.670926957305962,0.0016743189398995386,-0.0017906334111727547,0.0021134039142057
1682026404.4110267,0.16395805033841396,1.6972283452901902,9.65957544085057,-0.00045580224553585017,-0.0004018629621144014,0.0007410046981536
1682026404.4209657,0.27739896201857245,1.5865537215090881,9.577292955892798,-0.00016711413866414058,0.00300008221773839,0.0002112856471799
1682026404.4311078,-0.1417498709329575,1.6085072982407884,9.808338449522717,-0.00041892156116215656,-0.0022078725705971525,-0.001160750527691
1682026404.4408467,0.2828235860978781,1.5934954879374605,9.579665388393366,0.0009203227889078477,0.0004739645878008279,-2.564758883041537e-05
1682026404.4509072,0.05711374855011991,1.6439639827650423,9.711159124371273,-1.3245594383831116e-05,-0.0007829533973492307,-0.0006600754696987
1682026404.4608412,0.16176670224667475,1.674646361300685,9.66544157723189,0.0006021750833631297,-0.0010623403875882852,0.0023551658249348
1682026404.4708416,0.18667745151063034,1.6024407888982628,9.630386641696704,0.00089200918690689,0.00042962214941468657,0.0017945437519816
1682026404.4808395,0.04214674282763698,1.6263337889220022,9.714929130401584,-0.001433317200097686,4.923571700511373e-06,-0.0026557183720282
1682026404.491174,0.19670565446042615,1.507389957069188,9.598991418943221,0.002164195308075334,0.0007555982052784406,-0.000643672085192
1682026404.5008714,0.15414602476393774,1.6886268135912899,9.685184204861976,0.0011747516238446636,0.0010420741289437875,-0.0003329800803325
1682026404.5110395,0.05051025792693083,1.6268372057695475,9.724208350361858,0.0017316798128870301,-0.0009196692492933611,0.0004373922582604
1682026404.5208333,0.11851194846620858,1.6854377608568587,9.695812193664828,0.000817870201506066,-0.0014114058608240504,0.0011630781099088
1682026404.5308635,0.25807132755363155,1.4904914642110718,9.556780858254514,0.002655557142730572,0.0019830756775794114,-0.0005822120130173
1682026404.540853,0.06879177291008216,1.87827091920934,9.787176446594412,-0.0012090564887792213,0.00012154228411436971,0.0020165360636897
1682026404.5509026,0.15028586297310573,1.6654765195496373,9.666232392640904,-0.0020681055614853922,0.0007399391254198957,0.0016767944851895
1682026404.56091,0.12384082630011746,1.367478342387071,9.591337553319764,0.0029833826802381186,0.0008457333121760076,0.0003967753017209
1682026404.5714245,0.10771096483236674,1.7359323434117657,9.719402788742357,-0.0003310205373180258,0.000707549774648672,-0.000690238679584
1682026404.5821056,0.12243356341981419,1.577807499009,9.668850622215118,0.0008100486162993677,0.0004270179540063438,-0.0003955798585079
1682026404.5923374,0.1391656416581781,1.699996769169271,9.68326792579294,-0.00024532267914405986,0.00042254759909343025,0.000534641427163
1682026404.600876,0.10496888226039323,1.5496494367192297,9.651778859689067,0.0020379097530861586,-0.0004439515431219425,0.002111896685034
1682026404.610897,0.0962964744977081,1.7181446344587001,9.715020359759334,-0.0005470719775290476,-0.0005322451051244897,0.0003554413432143
1682026404.6232529,0.18559878100148922,1.546836912839525,9.615958114860687,0.0018691554500803742,0.000890817078295161,0.0005070739297084
1682026404.6308663,0.1280368539789647,1.7041301631635144,9.701068466028186,0.0004095682663938179,0.0010416953784796387,4.519113514598249e-06
1682026404.640883,0.042545497241557755,1.5121195830179472,9.677074168607112,0.001635223803905923,8.094440024483386e-05,-0.0022243157856277
1682026404.6509602,0.3387202405212099,1.794881522455253,9.61742771614651,7.800754810590571e-05,0.003142380575689397,0.0011724039667174
1682026404.660905,-0.0008983703984747605,1.6271271811253285,9.743444441641305,0.00011155272221350168,0.00025341896955975734,0.0015210800646459
1682026404.6709013,0.11301583187360414,1.5654839115701507,9.65130373712249,0.000540701945553913,0.0005272308079288203,-0.0004250094190351
1682026404.6808603,0.12554004962909157,1.729880841278337,9.710848547469604,-0.001984327382388213,0.00069261651941005,-0.0009622000053636
1682026404.690847,0.1029816566006984,1.490518621325053,9.647459613298263,0.0009765569114753296,6.005634669340332e-05,-0.0011417778570316
1682026404.7008858,0.19694099891369723,1.6580454326613872,9.639447012369054,0.0016892110912694132,0.0007272831087822713,0.0011317831102647
1682026404.7108474,-0.004763454946814874,1.6018243666890293,9.725259845587447,0.0014839634675734429,-0.0014810583489258033,-0.0006135002605728
1682026404.720874,0.27323892526786697,1.6709131799900638,9.608679873092319,0.0007619957798911503,0.001204484747632365,-0.0003274021566025
1682026404.7309492,0.09310889837785537,1.6684521799252259,9.718715909816758,0.0008338861996836169,-0.00037503395720171214,0.0011876662482396
1682026404.741847,-0.013217194496613767,1.5430234804060208,9.711187490688609,0.0015342583469613847,-0.002872829290318825,-0.0007278727263323
1682026404.7517877,0.3165212667812275,1.8445246523569134,9.644276209468124,-0.0019496503231444615,0.00029028782033052396,0.0010129320306591
1682026404.762035,0.01236273058859987,1.5858503467329623,9.727812563842164,-0.002482744988573317,-0.0013413859719877842,-0.0020801500778756
1682026404.7730553,0.15433024262125777,1.5133232718294352,9.614984216536854,0.0013524554618284767,-0.0015175734113231337,-7.110067066920197e-05
1682026404.7809808,0.29868662335553564,1.9742632874275117,9.686271836205856,-0.0036729751884304043,0.0010524795050463342,0.0010002804209366
1682026404.7908468,0.025940851949159984,1.3983450459166962,9.65736404261347,2.0279805773789225e-05,-0.0004756169751776889,-0.0009443151194713
1682026404.8008494,0.25235750179875927,1.6309105895407479,9.604594715366868,0.0009735993314800885,0.0014384228296760132,0.0009581937791668
1682026404.811241,0.02760661290079362,1.7174468527763773,9.765746364908884,-0.0013580705519524244,-0.0008850337618467713,0.000279813409958
1682026404.8211346,0.030023225924609362,1.5558995815178924,9.69830789384923,-0.00015479364967193405,-0.002777475188293428,-0.0003717400960735
1682026404.830888,0.34679459854478967,1.5104774026723389,9.518235226213687,0.0022409305260628607,0.0016109306493675432,-0.0003668641567341
1682026404.8410244,0.05738067383653078,1.6265477172915577,9.709965379512589,0.002653678924292649,-0.00022040373663016765,0.0002738670317344
1682026404.8508842,0.10672829341127299,1.7813779159247727,9.734415566018761,-0.0005016285457738608,-0.0008220741995720835,0.0005532493686191
1682026404.8609393,0.2836894786798517,1.6316759016868485,9.598256971875696,0.00023339453967460087,0.0018221294915093836,0.0020854892080538
1682026404.8708894,0.04706534582332972,1.578928704164325,9.690346471931713,0.0012857787668025115,0.0001692216771640079,0.0021897642744593
1682026404.8808942,0.2026845424714606,1.6624696690780385,9.646375900661882,-0.0004535573597114773,0.0024312133309133794,0.0002451537746824
1682026404.8908782,-0.11308706777284339,1.511848066747809,9.766342068272486,0.0010957711791215628,-0.0019914123192128945,-0.0017642575677595
1682026404.9009166,0.2269344853414496,1.7532718402601657,9.659717589842547,-0.0007445249300754185,-0.0003810061771307968,-0.0006347460568062
1682026404.9108646,0.031942962868245245,1.625649358659473,9.710223859994096,-0.0006763440052640865,-0.002483937084516295,-0.0007777930133156
1682026404.9209304,0.20762675419696075,1.691206112481756,9.655234810890182,-0.002926424363696951,-0.00025285650920921275,-0.0026154759235791
1682026404.9309173,0.22658664970534115,1.6295808001677228,9.617764252250554,-0.0005750318055111933,0.00031637432085958393,0.0017632218058284
1682026404.9409163,0.08903449877420219,1.6265182530308053,9.692149480727867,-0.0007575378587496678,-0.00022938130857843764,0.001046465696942
1682026404.9511557,0.23452432120746064,1.5565020273221946,9.595984274718987,-0.0005049559331972892,0.0028648490924586757,-0.001583572606381
1682026404.960872,0.03184589230000555,1.5462486250511756,9.707774647798809,0.0022547021120357617,-1.3289364965362147e-05,0.0006188100540898
1682026404.9709487,0.14606940319993802,1.7392765753626618,9.69470736478821,-0.0004487329813991947,0.0005406350364972441,-0.0001504554076231
1682026404.9808686,0.018478409971430534,1.6122904706415349,9.712124278717672,-0.000310510486986848,-0.0015075271073425667,-0.0009010984923802
1682026404.991089,0.3351244991783172,1.6540400447473187,9.569297146404631,-0.00037493086411683634,0.002499022204891284,5.408002639937007e-05
1682026405.000878,-0.09320172055555222,1.6506577509818012,9.796143631004501,-0.0010119917984820182,-0.0017876653568153014,-0.0006693896267674
1682026405.0109248,0.3571970234442829,1.7786964715451261,9.60213710748233,-0.0030720803985197264,0.002327280096325704,0.0012998111068159
1682026405.0210173,-0.008600846568761459,1.494928975158618,9.708422255442205,-0.0008298072665226263,-0.0004000052675421012,0.0002615672873221
1682026405.030862,-0.005505682333058514,1.4005746952935554,9.663712867175924,0.001901575428543933,-0.0019824832576103317,-0.0033150831133238
1682026405.0409644,0.25220253148301436,1.7610821905653067,9.65606827795328,0.0011453217049236988,-0.0005777011466254477,0.0001870357535667
1682026405.0509346,0.09574452429371781,1.7539493419573857,9.725580037587704,-0.001292500027738623,-0.0012914605475220285,0.000464591883298
1682026405.0608842,0.22282911684133805,1.5443940483614338,9.584784283436438,0.0005619503613284814,0.0006807049083686397,0.000745839426469
1682026405.0709193,0.14728302878695523,1.7219147828573087,9.701896018241602,-0.0020841371016658604,0.0013050644570042538,-0.0007219103992096
1682026405.0808716,0.04814037811097791,1.4897546631958574,9.65647939034389,0.0007373939187977574,-0.00018281633518596707,-0.001240857307624
1682026405.0909183,0.2904986415365228,1.8148441928848889,9.639541596583838,-0.002537141509019415,0.0028067226519574696,-0.0001593976177386
1682026405.100985,0.09547449123375686,1.5882166639500275,9.674012165713988,-0.0019109093564852401,0.0022263259478634743,-0.000638094161462
1682026405.110859,0.022795477651392435,1.461822246621903,9.670586375741488,0.00198687795786469,-0.000365726985114118,-1.5227253373686434e-05
1682026405.1209238,0.23732400115605184,1.8201370139930912,9.68334954629956,-0.0015227468969047796,0.001408622963404436,0.0010084755939319
1682026405.1308672,0.01450783420939717,1.5610031200710899,9.709279781107544,-0.0014731757649708343,-0.0002927320019441044,-0.0012725218094996
1682026405.140898,0.2557150271302558,1.6019659856254438,9.586806637255254,0.00021025414306705738,0.0016682870479707219,0.0011217276204265
1682026405.1509624,-0.02538964076195881,1.6435851992063677,9.763319513765433,-0.0001022667112477252,-0.0016353134707316587,0.0009790532511547
1682026405.1616006,0.1482001672921942,1.6042462924550889,9.64292254344684,-0.00034963228181204414,-0.0006231485329873484,-0.0005948831223062
1682026405.170968,0.20958447346100811,1.7299763220696087,9.650866270800321,-0.0019760898465410086,0.0009604865669793341,-0.0002182411391399
1682026405.1809216,0.06671685297511859,1.5958355231919872,9.699875312662831,-0.0010388077001865204,-0.0005456624609227317,0.0003856149140633
1682026405.190947,0.19689508563429592,1.4869797390909145,9.590620333726056,0.0022647798589753806,0.0005488262341717502,0.0011258318425975
1682026405.2009034,0.12263472167030916,1.7010337388241403,9.690074721341082,0.0003410390452185222,0.0007138717458411429,0.0004303351614512
1682026405.210919,0.10081275278890886,1.6606798306498878,9.703422283375733,0.00022406107517690646,-0.0003780148763436487,0.0017617330084763
1682026405.2209084,0.14788881653884578,1.6454466666911307,9.669237314206331,-0.0005779965223000077,0.00019455801872421283,0.000706739012327
1682026405.23089,0.19858153037595513,1.6384254988729827,9.639182746806716,-0.0011662389521010829,0.0019327755140547249,-0.0001344435278437
1682026405.240898,-0.046953950036019966,1.596161686476057,9.748511034698476,-6.613657069519364e-05,-0.0020540235516041607,0.0005387248109914
1682026405.2509418,0.21825465731684093,1.6911524415856125,9.629710314588792,-0.0018132923583985274,0.0001368160007584871,-0.0005106931913755
1682026405.2608995,0.2780622680362331,1.5681699483202731,9.567882645099333,0.0010551585951727859,0.0021078709840835,0.0027970014942698
1682026405.2709315,-0.15425573574808327,1.6372689050422982,9.819055718973239,-0.00036637419431080344,-0.0030389727932811222,-4.503248614442742e-05
1682026405.280907,0.34392296735110667,1.646680760908219,9.557535733261016,-0.0010645264509093852,0.0018567726441191122,-0.0010944501392654
1682026405.2909038,0.01588180605855898,1.6103586401566532,9.734827004662325,0.0006096291307901184,-0.001623003368025075,0.0013828818499464
1682026405.3009622,0.13959557962403785,1.487384008296117,9.628275425248148,0.002441360347347016,-0.0007166438178537235,-0.0010951812274865
1682026405.310992,0.22629778063203612,1.800721787072058,9.68121222453385,0.00016482612645798148,0.0004702310062966824,0.0011090629139803
1682026405.3209257,0.06868843201418347,1.7682924677922789,9.742955237150108,-0.0027524565860772916,-0.0008157577726332756,0.0017252132000581
1682026405.3309724,0.11069701473023504,1.552615856733911,9.656079459335368,-0.0019306542795887059,-0.0008403371527722495,0.0005569794319458
1682026405.3409226,0.1975491984911807,1.3732391095728522,9.539129517263396,0.003226639558139364,0.0008163302413540725,-6.736141053212082e-05
1682026405.350899,0.15829389561827195,1.872248640241454,9.737987948618283,-0.0010157112145994175,0.0008710709723959549,0.0015192180161252
1682026405.3609629,0.006774920663057454,1.4858179756410308,9.682174671737194,0.0005608162740880913,-0.0008663922066982096,-0.0005852020241431
1682026405.3709211,0.21503693033277885,1.7151175275461699,9.655210042065562,0.00020059533104419125,-0.00010569726553144908,0.0024073200637363
1682026405.380972,0.10183272910341258,1.4210909175182183,9.617473757452656,0.0020155617730495644,0.0006829499934328533,-0.0021967514313868
1682026405.3909483,0.04350985735725435,1.7619923665935313,9.770177363270756,-0.0007653529977951237,-0.001406953508906457,-0.0017951716564707
1682026405.400935,0.1725602089462189,1.581772044968988,9.622815222423508,0.0010175459761652677,-0.0009658498428515841,-0.0002517789963744
1682026405.4108906,0.08133612820841685,1.5847914989604859,9.672527175120049,0.0004047155501308697,-0.000866017065097296,-0.0030651254475228
1682026405.4209788,0.22370680511785232,1.6835405172904225,9.642592226130576,-0.00024384159531747187,0.0008431291524310999,-0.0020779218886159
1682026405.430895,0.23274510441111748,1.78565831073141,9.674344631143994,-0.0021880772505268767,0.002142129460676483,0.000256330809731
1682026405.4408958,0.11386792108043478,1.5832833598664262,9.667992198125747,-0.0008865024955989361,0.0015055019901011265,0.0008650723483301
1682026405.4509416,0.08743994884299074,1.5108301250173974,9.656695729001722,0.0001685105484392493,0.0017010799692058604,-0.0021241182822845
1682026405.4609134,0.09180373727946428,1.6624724392116843,9.69672060996426,0.00159607899802869,-0.0004752462018045347,0.0016294839677871
1682026405.47091,0.08311074824067496,1.5148259147798915,9.660659009488079,0.001889983569942765,-0.0002580424874650977,-0.0021393910411856
1682026405.4810183,0.09929823687165976,1.6589782866225502,9.701665060104467,0.0019157164938497157,-0.0013167881410050012,-0.0008653401292972
1682026405.490933,0.30363299002054683,1.7726267257446917,9.629300753683307,-0.0011956493749455477,0.0022281825747774674,-0.0007982953813038
1682026405.5009854,0.05345502188130976,1.5466926205058211,9.687979776270362,0.0016441395560677047,-8.260222304217153e-05,0.0010628584876545
1682026405.5110548,0.20003935578920004,1.7417872272400527,9.673239946968359,0.00048033229264870506,0.00045571229175167365,0.0032503714190684
1682026405.520931,0.07669490963062918,1.4887446045250745,9.6567210952554,-3.261622012242438e-05,0.0014943006782229924,-0.002878867917519
1682026405.5321047,0.10946362424599931,1.7321767388812606,9.71397016068169,-0.0007087422759693946,-0.00032214451640200385,0.0006787925829999
1682026405.5409338,0.23928480607223923,1.648749290543411,9.619707945891724,-0.0009240947956793603,0.0014201776085196822,0.0015523861528495
1682026405.5608878,0.09030741758640472,1.5643922815542848,9.673467741862295,-0.00023972712872423482,0.0006676931360005888,-0.0025003556057922
1682026405.5650244,0.3587469415603498,1.9264041887783243,9.633856469305478,-0.0014247596859547598,0.001880984678164162,2.6473180566008924e-05
1682026405.5709548,-0.015245818202998331,1.698073838558909,9.77416068185061,-0.0024365545216766655,0.00023404302668271436,-0.0003486281622312
1682026405.5809312,0.21071451559641963,1.527859980372948,9.608247403639593,0.0003421345438167354,0.0014920839607769868,0.0004932699829228
1682026405.5910106,0.05691154158312644,1.5248224735101492,9.659841347860736,0.001987241409152983,0.0002474653450356915,-0.0003039318963996
1682026405.6009398,0.17545213118706568,1.54479712743696,9.611616786328023,0.00228972530848992,0.0022255845859844438,-0.0031686922431103
1682026405.6109667,0.15226733095265,1.8703116156232837,9.742839409666432,0.00031345407459796616,0.0007179671636638608,0.0023655973944701
1682026405.6209588,0.16930592454173043,1.4473086876418149,9.607825480486886,0.0033961477799887762,0.0018456074458700839,0.0007544148119054
1682026405.6309605,0.07530314289525929,1.8675532252614433,9.790640038611452,-0.0010656450307474903,0.00017444038992403725,0.0013772863475028
1682026405.640938,0.11770010078779329,1.5582330802111468,9.638251954749542,-0.00023042944472439613,0.0003607103807963474,0.0003263865236081
1682026405.650917,0.0463231254398959,1.5958109662135473,9.709159067247024,0.00029259864793938485,-0.0012232805020599212,-0.0005110699113569
1682026405.6609352,0.279676025969033,1.7122904356191937,9.625707669084589,-0.0011028916595043786,0.00136355155737615,0.0003520963817723
1682026405.6709435,-0.039475134338718625,1.5450608107355124,9.726551621442878,-0.00021553805800361174,-0.0015932071934135002,-0.0010329805210344
1682026405.6809294,0.17488177658302836,1.5374519400654194,9.617760766033955,0.0009225457476342224,-0.0001433013404270247,-0.0025655523769668
1682026405.690969,0.115520434340096,1.7754689425448653,9.720318780988055,-0.001191179111277189,-0.0012221534063382349,-0.0002838153287879
1682026405.7009256,0.24448267809487112,1.5851285098270758,9.606772153336832,0.000384616279940572,0.00046837197117878386,0.0012074233835451
1682026405.7109537,0.14081988410114976,1.5810836948219968,9.649591757613637,0.00042856582824968834,0.0012253499122997218,-0.0005967527523748
1682026405.7209446,0.26443996483730364,1.7477110319543523,9.648628652841976,-0.0006901550644299733,0.0029602146356731878,0.001619412507222
1682026405.731578,0.027495515709960006,1.6368372716634563,9.739157965562827,-0.0009341398490724248,0.0006143954276589942,0.0014983300514873
1682026405.7411163,-0.018473823812211982,1.447615099995593,9.68907597427639,0.0015770837107079788,-0.0016915382842552175,-0.0004123473901413
1682026405.7512546,0.12256509131216298,1.743571724247823,9.721918900270268,-0.00046436880837962425,-0.0022130939474833224,0.000488432227809
1682026405.7610552,0.16800127740490914,1.5760685789474251,9.632436777059867,0.0009013189300895455,-0.0016360385780114467,0.0009339742699526
1682026405.7709546,0.15386594847390964,1.5539767817841001,9.633315980051034,0.001200461436069524,-0.0003444818787235988,-0.0010836335260532
1682026405.78097,0.1853112580201452,1.6900202470135397,9.659629642972604,0.0006629115651060427,0.0002798665012994484,0.0001464647810794
1682026405.7910497,0.13361744397724754,1.6241766884765168,9.666317362267955,-4.567579543945934e-05,0.0009194944041103127,-0.0012766135752312
1682026405.80587,0.11094866610822728,1.6864676090722903,9.699779054669426,-0.0013975800382026143,4.295166272975619e-05,-0.0007192971080653
1682026405.810956,0.14731697841457536,1.5493618799010924,9.645889880531197,-1.9575761701118125e-05,-0.00015896856972080113,0.0002813074841983
1682026405.820986,0.03191325318414413,1.544998420512191,9.682681155078264,0.001577098671122365,-0.0018893512572722153,-0.0002432154853008
1682026405.8309667,0.27596885614755723,1.7616691268564932,9.634926469504045,-0.0009013532794449884,0.0007492503249738753,0.0006404151080064
1682026405.8410482,0.0769875137390631,1.5093234678800789,9.65345677244922,0.00026542979396981575,0.0006490645325277774,-0.0019236727513484
1682026405.8510346,0.24155665943528867,1.789853368937588,9.669120625465593,-0.001162503874842307,0.001710378719945505,0.0016339661250245
1682026405.861001,-0.03598359034007109,1.5201669690314183,9.724717977371814,0.0014474468159773042,-0.001935177743328716,0.0022661518176906
1682026405.8710213,0.15561487346734773,1.6087889953631698,9.663594112704159,-0.00021254396592520125,-0.0003891759569106689,-0.0016617953207455
1682026405.8810296,0.22456148411221127,1.6443624080631885,9.622919382273329,-8.108128820877938e-05,0.0013523721115188826,-0.0007871353428922
1682026405.891032,0.13398761244327786,1.5863326106397648,9.657333694415525,0.0013945491347467488,0.0009437100516794729,0.0003196644700952
1682026405.9009538,0.1576939275633297,1.7440010134297166,9.693907280137115,-0.0005873094013215822,0.0009522808765683198,0.0014256913435533
1682026405.9112625,0.12920876519981003,1.5891706028110135,9.662364964918623,-0.0002620823801633869,0.0011348149106159666,0.0006020387971662
1682026405.9209728,0.12388694808191567,1.428607851869181,9.61103694514197,0.0034043370741468444,0.0012532991158290257,-0.0004577896453551
1682026405.930972,0.1925862278478335,1.8283686529842182,9.730978593658831,0.0009687291779619116,0.0013199790743578064,0.002074297271844
1682026405.940991,0.07846973728310688,1.464461557263329,9.647716253013499,0.004110287000493457,0.000564854303456321,0.0011872938938327
1682026405.9509878,-0.016634248472357782,1.8189484154725044,9.8216683115893,7.579773301418398e-05,-0.002509632315742545,0.0009600535139329
1682026405.9609413,0.12145294746089783,1.4726575068320429,9.629402575165535,0.002379522329303044,-0.002097247502325518,-0.000807213959109
1682026405.9710882,0.20619388549909157,1.7507906143227911,9.663222471219953,-0.0006469323706715262,-0.00024728522591260647,-0.0011924280680827
1682026405.9814024,0.17462650334490215,1.679732482373911,9.655092545134881,-8.141322699691104e-05,-0.00047561875842848275,0.0019692387739783
1682026405.9909377,0.038092073861623665,1.5873503952160897,9.695196170079717,-0.0005545141443306101,-0.0014326489541676179,-0.0002435863845161
1682026406.000949,0.28481408332236124,1.6728100105198884,9.608970274045031,-0.0021157906746397475,0.0019245848062579367,-0.0012173742417357
1682026406.0209806,0.13242768464518573,1.5687523921838964,9.647847479731707,0.0006055091762975934,0.0021998881865610154,-0.001297107095655
1682026406.0309434,-0.024226354853787643,1.7503141774829623,9.796793357037895,-0.0005478194822038148,-0.0019463675308522394,0.0011340249201171
1682026406.04103,0.16397281670019398,1.5492651962856216,9.628178358959929,-0.0002304262082358736,-0.0004860513636673456,-0.001323918009933
1682026406.0525212,0.19751606291756993,1.633801098722397,9.633092836604112,0.0008957330866056319,0.0003394745578555714,0.0009447930950559
1682026406.061008,0.11569118497503217,1.756430866297241,9.744837939033394,-5.086102208989586e-05,-0.0008679030380710449,0.0027429830387123
1682026406.0710895,0.16117761594731522,1.5889473254227588,9.625790347846495,0.0006479990222769348,6.441329690533032e-06,0.0024739891976937
1682026406.0810468,0.07942680486984384,1.567231523150733,9.672135832583463,0.0014996057448102573,-0.000785193055359866,0.0018168599070636
1682026406.091028,0.1217189113415465,1.5586452000041362,9.65071744389333,0.0015643838614022132,1.3936251512796831e-05,-0.0010646520078293
1682026406.1009896,0.12058323898175832,1.6071432297610728,9.664578960174715,0.0020278392420401987,-0.00013548693933686178,-0.0012546276103816
1682026406.1110864,0.15532005101096216,1.6733893441905414,9.675431510309062,0.0009597938436619457,0.0003081934652102323,-0.0015638271708152
1682026406.1211398,0.18453069564229213,1.7013665344573141,9.666785667270366,0.0012600635792751735,0.0003350044777891324,0.0014246042281743
1682026406.131024,0.10457787134224442,1.7888656389502526,9.751525038833993,-0.0021854631373429017,-0.00014184415173657442,0.0004422359505556
1682026406.140999,0.1936383816337102,1.4894426692258462,9.594896422310645,0.0019205645712395544,0.00040875556969608286,0.0026572951918356
1682026406.1509964,0.022130867214621347,1.6676670798074176,9.72977169892122,0.00010112720172030509,-0.0011267973883999569,0.0012990588310063
1682026406.1611187,0.1309200620049967,1.6910149222715785,9.678753138815212,-0.0009684016961032389,-0.0010049887052508949,0.0016041573415864
1682026406.1710258,0.08555517480774022,1.372369412296548,9.604707931180341,0.0028365892556430424,-0.0008250539554534082,-0.0013366110053024
1682026406.1809852,0.2424487816957875,1.8166373911575624,9.667942197594545,0.0008867923807947799,0.00038677268240517226,0.0020225273200199
1682026406.190949,0.1573842712270344,1.5452974337793857,9.617183660790458,0.001264507927654734,0.0017975769766589594,-0.0002827012341581
1682026406.201013,0.13090674004246272,1.7358437239674438,9.713032402622938,-0.00041259227828738146,0.0011865969776958193,0.0011597139399387
1682026406.2109747,-0.03150269192283595,1.4794452328582972,9.713243219313627,0.0005079292208234841,-0.0008958600917916581,-0.0024072447687498
1682026406.221179,0.15779408079463206,1.6690915931264292,9.678124458655788,0.0011564940584005586,-0.0012702295566667428,0.0002518528943769
1682026406.231066,0.11049137214035108,1.6301166003227525,9.69792788368235,0.0009232918378899653,-0.0016729252673980926,-0.0001057587925456
1682026406.2410765,0.1416559023513637,1.5643732868152795,9.64102316555757,0.0013956745489228668,-0.0008652689117776086,-0.0020063844405226
1682026406.2509868,0.2282575706101423,1.624873727715258,9.612607149840876,0.001406067264363362,0.0013832950359559117,-0.0021163110051415
1682026406.2610211,-0.0021406199679540883,1.718886036681341,9.773965192374552,0.0009348497799745499,-0.0022417781275950585,0.000372206430126
1682026406.2718463,0.32928915789225605,1.685426041687122,9.566266859636395,0.00023672640809809328,0.0022375065863806582,0.0010241213475242
1682026406.2810044,0.04955965024368158,1.6480665438853799,9.720071699031909,-0.0007821402647291146,0.0011441356039063046,-0.0004063783109299
1682026406.2909918,-0.05193219087298087,1.5615496598151521,9.75422151571521,0.0010816519222565694,-0.0030665578686876957,-6.140606832874215e-05
1682026406.3010485,0.18298435866302268,1.7495458107325321,9.692346764610225,-0.0012746183685776922,-0.0022909527730424592,0.0004560229007043
1682026406.3110764,0.3318355792382736,1.6194581006334998,9.55323326470738,-0.0015007771166999863,0.002331010021879768,-0.0007479841716699
1682026406.321028,-0.002680537497075587,1.6407742390747948,9.752336447668288,-0.0027721690626339784,0.00018819522122673257,-0.0026643056318275
1682026406.3309574,0.08767222675289063,1.4890411261416179,9.638381480152901,0.0009300148745243954,-0.001034382378099063,-0.0015306534607074
1682026406.341026,0.1249967097218715,1.6499485049397862,9.677243021165625,0.0013990230908079286,-0.0016442302475167944,1.942574622857177e-05
1682026406.3509967,0.25053359505284734,1.7473712449218826,9.659173395829875,0.0009862578879445039,-0.0006749278038001112,0.0037380085430927
1682026406.361866,0.013775275498164525,1.6043786283028347,9.715313906862464,-0.001358051453355964,-0.0014687663206781466,-0.0017459968932084
1682026406.371038,0.20809335218770475,1.6638495341877761,9.64872987787286,-0.0016475171332886317,-0.0002729671219887103,-0.001241966745641
1682026406.3810563,0.14141651192010413,1.5615303481485554,9.650436154423385,0.00017413698303447763,-0.00039178740705515856,-0.0003977978032193
1682026406.391049,0.1488007308429198,1.6539233952577894,9.680915980038487,0.0003082421023592958,-0.0005761963715502319,0.0007823473878093
1682026406.4010077,0.10750015276700725,1.6647858895260954,9.68081190977105,-0.0006454314177572995,-0.0006898265427394512,0.0003997622860484
1682026406.4110484,0.18790802461490994,1.6086577484681517,9.639780380747252,-0.0007515870489810797,0.0007712397140400934,-0.0004007871158532
1682026406.4211009,0.16388775616361606,1.6406103363414293,9.65076451122238,-0.0007080155018571315,0.0013255541785097578,-0.0001631315227709
1682026406.43102,0.05312847998569177,1.6672196906336387,9.729607051135703,-0.0008998609374339594,-0.0005940876064661906,0.0008289232372194
1682026406.441043,0.13323348830535872,1.716043162733098,9.720047529524157,-0.002441755936128613,-0.0007833258513912878,0.0005406050348542
1682026406.4509974,0.05381927192887532,1.4585754725065563,9.650308972270643,-0.00024008366247402435,-0.0013678459383564723,-0.0022299088433496
1682026406.4610083,0.2084996543581586,1.6772103587160778,9.632251239739945,-0.0003366181925460791,-0.00021407751399135373,-0.0005360074702761
1682026406.4710507,0.1598477250934389,1.6165501072705133,9.639493326457405,-0.00041483148899273525,0.0007116287451257004,-0.0007077556930593
1682026406.4810734,0.09806201015190329,1.6750111355666208,9.697976719399442,-6.390210470110007e-05,-0.0007781151945803124,0.0017866899014339
1682026406.4910042,0.18120089181163185,1.5258496053378212,9.602755656805616,0.0007780195063048587,0.0010394507046399806,-0.0007628895238153
1682026406.5012083,0.20870905301042356,1.7864308637560993,9.684224440869967,-0.0014813930219241185,0.0016682855858313709,0.0017315837547871
1682026406.511109,0.01267992911741392,1.522523698747874,9.696391645415034,0.0007150671054998744,-0.000890634589658463,0.0016533292308454
1682026406.5210292,0.13467999192566896,1.7578999493918637,9.71461110491309,-0.002397422547870698,-0.0005598201902029744,0.0006553204601519
1682026406.5310042,0.11293542785172245,1.5940357811918886,9.660506200519507,-0.0013792981877841868,-0.0010932740534013421,0.0008367507706284
1682026406.541102,0.2612691117117375,1.4465138404422615,9.543339044241819,0.0017793338455852235,0.0022818556042184654,-0.0008154305525235
1682026406.5510428,-0.07043194772056549,1.67331445004893,9.787929430987326,0.001712693985556172,-0.0024544943450619627,0.0007216418033354
1682026406.5611734,0.25068701612124417,1.706863300503735,9.63885484769739,0.00014657904371882447,0.00013010985814991243,0.0010546729771308
1682026406.571005,0.11702324427085158,1.6536515549976007,9.692166891334162,-0.0013371989779396522,0.00045497591488694234,-0.0009983204200975
1682026406.5810742,0.07517428048148164,1.6674592478420007,9.577463962919996,-0.0008346410293782369,-0.0017015769780686077,0.0062656091630347
1682026406.5910325,0.33004916807410817,1.5275323392365774,9.750874937293661,0.001789026008749781,-0.005660863755118174,0.0058379635319002
1682026406.601095,0.25303751817783904,1.9139374684234343,9.739276790469054,-0.0026577691562485986,-0.003001795936327075,0.005364101250831
1682026406.6111076,-0.05459988413122233,1.862567130881039,9.967840827877058,-0.0046366628687444286,-0.004030357564198553,0.0012114998406619
1682026406.621043,-0.9026220864682384,2.021280986547957,9.406824304912055,-0.004498970673105673,-0.012583177154944062,0.002799565541733
1682026406.6312134,-1.7235676280179177,4.519163503240401,11.568201719867755,-0.037292343382626714,-0.05809373783638811,0.0298361411422379
1682026406.6410103,1.3711997396844393,1.6892353978534513,9.690532182286864,-0.02710997673583096,-0.04648933840455674,0.0244027381867058
1682026406.6510422,1.9249042722336998,1.6175578778912103,9.905997230187138,-0.03575766798627566,-0.037442598170263734,0.0158901117846258
1682026406.665346,2.8911990209219356,-0.08246709113629012,8.444094937746897,-0.009819215517894617,0.0017726912639788642,0.0210366813570149
1682026406.67147,-1.1129861083836787,3.019554295230835,9.789674445105646,-0.020507263698279064,-0.009687026685111646,0.0301907738774903
1682026406.681033,-4.184668033731467,-2.831681627203668,9.671583247445456,0.02426604063176496,-0.10215199052459531,0.0861900249600298
1682026406.691004,-0.09109858710240522,4.85081620737037,10.530135799332967,-0.01157429906928077,-0.1605096522254379,0.0845413455843814
1682026406.7011027,-3.940846945023503,2.7632571720347694,6.638707915636313,-0.01463513293287421,-0.22321495364562388,0.0512248674511797
1682026406.7110355,-0.586224853905982,5.189226094839764,13.00846311500154,-0.08965371567898689,-0.292751555535955,0.0553667420625575
1682026406.721074,5.976189944797183,-7.789987530056444,9.028315902378905,0.017131686795166075,-0.24390703901587843,0.0683542216300852
1682026406.7310424,6.015707076512974,-1.5322385712463507,10.331867913809651,0.056647445858857934,-0.2057266127021272,0.0275310190498717
1682026406.7410395,8.460016200298497,1.8942368629905273,9.61716977261194,0.06931157303274023,-0.0762236344480068,-0.0160785404861084
1682026406.7510674,-4.773542269727522,2.2104799698066464,10.205600112454274,0.026607573817788343,-0.1295674685012105,-0.0681321447610966
1682026406.7610953,1.4585250058162726,1.1013533785709018,9.75975783826987,0.03859349211689604,-0.15335487556506006,-0.0858380844712368
1682026406.7710724,3.417683883855487,3.464217738238896,9.64514963015053,0.015627109004895216,-0.12594670918383757,-0.0732651254057995
1682026406.7810822,-2.8387492940710852,-0.3837910364788195,6.8019298271436215,0.05184227656014918,-0.17510564817044347,-0.0567972523987404
1682026406.791022,-1.3649594895586747,5.76537661047359,10.922465260481147,0.007536185287169205,-0.25328089324716635,-0.0502373961627594
1682026406.801027,4.602780405475086,0.10596000074867748,8.785025670557134,0.030077338837854645,-0.21514077491460112,-0.0554377449572197
1682026406.8110497,1.0729414382768085,2.926270980821446,10.421251335023342,0.01832718225936838,-0.2324937000433128,-0.0407497709512822
1682026406.821243,2.0383343374183043,0.7001782592737217,9.033612457129422,0.04570596109257587,-0.23036092849771012,-0.0379061488330475
1682026406.8310935,1.7333605057591996,4.378860560154477,10.890836167564323,0.016439958782484353,-0.23011471976546236,-0.0537808587670437
1682026406.8410184,1.286554897871407,1.049278123481704,10.52981620565416,0.017215850794804623,-0.23211682282341448,-0.0535194774985424
1682026406.8510303,1.638438447030805,7.308841506487852,9.981285124769958,-0.04150334385109498,-0.23802616822196188,-0.053787240189325
1682026406.8610191,4.94832410618094,0.8568200013385727,11.102902032435953,-0.04880823841324641,-0.20334667045610824,-0.0520755251765362
1682026406.8710654,2.9164181470781907,5.076082998010667,9.638257011967527,-0.07844324093035032,-0.18170714869901594,-0.0690250819444767
1682026406.8810425,5.486120532205653,2.403122020438616,10.387368247574484,-0.09711963333819727,-0.134098584290437,-0.0890548428416363
1682026406.8910673,3.3395695815496493,2.2445911458872816,8.474009653552523,-0.11480107304989429,-0.09011296636505718,-0.1099365850806347
1682026406.9010265,3.8718725216265097,-0.6249547790415283,9.375022994648308,-0.08449129869737226,-0.05655988167039958,-0.1237920498371235
1682026406.9110107,1.1319118491777458,0.20006694017518964,8.98843775243627,-0.07514778025224629,-0.04762349267281154,-0.1377834951400868
1682026406.921123,3.9666309499288777,0.18718840320240943,9.228666588277537,-0.0566755631091826,-0.019591209716451174,-0.1333664184332005
1682026406.931185,3.0815088439426446,3.605550987214882,8.3678215345113,-0.07586910575586023,0.016028573789851668,-0.1252815997123829
1682026406.941182,2.9116453076232856,5.456061529395601,10.390181704190615,-0.1375010172961942,0.041689070361995206,-0.1268115615368001
1682026406.9510338,2.724196042023536,1.1173243571607605,10.003442765527,-0.13370780366496507,0.07955027116405528,-0.1240833079338185
1682026406.9610946,0.6857606759082545,-1.3014574025256167,10.874861148180397,-0.11008948530890167,0.0850845431484117,-0.1238114809513203
1682026406.971072,-0.10032758948207664,-0.8997776158865858,9.555605994519048,-0.058405048888444534,0.0791060587552299,-0.1123370056867711
1682026406.981042,1.067928170081381,1.2096499455332568,10.329886391027763,-0.06663126481091802,0.08334896376225605,-0.1100252842426411
1682026406.9910338,1.1405517715185887,1.6759269242809565,10.403580793610324,-0.05900320076665849,0.09338646578886477,-0.1106971999526135
1682026407.0010264,1.1168275743036993,0.22561036669821036,10.212677505661963,-0.05403504216289574,0.11034480507368254,-0.111497116637241
1682026407.011049,-5.083895547128162,10.444038345112737,9.091682592345563,-0.13795037514927555,0.052330670106272466,-0.1371090238809697
1682026407.0253992,2.7056488192825214,2.504834206460691,11.939007678469158,-0.20603193344242612,0.05815047322614885,-0.162039679837238
1682026407.0310538,2.2007547912555467,-3.265213916871242,5.756516088538141,-0.1521959146075201,0.09708658660000871,-0.1725091462850682
1682026407.0411158,-0.7243298863815996,-1.4135607748373942,9.486465318414028,-0.1322857275427803,0.06880741688537044,-0.2084390943765751
1682026407.0510554,1.915083630149109,-2.8278935128513076,7.128884971648734,-0.08051867725867538,0.10285298974223059,-0.1997398113727681
1682026407.0610614,0.8424392509573696,-2.863634062419594,8.818671612207154,-0.033746436518929175,0.10036663904453165,-0.1915288692236058
1682026407.071129,1.90702222348043,2.9204256327430143,9.026944605660836,-0.05352076158210719,0.13260704440451132,-0.1851357048273198
1682026407.081061,0.5468260612640968,1.6556314739494737,10.810158615530119,-0.058190938568265974,0.1341356825340147,-0.1905724381923787
1682026407.0910566,1.617564338258831,2.7167250843578143,10.110166827096853,-0.0921565404790632,0.16619611126417003,-0.1871629184007756
1682026407.1010697,-1.6331726422158614,-0.16357651906840298,9.412495749546771,-0.06312353068410348,0.14201681909458647,-0.1886028474092595
1682026407.1111302,-1.4556296449203967,-2.6092908317751418,9.12396812447033,-0.05385622311661667,0.1294763989544627,-0.1952842598676793
1682026407.1211689,-2.9562704042551085,-7.650435115120882,8.327374312666839,0.07157578316672845,0.08061680772139469,-0.1703664934158436
1682026407.1310909,-3.1574689331955534,4.570429421843425,8.251113894702378,0.051245955220859354,0.029565185534263717,-0.1505582457304112
1682026407.141079,0.5053552224414655,3.9539230067673174,10.699591734973783,-0.004742125510373115,0.023485173207947633,-0.1470079993724934
1682026407.151086,1.0424790408769837,6.018152973426768,9.720476202477606,-0.03425918909632939,0.044172503627130606,-0.1545639162778966
1682026407.1610672,2.2384196019757634,9.501955395763387,11.712682002844138,-0.14573245186325362,0.05978708620913237,-0.194247258257877
1682026407.1711211,6.721875566752682,1.648380183023636,9.38374034223269,-0.14162284567759792,0.1608509632829578,-0.2201409762621037
1682026407.1810737,-2.6968178970917895,1.4325487147446874,9.262004601440006,-0.1477425790143072,0.13475141420096792,-0.2535517936468235
1682026407.191096,-0.6580014812367644,-1.8248512035005209,7.808942991660208,-0.11318481557798081,0.11932804410818874,-0.2346331899881474
1682026407.2011468,-4.072650580369582,-3.204619514821673,10.14704119222337,-0.0617153947553821,0.05552431045578067,-0.2133395200491063
1682026407.211093,0.7567770946909657,-1.9418789015982412,7.748512237144585,-0.0013286846000165014,0.056239018629488914,-0.1786508982896916
1682026407.2211454,-0.1828716072472118,1.7659538182131984,11.571481028067716,-0.003923479640159212,0.033729939767941634,-0.1609291707992665
1682026407.2312264,3.4476471991634114,7.53054712077813,10.387178098471404,-0.05564459479929009,0.0850694288337549,-0.1784035986185185
1682026407.2411013,1.349632065141792,4.439371065706282,13.077183268550135,-0.1149438912519053,0.0972601722207977,-0.1869865780592076
1682026407.2511926,2.9518824698221495,3.6869547102251023,9.924813334517399,-0.12917052970969126,0.12840042466995505,-0.1925358747959248
1682026407.26112,0.5596590819513806,1.1552107576901125,9.577093409901408,-0.14186244482745725,0.13404697740899038,-0.1926001286029927
1682026407.2711728,-3.702026469441751,-3.9500994686360604,8.598872967784866,-0.08209612490523636,0.08443187951578895,-0.1756488954544179
1682026407.281073,-2.1400711964999495,-4.1938484112564955,8.294196383091055,-0.01349200133888718,0.024145640233995767,-0.151093093109142
1682026407.2911117,1.2517914404776214,-3.1382261147276718,8.089612940908033,0.04121159849289761,0.03535463628534741,-0.1294696008682362
1682026407.3010528,1.0977796531119832,-0.9149321159375977,9.546247189469472,0.07251079271511333,0.024862906738847293,-0.1110067045211903
1682026407.3110857,4.778893196737475,7.681048021456645,9.965749470869948,0.013786365405662561,0.09459738574009958,-0.1080601489067189
1682026407.3211656,0.37442155630639146,5.381219850163238,11.804569249993731,-0.06470979854852964,0.10346312248469101,-0.1271283155202977
1682026407.3311005,3.037159358642253,3.118205784895492,10.216086642668417,-0.07108670181976108,0.14408752292774593,-0.1372017985105626
1682026407.3413198,-2.0382685638444045,3.3290968040299465,10.022662300949465,-0.10981104080105951,0.12386158234243522,-0.1316620981216542
1682026407.351108,-1.6665890083662718,1.9917313655260698,11.011371037782958,-0.10094188110953285,0.08606085425092218,-0.1167807629227749
1682026407.3611245,-0.07383884437156028,-1.043376482561851,9.371379731126478,-0.08075076422794658,0.08933574347602788,-0.1107936104655377
1682026407.371097,-2.3286722968231244,-0.08845973181044783,9.41916607258617,-0.06166856107121487,0.059986694267569966,-0.1016005998373143
1682026407.3810942,-2.3602953522614194,-0.6799691834390581,9.44876907163513,-0.022670033532811197,0.026261480185958964,-0.0959860136628262
1682026407.391077,-0.5836052545365503,4.6402159150421145,10.258555863896857,-0.06962960105571629,0.012814570064896242,-0.0892084514618031
1682026407.4010878,0.810084804474205,1.2197205713302597,9.911034859507813,-0.06603820778840372,0.03346633731218596,-0.0777681222081295
1682026407.411061,-1.7526115069074348,1.4071643135889222,10.611270147961111,-0.06206845153086877,0.0007124127624284366,-0.0777770480036847
1682026407.4211285,1.1675196410397803,2.362219288971785,9.525883532154127,-0.07523912498792074,0.01999490508086457,-0.0772456502437703
1682026407.4312336,-1.718402707363922,1.8652065503798496,9.51233059901276,-0.083022984517236,-0.0026323836191288964,-0.0675815245032422
1682026407.4410603,-1.7387673938032824,3.216360978854421,9.211563805067511,-0.10634458386401432,-0.03610722792878665,-0.0579279189825169
1682026407.4510622,1.3925342196285089,-1.1971270121797681,9.627243865024962,-0.08717489446968452,-0.02250925838589685,-0.057304238331329
1682026407.4611828,-3.8112516050385805,5.559366345605941,8.376655368602554,-0.1119387951412233,-0.06888031653629927,-0.061173168373119
1682026407.4710777,1.7605497461519983,1.9399576713936333,11.413267189598098,-0.15246316370032278,-0.061365079302561014,-0.0630896141648404
1682026407.4810686,0.45023343175372016,-4.034464819098634,7.805524110668731,-0.07727034905087285,-0.040992533728017,-0.0558026334166638
1682026407.4910767,-0.2957776795459714,-3.24562277386431,9.82845930276887,-0.02106068015830291,-0.05657649950964261,-0.0684520652413479
1682026407.5010762,-1.7387446513885028,0.14306015206866024,8.262101466643943,0.0003178337981844909,-0.06511200672563652,-0.049332809996616
1682026407.5110874,0.06836088301591114,-0.4028445501659442,11.601495629654277,0.013351978580933491,-0.10534801308832614,-0.0294657679170481
1682026407.5211418,4.385508502182715,2.162778738928941,7.4511215002519435,-0.004557698371549422,-0.029030880664901792,-0.0158980073303095
1682026407.531075,-1.106282843027476,-0.5159842984501243,10.586786692048417,0.01592602696488521,-0.06372572145789676,-0.012012645033013
1682026407.5411024,5.030972820311719,1.2478562608609673,8.522808397695302,0.01141881415258611,0.003978003993695593,0.0051516477122791
1682026407.5511014,0.7270298528808284,0.5286205963096796,11.277422593129637,0.025041509112695443,-0.0007018649915296795,0.0134799029782302
1682026407.561137,-0.20007219522332134,5.512898350354797,7.461652403266671,-0.013870740310648447,0.011115763063840023,0.004996892634023
1682026407.5711963,-2.5720316093418876,4.375260204497653,11.269682519810294,-0.06999123255730848,-0.045141273360091674,0.0059285709738619
1682026407.5810697,1.1134670220142169,-0.32666133242666184,8.382349877585051,-0.05105078199227029,-0.031782419633895935,0.0044632247753329
1682026407.5911036,-0.5861669065535703,0.033295674112951784,10.107953566836805,-0.04426894437057511,-0.049575734795640494,-0.0077823152661435
1682026407.6011343,0.5296665217018934,-2.209698966823782,8.195719025909893,0.002190231270613718,-0.047204717556807156,-0.006217182044696
1682026407.6110897,2.44982349409663,5.245528029296286,10.260400938954705,-0.037040757179711926,-0.03093885938681792,-0.006259095285844
1682026407.6211245,3.265877329474485,1.4245243983409603,9.730176851376251,-0.051395808235734246,0.02195343728018664,0.0001941935496293
1682026407.6311836,-0.3159801930718221,1.4331212887255376,10.168166971135902,-0.0493155680969997,0.0118312264936282,-0.0095468260243646
1682026407.6411426,0.7694697477728484,0.5379165268011541,8.979747205648366,-0.033404513489421785,0.01435957760580911,-0.0075547438010684
1682026407.663797,0.34986064839590775,0.31841605765054565,8.967463722033038,-0.030132630861776172,0.016738955278711533,0.0030064124019705
1682026407.6647208,-6.549532016332275,2.325232303494532,11.98774368793917,-0.02467114176102601,0.0008511070013205292,0.012916485416878
1682026407.671208,-1.845882760992137,3.893030475219182,11.361069138210855,-0.04954326389732681,-0.022386670981972223,0.0142098456725366
1682026407.6811016,0.9656498972875011,-0.0881485155970654,10.11147417885984,-0.04024643994973868,-0.018421745341542128,0.02890135591029
1682026407.6911542,1.9358627673268116,0.32499998648821754,9.787517877218262,-0.01801709413788006,-0.008004435437578493,0.0342837037622817
1682026407.7011073,2.445386510930386,-0.8624835565661695,7.196325922823444,0.010545963539663035,0.026864283044980095,0.0187965152889378
1682026407.7111957,0.7068020725933596,4.883062400434911,10.624721655479377,-0.040807217391193466,0.028675520753562896,0.0273506106912978
1682026407.7212574,-0.16410980060631197,1.061431594761512,8.519687108766693,-0.016499826245746172,0.0313059829328388,0.0251799175619967
1682026407.7311254,-2.8126341493337303,5.3855363989359715,9.871537105502412,-0.07977445980242144,-0.009950952669860538,0.0154194353252537
1682026407.7411375,-1.829984968349737,0.6004926015620613,9.921596045519506,-0.06674027926968304,-0.029878692638543373,0.0132874628633149
1682026407.7511451,-2.324768444855662,-0.5971313048817205,10.81143959540405,-0.05634440154844811,-0.0750504120364316,0.0196467755466588
1682026407.7611508,2.8164566930342345,0.6595978988244805,9.499466403528206,-0.023223330583925814,-0.03895350540143235,0.0249416982859261
1682026407.7711232,-1.0439926429161102,2.9556447720175174,10.891176851799761,-0.06391725427131156,-0.05234442268402175,0.0039253824960328
1682026407.781135,3.303769982205901,0.37289772741678856,9.105323817061512,-0.046546291451616956,-0.009281674767133291,0.0042833544883765
1682026407.791136,-0.9404339573384749,1.3748898955145812,10.435025296101706,-0.06256848965352525,-0.013380357106985638,-0.0105958565965406
1682026407.801105,-0.19480110111679663,-0.5348255714015138,9.365483521894912,-0.037353769549119904,-0.01743629314218391,-0.0181591635465733
1682026407.8110957,-1.8241515909840846,0.8512132357389978,10.19749119170071,-0.044122231100759524,-0.042617439746446155,-0.0142317986011616
1682026407.821229,2.4702755288109626,-1.4400769616730527,9.337061505073814,-0.014949951909407174,-0.02867318537812355,0.0022293876844346
1682026407.831164,1.8711980353801065,-1.9599014281728033,9.040536005846146,0.01588153932412713,0.0023405025522916937,0.0062617357924469
1682026407.8411326,0.618748147580207,-0.29917872434783704,10.342978130242455,0.032423140576344926,-0.0015553631076555743,0.0147110806882269
1682026407.8512757,1.2401690320011298,-0.9123926807601754,9.69993844167492,0.04472020270725548,0.013212544516440279,0.0216247072547562
1682026407.8611696,0.046245897722734484,-0.2043726008651514,9.640003138934713,0.06271847807772402,0.00583343667042272,0.0214540032774098
1682026407.8712685,0.9944859972076817,0.34270406913945234,10.3282298868136,0.06342708702343805,0.011778161814184016,0.0257846290349848
1682026407.881126,-0.5928094575147337,2.313807664372701,8.876997293070938,0.06302181720221832,0.01569391767961954,0.0308791535079367
1682026407.8911183,-7.138990469471264,6.8538920627686855,8.501738746151295,-0.017216538363574587,-0.06844703743799076,-0.0005812955916039
1682026407.9014125,0.41610852073994836,-2.6442335751529384,10.656871120749432,0.028007945770694303,-0.09093827565141764,0.0020845855632219
1682026407.9115498,-2.0600057755327157,5.268566355236466,8.489065585239475,-0.0053068103916114355,-0.10232796230554377,-0.009625046876084
1682026407.9224403,2.616253815492658,0.18081500777672713,10.702225128489516,-0.009247320155125487,-0.08315078925309972,-0.0043100182794145
1682026407.931256,2.4512167933655853,-0.2857507327659591,8.329228137030794,0.00967567211207349,-0.048837600464757984,-0.0005337282911054
1682026407.9411373,3.7551684981642235,-0.8267740041607363,8.800851058516963,0.0369692912991336,-0.01284570939445557,-0.0060370623961202
1682026407.9511974,1.3677828282846534,0.5479713079058095,9.224339552177861,0.04431049084063321,0.016289465577709987,-0.0041751194641105
1682026407.9613194,0.9850173435348321,-0.29186696304091114,10.223905576107255,0.06528478818475913,0.010573152678848514,-0.0026661612920574
1682026407.9711902,2.7091808051675326,0.7185431142219947,9.508392807437936,0.07154305662403,0.05389335199676439,-0.0015746791742853
1682026407.9811852,-4.001856650420675,5.118244557298779,9.796994386443444,0.03586906496950021,0.0022549949860554393,-0.0166303509742133
1682026407.9911234,-0.11259948290381004,4.190771817832073,10.12196736229875,-0.01597382219001937,-0.010653610606688632,-0.0378354614496342
1682026408.0011303,-1.2919653079170847,4.070439118369359,10.547530832160794,-0.043770166993936856,-0.018034382243026482,-0.0528403608024231
1682026408.011152,0.7047647672979158,0.24963905571580267,10.233433860268919,-0.05057635904117352,-0.021872814630191847,-0.0807463651418797
1682026408.021148,0.8021789581152052,3.5082490787378524,9.171080555033168,-0.05415988156074968,0.00410102858453762,-0.0903444191336743
1682026408.0311491,-1.081898617780445,3.8803234834406535,11.179993858624616,-0.09491880501874474,-0.019477671217772576,-0.1011696955084912
1682026408.041136,3.3890400671451477,4.315266484346104,9.904376271887857,-0.1228714517630054,0.02751706366882349,-0.1044267689705006
1682026408.0511355,0.503471437389645,2.0129984505360072,11.132177447875362,-0.13690953369651143,0.037239093460732085,-0.1166383525252453
1682026408.061479,1.9533042875474567,2.3437783954200433,9.88820478742177,-0.1419074679291774,0.06356835914428031,-0.1112851252675168
1682026408.0711987,0.10839196784849048,2.465549144568593,10.31931640045337,-0.156562418893399,0.06980816660483649,-0.1101939504861943
1682026408.0811613,0.975228994993127,-0.5787003264270102,9.399706565600287,-0.13978349661557513,0.07310329745343999,-0.1060316538334004
1682026408.0911367,0.00549624126691143,0.38464854404786697,8.78692050801667,-0.12700004900824358,0.08631690626183461,-0.0947955077409855
1682026408.1011243,-2.0672836904512173,-0.04278892835227866,10.057191647965299,-0.1109832538144124,0.04739957489785903,-0.0852973734855763
1682026408.1111298,1.1850644914250368,1.751584717990221,9.47645522192882,-0.1098495303081214,0.05921117704173654,-0.0732799669623486
1682026408.1221154,-1.1371292005976306,2.79230863380265,10.397843897645439,-0.13468241591150165,0.04091977931773986,-0.073111919116985
1682026408.1311278,1.934807230273673,1.1980753173138654,9.853283734243973,-0.13801268494343333,0.06659117433574774,-0.0709972580790631
1682026408.141157,-2.2451329057422176,2.3645709785152196,10.281410878849918,-0.15186712653061632,0.03759437195808495,-0.0608303448081128
1682026408.1511602,0.6034811434832607,0.018198226591153464,9.829244349952926,-0.15067677229530974,0.03579467619773257,-0.0639514824271313
1682026408.161173,-1.6633895423386342,-1.589183943863843,8.592276071607408,-0.10534245128226624,0.022972384541976053,-0.0586070505797974
1682026408.171206,-1.452397445751589,-1.0509239776645303,10.316651029808842,-0.09336014431233937,-0.010770139079135673,-0.0604962235212437
1682026408.18117,-1.447343191524211,-0.43815775588953504,8.811801479186615,-0.06924722607057328,-0.019479311141534502,-0.0637119462609402
1682026408.191143,-1.18397431095012,0.6955890117278605,11.381809395164025,-0.0754036345342583,-0.04711689112405417,-0.0637936493277661
1682026408.201133,0.23593110310345913,0.5888169614911751,9.253818427615963,-0.07514965530619758,-0.03171631497613866,-0.0596131434559933
1682026408.211414,-0.3467712551200673,0.8450671442341823,11.301054777371526,-0.08006329803375258,-0.04585861963535435,-0.0596287077188603
1682026408.2231174,2.0610269701406754,-1.439039004398597,8.826462154374227,-0.045671313197657624,-0.008139755484818108,-0.051819549304258
1682026408.2311757,-1.0265841338639554,1.210562316088891,10.034206135221318,-0.05203276181791216,-0.017459766032830552,-0.0482915727317444
1682026408.2411644,-0.5684369119003769,-0.12176717946497002,10.07979488683404,-0.0427327140560913,-0.02947934486754225,-0.0516893615841977
1682026408.2512045,-0.05813906001245499,-2.3464417254239285,9.522293107474304,-0.015910596853966345,-0.02598653836634331,-0.0513041367650143
1682026408.2611935,0.8693144253252272,-3.3590998931868663,10.120456733403772,0.03008026132888616,-0.01859952701675444,-0.0420115044236294
1682026408.2712069,-0.6362474199280778,0.8078499751500806,8.83708674520662,0.04009628925468917,-0.021440341627361872,-0.0356997078180424
1682026408.2811463,-2.1210147676995685,3.0992750645829563,10.455704622015146,0.0018279040467492973,-0.05259408481720785,-0.0260956002295128
1682026408.2911875,-0.1264487295914239,-0.7898209811073013,9.536399824221022,0.002622230484731521,-0.053390207048497826,-0.0186349687993637
1682026408.3018198,-0.3807589000246144,-3.020445685284895,8.940544927236926,0.06749356929278472,-0.06686974080657664,-0.0045304213546327
1682026408.311166,-0.2184636145704292,3.9220066924286674,9.647475272025536,0.033945712718494406,-0.06381308385260598,-0.001144538762804
1682026408.3234005,-2.5205193864345654,-1.1698429352094137,10.312912674769652,0.05546067139863001,-0.09995441115383526,0.0081795226886756
1682026408.3311417,-0.37143626618392805,4.129004479434663,10.530765535466273,0.029284020188079483,-0.10163311132558375,0.0020579657737985
1682026408.3412058,-1.0421345929760482,0.960331079858609,11.065803231907822,0.02760515895755529,-0.11443642444639035,-0.0079957120016328
1682026408.3676257,0.13367323591379823,0.12667734359015828,10.338364895666029,0.016655784199236804,-0.09351014933991708,-0.0063729755476228
1682026408.3724935,-3.510526555093564,1.0270731863464069,11.305800215902384,0.027870849809070525,-0.11843026276686729,-0.0123912621185295
1682026408.374503,-0.9054038569732636,8.851466935649821,12.867479940188243,-0.010609337493778848,-0.11825397983244733,-0.0261393071979395
1682026408.38178,3.6845656026577442,-0.012380307520227564,10.355853973603827,-0.0015917833225372268,-0.08278483367242614,-0.0264802290022484
1682026408.3911772,0.21241095333795745,-2.8989762845771243,7.856014271544381,0.04676313244004849,-0.08052990634993779,-0.0244399117201678
1682026408.401266,2.833792598546107,-0.23403815672557138,10.061833544467977,0.05270571770509816,-0.050466682388061436,-0.0367365976691357
1682026408.4093983,1.2960361851347435,-0.6139711305051051,9.583405412827132,0.07571994541506755,-0.037424454488586556,-0.0268922535598389
1682026408.420151,2.293520387602518,1.5642694500950267,9.62064015293095,0.07420814486021537,-0.016547079507475273,-0.0162797210633866
1682026408.431158,0.20996144986616913,2.70973624847834,9.694199359733842,0.04098628579961957,-0.009687684932967143,-0.0329759655416123
1682026408.440339,1.2653563899459614,-0.5713277176368154,8.666880438291725,0.06048217466039012,-0.0080261337023202,-0.0239373067289702
1682026408.450533,1.512088602075847,3.932433845611271,9.115242480936471,0.032859575433860026,0.011655049263149819,-0.0260748783022276
1682026408.460216,1.8373019294995407,1.9035784558178392,9.857576383441323,0.020573910560937887,0.02155570951242107,-0.0265623418510071
1682026408.4701786,2.030871887032309,4.09185436694044,8.400083059748589,-0.01469804587277748,0.05203265356855179,-0.0386886162579171
1682026408.480231,1.5433021864804717,2.5950161130368463,11.004597441234534,-0.0335551881027195,0.06126074737049233,-0.0390585189581028
1682026408.4901628,2.6207469513982686,3.3484938652199125,8.574705305902613,-0.05479521542802546,0.09133230718106897,-0.0434768026590458
1682026408.500171,2.0159704783726147,0.45418332583363735,9.914751463127534,-0.062194158446926565,0.11188941544035279,-0.0462345940888039
1682026408.510178,1.0975819220440692,0.30547320848934123,8.66345480906853,-0.04492796598804782,0.11856331137688225,-0.0504248378694169
1682026408.5203257,2.2454453479440644,-2.4267975117533354,9.596198865454292,-0.01660760587454323,0.1427363407888889,-0.044431162428867
1682026408.5302098,-0.8638540054179453,-1.6467021294630466,9.03339933536498,0.0195637660539567,0.13119971935797567,-0.0337234711170308
1682026408.5430164,-0.5826394720932941,-0.2769861955541914,9.869590023826488,0.04724037168032903,0.10206689762858898,-0.0308710386872403
1682026408.5503397,0.1769357707207827,6.617890779781106,9.715665438336686,-0.007788265746927388,0.09979374337780206,-0.0259505392879359
1682026408.560215,1.2703556489470749,2.51467694866425,11.256335729385288,-0.029973709522917794,0.10150161834987671,-0.0286864856153838
1682026408.5701923,1.7102498881062609,1.3054534054483564,8.770750223084178,-0.032827968570852135,0.12512741674993383,-0.0305019294738881
1682026408.5802598,0.3402159620461406,1.5820231689825222,9.8881029216866,-0.03982628236341314,0.12169373850653058,-0.0396525649249665
1682026408.5902104,0.7458059527339138,0.5389215595135474,9.665407280716826,-0.03158355797843049,0.12382908187726459,-0.0344919724285714
1682026408.6001885,0.10395468560787909,-1.3212559631208116,9.636483398238498,-0.013901128966867786,0.12257277464601701,-0.0258776297688595
1682026408.610279,-2.893806640165371,-0.9592163636307807,9.167849217922846,0.022160980901631856,0.0890107242127215,-0.0228326314956061
1682026408.6202884,-1.3113569948200274,2.2430017031849268,10.821974643940466,0.0028786151523874904,0.05455297458071765,-0.0158497312933318
1682026408.6302238,0.1219217154135725,4.706556638001355,10.103047399488247,-0.032216154728569174,0.06402020755826883,-0.0190261373192183
1682026408.640319,-2.436807532201067,0.3938503814272619,9.770063206679025,-0.038957050245962764,0.03645111921218803,-0.0313436327397934
1682026408.650229,0.07594135931956651,1.2692566666922058,10.312310553803645,-0.035074588413642346,0.03587222312755638,-0.0489929592132679
1682026408.6602533,-0.13870748551836135,1.4633097294680406,9.659053239444747,-0.03924380467811477,0.04635787234896127,-0.0578480450332276
1682026408.6702137,-0.7607663839768211,2.958887867891634,10.262172205341137,-0.057680344043877875,0.03913032811323234,-0.0588464340090863
1682026408.6802108,-0.135419404622879,1.9585728715423123,10.46470983119378,-0.07445467392756941,0.0445933510432397,-0.0602980082750432
1682026408.6902082,0.07755086499288345,1.8067027841793675,10.187377701789021,-0.07706762407134174,0.039628355430830695,-0.0521861178696267
1682026408.7002227,-0.32356676854743116,3.060080920655776,9.640458873470218,-0.09973157504648794,0.042456803905505464,-0.0440384609520546
1682026408.7102673,-1.189977079565972,1.4976738968384309,10.336819822859434,-0.10790916905054085,0.025856698645715437,-0.0380635460734478
1682026408.7203715,-0.7493440527945177,1.604368111259138,9.604989077150174,-0.11461654155779838,0.015464622206345221,-0.0393806112825982
1682026408.7309327,-0.34518945189841116,0.0323880886097972,9.144409891932026,-0.10456084150923638,0.009248398530014247,-0.0372902763903252
1682026408.740327,-0.20462837155657282,-1.1799840162196675,9.319784740605796,-0.08204858225594673,0.005628909403640285,-0.0386415732920281
1682026408.7504115,-0.03680820658228563,-1.2511584804831992,9.371120014039887,-0.04736908598565392,0.0036703257462460306,-0.0512749304890744
1682026408.7602646,1.891575705794636,1.0184579831611362,10.102844886768251,-0.05020312455495674,0.021128366875063875,-0.0466932369291893
1682026408.7702465,1.4629295227093944,1.0753021979506812,9.236318381189891,-0.05663130466216059,0.049849153376238374,-0.0394017634809128
1682026408.7802143,0.7801994581411513,-0.20849362739342567,10.332951920941932,-0.04248972103136577,0.049216737192357335,-0.0382966747403256
1682026408.7903242,1.173572757706474,1.7188338997815775,10.025291092082036,-0.05889556609163015,0.07238028423828087,-0.0323947755515686
1682026408.8002002,-1.5280296521071763,2.1637860822370847,9.91249745073776,-0.059638657120856815,0.048485435826976384,-0.0262130977481715
1682026408.8101792,-1.1649772961460811,3.2710946473369082,9.868304127885578,-0.09950967642977579,0.02918131714584923,-0.034510602605354
1682026408.8206277,-0.9848689309982072,-0.23623264199001562,9.264501401458773,-0.0872752161601514,0.013849140664686945,-0.034895011585962
1682026408.8301756,-1.0809654732218668,-2.242871406420857,8.723445098702351,-0.056384809944490424,-0.007599855239343927,-0.0328728457808606
1682026408.8413162,-0.15143989105457237,0.4791001282501188,9.421008562043955,-0.042192887146657594,-0.010783462776072651,-0.027865783673536
1682026408.850786,-0.5580581177666717,2.525977892343929,10.53609659311495,-0.06026733081497303,-0.01986925070102048,-0.0290577703982703
1682026408.8607106,1.2671858169665378,1.0613410702507,10.373102467682626,-0.08422591541726591,-0.012031723515765747,-0.0262388637185208
1682026408.8702393,5.852607369035809,-4.255074423797255,6.2909610240878315,-0.017301262626401696,0.05508792487252514,-0.0438616549491993
1682026408.880264,-0.5866603297107408,3.158045270542522,7.043322527664061,-0.043716519447575646,0.06492921492907171,-0.0480647770583741
1682026408.890258,-0.43145469436073675,0.7129555897067105,9.959822147458688,-0.0463720681381733,0.04586986275611559,-0.0505788935244194
1682026408.9002962,-0.7799575984586186,0.41899543565585406,9.175872182939095,-0.05774162895323822,0.04059398705829759,-0.0472849992931
1682026408.910211,-1.7089263020321088,0.2611559237934824,9.384820459458014,-0.03859020116559947,0.013567828829308933,-0.062466089975845
1682026408.9202533,-0.41333636274121166,0.9104972987792724,10.060200236316177,-0.05809662743206421,0.0015363280622051271,-0.0509881017625443
1682026408.9307694,1.719703645057006,-0.09328524875073622,9.170851800620847,-0.035639378336363756,0.0213287795732014,-0.0506702562689892
1682026408.9402356,-0.7822744903652242,0.5090246429622299,10.057733800724165,-0.03970274901752972,0.018186490149209072,-0.0597117667913548
1682026408.9502752,1.4750762235079211,0.884903945965229,9.50940390822903,-0.041926744478280854,0.026940515980346635,-0.0649733817100636
1682026408.9602602,0.7913639364019031,-0.3621707410683025,9.010095956805786,-0.036572909285694136,0.057557104176728255,-0.0679706310749165
1682026408.9702525,-1.4953343312485028,1.4530938752055789,10.045010813798184,-0.025685089859717125,0.025587589521983894,-0.0662458440184704
1682026408.9802663,1.4544177248994619,-0.42736934441777,9.865727369420368,-0.03751767015332751,0.04957514938988616,-0.0683628966927639
1682026408.9902542,-0.08624581851383702,-0.8680244823459533,9.040101833330613,-2.8157373067929127e-05,0.0419562143727178,-0.0588737068593613
1682026409.0003965,1.347480434329693,0.38964092278375606,10.081587529601649,-0.0005164700617352206,0.06409153412789656,-0.0504713034153096
1682026409.0102313,-2.825152464696845,1.5697957549701698,9.30036615222397,0.002562427610378573,0.03385928415688076,-0.0401343790710083
1682026409.0203085,-2.947882750581012,6.496539658952565,10.512911031529287,-0.08062732302049483,-0.0005073442592061188,-0.0340252531588189
1682026409.0302866,-1.6571605490255723,0.1999050391421452,10.591569073716164,-0.05812355265606771,-0.018560349364782226,-0.0226673049748055
1682026409.0404718,-0.8347582076956335,1.8669131978878581,11.362275960381513,-0.08962507551280456,-0.0429136540158331,-0.0197280285775772
1682026409.0504966,1.5643868215845054,0.18624525177961612,8.382281775007664,-0.053425899274274234,7.225643278686295e-05,-0.022015096050512
1682026409.0608814,-2.31783750290997,2.886041745325558,12.031624632516266,-0.09799974749370739,-0.038853616452919994,-0.0210801040649525
1682026409.0702758,2.88957529552331,1.6132181612615701,9.827954980367831,-0.08783177666724391,0.0006155946499594711,-0.0178565116495005
1682026409.080203,-0.05152384787834123,1.9193547614244721,11.752387694247265,-0.11666096947052515,0.013975132098587735,-0.0267662828683964
1682026409.090205,-0.7669478330267242,1.6575000897571317,10.58311989404495,-0.11818730631482972,0.0012375679623187164,-0.0284251117974631
1682026409.1003249,2.567750221832135,1.706457830873231,10.230796114969907,-0.13516565488093213,0.04439170761540729,-0.0337662560761086
1682026409.1102097,0.6151755998771326,-0.2881004327088476,9.750417665134853,-0.12284914820392683,0.051290095037338786,-0.0332189587772004
1682026409.121096,2.4128415525275555,-0.8646862334487314,9.557690524764439,-0.09607573014205988,0.09244295999723219,-0.0336902638793103
1682026409.130314,-0.8277504251081217,-0.3782063706138085,9.71707863553847,-0.08505886843404896,0.08360382902749915,-0.029411745619785
1682026409.1414173,0.9937177860247565,-0.04735138465738466,9.423420082029844,-0.0709771952267488,0.0858940556606963,-0.0230739762902371
1682026409.150435,-0.43908881701528113,1.0652193324138366,9.388234260198505,-0.08036074574099768,0.08822613699325384,-0.0230169849366061
1682026409.1603506,-0.9982517541001271,0.6057734553476938,10.093576956189096,-0.07211205001060651,0.05958752777638481,-0.0181555667787901
1682026409.1702747,0.42490305510842696,0.2511228151469814,9.703244118133586,-0.06888682532212384,0.06427651453001504,-0.0150475067913643
1682026409.1803591,-0.8502940065758715,0.5133647814630548,10.894159423676921,-0.07220289912455802,0.04993359046371274,-0.0194253859937302
1682026409.190223,1.0115352160582205,1.0327704698197835,9.884636287666096,-0.07541619005092899,0.05725487260880791,-0.0238830776780955
1682026409.2004488,1.1474093923972941,-1.1659795305680027,9.611700287435111,-0.06159869616676119,0.07512392356778695,-0.0223506441235653
1682026409.2102892,-0.11679663421732889,0.5289517048523383,10.03327417850659,-0.057369073101952245,0.07119855915106545,-0.0247767152160517
1682026409.220279,0.47081316293716224,0.6950053827764671,9.514935808129946,-0.05358195004548736,0.08368654694372929,-0.0195411587029807
1682026409.2302656,-2.522966184733488,1.2621311459762476,9.895259238094852,-0.07105681793753785,0.05438939832978687,-0.0099128488347045
1682026409.2406526,-1.7756587919265432,1.3020192455538941,9.12482571296669,-0.07677871013788609,0.03296914646922531,-0.0099382124737016
1682026409.2504122,-1.838193857626589,-0.7616533729831477,9.98939298142487,-0.06435997980736517,0.011154154175731056,-0.0103897986829392
1682026409.260256,0.6189018287613576,0.7604008437062855,9.882785760024536,-0.05796598414364109,0.020782376702954384,0.0007236393738426
1682026409.270247,0.6923642567517042,-2.3644639063774764,9.84524046394999,-0.03923939298515654,0.03617307397095894,0.0009928609232306
1682026409.2802343,3.0907280112717057,-2.0427613965511413,8.777121834452691,0.003019268167676055,0.07218022908247122,0.0038100950058438
1682026409.2902138,2.0491013081821086,0.9236798832314826,8.879128158199975,-0.006134045060507266,0.1168377108421693,0.0060362300008423
1682026409.3006992,-0.6408406042738741,0.4044378933490562,10.265137866847411,-0.02194914219554833,0.10727191315044839,0.0073558284073956
1682026409.310228,0.4329172657868917,-3.2925149679736663,9.104617790871428,0.018688744146629573,0.10720017503803235,0.0133265746861584
1682026409.3202612,1.4439613855031588,-1.0465694069550604,9.086056555345838,0.04736730154139644,0.12526562920910084,0.0157136112555749
1682026409.3302684,0.023287994355476203,0.7288294379525305,9.952737543706762,0.04094914367692645,0.12124077128656718,0.0262562433361895
1682026409.3402572,0.31784872750725424,1.3194196507824285,8.969622244060119,0.03909569298427595,0.12528651358879977,0.0296604620396979
1682026409.3512142,1.4582815672419374,2.9407689855232864,9.81520796553337,0.002020197527930382,0.13971717654297455,0.026928160908807
1682026409.3603492,0.010920299898046286,0.47978930237774203,9.25195134860156,0.004804285903960189,0.1484453602861958,0.0328335227548964
1682026409.3703198,-1.061228718881315,1.8815532347004964,9.770715382984392,-0.004862370667106707,0.13658567925456372,0.0290254378795512
1682026409.3805563,-3.745337105821647,-0.5209630660273423,9.621911604998125,-0.0008643222861269263,0.0998043043226524,0.0361950533568747
1682026409.3902478,-2.918064697095763,-0.19579158055938256,10.497869653448443,0.024496941812211043,0.056395739342448716,0.0545029515504725
1682026409.4005685,-1.9300315313285377,0.8110653942604278,10.362730417965146,0.01259925774641932,0.042704561844113614,0.0567045608639605
1682026409.4102616,-1.7530476963404873,0.13116950185836407,10.372433447185884,0.024610646123147065,0.022325886740568065,0.0579849803924449
1682026409.420372,-1.5228421231839868,0.886605001957014,9.851773364706208,0.004335441626002121,0.017432936077637226,0.0521655256032832
1682026409.4302368,-1.9714238312821577,-2.9779882525766466,9.359467089069252,0.054463825863520735,-0.007740237367431433,0.0483145961642153
1682026409.4402554,0.09724651830806644,1.5747248443924362,10.112747782476886,0.02747010599458325,0.00910916970908576,0.043012409108866
1682026409.4508166,-2.0698009739315135,-0.8355409708251167,9.399102639924873,0.052095984822636714,-0.002841378991212304,0.0363738970935233
1682026409.4602523,-3.044854589330083,-0.3608065239959558,10.15094074535967,0.05354229883466197,-0.02665285879266444,0.0235807193547375
1682026409.4702504,-1.9604529431664932,0.23250115758546494,11.212965442659014,0.059639795289031385,-0.041030127407506604,0.018758236068476
1682026409.4802372,-3.27187104481053,3.650627373355121,10.424022780852933,0.034148799589376264,-0.06060776158450224,0.0060955561801679
1682026409.4902563,-1.4205252746138628,0.6361671631801243,11.609664949329833,0.01312372808684174,-0.07688393479071079,0.0091107046335824
1682026409.5003142,-0.2270845298530172,-0.9682211468313713,9.12845007214968,0.04869828640355874,-0.06780612004632738,0.0099746115609891
1682026409.5102637,1.6502445624287183,2.0211205566022645,10.27254325716012,0.03600998336572196,-0.04336222556346995,0.0106125600740202
1682026409.5203714,-0.21799166796442615,3.025407273200821,10.23725758982676,0.0005971384466447687,-0.02552562213495478,0.0073993672720976
1682026409.530249,-2.1553323761927015,0.4534721004853441,10.284474876950876,0.0049078611512151146,-0.04759602601415492,0.0084582507714517
1682026409.5403032,-2.295450838587382,1.4482057145872975,10.77487447439692,-0.0005590593750201085,-0.06948804051094451,-0.0028994231380633
1682026409.5506425,-0.5837906030808734,-0.5688292081324198,10.167626686763361,0.009612274764605896,-0.07783326728600852,0.0036379736719541
1682026409.56037,-1.0202829945789387,0.23959068284683657,8.485638922467324,0.02206442500574955,-0.07309963452070768,0.0002815234346203
1682026409.5704803,-2.7671379836786625,0.37453193548978453,10.237128219811966,0.019348889551211817,-0.10609331600500022,-0.0050149279542378
1682026409.5802543,-1.4089671847648948,1.006853373110993,9.634493397680783,0.021725024446761006,-0.11711958038733182,-0.0044033000141493
1682026409.5902507,-2.0628316324718936,1.9728009872585486,10.88295886397758,-0.0032710625966260246,-0.14103983258074929,-0.0113011816412321
1682026409.6004732,1.3643481726607878,-2.6902802807778006,8.722406045830487,0.032331066643382325,-0.1252246663456386,-0.0063640469581
1682026409.610294,-2.049258325340717,-3.161945364456781,7.464765868819712,0.08422152973299732,-0.13662612978540634,0.0067486638307459
1682026409.6204357,-0.8810613749113408,0.611702853254835,10.69170748256332,0.08892358950735732,-0.1612775851082957,0.0018590856942469
1682026409.6302629,-0.06965651351096862,1.4614432349929463,9.471320541918102,0.06970299147945087,-0.15005198043690454,0.0047183834120519
1682026409.6403224,-0.2702682375549155,0.43176299052555106,10.419762664600587,0.06675031864923145,-0.15555851867619733,0.0025227247841544
1682026409.650271,-1.5628057490437177,0.3930941625197508,9.284467978124784,0.07245646397594796,-0.1664002754947249,-0.0088313318684808
1682026409.6605148,-1.07566367545416,0.3946032756430376,10.112886803316055,0.07648435686273682,-0.18221313864673724,-0.0109351970151178
1682026409.6704175,-1.9787032432940088,1.5970804631506599,10.146797616294391,0.06199153996542001,-0.19918233635027896,-0.0225504891842715
1682026409.6803966,-0.5654599880133949,1.1479797915245065,9.955497585346372,0.057324675607537894,-0.21201089251650196,-0.0369491813600174
1682026409.6902423,3.7168322790518697,-2.11820744837294,9.081896859985278,0.0730613523064702,-0.17127848193080766,-0.0385863756656758
1682026409.7004569,2.799135154632156,0.38634023055728245,7.393481313273194,0.10850323639579554,-0.12399196682185722,-0.0354107109725586
1682026409.7103207,-0.6231731041548796,1.2417552774101472,9.581113697185579,0.07741814252841911,-0.12771634122962,-0.0216132117331139
1682026409.7204895,-1.0818903517375673,4.118075418050865,10.747779052381444,0.05440188786024836,-0.15605027486210463,-0.01138412616105
1682026409.7303076,-0.40870660587670465,1.5071485538505334,9.619483740192564,0.02811584454750038,-0.15040241709180172,-0.0055235315941385
1682026409.7406275,0.23545557932103528,0.9252526657876609,10.702806830157181,0.03353222783088825,-0.1648854820332252,-0.012816873741161
1682026409.7505376,1.1133251869614096,0.6593207136080356,8.709031899276908,0.03693179336767738,-0.13529905354891103,-0.0235342359066121
1682026409.7603867,-0.8751588727321916,2.778298330007657,11.15958598823832,0.01304115441298814,-0.1517075901981746,-0.0357611192286126
1682026409.7702875,0.6298681427071317,2.3126932089854026,9.629875095234606,-0.0025942835037716053,-0.13586924705986136,-0.0532204596221558
1682026409.7817838,-0.5103522682700204,-0.4632746096794038,9.80508951771975,-0.004300143707415944,-0.1475576628223651,-0.0546723989665619
1682026409.7903335,1.3570404318781528,-0.0008266048850472575,9.299161373449154,0.0124096268830265,-0.1325721912210367,-0.0563080472767464
1682026409.800348,0.5561423751163996,0.2525388885680494,10.586327096766757,0.014965250102189562,-0.12679414742781736,-0.0511763816595189
1682026409.8103418,0.397200089689744,2.2418776913881606,9.94253122282986,0.010896287891692006,-0.12331758320818625,-0.0546930258989445
1682026409.8205495,-0.9342643498012971,-1.1059460085543882,8.758935758921057,0.011581234264968602,-0.13334407356909495,-0.0548556348204724
1682026409.831075,-0.2442114623367411,1.760856154609834,10.078996372632496,0.025854537205068206,-0.1503074877944175,-0.0495588568866364
1682026409.8403437,0.7222297630068806,3.073925691635618,9.727020667906825,-0.007677058727041275,-0.14347147536072102,-0.045432077151548
1682026409.8504317,1.1477406939821877,1.816300341576578,10.100233905501296,-0.028827929542885853,-0.13711584351055006,-0.0346502115845791
1682026409.8602812,1.0291633783005407,0.3491605569618075,8.7481732581152,-0.007506109827003058,-0.12644386585675893,-0.0339479198575131
1682026409.8703258,-0.2900316496126451,4.415399599267145,9.922641030558497,-0.04804525251534966,-0.13240559274856678,-0.0375852262497059
1682026409.8803189,-0.003228086820363116,2.7013294816219204,9.94473020000341,-0.07613753554714126,-0.14110158263537012,-0.0323939224600903
1682026409.8902948,1.149285495456506,1.6725956465616518,8.811447954762235,-0.07848359735847996,-0.1324367275393761,-0.0334398610413186
1682026409.9008229,1.5207491761733478,1.0085121241830717,10.523172380298947,-0.08131442069053668,-0.11369228871393089,-0.0414743697166554
1682026409.9103336,-0.6589732779045531,0.16351070308895946,8.553168063305371,-0.07338517256263409,-0.12118465347763857,-0.0445673888445012
1682026409.9204078,1.2006726036208661,0.44281260029210695,9.89862090006913,-0.06355740400447994,-0.11210774897028107,-0.0472435368120781
1682026409.930437,-0.3200130127386171,1.0725843801758792,9.547742029997401,-0.0676301942764234,-0.11307103044201425,-0.0531702501595131
1682026409.940271,0.3473324436901207,2.1242949047771447,10.419134099874134,-0.0802050698208544,-0.12086123442055409,-0.0485517730832211
1682026409.9503255,-1.729100079886994,4.0472375009792545,9.199009998157903,-0.12424362789988866,-0.1286955399209676,-0.0616369744658581
1682026409.9604642,1.2319713390933886,-0.9311240694488836,10.49497642965536,-0.10165601351065448,-0.14072459136809234,-0.0611583417177311
1682026409.9703567,0.0349730808868763,1.648793279640933,9.159212058688261,-0.10742571356359551,-0.1209796218728561,-0.0686975246191136
1682026409.980276,-0.772911033541817,0.7450380974495877,10.790672111056669,-0.10838344031705244,-0.14369731637230063,-0.0718537023186795
1682026409.9902866,-0.8848479937923024,3.372854920829357,9.861227828865847,-0.13453929264858902,-0.14910549401362794,-0.0715636437654606
1682026410.000311,-0.07709692394935035,-1.0395009822254304,10.765054549452678,-0.1294413174899674,-0.1621423425014632,-0.0681134289026371
1682026410.0103502,-0.6286495835027951,1.887900495949163,9.555454138349706,-0.13317407427397637,-0.1729950171157979,-0.0634840553522221
1682026410.0205317,0.9583069151288224,2.9256134923265926,8.279635726447774,-0.16006249730513042,-0.1644349823083561,-0.0663192173361889
1682026410.030315,1.341719020284534,1.4320926939493226,10.100931101944818,-0.1646799667113773,-0.15249420235823422,-0.0547437382757775
1682026410.0404046,0.34491046213991833,0.14772659058340123,10.126745398287227,-0.16976095432828456,-0.15077043461301953,-0.0592933682620636
1682026410.0574782,0.9875269955651644,-0.8258389137555953,10.646991762646266,-0.1376647289030933,-0.13519853168704932,-0.0512062361359707
1682026410.0602975,-5.567157482146994,0.392436766903436,11.737353858348376,-0.14150507484076852,-0.16185381352720668,-0.0611932029843441
1682026410.0702765,2.4424747030580995,-1.3851510678062984,10.639085641877461,-0.1289496764197795,-0.14234059041762775,-0.0525352259993664
1682026410.0803385,-0.6489873048710489,-0.9212418545614871,9.960179642694953,-0.11148028937660989,-0.1519949318927626,-0.0403322031617276
1682026410.0904973,2.926196910743808,-0.9869314866776236,9.85319319839387,-0.10105199833737552,-0.1282139771582376,-0.0426151690900437
1682026410.1005025,2.0778924629259587,-0.6433324534912391,10.411449967395049,-0.08677201714141929,-0.09910335858216816,-0.0303425429284684
1682026410.1103127,0.2448678688837215,3.5597544871826146,9.828332738395693,-0.1252495105077582,-0.1026446247858345,-0.0368948591768853
1682026410.120441,1.643454914545339,0.13378742960603315,10.696290870382162,-0.12272913190915782,-0.08997949535031768,-0.0362863590836636
1682026410.1304016,0.6189220259344007,1.8036779547102142,10.513134067464483,-0.1335945537756675,-0.09493043498936359,-0.0496471127390973
1682026410.1403131,3.010425771324716,0.22947742939609597,9.868020804541072,-0.13425447421869155,-0.0583666230540221,-0.0555839775025956
1682026410.1504066,0.587369462128739,-0.8709906584843687,10.433787219020973,-0.11798271499772806,-0.05991984339068737,-0.0594652680575959
1682026410.160463,1.8790214789982558,-1.842572468306267,8.62203517185773,-0.09542150754191389,-0.040281539459766307,-0.0675233056664578
1682026410.1703062,1.4537737339193721,-2.5266139338749785,9.496686313521751,-0.06328717365745562,-0.03265783385711165,-0.063326035988342
1682026410.180366,1.8878812461926266,-0.29193346811265203,9.162592755980997,-0.05093017934872485,-0.017779697557119993,-0.0563550790667645
1682026410.190349,-0.20876099735817555,3.0719240448639034,9.727896266221741,-0.0841137755003603,-0.02372556685862068,-0.0597381194949261
1682026410.2005558,0.42502441652702827,0.9272372238550564,10.509113332504162,-0.10442633527291971,-0.03882409195438083,-0.0563012560725323
1682026410.2103024,1.5855472868096758,-1.2353254689957176,8.331593012018672,-0.08109491003161119,-0.018852324069130226,-0.0593377066671959
1682026410.220371,-0.22425780911573068,-2.1039587065287946,9.222806434043733,-0.059121194574038,-0.04037200494078224,-0.070943286073219
1682026410.2303247,3.5901280767828414,-3.143670131343945,7.471916822645463,-0.009648265481896925,-0.011986432840857209,-0.0634070387005917
1682026410.240324,0.7319363416297863,0.8844852311979177,8.121422596428278,-0.02161665169441284,-0.0004599316631628221,-0.0673058977246396
1682026410.2504025,-0.48875155976960644,-0.9698207573358454,8.753954476260917,0.0024090893365384886,-0.028097686271362853,-0.0570924853801838
1682026410.2603266,0.26101917333842295,3.537715850777893,9.457055232499362,-0.048821897592528384,-0.031221172658853664,-0.0438053136587254
1682026410.2753508,-0.4139487230983219,0.117048879580964,9.31017989732029,-0.029145716667114255,-0.07066851185218138,-0.0274446358800045
1682026410.280311,2.8147257739770906,1.3698325750139213,9.445314041023053,-0.049480364135599524,-0.05681825313193949,-0.0077449859947077
1682026410.2902956,-0.18125444448632244,-4.007516311950442,8.746962338229128,0.025982815857898828,-0.08087029656346188,0.0047008077252544
1682026410.300387,0.5739463887172316,0.8808077478542302,8.55375252208189,0.007587023186277939,-0.07736866935533082,0.0045396388612576
1682026410.3103645,-0.5243136252924759,-0.26974968360434304,10.0828019547032,0.0157578105199765,-0.10477750084676533,0.0197532555192597
1682026410.3204188,2.6644112292036226,0.8897913096087098,8.994503653018187,-0.0035026211964772802,-0.07737322873570088,0.0246837871253378
1682026410.330334,0.6788029814180552,-2.0466088921642362,10.163414516955347,0.027903843015414542,-0.08410061734352169,0.0206290694057829
1682026410.3403711,3.3463217905520155,-3.0158834644295562,9.299635223206108,0.055581175938820566,-0.05319324080426081,0.0230076728492863
1682026410.3512602,2.4795324999225437,0.19299141847615262,9.826907243433805,0.0750609712398834,-0.02895462690139518,0.0120764128968008
1682026410.363388,4.1842021302735315,0.021771095234723127,9.62087651012828,0.06168790001464043,0.03067110292090714,0.0276435526192076
1682026410.3709142,0.48675664981893646,0.8211829538208026,10.811606628303982,0.0763411111874002,0.034288856895044684,0.0247413149207718
1682026410.3803508,-1.4340878893321292,-0.8328393023922381,10.81311106399074,0.06567001171206847,0.01667546605732882,0.0087918146617599
1682026410.3904076,-3.3983334308092856,-1.8473448069705343,10.361462985052249,0.10280771275511677,-0.039078102302191844,0.0029614526882656
1682026410.4007852,1.7254053055223966,-0.7439737169107519,9.615884301266433,0.11710365203311959,-0.029221579536219084,-0.00110400155076
1682026410.4118202,0.6251602448286699,0.5605889922248143,9.30429866742935,0.11730109310016931,-0.02105509075223193,0.0004784411156438
1682026410.4219782,1.6696998786361912,2.956326911246478,10.731165271364421,0.0873706989676619,-0.008424220446984942,-0.0021692280553392
1682026410.430333,1.1091780746138011,3.938949972649731,10.837564160057266,0.04756475265814197,0.004700641383997527,-0.0096888955578319
1682026410.4403396,-0.12821880770504906,-0.1429989485962209,10.433586458786898,0.04381408753731853,0.0025976580259916395,-0.0061627145752422
1682026410.4503713,-0.88128984624814,2.825427109399006,10.85443713735821,0.03599739087014804,-0.02192194127013728,-0.0158805785596482
1682026410.4603508,1.3295434278932208,1.6011521767893009,10.295100790081712,0.009872195636802342,-0.003397159993361681,-0.0126682197570912
1682026410.470359,0.115010541970666,-0.8792947410033517,10.505834431086564,0.028123110341189188,-0.016889838167422507,-0.0074446139752976
1682026410.480345,1.5187478942205002,-1.6947583139164157,8.822452425076055,0.06636092892893104,0.0016847283663225148,-0.0008776487212739
1682026410.4903264,-0.45200457538049477,3.6192543387672953,11.228936445906845,0.03069877251979575,-0.019067818580384706,-0.0060687050119153
