time,ax,ay,az,wx,wy,wz
1700843522.0177712,-0.7260066890202136,-0.4006324240632049,9.72441852598058,-0.0015839785913407715,0.0010908109089113177,0.0007877379656206
1700843522.0278337,-0.9148973714149051,-0.453243090987768,9.804831243720281,-0.0013113032836172393,-8.51396760428788e-06,-0.0018449161899839
1700843522.0377903,-0.7192903174050832,-0.45584723421554063,9.68893190621594,0.0016607498798981769,0.0015147508029674638,0.0001261395926489
1700843522.0478196,-0.9140397616472209,-0.25320744911524024,9.880972186198731,-0.0005178125915839777,-0.0008374061246760562,0.0009654424619297
1700843522.057778,-0.8950565131925683,-0.37259392167004274,9.828706189795112,-0.0015508271054735033,-0.0019404575152605105,-0.0010153042850647
1700843522.0678165,-0.7779986025270246,-0.3149664261660193,9.783402265628723,-0.0018309733800936047,-0.001625676452570197,0.0004871023855598
1700843522.0777583,-0.6464897639202293,-0.44387719148163457,9.649300150350035,-0.0008616594250617313,0.0025213147542081215,-0.000643528928012
1700843522.087784,-0.958225316728761,-0.44986354911472504,9.824202297139859,0.0010632069474152575,-0.00029685677726224124,-0.0002985524944592
1700843522.097727,-0.7807150322292988,-0.2864242016582198,9.777159507608767,-0.0003002473957223887,0.0003256354971489217,0.001200130570251
1700843522.107785,-0.8251615607794,-0.459793845381953,9.742028691871681,0.0010214811527270646,0.00044224338478431806,0.0007690972241475
1700843522.117755,-0.7581748139920182,-0.3847177818239366,9.737633479251924,0.0014528626212726972,0.0019953166579441484,0.000598136463705
1700843522.127854,-0.8509687138764389,-0.23835424201337108,9.839357071806251,-0.0024620434624057744,0.0021353746234749156,-0.0012071612756331
1700843522.1378288,-0.9024053333956508,-0.4928381915424965,9.771347435359,0.0005357011378493264,0.00013751125383235584,4.938662172252042e-05
1700843522.147766,-0.844561802617707,-0.23006906028233548,9.845324347404212,-0.0023078068142794624,-0.00026520005652104115,9.516294849605392e-06
1700843522.1578352,-0.8703834474450182,-0.4940700790763793,9.748060459904925,-0.0008795224316998532,-0.0004812681096105423,-0.0017659516771887
1700843522.1680803,-0.8061849070043178,-0.4478557553320032,9.737214688215271,0.001136596283502226,-0.0001914234164896769,-0.0013766455696527
1700843522.1778276,-0.6979939783548512,-0.18509996293565112,9.781830273191936,-0.0010151365294399943,0.001393305524959672,0.0013498784508924
1700843522.1877935,-0.9523580343221718,-0.6008283717696539,9.77051878473723,0.0029392535393859224,-0.0008459673306182863,-0.000232268345971
1700843522.1977766,-0.7959831436238411,-0.27537490379706675,9.79115137758059,0.0009369189657487848,-5.546749784806622e-05,-0.0004971102927443
1700843522.207754,-0.7971625601403589,-0.36038495761369566,9.771387004265211,0.0006661018743363094,0.0004973767381708863,-0.0005149856907878
1700843522.2178836,-0.8869057571363158,-0.3256651269207152,9.823392102572768,-0.0007882596786903955,-0.00035312277061258116,-0.0014098135754097
1700843522.227878,-0.8713981031627347,-0.32229839962543644,9.824675067845526,-0.0010166222739853728,-0.0017895942388434906,-4.299682328520613e-05
1700843522.237782,-0.6536073649016801,-0.4872484345288438,9.647407923887474,0.001345212202690606,0.0015151243573349054,0.0002039951912961
1700843522.2478223,-0.8965615051353178,-0.25024160050055116,9.855816240216663,-0.00039747674725492695,-0.00042203029093102547,0.0016270481981705
1700843522.2579176,-0.7877100848860208,-0.38425237844031024,9.761569214759358,-4.8043908973389674e-05,0.0005003494874243351,0.0016467956127967
1700843522.2678,-0.8191317119330389,-0.5256952866859123,9.717768599273038,0.002010890008496624,0.0009969566368737122,0.0002248509525456
1700843522.2777834,-0.9453851496644334,-0.3515926749719358,9.848238477646243,0.0011500103106064053,-0.0010519700382472814,-0.0010633566882093
1700843522.2877543,-0.6928018148489544,-0.3075814577451708,9.757325555599424,0.0012617629722104899,0.0005688985374370476,0.0015029955655704
1700843522.2977982,-0.8770923074725888,-0.4372553244436459,9.790830287256789,0.0012140867569959339,6.746688616865704e-05,-0.001309982314669
1700843522.3077624,-0.7455146924854311,-0.2921935000724104,9.745393652894661,-6.322536957533001e-06,0.0017405045592641085,-0.0001525084254894
1700843522.3178377,-0.9594915048955336,-0.3637931273697237,9.85671103296849,0.00019968324167628248,-0.001452814443701603,0.0008056239574584
1700843522.327832,-0.8767489197014291,-0.3251412360021474,9.813934032231758,-0.0007491351631716697,-0.002306660126284344,0.0001805159671134
1700843522.337755,-0.62445620950964,-0.38921873364411746,9.674058382075847,0.0008989079383538382,0.0010956647986438879,0.0025509147206689
1700843522.347857,-0.9163599999729765,-0.5157549132271199,9.767251532893814,0.0025414006764939144,0.00012223974269882636,-8.100246774075823e-05
1700843522.3578622,-0.7778709820773396,-0.32145803440975873,9.756245984279731,0.0011906209998914347,0.0014853158039593625,-0.0006047800881419
1700843522.3678558,-0.9120103983809746,-0.2950247990866443,9.849925307594901,-0.0006008858960911669,-4.764008702138265e-05,-0.0009072646963973
1700843522.377813,-0.8131500017646207,-0.3184790199025335,9.787435978102238,-0.0020157560464602875,0.00026155315779125015,-0.0012172076850761
1700843522.3878305,-0.9156904028007621,-0.31275745939967803,9.85498296167268,-0.0031068854909258098,-0.0016003563698823624,-0.0011512611992288
1700843522.3978932,-0.6971024206703749,-0.45779093681349203,9.67724984937404,-0.0007200806335557372,0.0008516484000267788,-0.0002210572012331
1700843522.4078174,-1.0406178243491218,-0.5590432020291455,9.821063516053082,0.001566120448501001,-0.002625511940155806,-0.0034371224930141
1700843522.417909,-0.6107613476485996,-0.14940768018427547,9.743363878322645,-0.0005867448425124777,0.00040311996020329395,0.0015350385336573
1700843522.4278438,-0.8645353853974461,-0.5012415367247303,9.759772724798895,0.0009402650595680942,0.00035134515466480216,-0.0004408627748121
1700843522.4377837,-0.8296934364837474,-0.2998115305419354,9.797352868587405,0.00046641022629168304,-0.00023986176859522852,0.0010861418093922
1700843522.447863,-0.7742475867994981,-0.3665160361846334,9.760880165854864,0.0003051017466820542,0.000716039843366202,0.0011256209225762
1700843522.457799,-0.8573792551168135,-0.31916171776602964,9.822050345632784,-0.0015597563343987995,0.00031856050620453246,-0.0001663089962307
1700843522.467845,-0.9465483651804917,-0.42081903642905405,9.83245820393976,-0.0016793246795375426,-0.0015124340544788544,-0.0026950521161411
1700843522.4777937,-0.7567183050857198,-0.42530239356264177,9.726331091459073,-0.0001974203267359277,-0.00048014929457845454,-0.0017175166168813
1700843522.487816,-0.7347381567034496,-0.3229674684987458,9.738390866026588,0.0003363982364890083,0.0004396357262914747,0.0012809583684797
1700843522.4979002,-0.785618241289511,-0.3776636109893154,9.763189792107974,-0.001264380848016874,0.0024196207109829057,-0.0023001478286091
1700843522.507834,-0.9080639861888226,-0.5231856062297419,9.784619672534664,0.0008020826888841303,0.0011202235180020805,-0.0041758436010782
1700843522.5178814,-0.7534909699692589,-0.3002394762187531,9.762437886535162,0.0010646938156645646,0.0015851597690574235,-0.0010961347026382
1700843522.5277932,-0.8622468023887176,-0.18870805172238056,9.864913126250496,-0.0016636967884002423,8.610327991758457e-05,0.0008577804663586
1700843522.537829,-0.8031936886716327,-0.5105350732268438,9.709874854741683,0.000787542506272617,0.0008665440157777074,0.0001738044782909
1700843522.547825,-0.8503548840344742,-0.33569832800956306,9.803127460983177,0.001022595125062626,-0.00012586256786975653,0.0014724491164456
1700843522.5578463,-0.7824810457209871,-0.3666799556525372,9.761396206166435,-0.00044404465012621707,0.0018313865111733965,-0.0012298939283568
1700843522.567946,-0.8595271913206213,-0.24369051744543,9.829871152304065,-0.001954284407296911,0.0005528700909298899,0.0010470269015427
1700843522.5778122,-0.9545693118675751,-0.6223805442884288,9.751483413061544,0.001957646393517089,-0.00140847877330497,-0.0006722058634836
1700843522.5879428,-0.6257371692532201,-0.32406985858871856,9.687124742167711,0.0015136008592890654,0.0023685792654935304,0.000687173506631
1700843522.5978098,-0.9715778592598342,-0.3566908827995392,9.858874832058774,0.0009041359898033438,-0.00042314488973565546,-0.0002989276428338
1700843522.6078124,-0.8328253325310385,-0.4734507311470861,9.744546185294638,0.0033821989486152856,-0.0008500514599040837,0.00028966463
1700843522.6178348,-0.7670854240166807,-0.2462334038413421,9.78190376401524,0.0010401059763173036,0.0002660391821495394,0.0007005599444168
1700843522.6280403,-0.9359592141103403,-0.3844481744350994,9.832100721296833,0.0010337746618172788,-0.0019460430742251605,3.2992550441564154e-05
1700843522.6378384,-0.7181719260555431,-0.40381526773658327,9.714709586843844,0.0005330820398204237,0.0010535685131805694,-0.0018702481640134
1700843522.647803,-0.8852418233506552,-0.32379459969113933,9.829473873302527,0.0003669489682709527,-0.0006697598344767211,-0.0004017451894101
1700843522.6578104,-0.7976943259532382,-0.309392782469189,9.793162873881295,-0.000699974935855648,-0.00029461743428018267,-0.0003901747287814
1700843522.667847,-0.8393328784199685,-0.4066502020215084,9.774719641938516,0.0006884373668124863,-0.0009029576720730091,0.0011066377745378
1700843522.6780334,-0.8672113340918591,-0.49907349911928756,9.75930463005349,0.0022798817858880518,-0.0010989119842200318,-0.0012731049675126
1700843522.6878738,-0.7065711500222455,-0.15478204027223744,9.783053217072045,-0.0014685055551766856,0.0009667534604547509,-7.979385517968703e-06
1700843522.698138,-0.9540261389310789,-0.44562262673469766,9.828312566633176,4.807259375065266e-05,-0.001768723035819983,-9.25441155773242e-05
1700843522.7077973,-0.774026197770973,-0.49296136706823235,9.708348760272719,0.0013630846102138904,0.0002511329408270933,-0.0023679569596056
1700843522.717786,-0.8496068083494477,-0.18953328549461562,9.851844471085174,-0.0010028370341626446,-0.0011231258853388725,0.0001332018699399
1700843522.727888,-0.7824488010613173,-0.3334119855191939,9.773455587332535,-0.001298251437300967,-0.0005132993831471705,0.0011170572368796
1700843522.7378528,-0.7808087704854613,-0.4924740097552378,9.714053440979018,0.001000245914303322,0.0007190293708130806,0.0002211203071424
1700843522.7478137,-0.9146182305437347,-0.3933958475089819,9.82372579535676,0.0003747756715147956,-0.00040078465734751437,-0.0015219409716878
1700843522.7578304,-0.7533339049637547,-0.19400701819453167,9.797149591087617,-0.0017002136795757049,0.00016097767631040013,0.0013707435108158
1700843522.767856,-0.8730894987404004,-0.44057036236982133,9.774593299524016,-0.0009734137498650365,-0.00024955122765816997,-0.000149909919091
1700843522.777857,-0.8214703087724136,-0.33238532526527176,9.802152361990935,-0.0016722797948790248,-0.000507721753443083,0.0001123443479086
1700843522.7878337,-0.7756162294772885,-0.4535098279245122,9.729239902475378,0.00018478275928800783,0.0002216978088482246,0.0003194667486609
1700843522.798003,-0.9659202721762153,-0.4871897418278635,9.808688840270927,0.002337636878404253,-0.002611012576425132,-9.960883759005264e-05
1700843522.807844,-0.6636629150666035,-0.1306936831301293,9.769345523175039,-0.00225044100146102,0.0005867757331952939,0.0005709309378657
1700843522.8178034,-1.0037094460468265,-0.4277491982477785,9.858758762077171,-0.0015526809579253615,-0.0027533277085660364,-0.0005924858152498
1700843522.8280103,-0.6832223663498762,-0.5006431773437432,9.667019932306314,0.0012867225913036028,0.000108453886931317,-0.0002735937479515
1700843522.837838,-0.968906344707462,-0.30810919415196525,9.879915849339683,-0.0018253892439692757,-0.001992615160189782,-0.0028783175395433
1700843522.8478072,-0.758055616999908,-0.45194373683280314,9.71544676027295,0.0015899594508103673,-0.001593255362884539,5.0401548291902055e-06
1700843522.857818,-0.8365566158057818,-0.2640201231879813,9.817406123348794,-0.0010628087780273536,-0.0016558427754398556,-0.0003127155825127
1700843522.867832,-0.7804246583300237,-0.45386534788305516,9.735458395309252,0.000494355005245259,-0.0006488874515505884,-0.0006382803432275
1700843522.8779335,-0.6224017789002324,-0.3231849405733571,9.691042659782497,-0.0006567773356477829,0.0036072448704671657,-0.0007779907201979
1700843522.8878727,-0.9912176646410347,-0.39430136679213157,9.863146185070654,0.0003773804080220618,-0.0003795610895286374,0.0003701352587454
1700843522.89793,-0.8978220497736208,-0.26413786864855565,9.84888896557009,-0.0018942992997810248,-0.001822740446520005,0.0003377223009378
1700843522.907858,-0.8105277791374411,-0.5828836201865009,9.708376302779778,0.0018213179136216326,-0.001113432840140894,-0.0012395501136411
1700843522.9179893,-0.8125120000642064,-0.30596937106716227,9.804320178229075,0.0006414938405958799,-0.0009547377019761536,-0.0010264803887908
1700843522.927841,-0.7684768278233574,-0.15939406672285625,9.818712233047032,-0.002843132933886773,-0.0003374641926055226,0.0010261594551052
1700843522.937868,-0.8775872536914129,-0.639798261612593,9.70876089655713,0.0016700585659450262,-0.000810593653844689,-0.0007720401510228
1700843522.9479208,-0.801742399959099,-0.41352040233808834,9.747122938488301,0.0013705361684198476,0.00045304439326968304,-0.0034445649245385
1700843522.957827,-0.7870878301293666,-0.28193230509896794,9.80156232808832,-0.0002860918981911652,0.0009678872237010667,-0.0030496711143855
1700843522.9678054,-0.8252436511306841,-0.3137387224906095,9.786121907872529,1.3044049678664336e-05,0.00014086367592135306,-6.312008477790551e-05
1700843522.9779053,-0.9236970719034764,-0.39419895290492885,9.832745663230316,0.0003073481127413006,-0.00194418151270293,-0.0005280343349654
1700843522.9878914,-0.6297215303483691,-0.3619519643762778,9.68671340564021,0.0008270169574288254,0.0017021313910875499,0.0009427197918198
1700843522.9978435,-0.9324628987435644,-0.3946810664531251,9.829538335297448,0.0009816158820167996,-0.00030058309897717275,0.0001629986043922
1700843523.0079863,-0.7515801836790544,-0.25171351523936314,9.780899000408906,-0.0016085735363916794,0.0013526885070808444,-0.0001763820647825
1700843523.0178635,-0.8935090625472648,-0.45665012324171783,9.790129744813873,3.0185441807786556e-05,-0.0002018646158665304,0.0001034052810068
1700843523.0279093,-0.81887265528048,-0.36316474923319164,9.77438405509538,-0.00013261675391787277,7.343448725713398e-05,0.0002222400333634
1700843523.0378585,-0.8433100644767577,-0.3398417607866998,9.784947770427705,-0.0002611370180645692,-0.000514423764216837,0.0008760251920107
1700843523.0479722,-0.8442508395188766,-0.3905522977301138,9.786685741415345,-0.00027566147232809527,-0.0008001500761921866,0.0002650807408285
1700843523.0579605,-0.7916883902423205,-0.349495326273316,9.756196602592642,-6.220675131671843e-05,-0.0002119220971054465,0.0015033615753422
1700843523.0678914,-0.8320864762476695,-0.2629122687014872,9.83724518397579,-0.001770618478393447,-0.0009964763180555307,0.002902589109763
1700843523.0779033,-0.846284790607851,-0.44594767421399556,9.77028147006516,-0.0024747070032718386,-0.0001903198360999155,-0.0012935692676906
1700843523.088001,-0.788288067295221,-0.5646750551715433,9.699648841588877,0.0015035328982965475,0.00048767667461756996,-0.0016158313257251
1700843523.09783,-0.877402716187522,-0.24200982971965704,9.851288850290684,-8.26907816992246e-05,-0.0015124232238308392,0.0005042478049658
1700843523.1079824,-0.8121153977407384,-0.4055294121149867,9.76107537236788,0.000363969844529224,-0.001153301067932596,-0.0001890330342207
1700843523.1178706,-0.7353947824237719,-0.3042853928110519,9.763003599424806,-0.0018212884076474031,0.0011697831738870894,-0.0014519057469074
1700843523.127866,-0.786527523904531,-0.42115887279071346,9.74164459300305,0.00030770492473524384,0.00141230545462342,0.0008100897365152
1700843523.1379623,-0.8392981590806039,-0.48207910534135706,9.750967758313164,0.0028364389030702186,0.0010405265632437862,0.0007966871024477
1700843523.147925,-0.8965683627184413,-0.21906488914578698,9.876448901140114,-0.000730519853243165,-0.0002137863992681791,-0.0003238861565109
1700843523.1579173,-0.8570054778347272,-0.40085305333562554,9.779380337593622,-0.0006958816374292493,-0.0003896307196501823,-0.0011542592430119
1700843523.1678252,-0.8874915614063023,-0.36726543505128423,9.795895694141958,-1.4890609584967583e-05,-0.0018707950511311566,9.63296159538786e-05
1700843523.1778722,-0.6550010199097328,-0.35580795020021894,9.697108187736916,-0.0008281199991990998,0.00214953482954109,-0.0007608590414379
1700843523.1879292,-0.9587771867249608,-0.3184623182767523,9.856596347945494,-0.0020302811478512656,-0.0004548192738265329,-0.0009016703581069
1700843523.1979623,-0.7200890669063178,-0.46238462276783765,9.712451488749503,0.00022426130991228305,0.001376921261790171,-0.0007511630421136
1700843523.2078562,-1.044646651942491,-0.33094415975926633,9.923316608904544,-0.0012393877142914342,-0.0030372127408249817,-0.0016936607891325
1700843523.2179685,-0.6833965731183856,-0.5256801760800357,9.6360399385612,0.0022612591297811306,1.5315717171248767e-05,-0.0009598135249321
1700843523.2278583,-0.7514912274893545,-0.3362621174814655,9.751396606342158,0.0006765325215273223,0.002161086756535703,-0.0022748174843941
1700843523.2378368,-0.9022908367142586,-0.23954732240858323,9.860785283327957,-0.0014092837705049497,0.0003412972835110723,-0.0012484895297889
1700843523.2478435,-0.7957563677770967,-0.3840356148670029,9.762502562001954,-0.0006493140697565309,0.0007242327165641617,-0.0004457098431517
1700843523.257893,-0.9245379278859145,-0.4737845861929078,9.802881590913195,0.002675135551850742,-0.0021516748887216793,0.0017246703617642
1700843523.2679183,-0.7914811919096005,-0.25833835493388263,9.800810314396308,0.000603885754907054,-0.001591032358672926,0.0021213903790708
1700843523.2779176,-0.7283244379405474,-0.3691864236726807,9.729699233457255,-0.00026599341473300256,0.0010569098408050104,0.0009900245466637
1700843523.2880087,-0.8108703322634593,-0.46361072275025866,9.740131994242242,0.0011075283170660776,0.0018235840497604584,-0.0001372396247093
1700843523.297891,-0.8534969370587976,-0.2921315058652027,9.829079423143726,-0.0005122100065121276,0.001110929854895966,0.0001205552369724
1700843523.307856,-0.8630919708853904,-0.34113775413134273,9.816023285660602,-0.0008162084305149966,3.952601231109302e-05,0.0003805647255289
1700843523.3178818,-0.7667009835608027,-0.40682378446330747,9.734911811718346,-0.00037328070090141056,0.0013512060927041993,7.433617141985996e-05
1700843523.327869,-0.9476308761773432,-0.43347303456192127,9.822941209927276,0.00022874988075812592,-0.0007740670489891766,-0.0012626573908705
1700843523.3379612,-0.7697858428682374,-0.30129567482687636,9.776167421046175,-1.003906794579836e-05,-0.0003210715674352987,0.0011830000556442
1700843523.3479548,-0.845178592997234,-0.4660695190740557,9.750417789434787,-0.0001262982386258164,0.0007421110740840959,-0.0028958343201879
1700843523.3578598,-0.6724726841743751,-0.29541933037713536,9.727983057362529,0.00024065137236445382,0.0024818347243990638,0.0008492147724978
1700843523.3678818,-0.8492709143123296,-0.29686700549888395,9.814957014059328,-0.0009089675822851242,0.001620918249957608,0.0016754703363771
1700843523.3781197,-1.0097985494088262,-0.5802312294310819,9.809326651585675,0.0014919892208405524,-0.0011603637861749172,-0.0021030843956027
1700843523.387961,-0.7574837908806308,-0.24894050698420037,9.779438993703824,-1.6760182772131704e-05,-0.00031287897341205153,-0.0002791835460443
1700843523.3978815,-0.9373625266599417,-0.4415948061648134,9.824719780251234,0.0015121111528963638,-0.0029187185069963545,-0.0002788065350246
1700843523.408128,-0.7370324361394289,-0.3019337926137717,9.748620423301391,0.00070893321032165,-0.0014055052379590173,0.0009803368710349
1700843523.4179251,-0.7942262704438349,-0.39623424722829775,9.751885623932766,0.0011839053266850092,-0.0007874773057027814,0.0009937534458372
1700843523.4279196,-0.8420323382875494,-0.2727657825362284,9.816392862598182,-0.0014651428692590215,-0.0006675283577646139,-0.0002061790320654
1700843523.437879,-0.8978442078147434,-0.4400486619846779,9.792013666976747,-0.000470855509141331,-0.0018581416536578154,-0.0010819910559435
1700843523.4478862,-0.7479783117398062,-0.4010822026102545,9.727338658906792,0.0006992416124476624,-0.000541607336626301,4.789697126442296e-05
1700843523.4578617,-0.8379738275997619,-0.24800806182186225,9.820244123123253,-0.0009205144231072114,-0.0014233960120678894,0.001636353973336
1700843523.4678588,-0.8815466905419225,-0.5690036273824883,9.746130734090569,0.0022728091310534057,-0.0022552421698422277,-0.0001204950268943
1700843523.477934,-0.7468758464785255,-0.21742136207146112,9.795227717004513,-5.660656877501595e-05,-0.001196899547371227,0.0014966628048937
1700843523.488106,-0.8307566503771467,-0.34945456047130763,9.813049170652613,-0.001304959311116612,-0.0012065765366737567,0.0002416119212652
1700843523.5093913,-0.8233464108320938,-0.43232469599262596,9.751878417998515,0.0007003617438644577,-0.0005352725939167094,-0.0004173900698874
1700843523.5121598,-0.8175662768596369,-0.16846963989325892,9.835900729488062,-0.0004760842020759738,-0.0004924275431239131,-0.0003317046677325
1700843523.5180097,-0.7469345134961953,-0.5073507226847236,9.683287392499583,0.0009708120266614012,0.000726471258570743,-0.0009098855545376
1700843523.527887,-0.8968509928306511,-0.34375830496055976,9.84029090467166,0.0011678877103914033,-0.0016089033060479566,0.0007996772590927
1700843523.537899,-0.8398914718126393,-0.4427924984104012,9.766005947443327,0.002196815342727088,-0.0014799945956045395,-0.0001506563159268
1700843523.5478635,-0.7060715873533315,-0.12645096417393484,9.78666292534693,-0.00217706573006618,0.0007279544184976623,0.0015264651272814
1700843523.5578418,-0.9034482292516708,-0.4889012254279078,9.783242965084982,-0.0009838381700751546,-0.0001798946131662598,-0.0009452744153891
1700843523.5678468,-0.8795533820985577,-0.4556544723166544,9.77165774988821,0.0005770491767802213,-0.0010009347323160181,-0.0014101824955646
1700843523.5778725,-0.9010057866798364,-0.31902795089480657,9.842489977336761,1.7521569411345383e-05,-0.002983911677203048,-0.0001528893364225
1700843523.5878782,-0.7320515131126482,-0.3290747870915795,9.755360609335387,5.4394649988599275e-05,-0.0015515433422050745,0.0010563228978212
1700843523.597873,-0.8039520569212716,-0.40156230699292,9.75064905663362,0.00117870084088135,-0.0013932184278174845,0.0018054861110071
1700843523.6078622,-0.7554491029923255,-0.26034608121575886,9.768031503088503,-0.0014133683916134163,0.00036885499123986043,0.0015346533153574
1700843523.6178737,-0.8628308400862211,-0.49273246540900356,9.753857021542945,3.129478293496602e-05,0.0003062600943455949,-0.0005991898243878
1700843523.628027,-0.8476998141457213,-0.40335130199578184,9.792634631929733,0.0007323985183881954,-0.00037284926981407963,-0.0006975244497512
1700843523.637854,-0.7717863906645396,-0.4765585753774825,9.71780523768917,0.0020787277298822413,0.0012781878290834875,-0.0023470999905471
1700843523.6478496,-1.002530808665091,-0.364517513302304,9.876363871899859,0.0029165534851667684,-0.002952604211689036,-0.000763832870834
1700843523.6578784,-0.7083323980204907,-0.11108233499899285,9.800148675533906,-0.001191712649552142,-0.0014002927141162536,0.0019027151400591
1700843523.66796,-0.7595588550882572,-0.5220703887332363,9.697632605189561,0.0006165457728840023,0.0007022584926904426,-0.0004214979009334
1700843523.677912,-0.8716638265195676,-0.35045811541293415,9.819272337414974,0.00011399373220729465,-0.00020110990577290377,-0.0008212093263496
1700843523.6879306,-0.8045214747971804,-0.3269527556646122,9.76873558836037,-0.0010907653982835054,0.0005174949302049942,-0.0014280588831384
1700843523.6980534,-0.9063022654187252,-0.45987680666518105,9.797006282807748,0.0003144197114613325,-0.0010698553079129295,-0.0018151201540236
1700843523.7079062,-0.7955196975136002,-0.3999154832015413,9.75866883143998,0.0016574127414339009,-0.0009946138895433679,-0.0006222650874037
1700843523.717878,-0.7969534836612686,-0.3550052098715034,9.772188580298701,-0.0001400525956599212,0.000589759702894038,-0.0032556892139468
1700843523.7278826,-0.7836078336859891,-0.41836353484290256,9.732838779262265,0.0016126847235444367,0.0011001372739034958,-0.0017640715697412
1700843523.7378802,-0.7984787140900064,-0.12287972681710227,9.849050291992464,-0.0006325527614968868,-0.00010017246861150434,0.0036338633625205
1700843523.7478836,-0.8453100850769694,-0.5115254637591894,9.753503400326407,0.0005044103423674697,0.00043962895437678405,0.0002885378897558
1700843523.7579737,-0.8799236673689351,-0.3585264567614937,9.81193579499222,-0.00017322129160563194,-0.0004909479156167799,-0.0006383002502475
1700843523.7785635,-0.8397685115873906,-0.3711517896820644,9.789601305625476,-0.0005669808000804574,-0.0010262707316621774,-0.0009340893476833
1700843523.787921,-0.8592017134318588,-0.37158010727555196,9.799116041988755,-0.0004582029251345602,-0.0017865899111125956,-0.0005261764628444
1700843523.7980318,-0.7600698961129966,-0.31704892739149326,9.758958985597214,-0.001260999041779602,-0.0006291590139985018,0.0004237767687668
1700843523.8079834,-0.7114146616383551,-0.5990388381588796,9.640197112827153,0.0028923254039829867,0.002032560574987227,-0.0007098317611594
1700843523.8179424,-0.9024512910674339,-0.10205405819537343,9.92548101229505,-0.0008635166723143084,-0.0009167400093219557,0.002709615579843
1700843523.8279328,-0.862479199660535,-0.3639481494987483,9.823163696627478,-0.0027783129969856466,-0.0007331021321144926,-0.0008174872956801
1700843523.8379683,-0.7169742049003242,-0.4806086996856909,9.696657981465048,-0.0002074871990651608,0.001332585669095178,-0.000279176735748
1700843523.8478668,-0.8616694041375983,-0.4196780454751387,9.789709465004133,0.00149980422539134,0.00022692438820488348,0.0008547817240837
1700843523.857895,-0.8093937115243891,-0.3073976531030889,9.790762261898767,3.874506540047505e-05,0.0006653840360700527,0.0005634776215087
1700843523.8685255,-0.8356045949220726,-0.44814191805667364,9.742830082329062,0.0005412991984662168,0.0012573356278847549,-0.0010599955450375
1700843523.877907,-0.7903231284532097,-0.3187485356500992,9.770565113417016,0.0006102116702825723,0.0012957018770422218,0.0007866237836792
1700843523.8879492,-0.956396541971939,-0.36205152892850134,9.853430673767049,0.00018850970242493715,-0.0015198785371936287,0.0002270845842217
1700843523.8979373,-0.8482153978059516,-0.3694745271309161,9.785785703093751,0.0003736572453260376,-0.002168438632232082,0.0007367040787726
1700843523.907898,-0.7811473290109916,-0.4307910677432052,9.73787566083652,0.0009246350397296893,-0.0007520915775698439,-0.0005343690747026
1700843523.93909,-0.7993602190013035,-0.35007608905533466,9.774454450086235,0.0005155825115133435,0.0006501120768385791,0.0005318158699451
1700843523.9423132,-0.7099897329231591,-0.08464918707474697,9.806654053401637,-0.00027940922936083593,0.0007320526168150982,0.0026351130335028
1700843523.948412,-1.0576559355578445,-0.6138907028935824,9.824221818896245,0.00036135855099530737,-0.0007435182107071552,-0.0019201733404402
1700843523.9533913,-0.8605799079071829,-0.1709206369597451,9.872027823054472,-0.00035127512408218275,-0.0020417913377589725,0.0006133933173627
1700843523.9638262,-0.7525844506158634,-0.3093321727070026,9.755448605467675,-0.0007700137778813731,-0.0009495263903665449,0.0025799624389405
1700843523.9724169,-0.9372777648954098,-0.41937918366939214,9.818048900444658,-0.00259242142453406,-0.0014547148459704542,-0.002284882287458
1700843523.9792416,-0.8065571766351327,-0.5266218447915612,9.720883384401954,-0.001559766304363585,-0.00048684981748925936,-0.0043740234570209
1700843523.990415,-0.6675905601480154,-0.28302705397729333,9.740546960971379,-0.0008571771514352791,0.0010982629524798268,0.0012910262565496
1700843523.9979408,-0.882227587945932,-0.42141970519721805,9.804555965285994,-0.0007309040265950195,0.0006866180110835525,-0.0003421303000864
1700843524.0080023,-0.7923399839350604,-0.37778446854656933,9.748223231500443,0.00022500770192349434,0.0009839015074671054,0.0012887797900843
1700843524.0179632,-0.8900318506464772,-0.3814600854038898,9.805034676265702,-0.000887003138746644,0.0003647482077053086,-0.0008726058760289
1700843524.0279255,-0.9823097073599385,-0.2795000892036145,9.890154038576746,-0.0010460345002060779,-0.004088452944809367,0.0024905801518257
1700843524.038152,-0.679376515871407,-0.3836797786257517,9.695760290462456,-0.0015035191029325685,-0.0005211250165305805,0.001064897526558
1700843524.0479178,-0.7854498241595759,-0.3859527226313782,9.753314535694525,-0.0017978191815295524,0.0006381875702014165,-0.0001174951204661
1700843524.0579193,-0.8543854300649555,-0.39826608628954585,9.798249416854398,-0.0002346849846023111,-0.0007990258029021931,0.0017242772272224
1700843524.067919,-0.8293051579166242,-0.4114804115984999,9.765317343521318,-0.0007942334182201712,-2.2694775679265045e-05,-0.0009929498657215
1700843524.0779395,-0.7261358842459161,-0.3602869897550009,9.718234318535062,-0.00035873254308963095,0.0017855700906676717,-0.0001115618971739
1700843524.0899174,-0.8854688923717322,-0.29831828156888596,9.834829495866847,-0.0008303474323496064,-0.0007237854252889198,0.0024086154997717
1700843524.0983243,-0.8747041538108237,-0.5155959427831388,9.754546209870904,0.0003803652422766489,-0.0006880179122895977,-0.0001510331523236
1700843524.1079988,-0.7806951838848993,-0.24807590714876332,9.80093777053986,-0.002019098885751053,0.0002515005694655905,-0.000317923363727
1700843524.11797,-0.8458237713174458,-0.5719947585562192,9.732887218740041,0.0017192277073633066,-8.139333969747439e-06,-0.0007273317779977
1700843524.1279244,-0.7326027760755992,-0.3169515672927446,9.74125359378207,-5.9227532852778225e-05,0.002182693583337208,-0.0019160766852651
1700843524.1379354,-0.8428409171409704,-0.36219588082210435,9.795009794620828,0.0002376911140105997,0.0014037357041651562,-0.0008636797312278
1700843524.149539,-0.925795569169491,-0.4436562670685738,9.806883679271605,0.0015497240414989804,-0.0006485281291109843,-0.0015841610030834
1700843524.1579795,-0.7428429442720951,-0.2724910708754998,9.764450343421643,-0.00013933724145983415,0.0008542664918549259,-0.0015778063563261
1700843524.1688018,-0.8133827608916483,-0.3375765051867963,9.790967469857017,0.00016652799257781792,0.00026565781574411677,0.0002706686035166
1700843524.1779218,-0.9150126759567515,-0.2315041248289173,9.876844340429573,-0.002183007398890432,-0.001617094761709746,0.0006875395018509
1700843524.187925,-0.9406091465727734,-0.583092507597291,9.769681849523682,0.0003416178536068007,-0.002923928753935445,-0.002890241960958
1700843524.1979673,-0.6565107745776442,-0.22661337699935624,9.736115918094194,-0.0010684021968806578,-0.0003352373475350452,0.0001115907333228
1700843524.2080176,-0.7549506166866355,-0.4276676743854058,9.720291032873467,0.000497704366665957,0.0008736282831526035,0.0009360091761122
1700843524.217981,-0.9119659619334849,-0.471547666501365,9.793322375830966,0.0011831763779393454,-0.00014599524034045378,-0.0016482238890234
1700843524.2279608,-0.7195102283212109,-0.3766056384010438,9.706120010720333,0.000895535451245811,0.0024751262830426473,-0.002049826947004
1700843524.2392936,-0.9273632132316431,-0.2561210934773341,9.87144306198265,-0.0012166716485173855,-0.0002961244047385109,-0.0012716041411836
1700843524.2479925,-0.8358225992504352,-0.36901808445041245,9.785965376761194,-0.000984956495091331,-0.0005598716654411734,-0.0007034969050068
1700843524.2580168,-0.9493781873491383,-0.35404003521585947,9.857255393423063,-0.0017054303028892772,-0.003109462490390093,-0.0013643607264016
1700843524.2679358,-0.7203982689299064,-0.4491387411645589,9.690785528096947,-0.0009234997943419629,-0.0003203224140676562,-0.0027333995559815
1700843524.2779484,-0.7773272057903917,-0.3973696479282202,9.743678132609006,0.0009667196214145266,-0.00017317157462458927,0.0001436203136477
1700843524.2879338,-0.8538386837304117,-0.38066312564340055,9.795083240005848,0.00034086727003813266,-0.00035907208977785555,-0.0014787281863023
1700843524.298025,-0.790937362686179,-0.2812388444704967,9.807735126641308,-0.0008687214159471802,-0.00015306313714942156,-0.0008227079407875
1700843524.307938,-0.805913290621679,-0.4601431384770212,9.74375906044747,0.0010650663899256386,0.00012037539185502537,-0.0005779528757189
1700843524.317942,-0.7776137596966324,-0.2687314475946996,9.772957224620848,-0.00016166968606667594,0.0004794863960834593,0.0016121519264201
1700843524.329399,-0.8362203453758146,-0.34929698759353833,9.79117454009646,-0.0008363170182868033,0.0003226553558004323,0.0008909362485069
1700843524.3379772,-0.8537404223922421,-0.4138982798790622,9.772263340662164,0.0007148855482502767,-0.0006243173544737039,0.0023292721715192
1700843524.3479254,-0.83370693984214,-0.43001730535941446,9.770259605752914,0.0004410857993180874,-1.2993053602683584e-05,-8.35569804577427e-06
1700843524.3580358,-0.9097979828159212,-0.36574922261879717,9.823164096882447,0.0011027014067079757,-0.002350982208700579,0.0015268357936661
1700843524.3679788,-0.7270511487339368,-0.35642766928775255,9.739792813463927,-0.00012888718264984924,0.00021499494641924458,-0.0001767375971753
1700843524.377998,-0.843511469855719,-0.5228691549843746,9.734137230243569,0.0018589228720299383,0.0006355648904375975,-0.0025229392805699
1700843524.3879728,-0.8377911179786642,-0.2330238723460805,9.830429926471073,4.7700158969735515e-05,-0.0003784369266945774,-0.0005730967269842
1700843524.397946,-0.8681723546734819,-0.35623275341924926,9.809797909178746,-0.0003769865351696542,-0.00137980131000658,-0.0009646380086992
1700843524.408023,-0.7746580411007717,-0.5204070675513495,9.712581713221258,0.002853590216224721,-0.00039221584908550873,-0.0012924485373873
1700843524.4179783,-0.8658643179329317,-0.25463661935309206,9.838901106551402,0.0015203045878700026,-0.002044394074563161,0.0010078990133847
1700843524.427977,-0.7496162608875128,-0.3984167980574833,9.745035111418263,0.001886491007026121,-0.0003504963281803525,0.0003958361019981
1700843524.437984,-0.8218728028718388,-0.29192654789704087,9.779295891203033,0.00038445505632479456,-8.414252328801979e-05,0.0010723564890581
1700843524.4479778,-0.8008930775892067,-0.48406336026800795,9.719647991279437,0.001795238389419098,0.001141841451894887,-0.0008580944733325
1700843524.4579504,-0.9011161336378037,-0.22709065210687698,9.858432576624118,-0.0022861804184720847,0.00020310205333619089,-0.002990816649944
1700843524.468083,-0.7807641899732061,-0.29483637367736565,9.79428684878161,-0.0022470866185216806,-0.00011208941638931032,0.000355977824111
1700843524.4780035,-0.8037673679215027,-0.43904722254114864,9.758323251514376,-0.0003252147169453158,-8.154147627974918e-05,0.0009762490634243
1700843524.4879758,-0.8544483376765666,-0.38883664725501577,9.794464308137048,-0.0009644755423287842,-0.00023279717648377472,-0.0010946573922042
1700843524.4979491,-0.7818494506686983,-0.3897698798058775,9.746898826234695,0.0002466211882850118,0.00019711454943176205,0.0005038787974994
1700843524.507976,-0.8723625433797759,-0.37098603761010623,9.798995698917455,0.0003099471953484684,-0.0006477792013681666,0.0005344231220446
1700843524.5179691,-0.8046243402916899,-0.33747807492390436,9.772754194702369,-0.0006880637754231374,8.534695736439741e-05,-8.43537156101902e-05
1700843524.5282042,-0.8168003350114637,-0.23902454111204938,9.820019452158384,-0.002872186823414926,-0.00029312435117097123,0.001198266178872
1700843524.5381398,-0.9004582033440347,-0.6850799077993178,9.707395332169085,0.0028133474055484246,-0.0014840959703054646,-0.000171526730955
1700843524.5479736,-0.7827634112109785,-0.2274122323056364,9.79925676809951,-9.759014998458625e-05,-0.0005922739230191112,-0.0002925969776329
1700843524.557958,-0.7880389071569645,-0.3881589375343225,9.748227323344324,0.000500313683231064,6.82192469778331e-05,0.0003272878064676
1700843524.5679424,-0.8252909414400135,-0.3460560297179362,9.77926814360253,0.0007465462218319267,-0.00036614615445645465,0.0020353431580956
1700843524.5779984,-0.8063703609939104,-0.4970877307784724,9.731667133799174,0.0016920473009499224,0.001260311463156385,-0.0017447005258504
1700843524.5879693,-0.8598577015246779,-0.19846154127410406,9.863256623581723,-0.001065418137315495,-4.465782783160547e-05,-0.0002639152109254
1700843524.5980487,-0.6744523642410791,-0.2861415847316867,9.72267022462577,-0.0023838103124147465,0.00294078492191034,0.001081669423766
1700843524.6079724,-0.8655111905794761,-0.5187712686845848,9.757793103362092,-4.8428546188448215e-06,0.002546653658490317,-0.0003764166496325
1700843524.61801,-0.998188894780555,-0.27343317662016114,9.90395507171469,-0.002537285658828753,-0.0007800283923400733,-0.0013427500845496
1700843524.627973,-0.7729873982745148,-0.38571945960010906,9.750147002085924,-0.0014182076937327333,-0.0003642855283857435,-3.3685809430166055e-05
1700843524.638055,-0.9017505078753218,-0.3566119880909709,9.821509687261997,-0.0019166513143998468,-0.0017199257823280207,-0.000388333562259
1700843524.6479986,-0.7424598448818056,-0.4150327503633038,9.727496324473137,-0.000489853881354368,-0.0003873851034556237,0.0006379779050262
1700843524.6580489,-0.8620510453359553,-0.34202500171536426,9.797455291248022,-0.001455831598209302,-0.0009838060614734336,-0.0001055850763436
1700843524.6680317,-0.7989963167107145,-0.3715128247288197,9.762937730181086,-0.0012692012817253208,-0.0005982457619598732,0.0003675258093066
1700843524.6780367,-0.8379548297935653,-0.4373324159790455,9.743860484733037,-0.00032894522684640643,-0.0004671206736032411,1.8466799556777905e-05
1700843524.6879709,-0.8188244965232595,-0.3787629333423258,9.767624874471402,0.00043959519741505873,-0.0006854086549247842,0.0015059774276237
1700843524.6979604,-0.8280830031461152,-0.4308364105681268,9.75915341896823,0.00029803593698826415,0.0002485126325287954,-0.0009031794499237
1700843524.708026,-0.8702064452326859,-0.3282822432080015,9.819340239704534,0.0007294175164216281,-0.001640195169121298,0.0016117812600355
1700843524.718012,-0.6903868230104707,-0.31042620598197446,9.718189020646507,-0.0007253198347466601,0.0013515809471955484,0.0016020852607111
1700843524.7280612,-0.8896963248469475,-0.41337250817784793,9.803361272359844,-0.0004909880955322507,0.0004385105885532449,0.0004696123354192
1700843524.7379684,-0.8582791713048192,-0.3220767795961855,9.819625472666148,-0.0014133686098257222,-0.0003385879974047094,0.0005746547511448
1700843524.7479537,-0.8404272612440631,-0.47928411936578175,9.749011670761872,0.001299380935095236,-0.0009595920467407915,0.0014985372079904
1700843524.7580285,-0.7210144838539213,-0.45619605828156656,9.695175299772343,0.002403943510714195,0.0017043660931699645,3.564795482860608e-05
1700843524.7679665,-0.8425968576520411,-0.24570610796718595,9.832138624616846,0.0003125533297027784,0.0008866644452371473,0.001097688055634
1700843524.778044,-0.9415242502666273,-0.41760038224844714,9.821037209543547,-1.7508303473532286e-05,-0.0007654995929785506,-0.0008614502613995
1700843524.7880392,-0.7315544504579163,-0.340346234431299,9.736839645433653,-0.00015832763343106982,0.0008449399443693828,0.0003824203930348
1700843524.797971,-0.8531201751594277,-0.4078402702146052,9.788311880685164,-5.1407463916442436e-05,0.0006579318192613949,-0.0009258941746879
1700843524.8079753,-0.7749585231255519,-0.20455656696875466,9.807007950602843,-0.0019643206132517336,0.0006560852856138797,0.0019384783925856
1700843524.818014,-0.9270306273768982,-0.5688706997611748,9.773567613827392,0.0005677431293538692,-0.0006351085139401628,-0.0010842122602839
1700843524.8280027,-0.7231272987016718,-0.36831828214702267,9.729680422307712,0.001898400296726275,0.0005260631136692033,0.0016434470424796
1700843524.838002,-0.9046410484669428,-0.3243332372598284,9.827236755811473,0.0002723278652540352,-0.0006440543601419239,0.0003909930790909
1700843524.8480294,-0.7451869605244162,-0.355237122082472,9.74045201115583,-0.0003103059235181835,0.0013169356845432053,-0.0003387849311907
1700843524.858032,-0.8900379425808194,-0.41463807306750144,9.809404588461383,0.0015996442408783111,-0.0008787399940487632,0.0014072597376439
1700843524.867949,-0.7337857370105847,-0.30329450736547636,9.751806309528417,-0.0014319775089455386,0.0022158496808911995,-0.0018262992845479
1700843524.877968,-0.7139759049713913,-0.32953067427987953,9.774809590038005,0.0003677350979586636,0.004076955472999057,0.007332731108218
1700843524.8880384,-1.1613636138461814,-0.5230836433797249,9.706549309716396,0.0005961541824412264,0.0030242621496026014,0.0146633145166929
1700843524.8980248,-0.9420341334414778,-0.5281605263310841,9.89220611348572,0.005946312193320416,0.0003318993847863128,0.015418829466253
1700843524.9081914,-0.5296908346816,-0.6211991591836086,9.81968288715796,0.005296181616900131,0.0073129713055058295,0.010133633459955
1700843524.9180849,-0.517520197957786,-0.6310930944322439,9.647919813285425,0.01254258993422387,0.010231590639260454,0.0121290907962615
1700843524.9280057,-1.1268569575094267,0.13228202718452667,10.0034198588341,0.004082637940050917,0.0022594245995398226,0.0125409980072076
1700843524.938006,-0.5287369413199684,-0.4483524739577867,9.461280212851339,0.002177380598293152,0.0019938552399223516,0.0047592693707342
1700843524.9480298,-0.7669636079596798,-0.48574434536856104,9.799705377085798,0.003521528923150559,0.00505637479197201,0.0020037082257117
1700843524.9657636,-1.0953423092241934,-0.013032628215984169,10.003551844272133,-0.00045115019211339956,0.004420466509387319,0.0047894581919904
1700843524.9751303,-0.8376773369055609,-0.714072669940751,9.800771437065178,0.0018883366141809836,0.001683149662372192,0.0006692464638403
1700843524.9815276,-1.859632695597819,-0.1352243650805307,9.363078090153985,0.0007051559058581906,-0.004726606591311627,-4.189559254838424e-05
1700843524.9887283,0.3372440545020974,0.22650737633630766,10.34339178957159,-0.0035126171727336715,0.000619888352005805,0.0069616512162979
1700843524.9981573,-0.7634807953997651,-1.0123472589839466,9.789889490560574,0.002338334721366181,0.0063199845335673,0.00281845622234
1700843525.0080104,-0.8285012321832789,-1.029640490915648,9.362937548821252,0.010723605460927366,0.009426534746437587,0.0045428835554416
1700843525.0182912,-1.8039200441467844,0.6631620904747334,9.706422659820188,-0.002116274237971862,-0.005411373425000471,0.0058824080741401
1700843525.0304527,-0.19655604601097934,-0.7103570996895701,10.080036117822536,0.0030297093158830196,-0.0005478022474688113,0.0093116090400512
1700843525.0383518,-0.8461733950483185,-0.263427815270873,10.051973236998887,0.0015586383078340454,0.002555592450447603,0.0009825974819618
1700843525.0479789,-0.28857069997088997,-0.8112582126474943,9.50892001705991,0.00530004764216702,0.009905557296666003,0.0022480644518877
1700843525.0579877,-2.9711250689994047,0.2124533962343028,9.263702538687035,-0.0006900577014863152,-0.00942610288787986,0.0107625406934316
1700843525.0681336,0.5648592541411283,-0.5659580861571648,10.73645034966799,0.004268569514542438,-0.011431074495969251,0.0142821698217089
1700843525.0780354,1.0244183241734792,0.5188986334597919,9.09440242852204,0.0015014285422959167,0.02563799297085532,0.0095819794340427
1700843525.088138,-3.919809783856906,0.11163770913340872,9.485787874940995,-0.009474241503141278,-0.013372286163804233,0.0039848406566675
1700843525.098193,-0.36950265165389007,0.1795205094400713,10.13769090828796,-0.012082614614435916,-0.021338471554744446,-0.0040356725686792
1700843525.1080992,2.2163908904759686,-1.250768151097938,10.278546137450196,-0.011197944111641293,0.028597363412650886,0.008555200952142
1700843525.1180327,-4.13126314174776,-0.7666087581991995,9.438526158974614,0.003084354735819616,-0.01601592931314124,-0.0006561951478575
1700843525.1280055,0.09092770225097423,-0.5568595374534773,9.299402618149081,-0.0045298416403666735,-0.005976435587381285,-0.0033582511124764
1700843525.1380148,0.4603694095932749,-0.5248707957664096,10.310022601773714,-0.005252920135427893,0.01863413871380825,0.0118131377501781
1700843525.148089,-1.8799709183787827,-2.2493303733069068,10.245222175016746,0.015174720666077585,0.001859967638776825,0.0074703996768589
1700843525.1580524,-1.791154768522413,0.5866437305870874,8.501839508168135,0.011831842585218544,-0.010421092835970671,0.0068310020259018
1700843525.168009,1.0297983036479983,1.5006372909215917,10.2661086761196,-0.010563598602226812,0.006028665192078094,0.0080901985755558
1700843525.1780338,-1.029711885126247,-0.7904474116897307,10.06175676993351,-0.0024886164981166095,0.011727245494216451,-0.0014178937300671
1700843525.1880732,-3.6779032462593553,0.33761700828535013,9.59247861489747,-0.011524094556088316,-0.02953221441918967,-0.0080918873892728
1700843525.1979706,1.4303099581048586,0.5520442981132662,9.609755296301476,-0.018423418667311696,-0.0025584573719253417,-0.00737484537527
1700843525.2079806,0.6715024436317011,-2.517976926820866,10.673532640958452,-0.004059019459754806,0.017111233894688636,0.0110248579411204
1700843525.2180448,-2.3731559508737625,-0.8030831590424712,9.022377154904715,0.012643474584233701,-0.0034800302630134433,0.0114545515505965
1700843525.2280288,-1.9533935284772388,0.5241065662437683,9.299307769599235,-0.007084830706488677,-0.01681424596208045,0.0191841023741658
1700843525.238067,1.1217198706801867,-0.47917251308360387,10.362954609608268,0.0011397535052716326,-0.008146464074414413,0.0447958084522183
1700843525.24804,0.386798152781109,-0.10713081399275365,9.814812136487658,0.0020991916896977493,0.020314802452357564,0.0446298542200024
1700843525.2579763,-4.914140747701559,0.25091105693711085,9.90862878677487,-0.0003701555766463381,-0.04021044075179153,0.0416756952880318
1700843525.2681055,1.2685699250606077,-0.4175516439968995,8.269014482109588,-0.006395901867005503,-0.020748133925329162,0.0493651713012154
1700843525.278128,-0.35895915828987096,-2.9862162862606216,9.49600562218983,0.026760004418198095,-0.01628766646182335,0.079896685737222
1700843525.2883558,-4.903223306996137,1.844183466837834,10.438850925400036,0.009216940429243127,-0.0747145606955277,0.0924816700397427
1700843525.2980158,3.5408392468553154,2.0656284579476494,12.031194739940695,-0.025715832748582364,-0.05309877937045656,0.1022778051672871
1700843525.308096,4.9002585212379035,-2.4223828665914686,8.835917620930088,-0.007506646680451397,0.04107891737468742,0.0917502465425427
1700843525.3181658,-5.7560041420442,0.1389372417623789,8.226531846624752,-0.007456178248631152,0.0006945301438567473,0.0837286012946064
1700843525.3280604,-3.83674603159872,-2.1986208016040827,10.505043923379777,0.007333315606433239,-0.06883482080652271,0.1024399074493344
1700843525.3381245,2.483843370729752,-0.7987509911689258,8.658156080941197,0.018275870264373467,-0.024822709028651895,0.1231780099450047
1700843525.348024,-0.26331095757888584,3.473307117739182,11.096640464606153,-0.011268861509714793,-0.018791484693019847,0.1276338594733174
1700843525.3580651,-1.6323163599323125,1.1839831811780221,11.810997955982383,-0.050084971486520684,-0.015377651571789178,0.0943698855815823
1700843525.3680892,0.9979154655578889,-4.567516528142166,9.522895938049196,-0.005718236605532691,0.00328120660536276,0.0428897003410752
1700843525.3780704,-0.08471493286010087,-3.55759962015891,6.610600539612481,0.028958343051800995,0.045435431942783724,0.0230865581659968
1700843525.3880448,-8.097779851297908,-0.6894894610349068,9.363804255264313,0.023228866326233777,-0.04062524880904784,0.0320674600778515
1700843525.3980403,0.38679013384043537,-0.9916135942930627,10.485635936759708,0.02767502835425185,-0.058217734180791104,0.0518030832289155
1700843525.4080722,2.8099449517182267,2.1871893378467293,9.489303291373698,0.016796301766760308,-0.01058139473635962,0.085153435426801
1700843525.4180117,-1.65235797596436,5.6879454718567795,12.116339439435427,-0.04209116139000929,-0.016863543420107027,0.0842378186760838
1700843525.428137,-0.9811487153203585,-0.8792966662024302,11.42083122109684,-0.045213576712624264,-0.028121240220644397,0.0584002258954937
1700843525.438036,2.826837087803291,-1.2993902496836394,7.495403833899594,-0.0176608013032608,0.017741656618027284,0.0453930954216416
1700843525.448212,-4.554122393080752,-2.2351071513530716,8.45997649460037,-0.011881969588538622,-0.00903921136336865,0.0281247059582169
1700843525.4580011,-3.5751400224453627,-2.933462145959824,10.299197935480294,0.005363645291257441,-0.05886844886429077,0.042965573328584
1700843525.4680538,1.6628722946340826,-1.9116750399555875,9.079650711100161,0.02358281756662556,-0.023866735164182935,0.0617886828957493
1700843525.4780576,-0.8770669301484834,-0.4402412828445789,10.046835773630576,0.0261929096267267,-0.019307466513700435,0.0748574482975895
1700843525.4880142,-0.440027066876617,3.0682549278874496,11.437827169558075,-0.004072675378867947,-0.016254677945805648,0.0679248469649251
1700843525.4980068,-0.8141220306636553,1.647581434171824,10.356413383213498,-0.027623845227560635,-0.010000241594098557,0.048508876073211
1700843525.5080404,-1.4734107593086432,0.1884544995897653,8.663245380104312,-0.02204125460063099,-0.02300089760071352,0.0365161943016942
1700843525.518124,-1.5544478594612212,-0.548503320642297,8.439965370374924,-0.021899022949815456,-0.027237833792517784,0.038199053215831
1700843525.5280428,-3.050225435259764,-1.3230449704801577,9.780204317545284,-0.014886173871499032,-0.06948049492840068,0.0506271022139485
1700843525.5381062,-1.0468628686233097,-2.4527898685758447,9.91490536515609,-0.0029269204951635672,-0.07668723099094345,0.0416892143665249
1700843525.5480826,0.5238523927884391,-0.3510809939060215,9.99510228232568,-0.0065491947808734505,-0.05970093384617882,0.0659899088321621
1700843525.558041,1.7227731165825753,3.404114022160023,11.21454824732385,-0.03844876118804513,-0.03281028614648277,0.0764560746727879
1700843525.5681553,0.40083416062377986,-0.3965647824381866,10.425956657876592,-0.048708326239243156,0.0037223936756860462,0.0619767280994351
1700843525.57805,-1.6021205016969202,-2.1464313037572156,9.835025228109458,-0.012066472236402337,-0.018090774605569564,0.0620169128058846
1700843525.5831864,-0.07285101008916312,-2.356873720195148,6.907672788076705,0.002949070970207495,-0.0019466271406544274,0.0602063881932194
1700843525.5970209,-2.838120523292115,-0.2767863480840422,8.975782279965067,-0.0035789552216333913,-0.047221263069134906,0.0826352732954915
1700843525.607075,-1.8623640366033056,-1.4287198170148043,9.581651754025742,0.00454833728847596,-0.06262308543793989,0.0914704474388058
1700843525.617146,-0.7593178925759022,1.094397960272161,10.665590604826557,-0.014229614685467767,-0.07195761006897175,0.1020949008642132
1700843525.6270769,2.796135979502558,2.179047525739535,11.841619464926751,-0.0461522451636618,-0.01844341349056034,0.0907827737508709
1700843525.6370156,-0.9565842206790087,-2.8683514861045487,10.621480906608706,-0.02697321020870751,-0.006501766662895495,0.0461979220388825
1700843525.6470652,1.4925725958140623,-3.37666992013994,7.864561672303519,0.02028481476616836,0.01879067984888778,0.0357947806595261
1700843525.657058,-2.754778349861123,0.36218015148672034,7.7419131571937765,0.015981350784861733,0.01010943631956332,0.0311198784737284
1700843525.6670406,-4.725753443020982,0.35765387087211653,10.328316213402555,0.0014144451268509309,-0.05702135983102611,0.0399805280147488
1700843525.677055,0.13327920783058939,-1.4660915539650503,9.53888850262462,0.011708909992853468,-0.0645170636291068,0.0597254494903977
1700843525.6871042,2.367031865118924,1.1329771230486927,9.737731129823567,0.006396014704177032,-0.026479969469804594,0.069861595588773
1700843525.6970186,0.1182628292083135,2.547728771320059,12.150184606115799,-0.03330726420193397,-0.009068045619206258,0.0654768171487744
1700843525.7070682,-1.1900162979534217,-2.3904498202217987,11.470622569610942,-0.022859622988067676,-0.011641839589120028,0.021781132626384
1700843525.7170656,0.922326439469945,-2.469555583050241,7.764850840495399,0.006282816172368589,0.012652160562241716,0.0130340914009507
1700843525.7270346,-2.2029726311935547,0.7495857305857142,7.972528831596536,-8.334906517097775e-05,0.01254762226782375,0.0282415627269442
1700843525.7370594,-3.799027719223475,-2.072360062753988,10.765996327963444,0.008389780287232125,-0.04262226730329563,0.0290808333782847
1700843525.747064,-0.2583528324923571,-0.47479523376092847,9.085104201389623,0.02113619089660262,-0.03812185555628449,0.0483853528974946
1700843525.7571404,-1.0017928442795667,1.0017550740856318,10.37531349323814,0.005137374665164836,-0.04808155475581041,0.0685195001541073
1700843525.767025,0.09521637278499231,3.0318640404275614,10.84981364882798,-0.023050791258206527,-0.04134520946064918,0.072616514819711
1700843525.777141,1.3157079581780808,0.2624344598141118,10.356006624597455,-0.044435588730353144,-0.0022322019104481757,0.0573501596926148
1700843525.7871232,-1.7841992294788587,-3.6614377394504225,9.942667632152329,-0.007178881277489228,-0.016276685890259494,0.0247641457943613
1700843525.7970212,1.1344040548162007,-1.7696680308231796,8.50430560720954,0.010592546246337629,0.009693313612804934,0.0175308744190628
1700843525.8070583,-2.8304588144856844,-0.5922110964898473,8.799257561746348,0.003805454194357869,-0.00571430716579881,0.0351120280800755
1700843525.8170514,-1.6346304946703885,-2.7203882092792147,10.218352593993108,0.02304703598752627,-0.028397717768995516,0.0443260977743561
1700843525.8270495,0.2177867177344267,-0.4825367565779245,9.124294184336406,0.03706533497343759,-0.01994729352440956,0.0605479116319115
1700843525.837085,-1.8318126954674232,1.796474002100695,10.148709019548061,0.009963691821778467,-0.028106941424963935,0.0788300159154828
1700843525.847098,-1.3672301772470528,3.1707479080364243,11.901487095228614,-0.027211840731722,-0.05227733075240228,0.0714875730453427
1700843525.8571498,2.358096501629888,1.1092048868191104,8.968594480206514,-0.04308948763264287,0.003015478872288734,0.0569181489525731
1700843525.8670828,-2.1165841753604875,-1.766313451496262,10.244841720006974,-0.027531841509007296,-0.012892411451372812,0.0368172573624547
1700843525.877082,-1.1694215523326972,-2.482883275161764,9.322792221059784,0.0003095315773681751,-0.020734883900719273,0.0197648118017609
1700843525.887087,0.0458451738407635,-1.121865510632042,8.889961788243928,0.0014988461325318918,-0.009295031122178327,0.0353872189997132
1700843525.9032946,-0.9877056844209972,-1.582287767219217,9.636277946026167,0.012824188766225464,-0.008876286821719334,0.0408013175009186
1700843525.9070482,-1.6344755218759388,-0.3387425282118037,10.55861043786557,0.01762368946360298,-0.02068038725039893,0.0557979988633091
1700843525.9170997,-0.6042282420125458,1.4001474399228768,9.896436653114618,0.0017596775017901145,-0.015542308732968864,0.0683444487629826
1700843525.9270823,-1.2593317687546013,1.4005540052146215,10.866789029263431,-0.023047354502663195,-0.025968699352898802,0.0533071580110486
1700843525.9435036,0.9474283553965963,0.5092525330573054,9.564079434460794,-0.021165469988203095,-0.0021419348758657734,0.0492210882483418
1700843525.9470496,-0.8134558614394486,-5.230796029351933,8.99795513494095,0.0031440418266644827,0.0003827277257844487,0.0370502668200428
1700843525.9570832,-1.4409715932956861,-0.9707517197524742,9.322892977033696,0.0043793784577203084,-0.011500131770835814,0.0274875639705355
1700843525.9670804,0.34083739964524684,-1.2165126952329521,9.540175597190816,0.0055998591329779876,-0.0003205690172834892,0.0331244441448147
1700843525.977243,-0.5179242609882508,-2.5299689093266085,9.356901832575486,0.030896866289320316,0.007714577104623093,0.0323861139594014
1700843525.9871616,-2.5355800494364193,0.17238671190972507,9.780766099037862,0.026658278791671396,-0.01942539120584488,0.0414125668583806
1700843525.9970992,-1.799676981697645,2.5909527927851332,10.083855027899547,0.007802576963717482,-0.038141243821326894,0.0472371290205414
1700843526.007153,-0.2943121326993956,2.292453660888904,10.954742828784338,-0.02845405960956465,-0.03249553033642317,0.0380605804501469
1700843526.017189,1.286971819992314,0.9858033733159051,9.891982393424726,-0.03670143335677723,-0.009987834388567821,0.0362356166122849
1700843526.0271487,-0.35189678155828824,-2.2833641463712384,9.645783512872798,-0.010412756185934771,-0.00583795375249049,0.0268128319410975
1700843526.0371609,-1.7516516305649676,-2.500576828835909,8.788353344797201,0.0048468030778378865,-0.016541487660312562,0.0254383413819964
1700843526.0530636,-0.5948065963869754,-1.0341688666818623,9.729489552069193,0.004966940050633395,-0.010607441691432525,0.0282294611214097
1700843526.0570571,-0.430928215332511,-3.3954708828554065,9.132176655931902,0.02184367230325882,-0.008070662341406644,0.0312566264300044
1700843526.0670483,-0.7355108049147877,-0.7784344015337794,10.01141559878845,0.024351132515617303,-0.005579503773626544,0.0358518409310276
1700843526.0771506,-1.5716854844497836,1.5206577440171103,10.395791931725142,0.009093777833219789,-0.011950947373417136,0.0368929925142224
1700843526.08716,-1.6624646173407984,1.078077318768876,10.341996925380151,0.0012506402845765506,-0.033643401580454965,0.0267297821818287
1700843526.097448,1.4428074982085337,1.2974466522301038,9.320798854110334,-0.01644694534509043,-0.009602394703475008,0.0233476358233387
1700843526.107344,-0.0018084892690732992,0.826928474989036,9.869507905119061,-0.024141131339764674,-0.004933098309184891,0.0380548919318612
1700843526.1171968,-1.2961436909498618,-2.496606895181453,9.283132724072498,-0.005526713099762192,-0.01138866291287357,0.0393134104786808
1700843526.1271098,-1.3008088338228934,-2.494637726202419,10.07837926078156,0.00676359682783211,-0.023251045188511954,0.0344686741708214
1700843526.1370692,0.7016427466009424,-1.0479935761103878,9.141177553956203,0.014594963175245484,5.799102890180904e-05,0.0440900708316262
1700843526.1471367,-1.227384912310163,-0.5058230834825527,10.332778287722862,0.007652962016241447,-0.0041582979136195455,0.040786468493789
1700843526.1571264,-0.5183856632440004,0.40963805247159935,10.167267290321913,0.007392555569774012,-0.007565201612642528,0.0434367331443722
1700843526.1671832,-1.4608721009535273,1.2154614740049725,9.274721171435552,-0.004776662792897634,-0.006961066789810742,0.0358378897188599
1700843526.1771746,-2.3223620958375997,1.5947557960046008,10.563152152637652,-0.022185105375799596,-0.03893700815118598,0.0314111812739069
1700843526.18706,0.829823259824023,0.6845431047928046,9.338013391545703,-0.03310297467318784,-0.02388279257459721,0.0381632643519337
1700843526.1970649,-0.501488305146569,-1.8646454659785188,9.141111643659658,-0.019371051356067093,-0.01629821968755785,0.0482406775234635
1700843526.207127,-1.783041634702619,-2.281409517280215,10.376021557525407,-0.00146474791236924,-0.03443292073480804,0.0427452335833008
1700843526.217198,1.4072157321952217,-0.881472656996645,9.47939617188949,-0.0028434642935023574,-0.004972097038910332,0.0417524362681801
1700843526.2270908,0.2762953608775972,-1.2967011582093582,9.867901635357535,0.005473850909695698,0.012594844824337648,0.0478898222325737
1700843526.2370992,-1.9007745458681893,-0.40461173379766996,10.229465821117081,0.0092700676622657,0.00041622176867269774,0.0494719083188469
1700843526.2471178,-1.2580988981486136,1.1684635256498168,9.788087125447031,0.006016255684785241,-0.0178313830867184,0.0475887517212327
1700843526.257093,-0.8856365263296869,0.9567009362309704,9.170789042048954,-0.014543393139528751,-0.01929514704270193,0.0437509092269833
1700843526.2671068,-0.3741794819410085,0.0876419127873876,9.871690913182654,-0.01498018925370419,-0.02868128719233409,0.0542745339451725
1700843526.2771657,-0.49932888433018935,-2.4599914718530846,9.197893023862747,-0.005036693818888179,-0.018476947483438467,0.0580657544313366
1700843526.287177,-1.590683587810741,-2.057630312437167,10.605611560836,0.02366362103404958,-0.04003315374063789,0.0506010624347622
1700843526.297305,1.4695456154564106,0.2810506885334489,9.871130087996063,0.0027308506474804303,-0.008777373154599899,0.0414039018331463
1700843526.3071404,0.18941008674114376,1.3233421299108346,10.269186633067811,-0.010238081943896212,0.007835985056235438,0.0443320805905755
1700843526.317128,-1.4435845262542262,-0.5282589845713135,9.529200717150086,-0.005703549859927623,-0.0015526676610861608,0.0352169024525578
1700843526.3332672,-1.5205815486832692,0.7293617478507055,9.533123066966251,-0.00901558717273121,-0.017351311286685996,0.0397566939471657
1700843526.3391323,-2.299317192199623,1.843732740067088,9.83106270142128,-0.025802852397590007,-0.03322118191167243,0.0469430285273488
1700843526.3470843,-0.8354339093283564,-1.354903801726942,10.054590590757655,-0.020885901459900866,-0.04230011482870846,0.0551901730476315
1700843526.3571315,2.5932072234937764,-0.6505291497044565,10.116757607006088,-0.019960309549000837,-0.005359669974246662,0.0585931773065026
1700843526.3673863,-0.3640635476438404,-2.0835298329768697,10.398430156356115,-0.0012141806587312016,0.010125871373956947,0.0390958796022828
1700843526.377169,-1.8118774326387002,-1.5449426887143243,9.458386523330166,0.0005163801512050752,0.002814140663919907,0.0237351051299269
1700843526.3872178,-0.7755777407995342,0.6443789400400823,8.922346778825105,0.00039339941913942944,0.000925258667261741,0.0330990786431725
1700843526.397113,-1.5313146895966565,0.36012482937632695,9.8867672588073,-0.009271311320318457,-0.003764439707932944,0.0384271601913865
1700843526.4071088,-2.120195611416171,0.31491810068548565,10.345900217838393,-0.020175867737025826,-0.02787701825467335,0.0407185639022286
1700843526.4172184,0.4984297560006955,-1.7848952232109643,9.269339516995679,-0.002972092937904012,-0.0153413279077052,0.045929224300235
1700843526.427231,0.5184780140258028,-1.4045398821668966,9.466824071717108,0.009881777334320522,-0.00037662269174455146,0.0394560220418866
1700843526.4371707,-0.40848743330923537,-0.19081669216469657,9.735610874675539,0.006305196176604561,0.00902085567209428,0.0336534726200993
1700843526.4471436,-1.9388776950613282,-0.010967847180575687,11.44431236502304,-0.0018377705249873998,-0.015268202105732664,0.0215200344799454
1700843526.457123,0.6959133821252441,-0.14849026010677777,8.97561557785081,0.002735375585597771,0.0035537461303087473,0.021129391226023
1700843526.467118,-1.3283871669477507,1.6872346540908083,9.637501368239269,-0.016442239248947686,-0.007192042926567772,0.0332303131698067
1700843526.4773169,-0.8843683661042846,0.19693109394408181,9.623322957334285,-0.030833030488987542,-0.008443300419970032,0.0349066267488892
1700843526.4873004,-2.9653361193036236,-1.784555801727189,9.966842545174861,-0.016299873071040166,-0.03474981466748156,0.0387468981324131
1700843526.497216,-0.9636559748960839,-1.225721231660777,9.518978135279369,-0.005502015191954603,-0.04654734080541134,0.0486946078716214
1700843526.5072126,1.8419982539606023,-1.7821589574334622,9.694840109309752,0.007936895929805352,-0.014588422447014833,0.0477322052000458
1700843526.5171225,0.9060396899773475,-0.9458562205474371,10.11523945061747,0.01676482763257848,0.012264540256676473,0.0347791659413273
1700843526.5271802,-1.9984936878297723,-0.135804363088743,10.170767090750678,0.013211664386044998,-0.00037543643102525383,0.0149726160569484
1700843526.5372424,-0.4795810917960798,1.4064156042140366,9.452273287741175,-0.0019802978696701937,-0.006205864794808165,0.0234937025932963
1700843526.5472224,-0.4118443673854349,0.4749793696995759,9.586279425299878,-0.011497697269745718,-0.003164195643651362,0.0290630693314965
1700843526.5572042,-1.96438636003544,-1.1195789485839167,9.802072927275903,-0.011386161195532145,-0.016833578594180103,0.0305153160123522
1700843526.567224,-0.6602605199556653,-2.5684839708954468,9.856141850423278,0.015425672374495615,-0.023881756691287014,0.0327733653365071
1700843526.5772924,0.9310246929123835,-1.792612103962743,9.128344427450246,0.02980094928124411,-3.2248237064480575e-05,0.0256011179415877
1700843526.587217,-1.3621590589057682,0.08815832345896746,9.852054544179751,0.028560551944314786,-0.005472576306326536,0.0229814677266772
1700843526.5972064,-1.0102189240376966,2.285527880327985,11.007501651443846,-0.0034379095757507746,-0.01593573646381617,0.0153095946414764
1700843526.607245,0.31391944987836456,0.33839555319019854,9.88204661836433,-0.0030767053656182534,-0.005254904700659657,0.0110378610669072
1700843526.6172574,-1.0268732143529016,1.6944407780433128,9.06403836254524,-0.019556637984360623,-0.011340889766848477,0.0169551121769841
1700843526.6272223,-1.8873333462503679,-0.036030838491586926,9.884014090625335,-0.03047654565216332,-0.02552799673551836,0.0232319692848618
1700843526.6372476,-1.159624852027861,-1.7391751838724792,9.834861134920747,-0.013710097959212787,-0.04241925664784686,0.0239639590261872
1700843526.6473207,1.4898810497348305,-1.4950129162349017,9.853838995838538,-0.003411362487222706,-0.012678501812544816,0.030928791570514
1700843526.6572037,0.6682259980115989,-1.219214180436164,10.263428320715946,-0.002708646062459805,0.00828627714935603,0.0284442166565354
1700843526.667234,-1.0046586428435258,-1.556147191495921,9.46256020835686,0.011796945374916169,0.01189839064225953,0.0141378660453851
1700843526.6773295,-1.801526311381301,-0.007752411447323122,9.339095128463418,0.008949301931169511,-0.0042933409035977544,0.0235211784718926
1700843526.6872056,-0.9658405758982351,0.7919649737600071,10.166201721710182,0.00010112694659590461,-0.01223941953271206,0.029100171360224
1700843526.697898,-0.5750405315890827,0.8775660797029946,9.845192677856048,-0.011717595556367607,-0.017207309909639753,0.0275759539334471
1700843526.7072334,-0.5932177551522908,-0.865109732129409,9.427486632622596,-0.01069685856341161,-0.012644961867609026,0.0345357815502579
1700843526.7172017,-0.7523063903304252,-3.0075247484511687,9.621240025987628,0.014392189817878204,-0.014951256042964836,0.0287202755688126
1700843526.7272646,1.3466676421495485,-0.9714498353440195,9.588223417994062,0.024333099327231572,0.010911942822646535,0.0224092761753495
1700843526.7372792,-1.1073465809654564,-0.760610265777536,9.946888239701613,0.026363823201105446,0.009804162360587478,0.0133052496938403
1700843526.747198,-1.9280737033402378,1.0583629966315906,10.309516625135055,0.009453713251347536,-0.009042266295940243,0.0210996038047965
1700843526.757192,-0.8816085462183344,1.7569549924763657,10.076544276884398,-0.007036500885152976,-0.019007970570411953,0.0284588197945054
1700843526.7698128,-0.3032702712295339,0.498209202057518,9.631926302464905,-0.014842511215728217,-0.011718214705790026,0.0251042983262236
1700843526.777217,-2.78773740112302,0.951319668708867,9.529807762746186,-0.02901780113953204,-0.030790304412621938,0.0348323221085961
1700843526.7872405,-1.152893003988053,-0.9255087037895136,10.231112102293551,-0.02658096563895412,-0.044897484293555986,0.0490660044132168
1700843526.7976506,0.8567984847795503,-1.6663206815345013,9.70330835364836,-0.011207110159317175,-0.02405866130630004,0.0437997664092476
1700843526.8074892,0.23893200912598103,-1.8118471361863537,9.996349228474488,0.00042196816290443077,-0.009105393420514049,0.034651436912864
1700843526.823896,-0.015516348493809088,-0.7651489656707834,9.860612538090054,0.006769259748077665,0.002189042135711683,0.0287423777161534
1700843526.8271885,-0.2313636551506436,0.5393429427112661,9.50267961340648,0.0060034860018305615,0.004048838898281134,0.0308243325678999
1700843526.837829,-1.047751547238359,0.928285698808337,9.810927291630282,-0.005349270052720596,-0.010869577697855282,0.0255831955699618
1700843526.8472035,-0.8144923945616841,0.0626698964336789,9.820563311116937,-0.01571361669351821,-0.009477425100491543,0.0187041899888213
1700843526.857213,-0.774365207259333,-1.0376354560893413,9.747769022090406,-0.008775263462852154,-0.013005846128793751,0.02532399173364
1700843526.8671951,0.0035806355420651237,-2.2053607923885843,9.533315349226514,0.007705169605360988,-0.0036220089418345313,0.0183876688359673
1700843526.877265,-0.09253596128146951,-3.0578830578431133,9.273323369275156,0.03416376890803903,0.004213104862703211,0.0119855060009654
1700843526.8894043,-0.47077194223847496,-0.22534024876769135,9.345236666505334,0.04014215911368503,0.0099675705973561,0.0073013283079858
1700843526.8986757,-2.301424761168431,2.873430688994288,11.170483253115497,0.009412336576488153,-0.0097911126200043,0.0205182592152054
1700843526.9073288,-1.0152230043981858,2.4562156560845576,10.942912777114435,-0.019484569822804467,-0.028397622014173892,0.0249218391953404
1700843526.917246,1.2827534654966646,0.24475904718656213,9.011857094229505,-0.024559921748055654,-0.003958508297539212,0.0266157566337283
1700843526.9272437,-2.045989144286231,-0.15340986162949505,9.423273852084048,-0.025665789031309727,-0.015205661832053546,0.0283932360588009
1700843526.937277,-1.609029805430516,-0.9442825756547002,10.330336752162173,-0.024209994420820894,-0.03400360785685012,0.0271883281646664
1700843526.9471729,1.5377427093436482,-1.5940643447276037,10.160262760694982,-0.013239100498716698,-0.013173990569704641,0.0199987116037304
1700843526.9572153,1.252392483777639,-2.303703293390096,8.954024932288833,0.0051806420514750925,0.024743301625639185,0.0128460946260388
1700843526.969038,-2.6805644044964807,-1.3601210446690601,9.569138189449237,0.020049783324987136,-0.0025873019496016193,-0.0030553724383567
1700843526.977193,-0.6635207145216679,1.3934833758765741,9.88306009962971,0.00410342423655305,-0.0030457653338963517,-0.0007291670655463
1700843526.987191,-1.396541435392227,0.16974966555963697,10.19775160444056,0.0010614929300219434,-0.015989589427995894,0.0053956607124205
1700843526.9972036,-0.7699546124328518,0.7036580794846474,9.623892402348753,-0.007893276196611147,-0.019714930497109463,0.005449756584167
1700843527.0071924,-0.28391411000286493,0.048744777074298744,9.307064117521596,-0.01369856687817895,-0.012728841950013966,0.0173951863078768
1700843527.017233,-0.8628698579959174,-2.087054936243278,9.98384987881,0.0016509453676263114,-0.016686438804418474,0.0085475529311593
1700843527.0273037,-0.2734325079637972,-1.4384875726715218,9.868535676064345,0.009989306935619469,-0.010565277635726272,0.0032834839774663
1700843527.0372198,0.3346463781605164,-0.6276911461357537,9.788556319811974,0.01762166540048085,-0.0033702612695948172,0.0151968729449804
1700843527.0472174,-0.7568515374591126,-0.533424156803104,10.109244212827111,0.01737848742911758,-0.0053502322881096714,0.0044772644294794
1700843527.0572336,-0.6097230963000039,1.3516610277883019,9.75360600488616,0.004357043523424459,-0.01186756280017756,0.0171103245346243
1700843527.067269,-0.5552976600956607,1.108871071056253,9.832636890303377,-0.01642404844251901,-0.009378453473036032,0.0253502885578568
1700843527.0771985,-1.3075990093760819,-0.3046060388413982,9.82990052229754,-0.015685450285797944,-0.018409536810596698,0.0226932513295109
1700843527.0872338,-0.514309216573751,-0.1393176053242685,9.939755344985258,-0.0174594533779741,-0.014438004874256014,0.0329388054786618
1700843527.0972672,-0.3583756601283287,-0.22098844042141294,10.267514623386745,-0.0213210164491785,-0.01170904253724166,0.0249114791630204
1700843527.107204,-0.04577246637921072,-0.9646517959434198,9.287016561302746,-0.01656478711135065,-0.0027118420828265554,0.0269666752545531
1700843527.117291,-0.4618027798124725,-1.5401470619526243,9.689377183362081,-0.002723861611636465,-0.0017789221744724346,0.0176320365397627
1700843527.127179,-1.0265355655403057,-1.5788520082940933,9.525357100905024,0.0056270786536912094,-0.004264673133189833,0.0036774141015853
1700843527.137231,-0.4999617621956987,0.6633808292121838,9.903785773481443,0.0010342014517322833,-0.0083554671100893,0.0068412638036902
1700843527.147182,-1.6678451028362917,-0.6419116155460408,9.325062141749116,0.0008067426716394582,-0.010634850378389925,0.006389542087018
1700843527.1572511,-1.2409227371082927,-0.8876614407307254,10.017335815732501,0.005741816205954099,-0.026554115658589613,0.0160732242046292
1700843527.1671891,0.24446920634865046,-1.5623850499413336,9.4523205733691,0.0166557106975381,-0.008998145801256173,0.019859149190634
1700843527.1772506,-0.4465878172184487,-0.5258463268157414,10.338219919452442,0.022217571270297838,-0.021743937989755102,0.0183259500889475
1700843527.1872053,1.9612925976210693,0.4622010482804052,9.623234604656679,0.010540175333711222,0.01174269718118573,0.0222790921805794
1700843527.197312,-1.9647746643602189,-0.07515615166543213,9.995492359912175,0.007526450498445591,-0.003558890192740107,0.0185485194204743
1700843527.2071974,-1.6587542253084357,0.5801593509439887,10.156508745821359,-0.0021259167749074098,-0.025646309367619354,0.024141994374841
1700843527.2172134,-0.09826376577397133,1.7117695301990934,9.596901383019734,-0.01907188878244027,-0.018182027417126226,0.0327244522748883
1700843527.227246,-0.6028860294618764,0.4824696804388184,10.149289711656094,-0.033902208370158095,-0.015934236849159403,0.0377674336312706
1700843527.2371988,-0.6314642136855021,-1.0995876892392733,9.894141776210624,-0.01853500227947342,-0.019407946386516998,0.0448431010125573
1700843527.2471988,0.6202652531368735,-1.1900363551359143,9.973511175010616,-0.014148051713445466,-0.003720613665399622,0.0389024811564381
1700843527.2586958,-0.7402374518938547,-1.6339261995010423,9.229433345909387,-0.0024079730296874147,0.00014010893384643904,0.0171127143083508
1700843527.2672331,-0.4139602048192924,-0.8344835691881091,9.577605158722545,-0.0002544500143145294,0.003254914966568399,0.0082475851057465
1700843527.2772307,-0.8251046716007234,-0.0031069480331787644,9.84676756666056,0.0009082999790779832,-0.00184436448976584,0.0085467585130031
1700843527.2872274,-0.9665894645315041,-0.20002502770323496,9.813110230906872,0.0016336008096297157,-0.004419319366378324,0.0061722323997314
1700843527.2972145,-1.8356266278243782,0.9748132846583825,9.917404374657266,-0.00979028473727259,-0.020448245887730747,0.0057088584406669
1700843527.318575,-0.6620877236607616,-0.3766753236006075,9.469355927710689,-0.019145213842920946,-0.01741545041259676,0.0117620575009282
1700843527.3198788,1.6869374846658904,-6.358637752798107,7.7001123476907,-0.0048101765163949895,-0.012370663366641263,0.0121161305113132
1700843527.3271885,-0.5967048619793812,-2.051976847665966,9.28172208723364,0.010300169909775123,-0.010416777426300533,0.0055960990256066
1700843527.337258,0.003990091308605158,-1.0030118516589581,9.77340645512704,0.017832844359632942,-0.008171767584312291,0.0048617339460547
1700843527.347361,0.37709139106061246,0.1198000751353228,9.659223676826933,0.011078632095852303,0.0041807877125090735,0.009283029544204
1700843527.3572824,-1.3837187441362637,0.8468704166150196,9.833797179374457,0.00021219864136920683,-0.004401584935609848,0.0191511614947016
1700843527.3672214,-2.2457924100085016,1.2556979117595877,10.509110550587467,-0.015248252654732324,-0.03047642520475811,0.0257404829142983
1700843527.3772335,-0.35172647111313177,0.5449715381122513,10.020725112867588,-0.026120211984286792,-0.028917805632112537,0.031054007890671
1700843527.3872528,0.35704810782081314,-0.7922201889173791,9.735030666271983,-0.022238992829120976,-0.01815539999568711,0.0309886364965136
1700843527.3973138,-0.3500643660128211,-1.7717716193656525,9.61603626135935,-0.009271480496745301,-0.009151150340993234,0.0213397900341446
1700843527.4072516,-0.6370489496740214,-1.264957230781104,9.831124469454151,-0.0016712857794762021,-0.009348901644188503,0.0126207685796912
1700843527.4171822,0.9454983114248883,-1.0984297004253274,9.441171635515182,0.004181888003129312,0.011755272721430812,0.0127056549070771
1700843527.4271672,-0.8074055967175888,-0.2439174075277019,9.607628202479622,0.002150648149645922,0.012522224510068068,0.0156419724924858
1700843527.4372883,-2.329863239852374,-0.2906164497807623,9.925430923989818,0.0009523153039836629,-0.010257131632866642,0.0146558928070958
1700843527.4472277,-1.0357942126288322,-0.8444493249610702,10.097675124226651,0.008693040073861472,-0.02392149360209371,0.0147449514596159
1700843527.457307,-0.5167349677045375,-1.245746025045648,9.042722056999626,0.025041609533261792,-0.02455009854549977,0.0188413291005785
1700843527.4671674,1.0658042582323128,0.7487678515266454,9.97868703838293,0.01044725896426335,-0.008546002371995131,0.0206733989296849
1700843527.4772403,0.037527658579625776,-1.3097097115496892,9.731670719992303,0.016503057161208173,0.00029775635788699043,0.0129854409722979
1700843527.487256,-0.09337763221101646,-1.7977402819870092,9.479186574834301,0.03418422076814652,0.004206936301901036,0.0067427480360861
1700843527.4974692,-0.6730331324763217,1.299925444610509,9.762897426730571,0.015520010383522992,0.00606770560041151,0.0101903826697166
1700843527.5071833,-2.316139116526198,1.3469038601761862,10.93929110565149,0.00212872737848197,-0.0231890891460843,0.0208275719313319
1700843527.5172443,0.17177967308226819,1.0682270402736902,10.170096504768344,-0.01567588502576345,-0.016872215649807207,0.0196177243022616
1700843527.5272086,-0.2745779068114066,0.28609056820762346,9.597104111462007,-0.017130964384587527,-0.011760449737906947,0.0257651145337517
1700843527.537214,-1.005944234158512,-0.4853343188805918,9.791127924379845,-0.021200903015417136,-0.014101744023156202,0.0135472967056925
1700843527.5471911,-0.382637757326563,-1.8642996038284843,9.831828157717613,-0.010907179080978179,-0.006700929272337375,0.0072222483111913
1700843527.557183,0.2482280581602355,-1.2795196225532746,9.303014673716552,0.0016617176141572052,0.006306592182125105,0.0054283901816602
1700843527.5671873,-0.9663397045618952,-0.8044067342192271,9.886779646992919,0.0033989236078869113,0.0021450479911761466,-0.0057434741640095
1700843527.577197,0.36245262646414494,-0.0024406623908666556,9.59118665371125,0.004620142460770348,0.007143312340802128,-0.0022277477429811
1700843527.5872388,-1.610761166054885,0.8149916947234628,9.748129423667535,-0.00515279831205708,-0.00399946223346309,0.0005404798183376
1700843527.597299,-1.6176770727176275,0.9711551713640982,10.122431965962864,-0.017640472880788984,-0.019979377467556927,0.0029912030557538
1700843527.607288,-0.8200389301977175,0.127934920187614,9.487816756704296,-0.02705492396483732,-0.017916074049386672,0.0128590418724711
1700843527.6171768,0.8229953792926099,-2.3257251219058923,10.224373084734864,-0.009610001724876388,-0.006904626100665201,0.0121013252763445
1700843527.6272995,-1.0174225569268762,-2.195085338790142,9.033749983292399,0.008491539865123134,-0.0045475277557705945,0.0032052142313118
1700843527.6372087,0.0038908853735350668,-1.494611419211411,10.362202128776733,0.015972952439265695,-0.009665830461889569,0.0030207969947154
1700843527.6472857,0.6320328944053732,-0.48455416716613964,9.203050020086188,0.02575546462513485,0.009118725957785458,0.011769020068496
1700843527.6572416,-0.14311384706459962,1.7189415734596436,9.888595206256122,0.003259677923813794,0.005186107331771327,0.0195402904181178
1700843527.6671903,-2.7028394911673064,1.864961803952301,9.954652145959779,-0.02188036693562993,-0.005387573069844644,0.0219740002183611
1700843527.677254,-2.3417348265171056,0.11258351985907745,11.194040112677147,-0.021673730598005692,-0.04542521452190063,0.0255236970959599
1700843527.6872263,0.6436599003145477,0.42194687414564364,9.101214165141787,-0.0334663408204115,-0.021977147363669,0.0205840646056826
1700843527.697249,-0.6569451877686927,-0.9774577239504094,9.205460870889222,-0.0302057295196729,-0.01731819939445903,0.0200530300615723
1700843527.707197,-1.2256119556156309,-1.8663542819352004,10.224837335647214,-0.01913956174070005,-0.024750152114524023,0.0114403675077851
1700843527.717299,1.0854613804995719,-1.3199991199618728,9.799914724225362,-0.005391533583508997,-0.009423369824718367,0.0075158985099192
1700843527.727199,1.0188156431774735,-1.2640250660223882,9.044804575902901,0.00528156460006921,0.01798318150157673,0.0043737246422465
1700843527.7372668,-1.8553282011999397,-0.9038141526850906,10.277017425147609,0.010534752055998941,-0.005384458625233727,0.0007625773840486
1700843527.74727,-0.7223129459919501,0.6025246937429238,9.858681650234168,0.00537272208629945,-0.013289925301037502,0.0045478936052318
1700843527.7572308,-1.3273609235101098,0.7935557884426672,9.793039687082675,-0.010699285101665441,-0.019848346176629922,0.0051467754645641
1700843527.7672038,-0.17338435670284777,-0.44823993040970883,9.721609000658608,-0.007791105110562481,-0.017036453020643782,0.005649933661371
1700843527.7772372,0.8636586027792267,-2.613647926957601,9.303560779106094,0.009836165510888931,0.005001065399559413,0.0046827994054551
1700843527.7872229,-1.6264409999925815,-1.5023452944000335,10.030272178348643,0.022596539915231854,-0.009980943573856657,-0.0051937214331333
1700843527.7972236,0.4283885191479402,-0.2629406647601423,9.92010545913851,0.02359533952314563,-0.00538777044263334,-0.0029654846759144
1700843527.8072116,-0.5865027899945033,1.2779518462591952,10.12377982915088,0.005603722387059917,-0.003176557924914453,0.0100718318252261
1700843527.8172128,-1.3331562651172755,1.2559196689695518,10.023204228538004,-0.008214604322783654,-0.012713735315505249,0.0078015458537633
1700843527.8272488,-1.4775520229344836,0.54114069463034,9.855525195507852,-0.017598458668727213,-0.025039161634359763,0.0110749640269573
1700843527.8387609,-0.009875189467004502,-0.01243518403883159,9.719834734879607,-0.02331167099086686,-0.01625808827873465,0.0032430252293493
1700843527.8472624,-0.4680089948788176,-1.0209975771543989,9.627710294966349,-0.01990870663824654,-0.013854306812572312,-0.0010876380139593
1700843527.857231,-0.21996446060372601,-1.6454280568090764,10.016614760682815,-0.007971400743497161,-0.011609882725930628,-0.003974063252062
1700843527.867242,0.6917382395002354,-1.0879799772647574,9.878153199038657,-0.0002316505522273745,-0.0035237091145437476,-0.0036185322561864
1700843527.877283,0.5537473618735664,-0.8423965351611525,8.851271491415751,0.004792942647274004,0.014763704235290968,-0.0011481440625716
1700843527.8872464,-1.8238782863878025,0.4985805850758992,10.395516502999186,-0.0027039000537052815,-0.001536622521142995,-0.0052766384789351
1700843527.9057207,-1.3026927482757034,0.18720091066028793,9.68180327713984,-0.007088913941050302,-0.009500188883501529,0.0025068834191556
1700843527.9072063,-3.1155900184108516,2.322143450715922,11.963094615939374,-0.014910361581769766,-0.01776334403601055,0.0039322959026689
1700843527.9173338,-0.38403524652961085,-0.6863168501815772,9.165766876309513,-0.01100453540205826,-0.014929781944304788,0.0017680612625922
1700843527.9273312,0.07897112241356982,-1.2203328976238346,9.99222440012147,-0.0025492544801079885,-0.00879120519887252,0.0082990928320582
1700843527.9372733,-0.04950192148532846,-1.070335639711351,9.358377349355441,0.0054384556725775406,-0.0014977231230039088,0.0090169758303459
1700843527.9488926,-0.367741903385358,-0.5678069057291406,10.287329470852022,0.0031483554717248825,-0.005843819092357029,0.0111201937077935
1700843527.9572935,-1.0083201468243876,0.458093117555592,10.072265277536388,0.0012897469935874944,-0.011798884037001084,0.0118229557527597
1700843527.9673293,-0.5652644472373494,0.6550982930608036,10.081271191018722,-0.00973373506630395,-0.011234256137099476,0.0089880005224044
1700843527.977374,-1.114527076109625,0.9635321630138742,9.464100600093744,-0.022403087286635575,-0.015669809444210238,0.0128047047881777
1700843527.9873092,-1.220078898550579,-0.11529042737478346,10.020694832220514,-0.028000528352828315,-0.023889413776819253,0.0067251614062483
1700843527.9976282,0.7101255905283669,-0.847825711275354,9.88663573256223,-0.026266354147790404,-0.011736844463120698,0.0023706979817147
1700843528.0072362,0.14518668044419317,-0.4673664637159,9.427504897651323,-0.023837019361076753,6.793801676534837e-05,0.0013927747612255
1700843528.017392,-0.7118817063721252,-2.1320609194662743,10.303662544130285,-0.010921310734143987,-0.010650345179861692,-0.0029046264709536
1700843528.028482,0.7707665760171482,-0.5990893598550487,9.134273919346235,-0.00402822259632504,0.007326162961018427,-0.0025844116927687
1700843528.0372968,-0.6443585101160538,-1.0017306759273468,9.822573289207504,0.00030545070050689687,0.00913966440455874,-0.0007762322667617
1700843528.0472815,-2.3501669901735665,-0.49515330629640264,10.18382673331862,0.0049747712463009235,-0.013479166447585454,-0.00570581799835
1700843528.0572484,0.2515707754178711,-0.652408382012354,9.794413064945784,0.004527642520357315,-0.006525191051321394,0.0033184118336434
1700843528.0672822,0.003200476478581922,-0.5949399337483312,9.545996662062208,0.006907835324070023,-0.0007561776526829522,0.0012279851478892
1700843528.0773797,0.14291275976114767,-0.8973859954445178,9.792310708462741,0.012598539426107358,0.0034546041440315953,0.0011774253915432
1700843528.0872672,-0.05423082429446598,0.09201328375687044,9.694902717689029,0.009153017990711524,0.013446867594147262,0.0010389073985065
1700843528.0972743,-2.5237598623475392,1.2678017366908096,10.146776543538898,-0.005251330112442935,-0.012347189620466062,0.0043367080623652
1700843528.107268,-0.4794297400247616,0.7695155056471431,9.686649772335004,-0.014977119584731245,-0.009389317236603623,0.0046964227920766
1700843528.1172943,-1.217813187117046,0.320275183327863,10.34295966474975,-0.028941575018916924,-0.01575971432428646,0.0041047698585684
1700843528.1272316,-0.629397854803961,-1.0186334940966542,9.431136644404157,-0.021093973989529405,-0.018372063566326362,-0.0002888102782521
1700843528.137287,-0.3486056914232628,-0.9096941539824799,9.86386993773943,-0.021703595671188184,-0.017566098627937198,0.0013610528083886
1700843528.1472578,0.9547795194117447,-1.6510348813551268,9.882145020501774,-0.0046138615154313846,-0.002588233410376938,0.0065577612957354
1700843528.1572742,0.027881962443482244,-1.3086447734140056,9.5368946238176,0.003604557198568979,0.0035886688423567266,0.0036338284379239
1700843528.1673024,-1.069962095210574,0.1025665491846696,9.483120850230334,0.0006150479514128241,-0.0041372056020657,-0.0027312204939876
1700843528.1774185,-0.16515155454595543,-0.03568775692219,10.015852486458611,-0.004277742125649896,0.001993057196695674,-0.0007497265934575
1700843528.187393,-1.2680825875849524,-0.33413821166640795,9.869558318131531,-0.0039096730121116275,-0.004745975911226609,0.0014091676683533
1700843528.2135892,-0.650385833452904,0.037423538062081714,9.540996678090439,-0.01108611214373557,-0.013750741751147247,0.0021991841029744
1700843528.2156336,3.4959598066528894,-1.2754908459162722,7.812047660336784,-0.008370723272855773,0.0018325189200285121,0.0016534199938546
1700843528.2195215,0.629874810787098,-1.5381530341132583,9.433180562921613,-0.0016874877744770614,0.007106070639631383,0.0059956601588423
1700843528.2272687,-0.6746327136440615,-0.5755387028369804,9.407132236999487,0.002291107133541395,0.00877194347434619,0.0072210091865058
1700843528.237325,-1.749075583119492,-0.0011228535666681372,10.62481866410984,-0.0034909890770055863,-0.010871108517665458,0.0053914124844964
1700843528.247301,0.08013270512609827,0.051193109000446636,9.660968882543154,-0.007345167429745797,-0.004906606739604397,0.0075650853803749
1700843528.2578397,-0.8545482972199464,0.4787447559683834,9.64776058151361,-0.014226763821436464,-0.0046042066326000795,0.0073745130328829
1700843528.2672436,-1.8026390384180935,0.5950262209956045,10.044192807739872,-0.02679812207043422,-0.01754211941455317,0.0055533089442546
1700843528.27731,-0.9297041504659488,-1.1503534508046793,9.940386081048741,-0.019442807887593918,-0.02542720766715639,0.006787946517616
1700843528.2873518,0.5013442730514175,0.7498478526893302,9.502347418607851,-0.02969743979150719,-0.014489348566100534,0.0052197376033659
1700843528.2973802,-0.5259209839878947,-1.1879610769170195,10.223506810370894,-0.02672521040800981,-0.01694596753386853,0.0023642394924904
1700843528.3072624,0.09598420514737695,-1.8967365537032586,9.595509636436862,-0.008584063233368215,-0.010788841545772566,-0.0016974924830351
1700843528.317245,1.1392114662602641,-1.6636344532985556,9.672329795066007,0.00027114335951701176,0.005567044793380852,-0.0060884854057435
1700843528.328529,-1.103973410424199,-1.0357683416517205,9.143780915380333,0.009099723068836336,0.006071865079688536,-0.0037282322765891
1700843528.3372805,-0.7229432846946602,-0.6561073035268546,10.456521755675023,0.011450060993050184,-0.0023968830402354546,-0.0003867116639953
1700843528.347344,-0.5074082423577224,-0.2621630977591464,9.308126039354589,0.013528744236859444,0.0007134858567315358,0.0025629210984702
1700843528.3572748,-1.2766473923785062,-0.11467608388287423,9.95176323241297,0.00925221250960757,-0.005962891112840813,0.0017309532966832
1700843528.3673291,-0.8491943872426078,-0.6714278467139464,9.873478583425292,0.008801263221060562,-0.016452729576016976,0.0039741115877773
1700843528.377386,0.7494215819994127,-1.0720686153236993,9.165595696977734,0.018386916118838054,0.0009458811929924745,0.0031668972922857
1700843528.3873355,-1.475331460968899,-0.42451757217365677,10.192378580032337,0.018723438657751394,-0.009697106288508924,0.003751651686653
1700843528.3972998,-0.8952818815557192,1.2428992714130087,10.378280360023615,0.0038526305911696273,-0.02230464663798502,0.0106950067682559
1700843528.4075563,0.5998164129018926,0.9444311828391729,9.786464822851626,-0.011088849430086561,-0.0024710682099558677,0.0155677255941923
1700843528.417287,-1.0338201477906364,0.04490791901250268,10.060100613623495,-0.015502256022571805,-0.00835164320841166,0.0098972237436469
1700843528.4272554,-1.0256228446596098,-0.6097491780555342,9.75106545319785,-0.015047468177194505,-0.014574508942856685,0.0012865208089719
1700843528.4373438,0.4082386029408138,-1.2572481633628354,9.69410089908121,-0.00864266380355638,-0.004161488327336208,0.0003628904858855
1700843528.4473224,0.12661969442446738,-1.237251334014442,9.68943556697375,0.000865008621759899,0.0013989114880574754,0.0022636883193995
1700843528.457326,-0.2585707204630461,-0.3091667410105142,9.704590193831049,-6.666156491197034e-05,0.002828654710414311,0.001541408896483
1700843528.467321,-0.5935677678810555,-0.408059506156214,9.617753666807031,0.0012106888710728353,0.006762945566101042,0.0029588242294635
1700843528.4773138,-1.650066576986034,-0.4710574489939889,10.029144942830435,-0.0001716768159798018,-0.008673178899133284,-0.0013248726492379
1700843528.487302,-0.45029658228668085,0.009405731101682956,9.586647412274163,-0.0018011705555740934,-0.008527148583812025,-0.0018430614610765
1700843528.4977767,-0.09465664278484719,-0.42563197028330596,9.772508124747631,-0.006458895811246049,-0.005048469030304476,0.001246347685847
1700843528.5073316,0.22687426320920115,-0.43622621390628696,9.822879077853255,-0.0025517844051213727,0.002083964447897785,0.0017742557218666
1700843528.5173194,-0.4825520144388597,-0.5920049276792174,9.911882222844262,-0.003435354620294572,0.002450538584876671,0.0073558493284876
1700843528.5272894,-0.47007320689275756,-1.035744683525767,9.751491943773814,0.0030062953987426496,0.0028748625180794077,0.0012929304037611
1700843528.537323,-0.967508333596575,-0.056946890007797894,9.969402487684906,0.005330923223715501,-0.004976585742667866,0.0054204636952276
1700843528.5472553,-0.5332692607690328,0.3899881879885396,9.7879248512318,-0.007517657042345836,-0.005148334067039224,0.0080929962685699
1700843528.557247,-1.2829399419008367,0.5723727587437045,9.935997895808924,-0.016353534201459487,-0.014323513524179774,0.0070382455131407
1700843528.5672843,-0.7955825850717066,0.2739367246903113,9.95234078957689,-0.02025621532736772,-0.017850518838826893,0.0096791685326393
1700843528.57733,0.27645551997652235,-0.3066408926764132,10.006437924020691,-0.024006873851208133,-0.011208616517450084,0.0096327039180691
1700843528.5872877,-0.04551159537095093,-1.311375322286099,9.555044868381177,-0.015049042298597031,-0.004326276081291575,0.005088887712955
1700843528.598046,0.00973600803886071,-1.3660042204927514,9.661280018104403,-0.007535518781486284,-0.0006221350981666167,0.0003182724002185
1700843528.6091037,-0.3470408619975661,-1.250487139806894,9.531610838041452,-0.002434821221790315,0.00207981944149038,-0.0042943436884884
1700843528.6173377,-0.5278983201599051,-0.844474958637314,9.83415791730016,0.006597496224554566,0.003129298199168261,0.0011654343223567
1700843528.6272652,-1.0808874219902722,-0.4266200747873618,9.994022892200544,0.004079185248036119,-0.0046546888250515485,-0.001557006663606
1700843528.6373346,-0.2731561453275189,-0.292637266926911,9.417445329423307,0.006054357739590946,-0.0028344997589997765,0.0010537227034005
1700843528.6473389,-0.5565002073149905,-0.47889119018003456,9.862156811259343,0.006686174879739572,-0.005462714835208016,0.0015003500273819
1700843528.6573007,-0.5700548015743949,-1.0376843466985755,9.687992913150495,0.011013844974496876,-0.005070052398782741,0.0015826533316071
1700843528.6673589,-0.3331158478934957,-0.7975378581998825,9.631448051768695,0.01617856116270666,-0.004992962903130407,0.0025242472300674
1700843528.677332,-0.5847407825771583,-0.4204138244680615,9.950914349782378,0.015866450661952407,-0.0035545707066108817,0.0023622072302173
1700843528.6932328,-0.5985487759727829,0.3799658287719197,10.070673776469812,0.0079959645900819,-0.008794316704585938,0.0060041845543678
1700843528.6973777,-1.2798240324242793,1.9520257210265848,10.352073059189571,-0.005259751210067784,-0.013721322574049536,0.0095179361058767
1700843528.70728,-0.4561797365605077,1.0648202054274345,9.961453170620459,-0.019057831456802298,-0.013246894108887177,0.0088639390422399
1700843528.717305,-0.5067181763280766,-0.2568181123313062,10.054279056169406,-0.022772997058402224,-0.013706832964275316,0.006077807000875
1700843528.7272856,0.6071691804767622,-1.291783807158699,9.718940263948223,-0.017914939111495526,-0.0024762351986591935,0.0033985246671731
1700843528.7373643,-0.3261437799688539,-1.3118392673454382,9.450421762228125,-0.011681388878067859,0.00012175880811942966,-0.0049220187821988
1700843528.7475202,-0.3449648240831207,-1.4808951046949688,9.705570510127878,0.0016086042167994343,0.002384941691076328,-0.0030556627781693
1700843528.7572849,-0.6166198388469847,-0.8381216390621177,9.857449801428357,0.006612019776867204,0.00013009134920775135,0.0012909727637092
1700843528.7673323,-0.8197712803968957,0.21483486301309884,9.583479242163223,0.0035822681918739534,-0.002943282816566352,-0.0011810554889593
1700843528.777352,-0.7248359975906403,0.21657703263153855,10.01230031161056,-0.004802247764456788,-0.007082491297997689,-0.0018057990120355
1700843528.7879665,0.4257807485304217,-0.18981275511726217,9.927586052475654,-0.010773923134996212,0.0026058404337082094,0.0009541460429686
1700843528.7982707,-0.6045139729995901,-1.1718007957473195,9.564485914647042,-0.0015731767674492124,-0.0015835887811056887,0.0002576452505677
1700843528.8085246,0.07636058335671496,-0.8695137284539551,9.516490329343858,0.0024732262629807416,0.00906106001239007,-0.0011576564749334
1700843528.818637,-0.6614284006061141,-0.9416715250287073,10.136347276969659,0.011417324287471609,0.005243655377268759,0.0001232457696828
1700843528.827541,-0.7252457935891614,0.21108209876235928,9.571647810000545,0.005076016273977243,0.00300902409582087,0.0064285831293459
1700843528.8373165,-1.604172316212175,0.5192353871353215,10.177601338673412,-0.0027015298787221296,-0.009066974873906435,0.0041378415888543
1700843528.8473148,-0.28421649980492214,0.06532877811718564,9.868747038258528,-0.00701996346973362,-0.008448985352788959,0.0069585624849791
1700843528.8572738,-0.6861494191144597,0.6545892843627141,9.94037341298296,-0.01831489538290295,-0.010977927712702206,0.0069380356697733
1700843528.8672795,-0.3305246649071607,-0.5881309650448522,9.76420649940615,-0.019062309842105492,-0.009516253374104739,0.0043314463226492
1700843528.8773282,0.30931245717126926,-0.911968429519777,9.813112726446414,-0.012820208649995403,-0.0021879158752000256,0.0041233329801257
1700843528.8893223,-0.14894041214006376,-1.1795587509272845,9.59772296549167,-0.0073239376510163415,0.0037618104278002466,0.001025732734743
1700843528.8973398,-0.6590191070188085,-0.8579125831414659,9.758772753772707,-0.0071518290776919945,0.0017706176086000895,0.0006967917696242
1700843528.9082067,-0.5158161152987795,-1.4801042084123277,9.763045666927411,0.009543075460752096,-0.00024763657808893206,0.0015962022124226
1700843528.917299,-0.6467539201681878,-0.5847450875460725,9.900765396698331,0.00916832030368317,-0.0012001951458665457,0.0016512803966547
1700843528.9273176,-0.6134281693757043,-0.28473735601383005,9.53192342088096,0.011334937004047075,-0.002943711490890522,0.0029864267679299
1700843528.9372928,-0.26108107290437743,-0.5753744694257867,9.826636935164583,0.009858606371060752,-0.0019095224347148803,0.0022049019579212
1700843528.9473226,0.10655562750229332,-0.278224833662425,9.70368645420943,0.011217194755948,0.005751930660563265,0.0038957831683005
1700843528.957399,-0.8382886335058556,-0.6395758560050996,9.955703149182668,0.011298054104039138,0.0008159629063366281,0.0005652428343096
1700843528.9672787,-0.4981769860945804,0.03589130828229517,9.805045494265531,0.007727012948003871,-0.0005021124850029759,9.528900849589808e-05
1700843528.9773643,-0.17804287409715155,0.022382161195409558,9.839964488197095,0.004646610929448033,0.0049315754302050995,0.0053824764443929
1700843528.9873452,-2.0809139303357926,0.47979452388047306,10.260647176332457,-0.00387717128634134,-0.013945633535281853,0.0026774258120353
1700843528.9973185,-0.42510291495391606,0.6160075922114602,9.441295873545592,-0.014400908119474466,-0.012319791106483275,-0.0004288123920191
1700843529.007342,-1.0311120478227294,0.46904493443885836,9.939164260638005,-0.026699633797902272,-0.017885151334469804,0.0100671873195465
1700843529.0173044,-0.032225984011058806,-1.1243149291228969,9.835783630092333,-0.018221501423343382,-0.016944538671425556,0.0087667546002562
1700843529.0273664,0.8696975892462587,-0.8110313560542014,9.830445405957256,-0.015563526769600659,0.0004097831793677583,0.0095607750816638
1700843529.037329,-0.6212030281235246,-1.4272640147222184,9.917850142307257,-0.008180333295357325,-0.0040222115347567,0.0016385958996038
1700843529.0473225,-0.45406304342052306,-1.9415481229945335,9.543050363206616,0.008920926608393684,-0.004373770694930304,-0.0051105855265264
1700843529.0573733,0.003349759068301638,0.2598340279216683,9.543314640222764,0.0034213532089990683,0.0034257935420850165,0.0004186705781107
1700843529.0673244,-0.9157150369948062,0.4500864428900782,10.101991960284089,-0.0027727410368712426,-0.002434104825039685,0.0054372554412479
1700843529.0773244,-0.44835091450083675,-0.41660775357621765,9.733042898236771,-0.003943211962904566,-0.0035441947888001962,0.0035593447508658
1700843529.0873294,-0.3759522049860387,-0.6041369339071168,9.754687429689925,-0.006106101932619619,-0.0019047627828918717,3.074841228270633e-05
1700843529.0979326,-0.11726689258694904,-1.1447955729665387,9.751247203722366,0.0025834968661380127,0.0014596166268355543,0.0001931718842028
1700843529.1085718,0.04844702508671519,-0.23061986559285563,9.853329189212083,0.0012922972441616872,0.0061668723265455895,0.00313882117629
1700843529.118273,-0.7800068085100749,-0.05601025274964585,9.627485316077681,-0.002121186070300808,0.0038154814525828275,7.099866055840356e-05
1700843529.128195,-0.9691527335631955,-0.026890098437819684,9.796442847647167,-0.006467846112051023,0.0029579006410405864,0.0020357346628229
1700843529.1373248,-1.4450584167730558,-0.01413885845434258,10.4447942061894,-0.009231601274449209,-0.010902085569888602,0.0060198452091212
1700843529.1473253,-0.7068796972704162,-0.2825752665093702,9.498182821825129,-0.010719894568942373,-0.012742321459365179,0.0105189169524605
1700843529.1574504,-1.0252070710972971,0.16232718506584648,9.833436383113888,-0.020244443713748353,-0.02054379752261384,0.0155937681673462
1700843529.167348,0.5050573551880027,-1.0680719492478126,9.396287590440188,-0.01003714042773069,-0.009470229540401737,0.018856524559706
1700843529.1773598,0.03204075923230387,-0.9882102147435287,10.205917762565877,-0.008241693995878508,-0.003829004405695948,0.0149785755901034
1700843529.18759,-0.5137837374742303,-1.1211912288503652,9.695163195855553,0.00270679209253188,-0.007837949068746027,0.0067407792201633
1700843529.2008462,0.06509798593389382,-0.7893404704583442,9.854818757765612,0.003127006755832327,-0.0032960992838927936,-0.0021045784698431
1700843529.2073166,0.4266240344687668,-0.1774737581867945,9.234054133017652,0.004572852452315852,0.007410024374233084,-0.0015590762951974
1700843529.217311,-1.728186526475443,-0.43055752344636594,10.064589071570193,-0.0021177981017998,-0.005416172534271196,0.0008835792949325
1700843529.2273104,0.010481497759375886,-0.5414449813112192,9.949601490666362,0.003188437054471555,-0.005939200387476586,0.0034573106794054
1700843529.2373445,0.2781584335921588,-1.2435561620711124,9.417740381239547,0.010960508705570025,0.0059442350525665604,0.0022783941356833
1700843529.2473612,-0.8998959942691896,-0.6043061703260997,9.781599883455067,0.011280580223125256,-0.00043461523058468694,-0.0037745297187571
1700843529.257318,-0.29691868366515006,-0.042723267748983586,9.972340336217178,0.00889524138862436,0.0023980419180442015,0.0016147692921008
1700843529.267312,-0.7396126054366917,-0.11143542092347958,9.849262594624637,0.005614775492078339,-0.003415616758956488,6.759188258046014e-05
1700843529.2774434,-0.4526085394846249,-0.03412851097676794,9.76614730300574,0.003255886453116737,0.000206117248213086,-0.0031908661359552
1700843529.2874072,-1.0308904288492158,0.5007422895373234,10.204067314791136,-0.005310423460977731,-0.007784673546169702,0.0040313439211245
1700843529.2978532,-0.36535255282607937,0.015211576232413258,9.738061403292962,-0.010514580691486704,-0.005757119414165574,-0.0001957896048766
1700843529.3073592,-0.5373221006252069,0.022130280675254403,9.771876849165874,-0.014192537667697009,-0.00813238870376223,0.000994854501951
1700843529.317336,-0.33160895407031743,-0.5390604093461452,9.726391286775971,-0.016584942957852022,-0.0054580235824491724,-0.0011718136258055
1700843529.327388,-0.910191080557957,-1.097366674737369,9.858635170035557,-0.010471430110122262,-0.010524634996263618,0.0007979245100072
1700843529.3373845,-0.11126169366512256,-1.1288275783409434,9.9409238105139,-0.006204458596906407,-0.006058768946724038,0.0014158272068384
1700843529.3473992,-0.13084804069858236,-1.518241622345315,9.732572059726005,0.007391008980998602,-0.008043551242812525,0.0007796489925026
1700843529.357346,0.3529232570039701,-0.21886118034956417,9.141935598842938,0.0038926306330839358,0.006924603273473497,-0.0015784969320152
1700843529.3674324,-1.0565942474950107,0.20863814170054926,10.150934493071132,0.002881544197814079,0.0003591415178519369,0.0051642214646931
1700843529.3773594,-0.7092024626052532,-0.4538622562239047,9.94444356857219,-0.0015876522087049506,-0.0049136704444104964,-0.0001294425339069
1700843529.3893175,-0.2839697657572661,-0.5097571277010395,9.530745645940772,0.0016421162269585122,-0.0013868709623529236,-0.0005786935099963
1700843529.3973916,-0.4739467093958282,-0.4167517268696483,9.850306396157256,0.0003773980131476311,-0.0037017658972668174,0.0027461357647921
1700843529.4073591,-0.5399286851764808,-0.8623771750329301,9.010462068296084,0.0036522835303857267,-0.00668012773201742,-0.0007556952070076
1700843529.4174387,2.435896856587378,-0.5627850100707225,8.412498141004972,0.0020656971383253373,0.027158900111899666,0.0034215076128389
1700843529.427355,-0.7384345459162315,-0.3333541392390834,9.591481861749692,0.0073568353282735185,0.0309770386851229,0.0126263881801064
1700843529.4373405,-1.4341486016941563,1.0905988251240049,11.903838497152448,-0.010382254847165427,0.00659922182217864,0.0242026383756096
1700843529.447359,-1.7598488459808221,0.0905914320442834,11.064752794836691,-0.013882555405148047,-0.002839804158556627,0.0308310865192111
1700843529.4574244,-2.170693924831988,-0.5495560579304424,9.913882999897965,-0.008357127664554253,-0.03297402593650667,0.0174567541806395
1700843529.4673665,1.2425936262460429,0.2532088047835395,8.671637382746164,-0.021263422428214666,-0.0036750983233564665,0.011871125618964
1700843529.4773922,-0.27324668457296375,-1.498500374678218,9.968046185160432,-0.011632639695508968,0.006426460960546161,3.872309465849502e-05
1700843529.4873495,-1.6347281607037456,-1.3015115257753205,10.400021994536356,-0.00408567066739216,-0.012890727802250767,-0.0097825703443591
1700843529.4973948,1.1124459950278676,-0.5654568850977609,8.994923393239922,0.0009823676987738585,-0.00043468621356203166,-0.0011318250791732
1700843529.507407,0.01869570221067456,-0.8961005335330715,9.621791918207697,0.00030993357869840243,0.01411328645543247,-0.0019024465465549
1700843529.5228393,-1.4297395908347614,-0.648410046267185,10.308089341156018,0.008673159105701388,-0.005661725746182355,-0.0018595013999943
1700843529.527347,-0.008043658865368862,0.6092676754236596,9.699810278024474,0.0010006260290264487,-0.002271236587131179,0.0023654251825432
1700843529.5430498,-0.2929564716626731,-0.15169018700065368,9.54882545401046,0.00048504472020382,-0.0015377317634060954,-0.0009393116226051
1700843529.5473576,-0.17095096139076435,-0.40910408733878195,10.021259105833423,0.0004079300849901892,-0.00014822828075361196,0.0018241179176043
1700843529.5573788,-0.0577603401235392,-0.7641762890534977,9.683453165564318,0.004177506373470526,0.002363051251514394,-0.0008610657415915
1700843529.5674102,-0.45028691922883524,-0.5702442979226334,9.579433938569496,0.004704719868353143,0.0052832266904333245,-0.0028544745174799
1700843529.5773811,-1.035803036907384,0.5430868543894707,10.211223757901879,-0.0022641948199076194,-0.0017646663642088773,0.0037188207032527
1700843529.5876243,-0.8020665279850981,1.0622650924312307,10.20775050246979,-0.017122132972461887,-0.007077343508098014,0.0045544049470122
1700843529.5976858,-0.6382989794754489,-0.6681299875804884,9.488625013131331,-0.017992350598962713,-0.007406707580151285,-9.727866850836473e-05
1700843529.6086717,-0.7410331397175983,-0.7352556186142553,9.752866562946421,-0.015570176776119266,-0.009982305863432519,-0.0043308152118329
1700843529.619959,-0.8614349479959726,-0.6112540686324548,9.910604127658496,-0.014787245460930633,-0.01563232585300347,-0.0022654053056244
1700843529.627398,0.3293298870149204,-0.9887777292445161,9.767069678574416,-0.012205128040468687,-0.008777525012930698,0.0025829752674694
1700843529.6374178,0.11783983043879961,-0.9302987800798598,9.494182551794081,-0.0058509527847901335,-0.00025921220685770375,0.004516702215224
1700843529.6474028,-0.2004507551919341,-0.5761247702982027,9.648212939164445,0.0015754291713317265,-0.005008589199783865,-0.0009035888826106
1700843529.65743,0.4957818043052972,0.18374438105209417,9.593671521206563,-0.009935595840795196,0.013107483041476034,-0.0062968082958464
1700843529.6673765,-2.172993765231129,0.18464878940540844,10.230272104916935,-0.013470707181518932,-0.00658211281854536,-0.0043861823388938
1700843529.677397,-1.103342016038175,-0.549867531831515,9.910979999589784,-0.01410093934051536,-0.017241704388801713,0.0022795150988172
1700843529.6874716,-0.15669766230864896,-1.8445998228448635,9.30307852732769,-0.00241842096575804,-0.011745062500822145,-0.0004120826953653
1700843529.6973748,-0.0059120371774953415,-1.530948116852653,9.701368787761849,0.010209962927258166,-0.009711352969463377,0.0015787991695474
1700843529.7073874,-0.12069738543683953,-0.9189146555315861,9.768388867631941,0.01647696980388223,-0.007744078519321168,0.0013075188734005
1700843529.7174666,0.25414286679644693,-0.3804366664141998,9.895768292649203,0.01640057167091484,0.0006337303554802223,0.0054411008721585
1700843529.7274115,-0.5849161147181446,0.7090075134820629,10.17826667689364,0.005282169023910158,0.0009629792612826991,0.0064057945972676
1700843529.7374437,-1.3850198183919666,-0.06380169384580184,9.702788726795784,0.0038292738421974366,-0.009628333180441716,0.0058243121719356
1700843529.7474098,-1.4435992872405299,1.321121917451265,9.89863577494155,-0.012914994888996093,-0.017648311089934757,0.0005177767678473
1700843529.7574306,-0.6465937600927018,0.4023470387695809,9.919008988680167,-0.02248922770887031,-0.02529540007918377,0.0009310362046021
1700843529.767431,1.3029192109778405,-0.4401695296610778,9.825018123611313,-0.029234973079474945,-0.003908013217341032,0.0011370167020145
1700843529.777424,-0.39289716443252404,-1.9733821037736485,9.768779191400576,-0.009353369921167375,-0.0035006001984141813,0.0059388261987264
1700843529.7873871,0.43248681038520165,-1.2338003419432657,9.762021986998604,-0.005873352311788276,0.002130513846308154,0.0015151473461087
1700843529.7975476,-0.4644293306785492,-1.534142228014235,9.397973783419769,0.006774750588075018,0.006665783339434982,0.0019897894934187
1700843529.811713,-0.4998304028306078,-0.640357087491424,9.919123861684433,0.010258288088835997,0.0047670423861655535,-0.0014320664805923
1700843529.8180344,-0.6004306517849782,0.3731045110395603,10.014317319386896,0.006178041572120914,0.001726689199982038,0.0002244710165909
1700843529.828506,-0.8071767651992973,0.19572496306618611,9.547528946651937,-0.0014301556341851094,0.001172379574977834,0.0007869968656818
1700843529.8373954,-1.1265565027531916,-0.8909032316078247,10.316393643361787,0.00034312031138853506,-0.008452277131599104,-0.0005570304812495
1700843529.8474116,-0.18850406631037944,-1.0616642659193503,9.435463140558765,0.006962605628975597,-0.008185128777783787,-0.0011192458215732
1700843529.8574088,0.5375033246633595,-0.8421066588166496,9.640521775189454,0.010345932073318024,0.0033590467986862795,-0.0012902670306716
1700843529.8673828,-0.48113135139129876,-0.9259959861967356,9.806969375837381,0.01706858081444054,0.0043693479999623195,0.0009746991098295
1700843529.877623,-1.33108730595315,0.95526557561895,10.155017178304636,0.00624470982565747,-0.005289898392745069,0.0008152088092542
1700843529.887394,-1.0762161971651103,1.42909486535354,9.9380825381927,-0.012651810794106554,-0.012303115791010706,0.0028224429814513
1700843529.897837,-0.8399087509401663,0.6975036403008789,9.703949059054777,-0.02731587790042735,-0.014001114081797187,0.0004715215016772
1700843529.9074223,-0.8080063885594622,-0.7045973405698529,9.713999128014935,-0.026141432683822498,-0.01994967593432549,-0.0017387898871306
1700843529.9174275,0.18172918034196972,-0.71414291532746,10.156845246730976,-0.026110217813947255,-0.015987719723002083,0.000637608344587
1700843529.9273736,1.0034997452943404,-1.8010798262079015,9.587535907499177,-0.009050202712920938,-0.0008020701732714707,-0.0012076028389488
1700843529.9373858,0.04371474175137718,-0.9998650981923051,9.761907460145792,-0.00659745533888241,0.004834740665030772,0.0005218005761348
1700843529.9473798,-0.5880055595337391,-1.187092808253365,9.600830595579174,0.0013027308988265195,0.003999162716791297,-0.001905235159174
1700843529.9573822,-1.3596938887706638,-0.6666205392799807,9.632532708480928,0.006286384375051074,-0.00255469992314308,-0.0037545970873538
1700843529.9673932,-0.37674077164277825,0.09192102204106033,10.217944723360095,-0.0015731766520584764,-0.005882549029099818,0.0024961801944668
1700843529.9774125,-0.04303569284356918,-0.23134725825445898,9.595600155252313,-0.004062418214072736,-0.0029343681100626406,0.0028035098920013
1700843529.987411,-0.016004220733094664,-0.8276874982091432,9.730011896015744,0.0016805220548331786,0.0025812767878398606,-0.0012406969209764
1700843529.997507,-0.6384633655878649,-0.7491232504427634,9.87370935484199,0.0013079390294912278,0.001915218806668902,-0.0007120856782053
1700843530.0074787,-0.4930062758672189,-1.1048526972055275,9.67943778524927,0.008311509669016535,-0.00035307080029561806,-0.0026704244548086
1700843530.0175138,-0.30714107834076526,-0.6421099446968405,9.49101527438873,0.014276822689996187,0.0013723340692793034,0.0038314136444027
1700843530.0274131,-1.8054673898231797,0.6351441644295315,10.146660036151703,0.0028384590942681777,-0.009721450371990646,0.0032138822833444
1700843530.0373874,-2.6276109482391363,1.3719972715133644,10.002724195103003,-0.01559374596567953,-0.03762987942694452,0.0071007125778491
1700843530.047463,0.5711301321302987,0.49775588421798517,9.646980602080873,-0.02676008134588482,-0.02734005375640169,0.0137666185154016
1700843530.057442,0.4868070876951396,-1.5390274269348398,9.77048458455099,-0.013511939849537595,-0.01807973481815783,0.0130922804354126
1700843530.0674822,0.8080316401812705,-0.9722613366891516,10.301128856231134,-0.00958183948582119,-0.006544509663361203,0.0119937733514602
1700843530.077551,0.004264300152261004,-0.602596272923529,9.73499799975415,-0.009423824765274475,-0.00339081037592565,0.0037363051204379
1700843530.0874124,0.028166351104568284,-1.6302173729743117,9.147165107436624,-0.00039561701411689566,0.006329215067398513,-0.0048528564395014
1700843530.097428,-0.8839653668158212,-0.7565684825971547,9.878784132957092,0.00585727777026272,0.0015546027544199815,-0.0013211943907295
1700843530.107411,-0.3973603581337433,-0.29083818896070673,10.160924567125965,0.0015418986458783342,-0.0023315670421068,0.0045678048162157
1700843530.117386,-0.3806566598655154,-0.5276632672581513,9.286497937044633,0.005305154660221461,0.0019670754428765844,-0.0009870038367439
1700843530.1274333,-0.720557021635522,-0.3163933125372757,10.141102756078114,0.0024922400821826124,-0.0002160207049756159,0.0009281515493425
1700843530.1375246,-0.5951125505605308,-0.5082459350806491,9.928889132019695,0.0027392159234333148,-0.007688203022917352,-0.0004121365374517
1700843530.147505,0.3393416935747002,-0.9185396124225276,9.495348332232329,0.007494549456214722,0.0029281293155264524,-0.0017871611518417
1700843530.1574202,-0.5183637356540985,-0.6085411198058817,10.049954417813165,0.007020322139561133,-0.00015898648561178417,0.0001138036430715
1700843530.1674008,-0.47706284052880427,-0.27523956975543723,9.262320001973572,0.009024854931151027,0.004334830001388294,0.0028408147162194
1700843530.1774142,-2.2486698640580225,0.7106173099185946,10.6594048781861,-0.0015558578657508646,-0.016378288506501217,0.0046200096374745
1700843530.1879284,-1.0227252991975833,0.8200837001700626,9.737519934944876,-0.01431703126058955,-0.024284766740195127,0.0091707241488988
1700843530.2013235,0.12849978118953956,0.2612900083027885,9.471916835832731,-0.025471280719591642,-0.01650754131048406,0.0057164501166339
1700843530.207376,0.27780042412315886,-1.1776982373000624,9.666639745181776,-0.017847525355894588,-0.011941430898678563,0.0067796842893953
1700843530.2173858,0.37924216093035845,-1.1537275184096352,10.006870089514244,-0.011895654361739519,-0.004858022402786504,0.0140709859086568
1700843530.2274818,-0.040710597625565025,-0.5151922959069094,9.943439966457646,-0.009234626216510678,-0.0031784216443131643,0.0153498752741511
1700843530.2374823,-0.014757853876010713,-0.9264711816582937,9.365908723934034,-0.006189304398112668,0.005103017131956687,0.0103672100929911
1700843530.2474265,-1.0091631300477966,-1.549318456433916,9.917892016443433,-3.429956028148448e-05,-0.000659213729275784,0.006969116698056
1700843530.2575252,-0.7491475701193199,-0.6607242990799741,9.768494833459755,0.005583474072340058,-0.007225882292769331,0.0057666092878575
1700843530.277448,-0.3504147005463969,0.06394716133478891,9.819009729984323,-0.003277490839844275,0.0006277688962384698,-0.0008867560419817
1700843530.2874455,0.01762126254836408,-0.5239955711898591,9.86347989664622,-0.0017914570781512077,0.003794614648280142,0.001687811524644
1700843530.2974637,-0.8768490216386801,-0.5445100444122588,9.648922815926303,5.179200769533129e-05,0.00016060839940110848,0.0032039604382957
1700843530.3092082,-0.020997030695790155,-0.8455657455356995,9.802425744264731,0.0028695667072144927,-0.0010508323467149742,0.002881009201556
1700843530.3174338,-0.44187905604678035,-0.5679827809251096,9.71328841201661,0.005329047741144899,0.005125676507195141,0.0016202844679723
1700843530.3274634,-1.934753523114063,0.9447302623767161,10.450037043739451,-0.005855232927903994,-0.013326180749609355,0.0069168979069586
1700843530.337471,-0.6674195356109761,0.3285966786339754,9.5092862093038,-0.017598268694951354,-0.01731184598443824,0.0051125349244471
1700843530.3474855,-0.32706444175018506,-0.035942061977394094,9.404144982539558,-0.02325054127134049,-0.011181892071820076,0.0109951524762804
1700843530.357412,-1.0367238791172484,-1.3032955062573242,9.997361029333383,-0.011280625422732145,-0.022158865894640303,0.014866235735863
1700843530.367412,0.5578498568633072,-1.686388844225192,9.992443792496035,-0.003888549882874646,-0.011251962763648196,0.0160824070452149
1700843530.3774953,0.028159652515230244,-0.6034489710727984,9.762903778199593,0.0036923560953515577,-0.01162490194791038,0.016818338143676
1700843530.3874917,0.868828484038609,-0.44187794681143644,9.488286071770746,-0.0019375818241469179,0.002698297647264248,0.005308321281373
1700843530.397518,-0.11899891339122529,-0.4488517801008466,9.939923774279407,-0.003147137744408222,0.007446898232339422,-0.0027166220126305
1700843530.4074564,-0.6507708342850319,-1.1814499132468832,9.606475133623762,0.004851428612310037,0.008858060353638435,0.0020900702337171
1700843530.4174297,-1.401682518518232,-0.9019115404538377,9.96640705861774,0.009260721594377385,-0.004404668049481207,0.0032680733828242
1700843530.4274435,-0.35641442166804255,-1.5443525756833052,9.489347412395775,0.01920163583933271,-0.004893764603151151,0.0042211698135729
1700843530.437506,0.357952005914998,-1.2133107272516785,9.67061601613453,0.028718630556933095,0.0002770193482713003,0.0016540366458143
1700843530.4474597,-0.7441063391748695,-0.7175831781596829,9.586535491889627,0.029848992163582288,-0.0020159532609457503,0.0050015785498912
1700843530.4575417,-0.804245545800631,0.5996081886741216,8.928968559834022,0.029021820167517635,-0.007221562090202245,0.0057113474002476
1700843530.4674592,0.006514918935544976,1.51989501099878,11.084748901101793,-0.0037598573733576925,0.0004949381996917923,0.0106842397479708
1700843530.4774544,-2.2700820450445973,1.034346772045143,10.103986484978769,-0.003896887204318375,-0.018488645595686807,0.0110088429181273
1700843530.4874587,-1.243329201049601,-0.005304481545718434,10.520848031500872,-0.020771194976005315,-0.03147251543096839,0.0082473448245223
1700843530.4988823,1.2609354655128966,0.29413488770376006,9.31349645316164,-0.0223991907358286,-0.014929118345727776,0.0146565475268657
1700843530.5075388,1.0901165241221986,-1.3165630391942447,9.572695520271438,-0.01854340857836622,0.005930016490622341,0.006577409408092
1700843530.5174258,-1.0149458670835698,-1.1498331648685398,9.940309673781872,-0.01389973920824555,-0.006009710064143552,0.0013443014584849
1700843530.5274062,-0.18066550234624035,-0.7222073984362213,9.705953458916138,-0.016998538338034986,0.001090289442544403,-0.0016834479057793
1700843530.5375645,-1.031615799702845,-1.4126118730150121,9.681031118721826,-0.002931791019619987,-0.00563893122163958,-0.0026488301111017
1700843530.5474396,-0.6222061986198881,-0.41972600383621644,9.90156633064358,-0.0036641872459922528,-0.008021999972069323,0.0002144635480731
1700843530.5574603,-0.07713634160968486,0.06388559505123007,9.629293683247049,-0.0062904704103029585,-0.007820131597228011,0.0011419916525851
1700843530.5675411,0.37102822902542365,-0.7508093334818501,9.80416940859954,-0.006429092734965247,0.0023887029289625483,0.0002646434703278
1700843530.5774913,-0.5387942816524905,-0.6866784205840784,9.875452133852683,-0.003480132460220568,0.00028841199103323944,-0.0021399799035493
1700843530.5875385,-0.2762589952311103,-1.1955723824273397,9.629436950680024,0.003104667908745179,0.0013206677084750243,0.0013256607461157
1700843530.5974894,-0.0225775011412064,-0.11119408857711019,9.860315825989572,0.0018644807071075036,0.005310455216637171,0.0001506995875756
1700843530.6074777,-0.5662296975062464,-0.9275567598663114,9.79635845381584,0.0047438189558086435,0.00692382880915094,-0.00422992689997
1700843530.6189172,-1.506889313675266,-0.18333622444562878,9.778419633883804,0.005735862769876403,-0.006916346586169449,0.0024260071339453
