time,ax,ay,az,wx,wy,wz
1681944039.20897,0.9476037064719879,1.6221678961488002,9.526602972844556,0.001997403129790302,0.0015133466147949867,0.0002385878155701
1681944039.219064,0.6921083066401037,1.8900519534354183,9.763572752493177,-0.0021469225033394273,-0.0022544421698470793,-0.0028578677761605
1681944039.2290096,1.0627203176893205,1.6358592487926467,9.475933965092977,0.0023658723015223624,-0.0005084137857193983,0.0002884990221583
1681944039.2389956,1.0580699591427354,1.924559308732635,9.580640276210431,-0.0015926250467057713,0.0029158737282814974,-0.0011986628256044
1681944039.2491355,0.8752317386363149,1.6791182768535422,9.593270969731702,-0.0004675964157348945,0.0024725965047886294,-0.0027978826861134
1681944039.2590213,0.8643941167811334,1.8353943563193986,9.654553631034922,0.0003031688746749468,8.468770159168797e-05,0.0009765862173163
1681944039.2689874,0.8626149973351349,1.7145232444025926,9.600840233420369,0.00033633655703954195,-0.00014440953109385354,-0.0011758810456148
1681944039.2789738,0.880884869297105,1.8382775895347578,9.641093172007997,-0.0008244520513199796,-0.0009572969150947189,-0.0008413646451434
1681944039.2889988,0.9751540314785748,1.813503983495673,9.58300820702533,-0.0015609627106683956,0.00045271722205347706,-0.0006960843771002
1681944039.2990482,0.9282648246403795,1.6592948642423933,9.575818940727126,-3.432919663781348e-05,0.0012410141206891634,-0.0026857491198233
1681944039.309033,0.9336174380090656,1.883908264925187,9.628202215945212,-0.0016198329968765083,0.0013151282891909228,-0.0015905300702205
1681944039.3190634,0.8886450383665233,1.6991755129510608,9.602864879371523,0.0012616905040014753,-0.0002707060582345093,0.0010022887413152
1681944039.329013,0.958017295368007,1.6906837679366375,9.546015146841953,0.0025241798883943764,0.0010789819578099873,-0.0001410027348673
1681944039.339084,0.9416509384344464,1.8369902628245578,9.597224634680616,0.001344384851211572,0.001789748616413821,0.000249394882726
1681944039.3490353,0.7163182801924178,1.7881904413514758,9.69987553816172,0.00015305312691367946,-0.0016502085030538946,-0.0016769500530562
1681944039.359019,1.0426358954606567,1.7626912961232597,9.534596544652928,0.0007804011208266076,0.0008401608438640069,-0.0010101230896315
1681944039.369027,0.9844645486240051,1.8188217591665374,9.578881195148355,0.0018048487983023083,0.001211202708886614,0.0024625896744192
1681944039.3798845,0.7839736892565234,1.7952479223853735,9.678287342223511,-0.0007585410569306781,-0.0003049674424553803,-0.0016944458789429
1681944039.3895147,0.947004544876267,1.7062508949667725,9.54857893141132,0.0030956661393179326,-0.0009178294020208606,0.0030366596451723
1681944039.4020069,0.9470819670294475,1.8720189134273313,9.6329517741137,0.00042721668400103627,-0.00011573153955627525,0.002175371305807
1681944039.408995,0.8293742011098247,1.6399346534101782,9.585059108471219,0.0008899161347376459,-0.00011650226174083811,-0.0007448817218891
1681944039.419088,0.9302661028051893,1.8098302950626153,9.618887925249926,0.0016532252656738305,-0.001235569234613259,0.0023892186267995
1681944039.4291131,0.9878562248155017,1.9455192781017279,9.606756274136508,-0.0019517454705948482,0.00044602416671641037,0.0024339146598004
1681944039.439046,0.7811266612239637,1.615651892074555,9.616854712314245,-0.00036252185195970567,-0.0013279426908685615,-0.0009967071551135
1681944039.449012,0.9547012645072699,1.7152639029827372,9.547318480197081,0.0008951339514285017,-0.0003228747156966196,-0.0011036183300665
1681944039.4591508,1.043531191186096,1.8404949343252066,9.568238161806033,0.0007337970883412873,0.00152414171412493,0.0010596429032967
1681944039.4707675,0.8846594513372011,1.6471581881983572,9.581305222668943,0.003051323438127771,0.0012275819270098536,-0.0004431550937942
1681944039.4790363,0.9051371863979663,1.7588865103012346,9.595723867974037,0.003043143493474764,0.0012797678672804198,-0.0011956043622693
1681944039.488991,0.8888652943989461,2.086852647598004,9.725985585892714,-0.0019744652425742787,-0.00013064768856267501,0.0015193533012871
1681944039.4990144,0.9713993716175621,1.5894617426015882,9.51166225964066,0.0008541271423012756,0.001599030845809897,-0.0005150257225385
1681944039.5090628,0.8978541094122292,1.9595080864348402,9.682514280587837,-0.0016403217439822366,0.00022921472755046935,0.0015763445821586
1681944039.5190885,0.9664896034975957,1.6123806949267594,9.511164140412452,0.0016908288945684915,0.001540903636255722,0.0010089777328767
1681944039.529078,0.8769518810202979,1.9383801911510672,9.674633606879596,-0.0002977169805277457,4.9302834170912476e-05,0.0031174861046248
1681944039.5391078,0.9749155851951795,1.698736305534042,9.5451078906744,-0.00023214212903509217,0.002322463739607593,-8.696134549145834e-05
1681944039.5489995,0.79836256516303,1.8491965435571203,9.67306264884993,-0.002214014550464595,0.0003469451843223081,-0.0005328982684067
1681944039.5590162,0.9625284385433565,1.6586812980116528,9.537726835841449,0.0003463782136777247,0.0010763540401087823,-0.0001652195665291
1681944039.568993,0.9170927910624795,1.7319020272615027,9.596069540485372,2.4899910018207657e-05,0.001804662108719701,-0.0026313524308851
1681944039.5790372,0.9274928138099918,1.857986658511017,9.61537847512149,-0.00015166401559763755,0.0011717080429565416,0.0001592434395798
1681944039.589038,0.8708341656184624,1.8224365845058357,9.653812525805673,-0.0015289234995218455,0.00046464452245494276,-0.0007068956352076
1681944039.5995848,0.8570047008401699,1.6337392885052742,9.584526070507094,0.0022082877354533707,-0.0011614214462493935,6.946417621756656e-05
1681944039.6089976,1.0018993785735344,1.9629352320551603,9.627988877552825,-0.0010185782435002267,0.0003223472378807043,0.0011836844182335
1681944039.6190028,0.9162167773787881,1.7109880003706583,9.566241868189564,0.0003687417698391874,0.0004847696181515036,0.0011028792627849
1681944039.629162,0.9953278768825606,1.7417841642387026,9.565822819544692,0.0008492667979250305,0.0023027323495283143,0.0004416146234371
1681944039.6390855,0.7856869481629252,1.8482980004204481,9.701804305832026,3.011011295126262e-05,-0.000928599318344681,0.0019064074999415
1681944039.6490536,0.9538650575066323,1.631266920206387,9.526427674403044,0.0021062117604854734,0.0005034076650958026,0.0006539649015986
1681944039.659198,0.8566904237792403,1.8163125243981968,9.654218269169267,0.0004756500438877084,-0.0005717033346924112,-0.0004610115743479
1681944039.6691597,0.8352179922284568,1.8296977576299844,9.660292164971555,-0.0006672661595955788,-0.0020662954327882455,-0.0004945445421389
1681944039.679084,0.9602765540374589,1.7364839090586097,9.559526921453491,4.799040177062616e-05,-0.0009949076919807626,-0.0007564298889837
1681944039.689164,0.8607946626141292,1.817699872118966,9.64700997758483,-0.0008900421570691877,-0.0024064281758505563,-0.0005489330820045
1681944039.6990578,1.0433165230049213,1.7419546018870704,9.516125393150782,0.0008615899807794212,-0.00021259072863586946,0.0011833201546915
1681944039.7090151,0.9220450814977709,1.7662757582313786,9.61112571037993,0.0006146143338923256,0.00016700510361231127,0.0002471657621436
1681944039.719083,0.8857356975395275,1.9125402477777569,9.673779904806885,-0.003041389663563556,4.443544673343646e-05,-0.0010201764839938
1681944039.729107,0.9042336757112316,1.7130279162683597,9.592899855483044,-0.0016999109576903478,-0.0003433818743937759,-0.0009836858685365
1681944039.7391024,0.8994016596781115,1.6509376485354994,9.566127542810023,0.0004998555050829405,-0.0003228868240589704,-0.0017566840711287
1681944039.749032,0.9320313968477484,1.8748853911560561,9.629749385195076,-0.0011273388157419851,-0.00015001089659200326,-0.0011364013503543
1681944039.7590568,1.0062679110837935,1.8432659180020898,9.587322016914362,-0.0033498546149783688,0.0019640746235222994,-0.002290871142154
1681944039.769067,0.8281380809661388,1.7663029032904942,9.62856868889291,-0.0024836941453994475,-8.819784349704639e-05,-0.0010227972257188
1681944039.7790549,0.9121546396136383,1.721771665846478,9.59113023111309,-0.001983780300542907,0.0002746609608099092,-0.0018796039826474
1681944039.7890377,0.9490979752390954,1.8672394565312869,9.617531701067195,-0.001612382541970187,-0.0004800824502003467,0.0023698378040217
1681944039.7990143,0.8954361201115065,1.5971601776578113,9.54829858813155,-2.801641310067578e-05,0.0006971170972504866,-0.0017633737611821
1681944039.8090203,0.934586534404996,1.607735880342604,9.530921999238391,0.00301779152179848,0.0014455329737405702,-0.0025009812402776
1681944039.8190105,0.7463951981271671,2.0111085850856103,9.76217700794021,-0.0016138451971293214,-0.002021610979281761,-0.0021444690960696
1681944039.8291607,1.1160723934491497,1.6376275717380928,9.455683321075073,0.002336789153935168,0.001436623764705306,-0.0004181420977464
1681944039.8390949,0.8639737948428177,1.8573555353334854,9.644411954110884,0.000837003628117262,0.0005402872322300868,-9.629506033425468e-05
1681944039.8491118,0.9335716721811018,1.878959670360987,9.623573500294894,-0.0011087084410189008,0.0008461193222180761,0.0002330022084289
1681944039.861945,0.8861584933463307,1.7104979536559313,9.58959476637726,0.0008671955305332718,0.0003443177177038209,0.0001234804198839
1681944039.869035,0.9632542423434631,1.9358429900295533,9.622033566197112,-0.001427220759353748,0.0011057793598932533,0.0001585080439918
1681944039.8790293,0.9008647308792556,1.7009355394613959,9.591826667093105,0.000620591097310656,0.00021057611480314306,0.0014664611639683
1681944039.8890448,0.8877440880637131,1.6861159335691198,9.592559248655835,0.0012609282650425842,0.00023744158082961026,-0.0009084175422093
1681944039.8990817,0.9230374914044601,1.9587928533326038,9.66046255288626,-0.002047110400424017,9.547828752214725e-05,0.0004714278888651
1681944039.909044,0.8900646197558697,1.6918852304181844,9.586118266773294,-0.0011593815178855666,0.00023701839146807204,-0.001080542484974
1681944039.9190888,0.9709165626109573,1.7412460055788759,9.56198216844401,-0.0010446375238104834,0.0019626083196324392,-0.0021302999544194
1681944039.9290206,0.8981445597340124,1.9724259996903686,9.68023468251556,-0.003356931632784816,0.0006970863775944365,0.0010164205718548
1681944039.9391062,0.9461071881399387,1.578448120157976,9.5141430205181,0.0006422169104205555,0.0015565298434556188,0.0005210077774473
1681944039.9491572,0.8516834255598908,1.9069375392465011,9.681660922269877,-0.00305704830293635,0.0006449405597637963,-0.001004910710012
1681944039.9593215,0.9720233205467446,1.5482937790197835,9.495298566162578,0.0016740663633192578,0.0022010299221080646,-0.0015204804099402
1681944039.9690845,0.7847019295774793,1.8071384643106718,9.690779876061127,0.0011979880194701615,-0.0008772003680882073,-0.0012530159752122
1681944039.980941,0.8903431477714815,1.7349349321211762,9.592617421330791,4.766593308916377e-05,2.1350336428948496e-05,-0.0050963886629096
1681944039.9904056,0.9262953957871594,1.9143327904708434,9.650470213768182,-0.0013109906608453044,-0.0008220741264548312,-0.0023720885242572
1681944040.0010233,1.023821017553685,1.719599659998852,9.51374031182333,0.0008895482627371372,0.001111725483028805,-0.0007910820736787
1681944040.0117786,0.8531795145404515,1.9563308680190516,9.691723936049401,-0.0021894113915461185,-0.0007728970375478432,0.0005496543285199
1681944040.01915,0.9991959423018268,1.6592469176971467,9.520178263766612,-4.253040960035185e-05,0.0005339437557276191,0.0008014858153411
1681944040.0290291,1.0425724660134306,1.6033406134785022,9.466656190867312,0.002460131264463914,0.0038643559654808193,-0.0007906850974312
1681944040.0501404,0.8050299108996868,1.869124025685328,9.69907318337803,-0.001305401062453436,-0.0014542351533462555,0.0001294529915549
1681944040.059042,0.9838696490980738,1.6290596572156841,9.516524562566119,0.0014617464782122854,-0.00017125971775746793,-1.9940811885048315e-05
1681944040.0690494,0.9051039360955736,1.8861256956181742,9.652850294255302,-0.0006594390936941063,-0.0005959251574756465,0.0005522730911844
1681944040.0790782,0.884714935499244,1.7388704034252713,9.605762866996226,-0.0006635474764870564,-0.0005415485028747177,-0.0008767586282691
1681944040.0890749,0.9850544976428676,1.8334501140277624,9.5730047608233,-0.00034876496363352014,0.00017371761579246383,0.0016773046713434
1681944040.0990703,0.7487328955388559,1.746129995007423,9.674605471117603,-0.0012841734952444563,-0.002174326144716335,-0.0012813209637305
1681944040.10911,1.1158549939160842,1.8050443816310693,9.494164710969406,-0.0007790212832602018,0.0013754890707600167,0.0008227290504374
1681944040.1190758,0.7727546430906713,1.7127709033885068,9.66435817764948,4.427555363134996e-05,-0.0014203440029968437,5.121805358166559e-05
1681944040.1290786,1.0725402193275175,1.7953828396322085,9.5143919791167,4.724300200789323e-05,0.0017301354072816397,0.0010045050562121
1681944040.1390746,0.730927227234464,1.8451541031420302,9.723026798466922,-0.0032976724974324552,-0.0008865056164532022,-0.0025963570538214
1681944040.149041,1.010032426888114,1.7248345197924293,9.532742480922268,-1.5696927343834657e-05,-0.00024947866923978455,0.0015066856844578
1681944040.1591816,0.7145002332528755,1.6839319389081828,9.677446392734394,-0.00041170567182457915,-0.002828518857438427,-0.0028377456206134
1681944040.1690958,1.0416331685759006,1.882415961955329,9.57280707682328,-0.0023149355401832273,-0.0004558638739510267,-0.0018650818697414
1681944040.179099,0.8519883931983957,1.686189921611991,9.598948270792627,0.00011729336687797418,-0.0020450582357614193,-0.0010555725625953
1681944040.1891282,1.0199048473570977,1.7803611234716767,9.551216386161759,0.0001768709981982265,0.00023814976897201402,-0.0009706473524919
1681944040.1990871,0.8450727898655602,1.907856450269287,9.684826836774278,-0.002137262992481189,-0.001665101044372925,2.9609157959471777e-05
1681944040.2090998,1.0603858763551894,1.6619370270596514,9.485888847628248,0.0009856515231445482,0.0009046121703070066,0.0015651676780772
1681944040.2190833,0.923935214516487,1.722035707151541,9.571634080800168,0.0015470513842249436,0.001427262575682288,0.0005492677132361
1681944040.2290435,0.9876822612877845,1.8159787372125242,9.567959664700956,0.0019776871300851134,0.002353381131162069,0.0027192796382815
1681944040.2390647,0.8555111585489681,1.663293562025998,9.606032163304198,0.0030993687524320038,0.0018370658571956553,-0.0001186600734717
1681944040.2491095,0.8854331135540312,1.963035919194601,9.666917272136297,-0.0006937145734099604,0.0012194021947599817,0.0002095476642944
1681944040.2606716,0.8708542855049084,1.6779216242029185,9.600009828195413,0.0009230535289088544,0.0004955632550622678,-0.0009520264889351
1681944040.278167,0.956767718690252,1.8925750611721381,9.615165969941756,-0.002592861190434475,0.0017007009364765973,0.000734792059543
1681944040.2808952,0.3799421347636227,1.405364365289233,9.762517372811285,8.115307395151383e-05,-0.001704954774270134,0.0017268525966438
1681944040.289097,0.9478545200340668,1.7242634220253417,9.573869346345749,1.0357035603616054e-05,-0.0005933202171001649,6.514570000122621e-06
1681944040.2991216,1.0040692272191187,1.7240388749014472,9.536346596317365,0.00014816999269925241,0.0020263251248291148,-0.001859467624431
1681944040.3091402,0.8105720861604088,1.7995164002935475,9.66444983173057,-0.0005450898376924512,0.00010031909705982343,-0.0024492015677741
1681944040.3191228,0.8716280728361075,1.730234728552695,9.619466808578848,0.0017217876313207307,-0.0015969063791451377,-0.0002110231749019
1681944040.3291771,0.9799110057775801,1.782541088480371,9.562503584808661,7.856058078927967e-05,0.0008986369587580192,-0.0029126281465641
1681944040.3392184,0.9220516325635981,1.853118911922763,9.63358190333759,0.00018621207967886125,-0.00012505448522496626,0.0001413774129697
1681944040.3492866,0.9727368860413029,1.7197898997524348,9.557477323679397,0.0002744744930844202,0.0018772966185828229,-0.0016221813007495
1681944040.3591766,0.8943178684171399,1.859476007163852,9.64211693531948,0.0007744323196815452,0.0001211798004195258,0.002123223673575
1681944040.3694396,0.9116936188231466,1.6596876077144271,9.557101292915057,0.0026031565157122348,0.0008129948102559231,0.000309390799398
1681944040.37932,0.8755432380687517,1.9840073412078467,9.70328344596736,-0.001158257333174592,-0.00038918241562570764,0.0011952346225963
1681944040.3891132,0.8792100505141974,1.7079736502831775,9.598949066192668,-0.0002761141660316497,-0.0007080631780992258,0.0001469546382078
1681944040.399201,0.9178818585309307,1.7292758668700552,9.600579976047028,0.00031808849973455805,-0.0006875889192478246,-0.0002542584284446
1681944040.4093163,0.8562091694073733,1.7212619921998842,9.611727948744447,0.0024865739003598055,-0.0022123219141224667,0.0020021526265419
1681944040.4191062,1.0421975969023043,1.8260113805720615,9.53253811859478,0.000939082785942484,0.0012734169504348793,0.0013301015401021
1681944040.429139,0.8356925641606342,1.8462301609137146,9.648010739594978,-0.00024668438435314827,0.00019569127866742448,0.0028027209604852
1681944040.4392202,0.8512924628981383,1.7554842310147292,9.604502623057089,-0.0006653974818191445,0.00022289270299531849,0.0010831279482455
1681944040.4491682,0.9238953829770692,1.7189927589901128,9.552947052899627,0.002809926738092455,-0.0002699935626173383,0.0049991522368737
1681944040.4591854,0.9761412194020986,2.1063448768525928,9.661928244833527,-0.0043657130328887276,0.0015852299279312365,0.0037355363287725
1681944040.469165,0.9025457523371189,1.4668743089873495,9.50585747461187,0.0003601685018680196,0.002099705524362953,-0.0004453306633285
1681944040.479175,0.9057270794084531,1.8736714576636835,9.660686451702384,-0.0009906212068088343,0.0005969102874599781,-0.0007385417434624
1681944040.489213,0.9873321214299641,1.7709654337346035,9.60550622508444,-0.000642674519678754,0.0003212283199789851,-0.0002490469801477
1681944040.4992018,0.77209623842685,1.6429377579958189,9.672347498017004,0.0009696501675437687,-0.0031052744005333455,-0.0017719330813041
1681944040.5091782,1.0795931355965138,1.6694971558651186,9.483942777080111,0.0026012979431864116,0.00024339419339692846,-0.001694084525784
1681944040.519231,0.8917034636204394,1.9469988624727426,9.662830024436866,-0.0005935065171149117,8.318309887016029e-05,-0.0002974766853502
1681944040.5291817,0.9685037557516968,1.6537388456815634,9.50286792264246,0.0020950876433891495,0.0021458566960377416,-0.0003134931053272
1681944040.5391395,0.7945211827967518,2.1144457423488325,9.748335760009718,-0.0036798970705927384,-0.00018093501837474415,0.0011799756589108
1681944040.549248,0.9403691743451621,1.5091758514539708,9.483498586041925,0.0014304507534907108,0.001505852387392521,-0.0012739053077301
1681944040.5593815,0.9206529564843459,1.9217323879429942,9.638950410645842,-0.0011314415792888595,0.0016172403838393677,-0.0010093852493218
1681944040.569194,0.8419180989666932,1.750519680771204,9.636515063275228,-0.0002742409383948181,-0.0004405769687343062,-0.0002095453988066
1681944040.5793436,0.9452926810869041,1.6663589241021826,9.566954344967602,0.001053082306023445,0.000377529173981988,-0.0015208219724944
1681944040.589125,1.0243227965185782,1.78529583935624,9.566202903045545,0.0015306612113664736,0.0018884686051325167,0.0005161835265108
1681944040.5991137,0.8385871053774332,1.8956812226802175,9.687970721425698,-0.002045267716514369,0.0008397803510069195,-0.0003187101415595
1681944040.6091168,0.8887357813648129,1.7202644881499072,9.593824446465037,-0.0008676745962065407,0.0003186207182040694,-9.350792742265912e-07
1681944040.6191826,0.8755579307891111,1.7605856214936764,9.608520738394551,0.00036800488427702325,-0.0004014756652424087,0.0009270356653952
1681944040.6291575,0.9185168943313362,1.7918863601295447,9.59322673733004,-0.0006367051874273228,0.0005987731732652214,-0.0010175629600188
1681944040.639291,1.0008703005640616,1.8886233735753,9.57233111337749,-0.0013255477463864347,0.0019160237503520754,0.0008730119711482
1681944040.649118,0.7783335117407032,1.6179278364516085,9.620104011174854,0.0005941038338443708,-5.8760581417720873e-05,-0.0017574277322045
1681944040.6591988,1.0214584676008422,1.8145778562116919,9.574872747607362,0.00015561310400124607,0.0016385396539764134,-0.0009799263521335
1681944040.669156,0.8237898792125957,1.8392455929824083,9.691740702585717,-0.001007380687150956,-0.000682367484025112,-0.0002296771004102
1681944040.6791642,0.9287843373365836,1.810686921745152,9.610244230675853,-0.0029098658983585787,-0.00011088506097713832,-0.0014485948800346
1681944040.6891673,0.9945142943867888,1.6933880340889393,9.551382269580397,-0.0010520842171556546,0.0008952851553429117,-0.0009784662711671
1681944040.6991444,0.8589128540998641,1.700327587168763,9.595551292402607,5.248387838848622e-05,0.00011633128198619359,-0.0017674685537121
1681944040.709125,0.8673656373737422,1.8068865684150373,9.63570266463038,0.0006593017501127411,-0.0014993170118980839,0.0005988217576169
1681944040.7191055,1.0167250113041448,1.8485538278744544,9.562359709543454,-0.0004281052534893203,0.0007835390452131275,0.0005869016435691
1681944040.7291057,0.8700153826913137,1.7351669039021103,9.604744972213727,0.0009569749805933269,-7.700585755783659e-05,0.0012101537699573
1681944040.7391567,0.9967560775570422,1.7376334069184702,9.535926199608413,0.0019229155079441432,0.0017677788550776892,0.0013174465252314
1681944040.7491724,0.7943400888998204,1.929233526232946,9.728996207161915,-0.001938325464503716,-0.0006715666125051333,0.0002356096788072
1681944040.7591355,1.005785722968721,1.6801903811649728,9.537618836685343,0.00063473475997704,0.0007310078217654544,0.0014206210302882
1681944040.7691443,1.022896462019207,1.754101718069865,9.536076877678111,0.00010087089887732662,0.0036110374152559014,-0.0005493125959536
1681944040.7792275,0.717252875665732,1.7729815857256535,9.706811672856553,0.0010881048374469806,-0.0010813607124911164,0.0008506668650307
1681944040.789224,0.9190169985611694,1.6884495725415805,9.571171497276826,0.0017731718447162898,-0.00023831854051713008,-0.0016348687081835
1681944040.7991111,0.9751506957654767,1.8636104379479093,9.59995754455496,0.0010430395667010333,0.0005738032844577684,0.0001331942307525
1681944040.8091755,0.9735695203628592,1.8080293425216354,9.580174224352579,0.0013902176774495333,0.001308066141305445,0.0023012752912701
1681944040.819192,0.8341689109970949,1.7100248681223196,9.621896497705832,0.0014878290638245366,0.0003681591270450142,3.1826520594309404e-05
1681944040.829177,0.8863959990958264,1.9183177413079704,9.66483524830904,-0.0012268130800615312,-0.0005001953171165287,0.0010730683838711
1681944040.8393383,0.9195824801864968,1.6411498557405146,9.551648631501278,0.0007438821062575137,0.00022362194293085194,-0.0006439261219701
1681944040.8491569,0.9572767196256192,1.916488581896378,9.637308001788913,-0.0013378013871315235,0.00037933704593272913,0.0009341010858998
1681944040.859135,0.82977824954401,1.7223723094174288,9.626541962094551,-0.0007056238570949543,-0.0010742599467282474,2.0443380572901515e-06
1681944040.8691423,1.111829607790901,1.590225573332667,9.452544071426692,0.002768942182889769,0.0031803841729125125,-0.0014433927449635
1681944040.8791509,0.7829738762866666,1.8373407222535572,9.680581258798703,0.0014479663839310523,0.0005354364300302027,-0.0011188892263225
1681944040.8891468,0.9794123236688699,2.0219601717566813,9.646113458330127,-0.003694060501333536,0.0021417500339429986,-0.0013655458192578
1681944040.8992414,0.7611321574025356,1.7720121271501872,9.68028772545206,-0.001550521877912149,-0.002226497752240269,0.0027170331136086
1681944040.9093072,1.0961693541240942,1.637021694930304,9.45860427850317,0.0008846926713878414,0.0020423188191869336,0.0016247571306531
1681944040.919171,0.7744135720821997,1.884486554060868,9.712810948299309,-0.0018273217553264763,-0.00047859174028824417,0.0006584407214769
1681944040.929149,1.026269974853448,1.6833036946601265,9.511529090022453,0.0004439918178639747,0.0016258260034265803,0.0011859578930535
1681944040.939221,0.8498160775431398,1.7406463385073394,9.634153438076675,0.0008984661491399919,0.0003193779134574275,0.0001931398560055
1681944040.949281,0.943391844820416,1.7865489569271478,9.593227097829716,-0.0007734166155658624,0.002034477805440926,-0.0024946617509475
1681944040.9591775,0.952756471856135,1.76220008394128,9.568296152520533,0.0018569620711892212,0.0014917362987618508,0.0017581317783561
1681944040.9691305,0.7509513334652614,1.8282836823095072,9.71053801534215,-0.001185833380682712,-0.0006928055224897948,-0.0018676846835068
1681944040.9793355,1.0213787550414806,1.9161636502016393,9.595944962728298,-0.0035264138048018076,0.0010819275078035296,-0.0005053544032624
1681944040.9891174,0.8406683611784713,1.6677776353516724,9.60909309176876,-0.0007413970277437205,-0.000769531935524595,0.0005526399158635
1681944040.999191,0.8415010305980697,1.6733790858876525,9.61920021810646,0.00035421778884277413,-0.0018383350129030634,-0.0014139426953396
1681944041.0092807,1.014972729650864,1.765595610443962,9.538227327777477,0.0009960911096062082,0.00014279987802760447,-0.0003406777127883
1681944041.0191972,0.938711801909402,1.7422361712265113,9.577120966128566,0.0016144928560407293,0.0006449708840772351,-0.0002188397652706
1681944041.0291154,0.9186139859288168,1.775138468407092,9.591853012775058,0.002326750661925281,0.0002955319293865487,0.0009277532494389
1681944041.0392432,0.8641007152691462,1.8274975608932131,9.63466636981985,-3.059543437283564e-05,6.64310308104472e-05,-0.0012384682509354
1681944041.0491116,1.0156840216780998,1.850870241473508,9.579374580697548,-0.0008222045036313114,0.0016623370076439738,-1.734207265590565e-05
1681944041.0592432,0.775876659795307,1.725979670417638,9.672034855349,0.000268523624017578,-0.001300005879291729,-0.0001834818708947
1681944041.0693257,0.9167632136104072,1.8069923350846924,9.589090670735011,-0.0008118012722209339,-0.0006004072024267842,-0.0009017145808092
1681944041.079194,1.0344195435825174,1.8748916345842406,9.578231451770645,-0.00034911617587827604,0.0003663200127351687,0.0031282985268854
1681944041.089165,0.9123980167820891,1.7312124572109682,9.580673039997768,-0.0003990537010188908,0.0012689477078243398,0.0010641141829774
1681944041.0992138,0.8174627019501834,1.8075997924227312,9.664387347360922,-0.0012819354615335287,-0.00047710180675183625,0.000353330831299
1681944041.1092234,0.8797596622687729,1.5176236673577468,9.537635329923422,0.0032685147370029805,-0.0006611158128392821,-0.0013099947559884
1681944041.1191518,0.9591291475563216,1.9385798368789042,9.63346707641909,-0.0011038864270260398,0.0007582218089131137,-0.0027453514362922
1681944041.1291227,1.0245446400263782,1.7881186356498375,9.526926225441654,0.0008265875622849806,0.002089991204949377,0.0010834791732714
1681944041.139222,0.8376092438740845,1.7574524925694488,9.641293932980156,0.0007390370981838685,0.0007194704088253338,0.0001529237174191
1681944041.1491349,0.9512521506715813,1.9007040605847885,9.620195071475594,-0.00239578366815549,0.0018750471408839127,-0.0007620185229233
1681944041.1596086,0.8566794289660263,1.6929395339541906,9.623378530078105,1.0368801297853489e-05,0.0003689198223053442,-0.000161494392646
1681944041.1691766,0.8835317201477965,1.8212534797110687,9.627378260547177,-0.00023513091525171305,-0.00039849121271259987,0.0006923337618582
1681944041.1791975,0.9074087125678337,1.8487344263629022,9.62312689198745,-0.0020154373475047183,-0.00036309985831395287,0.0004531776916929
1681944041.1892338,0.9027155937614821,1.5908121440280902,9.553690588774755,0.0017016686591735102,-0.0006030202266957375,-0.000246422745963
1681944041.1991532,0.9294230401032906,1.749342153639439,9.569334820009491,0.001248301668220004,0.0005726513174530819,-0.0021124509244463
1681944041.20922,0.8765740789377899,1.6786492396860277,9.592073776687055,0.003664115459612879,-0.0005001866459653758,-0.0013051954179308
1681944041.2192268,0.9474832707325958,1.8220986125439342,9.59910748682127,0.001937452708498034,0.0008200841338342198,-0.0029733326833001
1681944041.2291555,0.9844434485793752,2.0099722354225427,9.642153018107384,-0.0013624085119834978,0.0013047044458814718,-0.0001201513537443
1681944041.239239,0.9068882486866671,1.627469464911671,9.550981025000114,0.001915089715369439,0.0011117489263224364,0.0001130400609918
1681944041.249159,0.8330262268381816,1.926700478336813,9.694203229419243,-0.0008397365438476401,-0.0008019464130256453,0.0006968064385228
1681944041.259228,0.9905465611874139,1.6585690959074353,9.531099381151867,0.0002782019737664052,0.0018415308148102018,-0.0024685693520358
1681944041.2776773,0.9063519421779658,1.8256209374343948,9.628644204140636,-0.00041877499937722986,0.0003767441214669624,-0.0010272468521497
1681944041.2792146,1.190807908039843,2.1070549463846624,9.565124363770225,-2.1669902669997226e-05,0.00034134676831296926,0.0017019095371007
1681944041.2930486,0.898875772294806,1.7136169576781322,9.600423739905004,0.0004801248191567646,0.0006993731776019819,-0.0013412850990197
1681944041.299276,0.7263158336552266,1.937255478174816,9.750716988402855,-0.002015788447164377,-0.0014851804637953782,-0.0018177734769186
1681944041.3091402,0.899738947111046,1.5984990472002092,9.548185736367634,0.0014949018001376017,-0.001577177319917394,-0.0025989596347561
1681944041.3191366,1.044736018810968,1.9225804848783545,9.588340351211901,-0.00032567135995727935,0.00030335289001687124,-0.0001100944669223
1681944041.329142,0.8573206618669914,1.8651943221850706,9.674228074335028,-0.0010401545430850359,-0.0018025533706613256,0.0022450331866503
1681944041.339178,0.9072597523778824,1.6939102792004603,9.575320923453122,-0.0012391195111962551,-0.000615312175100454,-0.0013193063519201
1681944041.3491516,0.9506794940320646,1.7872888632085397,9.581793249599151,-0.0006139832579053758,-0.00029568375184974753,0.0001473215793022
1681944041.359175,0.9151432747498357,1.7962839215830144,9.618181185529147,-0.0012514077803406673,-0.0002345919629865392,0.0002333738061362
1681944041.3694422,0.836078098259207,1.7543349742350636,9.648647409249039,-0.00034464614105237713,-0.0022793915063437074,0.0008383663057112
1681944041.383072,1.0153105973316412,1.769567624466883,9.54347208142431,-0.0002403652930627749,0.00065278790751821,0.0010190385778197
1681944041.3906703,0.8699775772065194,1.6002178262032722,9.558684708860488,0.0015936041839819464,0.0007470451798094274,-0.0011151674284837
1681944041.3991518,0.9035998304512083,1.8941066684880177,9.638443267735987,0.00040040675946377514,3.773719466689113e-05,0.0008264470065706
1681944041.4093175,0.8274308994920885,1.838010978724497,9.670237614737559,-0.0011087057620985106,-0.0017578587710317833,0.0006453991786339
1681944041.4192104,1.051087476656106,1.610969253002414,9.466609371606703,0.002027610272020728,0.0014529816252945385,-0.0001030104781738
1681944041.4291902,0.8927968689487977,1.7289620379890327,9.607596621257386,0.0032543471766402618,0.0004978143944254047,0.0003037714318134
1681944041.4391682,0.9724845518016669,1.783484167541416,9.575670059451852,0.0033918027930178864,0.001429895896032007,0.000871519759553
1681944041.4492674,0.84394213531879,1.9820138524662456,9.712554621268788,-0.0017569153279633582,0.0005477279028317463,-0.0003775632090172
1681944041.459154,0.8345993235084554,1.5440490499505348,9.562363804520059,0.002143090959666541,-0.000282265856292497,-0.0024551648262194
1681944041.4691868,1.004163381421495,1.9909594193150988,9.628154944440375,-0.0004925435294639508,0.0005894472915488928,0.0009825270658121
1681944041.4791758,0.7954090807078817,1.7620822825447,9.669413054489846,-0.0011459574982955914,-0.001247138857636912,-0.0008536608970961
1681944041.4891825,0.9720360248844304,1.6640553609570943,9.532395073319936,0.001130188470495787,0.00016214706337086077,-0.0009516486048004
1681944041.4993398,1.0358512948305283,1.9221948830899929,9.587773678566826,-0.00024778145051946075,0.0014559530256093981,0.0021906608867221
1681944041.509271,0.8432362790163205,1.8201204885654751,9.647067134782711,-0.001498366897922594,0.0005212778636408282,0.0014522989490297
1681944041.5192373,0.7858285822666349,1.5656559713939355,9.618713880730962,0.0013589333416050347,-0.0013066972742503554,-0.0016910954459807
1681944041.5292623,0.909998985270024,1.8473786795516642,9.629375601843233,0.0006846485900712795,-0.001924748611011366,0.0001011320541375
1681944041.5392792,1.0353848537223,1.8482515277285283,9.562546132704888,-0.0005331433951386741,0.00031264787008842903,0.0008443106466666
1681944041.5491917,0.9126045947340277,1.7398284177000722,9.59746611860815,-0.0010439180988245787,0.0009590148823016643,-0.0013353295239857
1681944041.5591912,0.8842631256064098,1.842489610167429,9.637062700148334,-0.0007276131627920693,-0.0004513960655790516,0.0016299896501232
1681944041.5691853,0.8897422121839035,1.812490696957419,9.641629218665754,-0.0013013000546656993,-0.0013287055486753212,0.0020930494333379
1681944041.579184,0.9212075534243782,1.7837141580478733,9.605177389767514,-0.002449813255106189,-0.000554612713693902,-8.40195801620619e-06
1681944041.5892396,0.7540995414033276,1.8045059966329116,9.699030507529054,-0.0039026703340985765,-0.0035255476892078782,-0.0012932269915244
1681944041.599166,1.0815583769739838,1.5398389994897903,9.430600078673255,0.0016237897650513862,-0.00031318271999995556,-2.3295086552847788e-05
1681944041.6091597,0.9406260571501844,2.0565425922193517,9.683579000310026,-0.0032488890159907183,-0.0003124443056036326,0.0024860654061422
1681944041.6192522,0.8912129551247906,1.579154637669523,9.558151234137986,0.00020109914534616888,-0.00042865629182076967,0.0004885719076492
1681944041.6292105,0.8868972865246739,1.6918248386730248,9.583308954364803,0.0014188914533417591,-0.0004406016961012728,-0.0004591594065776
1681944041.6392584,0.9497564801891216,1.8569907719720957,9.613324884193226,0.00031211306876044746,-9.264598818385667e-05,0.0010931710398518
1681944041.649181,0.8736744643848968,1.7403290501996425,9.602304959604714,0.0005550044084391612,-0.00047523498560963974,0.0001506798120909
1681944041.659191,0.8532361502450688,1.9098761449288013,9.687772062398452,-0.0028137551175189636,-0.001572706472396698,-0.0004479833028516
1681944041.6691928,1.0292157246769837,1.5008061082051114,9.443054443884877,0.0016908467860669671,0.0017301274287077652,-0.0029595709952763
1681944041.679193,0.8146007630543277,1.8041095551224293,9.665288009173663,0.0016416939521090284,-0.0006551890019378916,-0.0021496845024875
1681944041.6892428,0.9462690529654549,1.88232127983897,9.615633539422172,0.00016383934990176488,-0.00037575773411589633,-0.0006800567812523
1681944041.6991818,0.9515137029232626,1.6343560032524425,9.530635352167604,0.0025588260228876047,0.000814477358159785,-0.0018427277996442
1681944041.70921,0.8093807915757084,1.8516042224868294,9.687812642960921,0.002292122006149935,-0.002166145754294366,0.0006580846070074
1681944041.7191908,1.0634818433726352,1.7783996929649615,9.525520282325216,0.002522703468236397,0.0008312250033340015,0.0011091997998529
1681944041.7293477,0.9958268666805413,1.8775986852799589,9.598196840387725,-0.0005570130270517863,0.0031237565225904146,-0.0005362908437154
1681944041.7392316,0.6276989302330516,1.6757799066681889,9.722425519570233,0.0013484932743840201,-0.0027327393595328324,-0.0011893197975358
1681944041.7491996,1.0964623579447115,1.908843763126776,9.553230648611457,-0.0009872851909974154,0.0009519302289263456,-0.0003272629424235
1681944041.7592008,0.9113929602099056,1.6939567204426411,9.570902130591023,0.001515382396355897,0.0003100637636168517,0.0015174844279182
1681944041.76939,0.7984569226540288,1.8032088023737205,9.67757800318604,0.00045889424653900547,-0.0020543960499944443,0.0010447461658851
1681944041.779413,1.0481310617064985,1.8052752656265454,9.535885636567352,-0.0007827409799989506,0.0012417569599402964,-0.0001279381417906
1681944041.7894866,0.8086754721907289,1.623477792224414,9.60491953347845,0.001745996897362282,-0.00036904009693965325,-0.0013543173286369
1681944041.799404,0.8852433582680884,1.8314567467650877,9.633268275114045,0.001969869603064742,-0.0016807317083685448,0.0011170106858708
1681944041.8092232,0.8596643599121445,1.8253281625366329,9.642248240921347,2.6378053391381113e-05,-0.0019750289474884204,-0.0008775060146353
1681944041.8192413,0.950506329957541,1.7128708445233485,9.555376729423868,0.0021013863897118654,-0.0015313533302124158,0.0004152013838985
1681944041.8292832,1.0895172183682438,1.8203602408262642,9.525939542612125,0.0016569410723082274,0.0020751052856891237,0.0015390927414638
1681944041.839261,0.74360532604302,1.7465552218219804,9.687401530194672,0.0008548839267080142,-0.0006264755044503433,-0.0014426311559281
1681944041.8492174,0.9462112857293481,1.8204387102661963,9.602266829436436,-0.0005901599702283182,0.0002534519246245189,-0.0026239074382237
1681944041.8592467,0.9833000730071576,1.711871884725522,9.536202011986134,0.0017381861047411616,0.0013944695852085162,-0.0010894612956098
1681944041.869321,0.8576896217263482,1.897907583287295,9.680287184881795,-0.0004433683985538572,-9.748598086626819e-05,-0.0004155604715696
1681944041.8795695,0.9669657478860898,1.71071745585609,9.562633036836528,0.0015254394237135607,0.0006080702503757261,0.0004494280705922
1681944041.8896294,0.854264273532021,1.751698593260282,9.63362522917105,0.0011413421665030126,-0.00025546691347057564,-0.0012712896882793
1681944041.8992336,0.8714627046840312,1.9276477404144776,9.669770693706804,-0.0016019467356327346,-0.0011334889112193979,-0.0005519072606465
1681944041.909371,0.9791487032332158,1.797542881481993,9.57322215538863,-0.0008255966815205761,-0.00045065161677331416,0.0017283427164012
1681944041.919269,0.8775009913592846,1.6729958378732661,9.580027312734943,-0.0012685421589084035,0.0005004063704510365,-0.003129442370241
1681944041.929232,1.013982486707004,1.918767499197659,9.600583334470366,-0.0022822087617230093,0.0013039560157267146,0.0002758620225586
1681944041.939285,0.8872126770564597,1.6804342325164947,9.567247427580087,-0.0002466700964081906,0.0008654893939759971,0.0003756732598641
1681944041.949217,0.9454678690897134,1.7965337875760203,9.594822793127118,-1.3837852249058206e-05,0.001183630967460284,0.0016471394460178
1681944041.9593828,0.7736358841634304,1.6531635231466242,9.634692792467302,0.0013462571285316528,-0.000874956302145205,-0.0007888406130722
1681944041.9692135,0.9781933085339511,1.7711128423854339,9.579551778379804,0.0017221296290368113,0.00025716425867831184,-0.0003768281626752
1681944041.97919,0.9092957462650567,1.8635229829099915,9.638755041945277,0.000315852534812451,-3.863194648536181e-05,0.0002751112601482
1681944041.9892051,0.9087134861179765,1.70162970383727,9.581460060666501,0.0015779878123309023,2.8047346957965512e-05,-9.36833990043892e-05
1681944041.999267,0.8908751726153062,1.8460927580055824,9.641712079459253,0.0001303308598394147,-0.00034338493392466955,-0.0001648597267693
1681944042.0092402,1.0177605477277392,1.7962609942318213,9.550366524862854,-0.0008538653010104162,0.002240494527371941,-0.0015011291566542
1681944042.0192316,0.840876603793662,1.7218690220898576,9.63373263274361,0.00029608635855335507,0.0007142449794334537,-0.0013457794289342
1681944042.0292876,0.9750008580685366,1.8330343945944039,9.58878173438341,-0.0005581116934208129,0.0017625417310395124,-0.0003038134041479
1681944042.0392776,0.9256051211548688,1.712421419790149,9.580283038150766,0.00018210845984737087,0.00219246617728047,-0.0015361014834842
1681944042.049267,0.8937077065935182,1.6840500424144407,9.58471283973513,0.0032249154683356277,0.000868491178402929,0.000613362380559
1681944042.0592735,0.9061745692740201,1.9807402469412994,9.672889137132064,-0.000786469505230866,0.0005853549786889092,0.001109946836973
1681944042.0692797,0.9106488716627036,1.6826993195536208,9.581530193500123,0.0010567786036891661,0.0002478827949760893,0.0012269164703548
1681944042.0793676,0.9751707711319658,1.9057935727053525,9.613965307130476,-0.002342908529398429,0.0020512560734477613,8.475474666292532e-05
1681944042.0893598,0.7963663651435844,1.628167403261281,9.624468029047652,0.0007002965103313229,-0.00045996719626764735,0.000151043027895
1681944042.0992107,1.1073730592784377,1.8552488792757307,9.521347247405954,-0.0005983373700977564,0.0034266332244081263,0.0005660555011355
1681944042.1092267,0.6174981304795557,1.879836433775775,9.7981049162434,-0.002248635463845807,-0.003189861232987947,0.0015826745925233
1681944042.1192403,1.0358033487871372,1.6165216809667717,9.48608981589104,-0.00010846416074334681,0.00034133838892401187,-0.0009047099470398
1681944042.129326,0.8854581411207837,1.73842006266309,9.609928716839702,0.0005154881991788721,-9.562602999443186e-05,-0.001297352052038
1681944042.1393793,0.9350925363023331,1.8046640824027842,9.594970638999607,-0.0005767245565251827,0.0007656477113493989,-0.0020327143452367
1681944042.1492646,0.9913540414659412,1.9283109616819165,9.618270850666523,-0.0009120198448950629,0.0006382507409697953,0.0028582231293194
1681944042.159238,0.9084239673640488,1.7340753519800192,9.590363287471892,-0.0006791819052503849,0.0012339262088749726,0.0013472422701534
1681944042.1692965,0.9011849312669384,1.7904199320672471,9.61169948018693,-0.001206328165003422,0.0011359485110418934,0.0012812998879463
1681944042.179297,0.859655439186373,1.6555404362392543,9.59330891858483,0.0006384510817749587,0.0006449696910466449,-9.443078537051812e-05
1681944042.189249,1.0557219083593954,1.837615307533002,9.554485913853377,-0.000345056562869471,0.0032481887659242623,0.0005272782559269
1681944042.1992707,0.7914651314548559,1.6991457772181637,9.64840138480971,0.0012698839654123823,0.00046204284914905616,0.0005719945451938
1681944042.210623,0.8689026351731628,1.8093143106187743,9.647024099817658,0.0008053378499025766,-0.000821304011168693,0.0010745571030066
1681944042.2193353,0.9777160232167043,1.84172228114256,9.591022563066044,-0.0002503979321043472,0.0003111720084368987,0.0013580459612649
1681944042.2292242,0.8216987924082542,1.7256948445654101,9.636923492097234,-4.440371332543707e-05,-0.0010209951555868353,-0.0005016193340769
1681944042.2393322,1.1119656463248053,1.8107616879045376,9.511225072986374,0.0008526505251861152,0.0022151726696707304,0.0024748817354203
1681944042.249342,0.799375899115265,1.7837379306838406,9.673603186114066,-0.00015056999413896993,0.0003130332886740025,0.0009568220970914
1681944042.259246,0.9502204487676829,1.6797531179464158,9.55070525286592,0.0019676159456873637,0.0010730200164399686,0.0009061625146069
1681944042.277069,0.9413028317338732,1.7686310165977115,9.59134733695671,0.001736297047761977,0.002573538627993685,-0.0006469138047895
1681944042.2794042,0.8983956903874015,2.254598620139276,9.769663973472946,0.00019662143427033173,0.001995002081247155,0.0008838007610985
1681944042.289275,0.7984221797981673,1.7457297314994757,9.632871284415042,0.0012128899163459646,-0.0004525065243088907,0.0016121216153488
1681944042.2992172,1.0163021039595557,1.8356222714631842,9.564816521497814,0.0008027185241713657,0.001189592667420871,0.0032702688744985
1681944042.3093462,0.8994311500881473,1.7159637017573799,9.594256833224335,0.0003482601313913474,0.0018418979418102152,0.0001391434029438
1681944042.319352,0.9752950730963758,1.9143173604468788,9.617637053062522,-0.0014700876242320039,0.0024576810418620383,0.0024502919090674
1681944042.329257,0.7168768357461718,1.6571501938900473,9.674792871680229,-0.00025710304937099596,-0.0009602608570760085,0.0002233285608463
1681944042.3393047,0.9832216806781199,1.6197104989387991,9.507697444504467,0.0030419728207093815,0.0005779427297153635,-0.0002282135269842
1681944042.3493705,1.0071639882838388,1.881637345555026,9.585643936200576,0.00016384157752944418,0.002996369805379988,-0.0011620972386798
1681944042.359321,0.6689472119952846,1.976060830549036,9.825702695102056,-0.0036150818645575298,-0.002391167886776357,-0.0013833936850777
1681944042.369671,1.008702042610008,1.6147709433465969,9.477752833479647,-0.00048325800625247307,0.00014911357912681205,-0.0017086234024963
1681944042.379541,0.8723711466030336,1.7913811022085417,9.617665778167947,-0.0001561599455052538,-0.0011208158862581836,-0.0004390237468532
1681944042.3921072,0.9191486315115422,1.7918517718805065,9.596621852394259,-0.0011347856195431409,-0.0004998232423754974,-0.0013547091826102
1681944042.3992891,0.880841106454222,1.7444968495465099,9.605011130251418,0.0013902239815071504,-0.0022082482644052073,0.0024871715845302
1681944042.4092352,1.0727378303954251,1.7798396226323014,9.515891273401646,0.0005952322950315519,0.0015904428990098423,0.001003022448881
1681944042.4192443,0.8490949654989607,1.884320121954925,9.668848042831458,-0.002026260274496185,0.0005246252659760641,0.0005612120416709
1681944042.429266,0.9289261985954016,1.7130114515432524,9.57405013200628,-0.0002206280163148748,0.00043710599163528677,0.0016024338087528
1681944042.4393237,0.9555271130187643,1.7503921352100487,9.57485300264204,-0.00010362443386696432,0.001528602389729342,0.0007780347636663
1681944042.449391,0.8678807420993238,1.604255320608526,9.579884604178865,0.0029205659175429136,0.0009884519361448897,-0.0008134012191793
1681944042.459277,0.8838044608416277,1.9297081540780168,9.674298907962633,-9.134975235122091e-05,0.0002251389465180222,-0.0003596736665121
1681944042.4692578,0.7910839645452664,1.7710787149635319,9.663720813188844,-7.047236711731541e-05,-0.0022041501302142146,-0.0007717035792074
1681944042.4842818,0.9935628610582454,1.818073323382499,9.576627025777766,-0.0007388089846730084,2.5816502329511132e-05,0.0005966064904579
1681944042.4892542,0.7453888597195625,1.7459018906717574,9.697623044053406,-0.001750185156979351,-0.0009319731019317503,-0.0020215496502122
1681944042.4992688,0.8346783373340847,1.7280751775749947,9.633702788403493,0.00011989895788812843,-0.003354882630539161,-0.0002352622418901
1681944042.5093498,1.2195949613261199,1.9153999048952068,9.472429124335367,-3.658900768387036e-05,0.0016634501601767394,0.0047890488908388
1681944042.519244,0.8541845659082099,1.767768103076479,9.634813778102384,-0.0023775427014165454,0.0018877178329157007,0.0002419600181975
1681944042.5292475,0.7328290755562985,1.7646349574788454,9.695089804505503,-0.003016417416055198,-0.0012266229430457863,-0.0013524844858101
1681944042.5393276,1.1352343570350758,1.578132786453192,9.413595986414903,0.0017485583461216909,0.003198658205098042,-0.000184238337656
1681944042.5493443,0.6986634158322903,1.943805469588562,9.77412921175466,-0.002061633523125757,-0.0009278503812734415,-0.0010935649357042
1681944042.5594437,0.9900035967542926,1.7597613660794877,9.546636109769327,-0.0007365451508765541,0.0003577331218421648,0.000863682272634
1681944042.5730574,0.9447591906976589,1.7570447631109634,9.586313522644458,-0.001486827393193476,0.001975999099203562,-0.0018263344268551
1681944042.5792315,0.7456806159891183,1.7265278825999697,9.686073601615142,-0.001302073561001378,-0.00010607540290138514,-0.0026134938548556
1681944042.589233,0.9721160261667745,1.6238774457903566,9.526615859448096,0.00154893552886102,0.0012219825542603123,-0.0030519591260007
1681944042.599255,0.892421244932958,1.9075938468332905,9.657025879186168,0.00026032702305433413,-0.0001038158264861342,-0.0007072569883665
1681944042.6094203,0.9090605633417567,1.7515262499876463,9.602748694835995,0.0016826468888455123,-0.0006134202399471497,0.0008517910295859
1681944042.619852,1.003947440041058,1.858982614406113,9.57108499302504,-0.00048288866059142987,0.001765533105929695,0.0005411102588051
1681944042.6293766,0.8316519919433979,1.6048509463631473,9.589141780352895,0.0026787994848327793,0.0005428779367291827,-0.0003105210221609
1681944042.6392672,0.7782015144255731,1.9205904179831537,9.718703706915171,-5.81659266585346e-05,-0.002051418084764032,-6.239864390854971e-05
1681944042.649249,0.9614692633526565,1.7443362291099784,9.558189520254553,0.0007360586524007381,-0.000918911224609508,0.0001089607516997
1681944042.659394,0.9825690853838643,1.7887495035045484,9.573840047506074,0.0005557447328284247,0.00047509250867712346,0.0002043249237113
1681944042.669257,1.0141251211007545,1.7578354359397474,9.544714771170257,0.001972444221786863,0.0020129147296784424,0.0023389123648167
1681944042.6792572,0.8429058518413051,1.928101381799578,9.712011824584138,-0.002309004757138694,0.0011218018218803933,0.0001574146712892
1681944042.6892831,0.9736313697988801,1.6493433703586202,9.52158110558804,0.0004845882939724074,0.0024122362901448442,0.0006830056349509
1681944042.69933,0.7876585064799532,1.8830869339752712,9.722047042986347,-0.0015836862987512303,-0.0005832793181627518,0.0011289356311545
1681944042.7092805,0.9394198355254582,1.653096027770916,9.55533666869236,-0.00021427498432223424,0.0005849825710447483,-0.0013331087853065
1681944042.7192836,0.9265103903832422,1.7414159447569149,9.582708024792977,0.0007230300261600178,0.0008818669463306026,-0.0006223271216503
1681944042.729262,0.8589253599113258,1.775196566067639,9.635943061409172,-0.00015689761261566336,0.0002616533695946178,-0.0023501004639319
1681944042.739298,0.9273497631745921,1.7596669163874619,9.58875920053849,0.0004756775661474153,0.0003752754709705557,-0.0019641475833258
1681944042.7509973,0.8921553425514367,1.8908430853668012,9.638541824912405,-0.0017312201098603167,-0.00031840749489913463,-0.0002468113403073
1681944042.7593112,0.9028010645098822,1.4682215461953683,9.497427673769845,0.003144807027167996,-8.482770177339705e-05,-0.0013506460550478
1681944042.7694218,0.9229530051453679,2.1130779679356615,9.707423364888006,-0.003342005906160198,-0.00040036314997147154,-6.837854974483387e-05
1681944042.7793343,0.8754777345158833,1.6582304323600527,9.586174757210296,-0.000949635122198846,-0.0009785360585934128,-0.0001324494683421
1681944042.7893658,0.9515302042259598,1.6904126131312867,9.551744014489216,0.0008139137670720496,0.0001189563725402838,-0.0001607465406185
1681944042.7993207,0.9129383601901968,1.8867083030900884,9.643732774480837,-0.0018567600254256384,0.0004784363070107323,-0.0009151293511739
1681944042.8093052,0.8678712145768682,1.6769811287206358,9.589779123061051,0.0008787393738190717,-0.0006585164301743852,-9.555407681082624e-05
1681944042.8193064,0.8486113977781379,1.7867270978836667,9.644429115413436,-0.0010278525427474012,-0.0009170525616651453,-0.002827686405485
1681944042.8292856,1.0175506314746667,1.8934992357291323,9.586322943751995,-0.0023853560654699896,0.0005402747232882934,-0.0004647510673156
1681944042.839295,0.9234683356659439,1.7402630919896067,9.597045551218777,-0.0007056295628243223,-6.471017576997165e-05,0.0010115842719324
1681944042.8493028,0.9454298060321994,1.7381535697580437,9.57679299099734,-0.0010248731005520538,0.0013877665095325868,-0.0011703231453201
1681944042.8593023,0.7643992683929249,1.7995439221978218,9.687997202722656,-0.0012171145755303996,-0.0019638732401631295,-0.0005735199979743
1681944042.869818,1.0494496146765662,1.639136274567025,9.481182042574016,0.001815250296124018,0.001027561524426276,-0.0003135026513836
1681944042.879299,0.8051936443487027,1.7031700441093605,9.645249001662275,0.003239077277397986,-0.0011062929128578917,-0.0007508449803343
1681944042.8892655,0.8811172887604948,1.8665854543312284,9.653369383690722,0.0008142936077707114,-0.001408046697262351,-0.0018907775252363
1681944042.899371,0.9561322557830256,1.8233006615753231,9.593906131451806,0.0007527994581652541,-0.000981494543801497,-0.0001343225908703
1681944042.9094658,0.9108521090487283,1.6901395109597057,9.577161992488804,0.0027585108129431087,-0.0009967577894158715,-0.0002486509352228
1681944042.9193358,0.9226532945040447,1.867912147937821,9.627002030271107,-0.00020494423876583548,-2.8947573690329514e-05,-0.0022942313540032
1681944042.9293566,0.9307118842229617,1.8303074538058035,9.601913252337578,-0.00017516890189057577,-0.00043239352362053256,-0.0002006221643886
1681944042.9394183,0.92911796199703,1.704143170381141,9.576047163213207,0.00047564686296978974,0.00040766477455849614,-0.0019161120604029
1681944042.9493444,1.1007557969576374,1.862684163457319,9.524693139959215,0.0010157862823617371,0.0029397551041355613,0.00208967836576
1681944042.9592812,0.6566424550219332,1.7521394749360706,9.735984306362711,-0.0005730267400155472,-0.0011647566168992095,-0.0021262135437927
1681944042.9692633,0.9775187735253612,1.7082178196254756,9.5448672459131,0.0026389348641251043,-0.0009274803964398448,0.0010182987002418
1681944042.9793494,1.0860782001434384,1.869255307486975,9.543420635687005,0.001366379298013044,0.002278496051728381,0.0022022029420123
1681944042.9893126,0.7109209847203807,1.8005592772182293,9.730403018554124,-0.00022208163439577794,-0.001581646083537027,0.0002687730279513
1681944042.9993122,0.9164877374113249,1.7954108073779425,9.609993814083278,-0.0006691214508349813,-0.0015034146892340457,0.0004472159466468
1681944043.009484,0.9173262328910561,1.7483527199855091,9.579746947710323,0.0005658161083175105,-0.001738487474598371,0.0016601624206169
1681944043.0193365,1.0731057709258163,1.8173317388797776,9.528497852694779,0.0001724023417823924,0.0013553799172797666,0.0021779821231258
1681944043.0292792,0.7341206954854274,1.8015271886904207,9.71009730227995,-0.0020921910297653367,-0.0014769678566198625,-0.0009598258498362
1681944043.0397844,1.0366568961830074,1.7260058196853403,9.522636892160055,-0.0003834008523068588,0.0007667746590052111,0.0001000049209916
1681944043.0493135,0.8554545627349371,1.8826916778555753,9.664211066261094,-0.002277336845519217,-0.00020702416112833817,6.313432592387064e-05
1681944043.0595386,0.8222651892811335,1.6636726136000364,9.609096174385561,-0.0011597247037837101,-0.001164789780514838,-0.0020293613511375
1681944043.0692992,1.0776972460734884,1.7847392000549074,9.512208555585794,0.0011734149329917407,0.000667299103686439,0.0027904114371859
1681944043.0793986,0.8935205216129724,1.8441536152748579,9.652893588509208,-0.0008140414506806469,0.000682221300849117,0.0007553101435997
1681944043.0893905,0.9195922856001527,1.7751940391601837,9.610608717492044,-0.0013508892278370909,0.0010953366424166894,-0.0004073783370903
1681944043.0993893,0.8109642075769162,1.629733453921018,9.58316314021035,0.0011700397108641717,-0.00034448148484787826,-0.0012917683075419
1681944043.1093218,0.932427526325251,2.041913596488045,9.681211205946271,-0.003821101366266346,-0.0001079364670292649,0.0001126859255828
1681944043.119275,0.8720445297368072,1.5211907467830883,9.540395629819788,0.0016424181407776112,-0.0009505846136652319,4.226990628476007e-05
1681944043.1292882,0.98157005074344,1.8780055679592358,9.60136847707376,-0.00044895134093719927,0.0006531405581028034,0.000142463800753
1681944043.1393745,0.8443558641808157,1.7502001938584566,9.625178423905496,-9.28202048635107e-05,-0.0005605489957192218,-0.0002375002100369
1681944043.1492958,0.8760119563542896,1.8751016015260096,9.650232299864335,-0.0022408248297512263,-0.0010768638656965884,-0.0003570680587789
1681944043.159331,1.0281494797367772,1.6724805387618227,9.50418515455099,0.0003288859690591844,0.0012622410901419949,0.000687125806021
1681944043.169515,0.7677680140295665,1.7055198603796726,9.652184122013237,0.0021252205719313987,-0.0020607133512969373,0.001410205584275
1681944043.1793582,1.0052004885613999,1.7489656779805678,9.537459694078622,0.0008865642024135599,0.0011504633719403691,-0.001882220999082
1681944043.1893835,0.9315953619556654,1.9474400337877233,9.639454208104064,-0.0005879198084512136,0.0005454942008728175,0.0019384402089282
1681944043.1993127,0.874995140435866,1.71483842767302,9.598660945226845,0.00016982197390727455,0.0003547408592301056,0.0008256762789324
1681944043.209398,0.9365689412518157,1.6999959101559137,9.556243542057436,0.0016498886742707208,0.0010063166863746894,0.0005515465431609
1681944043.219345,0.9348802387512636,1.805824475500861,9.601691950249533,0.0011413633649639415,0.0014075293349335315,0.0008022304077395
1681944043.2294304,0.8778769718391295,1.9986910383420706,9.711700368801976,-0.0029735874072342417,9.062899352325852e-05,0.0020107266149944
1681944043.2393303,0.8750372723639254,1.661224328426146,9.591816971904645,-0.0008669382488171901,-0.0006652237910562307,0.0013818907295581
1681944043.249361,0.9660849597233849,1.7339398674825832,9.56826535177335,0.000525952157258111,-0.00017088536457502535,0.0023836294689909
1681944043.2595575,0.8871808617303402,1.6869668858238085,9.598741489570296,2.862975041507145e-05,0.0003093210467529026,-0.0016773097764006
1681944043.2767615,0.7961332647648846,1.7693500294066569,9.668165054791183,0.0007759128888845362,-0.004397196858994659,-0.0004882364615104
1681944043.2797675,1.3946190045157727,2.0786166439585485,9.43631165656761,-0.0013922107178806296,-0.001091770807673895,-0.0009527480310997
1681944043.2893212,0.8780337411920102,1.7325570485299766,9.602520095077208,-0.0007030162510830684,-0.0014434370815025305,-0.0012686580035141
1681944043.2994058,1.0586023959321655,1.8381688769048303,9.53716014636672,-0.00034725763040083316,0.0008364365193427412,0.0018334003884457
1681944043.3093405,0.7414883655208218,1.7041485217311865,9.669448481154113,0.00013181635109752262,-0.002066314798253851,-0.0001745338400131
1681944043.3194346,1.0154136191630723,1.7324186318498982,9.534352869861904,0.0011152821033894335,0.0001059242441389792,-0.0002363747067055
1681944043.3293867,0.8465685086436513,1.860579493077212,9.661466014995364,-0.0008982326404323714,-0.0010917772966853106,-0.0008253475266746
1681944043.33935,1.0957796676750997,1.755676720274664,9.490318680341739,4.574894261788945e-05,0.002470344066366025,-0.0001492348115197
1681944043.349336,0.8247454464169157,1.783104288448651,9.65353021241911,0.00047119159769069103,0.00033910940952640826,0.0011147889576614
1681944043.360103,0.9040754374241892,1.6473343516529335,9.562425486345473,0.001494171780170024,0.001266698698206945,-0.0021679426159015
1681944043.369758,0.8568138304803407,1.8751306130661696,9.6723260546204,0.0006067843851403824,-0.0005460003463013712,6.836032613600357e-05
1681944043.3793435,1.0639531075141853,1.6928531327393623,9.493856371540417,0.0017545663757345506,0.0029099263368285717,-0.0008000164839676
1681944043.3893323,0.7805049321298052,1.653925011116935,9.626462673086452,0.004069057464463208,0.0003186543073625781,-0.0010216782416454
1681944043.399403,0.8390747218238767,1.935693470215674,9.694175330255796,9.385442996158887e-05,-0.0010388788014839,-0.0016408072865805
1681944043.4094734,1.0172842338877683,1.7381941404811232,9.522072309072792,0.0019542076919319695,0.0006353093138294222,0.0003205752850272
1681944043.4194205,0.8770287250758253,1.7296974052657705,9.59999864261207,0.002125947986581146,0.00046430753615621313,-0.000935977472668
1681944043.429481,0.8920774828772516,1.9864047374566358,9.681439769173817,-0.001199234998453885,-0.00047188466748171313,0.0008268149371952
1681944043.4395232,0.9613615660549902,1.6605673404019554,9.543592493570019,0.0011890557491314054,0.000597649487956004,0.0007843615871616
1681944043.4493833,0.8935953994382995,1.8587111359069013,9.64929387803775,0.0011208740920208762,-0.001070542906377119,0.0038715082605131
1681944043.459351,0.8881111446017618,1.7128086139442722,9.585409922969378,0.0006008312689809283,-0.00041972117005265486,0.0006945766194486
1681944043.4693155,0.9428973188659031,1.7264922324871763,9.56195114822149,0.0007692231368829491,0.0008029121021690918,-0.0009437947615287
1681944043.4795363,1.025239366156631,1.8489814261426651,9.570095524310291,0.0007490434246194413,0.00213695666529451,0.0015432092454512
1681944043.4893982,0.8267950694430793,1.7367316424555643,9.635900124129131,0.0005594650391783949,0.0009932862198333147,-0.0002490346401235
1681944043.4993362,0.8584107887294777,1.8368017802967374,9.662139710529924,-0.000525702303794844,-0.0003668215447126592,0.0002333840506845
1681944043.509367,0.939416599744673,1.8521860601957119,9.621278920113687,-0.0007507124274055418,-0.0006741656927561087,0.0027442283148639
1681944043.519323,0.9178851103798253,1.7100643882018471,9.573171495992602,-0.00101780064632882,0.00036034636514176193,-4.292846401680872e-06
1681944043.5293658,0.9322516519896182,1.82838469011575,9.612415124406693,-0.0021588815789397977,0.0007146156505982931,0.0001000165625237
1681944043.5393617,0.893609023067123,1.7261300120819187,9.593678225443368,-0.0009861607886015096,0.0002810112699207861,0.0001540496864118
1681944043.549454,0.9085512375724712,1.6631851480129212,9.569578946308118,0.0008992156251433392,0.0004970616898287549,-0.0009363690938106
1681944043.5593803,0.9106627135865717,1.7105289927749414,9.584722504650271,0.0025312579871432455,0.0001837840076592061,-0.0001391597639075
1681944043.574048,0.9051257122603403,1.861980649635254,9.629610301250064,0.0005836857374593664,1.8738234830606525e-05,0.0007239947712742
1681944043.5797467,0.9006201299684148,1.699500832574679,9.563640873955933,0.0011126770030827366,0.0006166356929456098,0.0002903599210777
1681944043.5893545,-1.0020215147291784,2.12012564411486,9.338189035566192,0.002074087606027184,-0.029311873928743803,-0.0034728969062915
1681944043.599371,-1.854101578276703,4.432853178677987,11.10646254283599,-0.026190009528289347,-0.0939913778653422,-0.0240582611027411
1681944043.6093588,3.5771866910684267,4.53254964999783,9.28221406550026,-0.06106045486403845,-0.08290841138427112,-0.0526782732072523
1681944043.6193595,2.560839954488056,0.2740689933879955,9.869727967995743,-0.054703121156332225,-0.06293525057924146,-0.0676692213478735
1681944043.6294878,0.18362987161358224,-1.03837612151735,11.412138633064606,-0.005101826401057368,-0.09898065535676646,-0.0747971918049505
1681944043.63947,2.5482026929010537,3.5273740845382764,10.483602035152101,-0.021832891517507603,-0.10306045887510565,-0.0756064291659048
1681944043.6493578,3.8194784603279612,3.9976516574265424,9.5578926014308,-0.06124871606158699,-0.07872430738162327,-0.0442538607481173
1681944043.6593838,0.854295909175657,-0.014178474408234387,11.39374021324223,-0.042558176691331905,-0.11025339378677357,-0.0014682350761494
1681944043.6693745,4.297731464152427,0.1728907015962977,11.067773473210444,-0.020713539186203323,-0.10215282617648322,0.0115840340417572
1681944043.6795418,4.418834967748186,3.340743771596719,10.402128200751925,-0.029132039378742296,-0.06714314398536705,0.0306354899343797
1681944043.6894984,3.5947070172517264,8.499584717994127,8.93620186091562,-0.12314319943694327,-0.04802354961175543,0.0547790665563889
1681944043.699392,5.00991390802236,6.329759147429129,7.763895799619557,-0.18912906931906928,-0.0072112723873078615,0.0809982929763146
1681944043.7093492,0.4057904956664469,1.7317750862892618,9.216865308073677,-0.21476412370884307,-0.03316222579014221,0.1081165958580323
1681944043.71935,3.9036271614839855,-6.329786648542147,9.229339300420945,-0.1409920309426905,-0.01822743621758603,0.1540324081119843
1681944043.7293296,3.662270373272639,-9.889752881940849,7.551041786074944,0.032051929489805925,0.016270406952165736,0.2188336093363114
1681944043.739383,0.8298275728496396,5.073959234438603,8.91941952736322,0.0020868966938806894,0.005994233358206672,0.2413841773208924
1681944043.751397,-0.11347100051036466,-4.1576266731134455,6.715369457435102,0.007618967374838956,-0.002574082455267101,0.2600290913519212
1681944043.7650669,-8.143468920474952,-16.96534596828678,4.912529484245921,0.3042356038457706,-0.16306145865262067,0.2676882286009141
1681944043.7693498,11.137830004123227,-9.32777021513312,3.3975068420383243,0.3766895158236132,-0.11659438684285345,0.2058641601738282
1681944043.7793846,11.518707795677638,9.183563026934138,5.40353796940287,0.30980871738448407,0.042922366263643166,0.2413213540252992
1681944043.7894058,14.233529060402164,6.970041516720636,8.740619029380046,0.2268885887157892,0.18689000567514533,0.2400387216743775
1681944043.7993908,3.9062682272362683,-1.8391678118191397,9.388682206219954,0.26646879752561936,0.2719638499953204,0.1668995906051942
1681944043.8093634,-0.6781543117088668,1.2652377645495645,12.345203694192975,0.23512678933408596,0.252675852788715,0.0828813527163812
1681944043.819342,-4.29040731742839,-6.983458335084529,8.484607041636442,0.3590203239396179,0.1944754496776167,0.1083625991281815
1681944043.8293643,-5.9044461662085395,9.271465417102293,17.33668294452473,0.2681552995543483,0.07410108778680673,0.0533146549400636
1681944043.8394115,-4.717793750878298,0.1399179589220591,13.263883671393314,0.27156205430088776,-0.012607236516636332,-0.0051785462151518
1681944043.8493533,2.95850368092776,6.739520599396485,11.74120966430037,0.2014917287142281,-0.001655861212389369,-0.0042330349411121
1681944043.8593898,4.111645757560018,3.2346576945321,9.04107145389074,0.2300180880499489,0.02322590956201021,0.0076549722266146
1681944043.8693314,4.845585499170126,7.7268447406587395,8.871880767656833,0.14815341229420972,0.06473366845653933,0.0107263585936972
1681944043.8793333,4.834803232796401,5.261063334381245,8.88468101159733,0.11856627493605781,0.11345974629853568,0.0004388079664432
1681944043.8928392,2.3505252400743344,0.2511836120552721,8.087815718088526,0.11868979037222303,0.13603053548669553,0.015664581992919
1681944043.8993547,4.164691059776064,-0.5429306531223242,6.905587785966258,0.1769160744912077,0.1569080065895661,0.0490622286137887
1681944043.9095745,0.06087565949135795,5.07164796959295,10.38147766317863,0.14042332347946615,0.15727090203945795,0.0666885961231538
1681944043.9201138,-5.991358846394378,5.4450687861152485,8.490405412070825,0.11727266795613875,0.06289176573524237,0.1055876303848573
1681944043.9293904,-2.8180029205072055,6.327358125386717,12.541202089449587,0.04286109361380404,0.007986750673726365,0.1352432955440827
1681944043.9393826,0.427553237818169,-4.009006717372896,8.148746491362287,0.14212214145790847,-0.02099045919469492,0.1624851216015168
1681944043.949402,8.758923502153023,2.9599170167150053,8.846160429750752,0.12147141406664312,0.0764716670089904,0.1121954013046571
1681944043.959411,3.3339102372601346,-4.6802561566446315,6.747340888653427,0.2098031628330958,0.13928168909607797,0.1044169057545014
1681944043.9693918,4.41254531885261,4.254038939859369,11.273482346144508,0.18452344002908858,0.1532058481789304,0.0455664832529374
1681944043.979428,4.8686443289520005,-1.8707602950809894,4.54144959093343,0.22303815526972626,0.23863362205240013,0.0583162557718106
1681944043.9893916,-2.201675975116382,13.762779080831809,10.921528867732782,0.08448967489565745,0.21126828514793028,0.0336171564099141
1681944043.9994266,-2.9035482981112493,-2.6994692804468228,10.38585973028291,0.11321615006943962,0.14604103164499446,0.0549059238669225
1681944044.0093577,-1.015269812696341,-0.3166383511063616,9.577011510751653,0.16476176046883165,0.1299915747387861,0.0898012508091279
1681944044.019407,-4.352334608260958,-2.3818724857538847,12.104091473917327,0.23138035639273424,0.032879203910640566,0.0471712191042252
1681944044.0294323,5.305856873310619,6.552108559781918,9.253125232860159,0.1809081097100106,0.08981107600947716,0.0484235126909562
1681944044.0393963,1.3531278687169257,3.9348226722191275,10.987326266968273,0.1516674629262115,0.10996095953079595,0.0206404839095422
1681944044.0494823,1.863296934155638,3.8683937053356106,10.669107363575401,0.12251913005327575,0.11561343651630725,0.0036111896310695
1681944044.060002,0.07184533701301213,6.188298046345865,7.512163366468379,0.08350457026732504,0.11441557765090399,-0.0096475129562667
1681944044.0693903,2.181100122591422,6.383009226581182,8.73661152951658,0.023659959886997456,0.13165020619284987,-0.0292322888585976
1681944044.0793872,-0.34194320945606216,-0.5078078519160332,8.273493111345411,0.07500741698640682,0.12735314558284105,-0.0183507233473709
1681944044.0893824,1.9157570018094805,3.4627182374002343,10.06636707225855,0.0705435919144496,0.12021965730151717,-0.0196116707834652
1681944044.0993695,0.6386505754085218,4.080291138452011,10.14324320929824,0.0683623199510467,0.1352889946630312,-0.0230231556657007
1681944044.1093678,1.8118795754848345,5.111989713493948,10.150360864496138,0.03656427503209476,0.13063895823002358,-0.0094593112903884
1681944044.119421,7.520204590887676,10.369244981788462,7.3955296021413615,-0.06298431567187714,0.2153479211543112,-0.0235119044396332
1681944044.1308644,3.243814172447012,1.4631146738763572,7.481464125969604,-0.07866573351540701,0.2708702618018252,-0.005576146914368
1681944044.1393816,-4.247187375613,-1.652581336191944,8.676041741279198,-0.027165472192617997,0.21452986794747758,-0.0142028417053869
1681944044.1493905,0.7016978665771607,-0.9813492165911167,8.055146639969884,0.0021766710451091003,0.18534694548323002,0.0320920933422395
1681944044.1594594,3.7431077807223176,-3.7749103115390352,6.319825339836388,0.09277111498992398,0.23633009329833762,0.0709497545298882
1681944044.1694632,-3.0233458002624274,3.663299369385612,11.537068329798643,0.09318045100915937,0.17413735632814564,0.0686971683439561
1681944044.1797247,6.3998862634399645,6.521947049862638,11.12330147680254,0.03978086122121016,0.23202570756959942,0.0693324793514558
1681944044.1894405,0.7557688899144916,1.1884117717553282,9.533845280897909,0.03062212822160482,0.26525403593209723,0.0817524183925935
1681944044.199433,-2.860716290845457,0.41913056954554756,12.00318975584636,0.08320342511727846,0.19027454236814575,0.0779452983674355
1681944044.2094326,-2.1040627359451705,3.2580496919353372,8.34095099267017,0.04686710829117409,0.1829414951159809,0.0633938748773881
1681944044.219384,-2.4978372097164945,1.9857559534073113,12.408112856668065,0.046163385227562484,0.12709769294207177,0.0471603375312634
1681944044.229421,0.980513165042081,-1.9180990781715919,8.44209653827691,0.10785470735709295,0.14227768445492173,0.0389093075331994
1681944044.2394245,3.029653832813673,6.814973819708227,11.182565956431203,0.051496989554844066,0.19376779705560268,-0.0069421885150722
1681944044.249419,0.7162599641713313,6.69349895084574,11.986504923968726,-0.0018379883279224208,0.21267514291894193,-0.061375678664749
1681944044.2594345,4.857620955485499,15.496101246413932,7.9233003992591575,-0.15531552043754343,0.2800019668215131,-0.1554780315223387
1681944044.2695007,2.676002446928758,10.753243884986617,4.2635993808236705,-0.31119296528828283,0.3656217478605561,-0.1723213653627089
1681944044.2795374,-10.420741779054918,-12.911805136150912,6.49943101079301,-0.16150452206413526,0.22872401489334776,-0.1579744528594664
1681944044.2894037,-7.918689108942342,-10.356619518016632,8.31757186542287,0.028435176418957854,0.08261694957798739,-0.1223676513496092
1681944044.2994149,-0.1854659641966162,6.984245485100966,12.384066333970223,0.02246355484027502,0.06922619148936988,-0.0800998817744902
1681944044.3094072,-0.62160997121149,18.70094253863542,14.341075507156733,-0.17279334994094364,0.07381952253978534,-0.0992962877813032
1681944044.3194225,6.135925701999615,5.315966245633025,13.542065463674067,-0.2432831168778228,0.1534623242305376,-0.1277874718967131
1681944044.329433,1.9458278910346707,-0.1776633229819646,9.490583027663952,-0.19406608819462726,0.21026635185574355,-0.1376589547458342
1681944044.3394544,-2.849259270746221,3.616220874742346,10.016948293552893,-0.19074704498545625,0.16972638072828755,-0.1692474644246748
1681944044.349562,2.4691066379547193,4.290968331113411,8.212453149901513,-0.23640496373539396,0.20375559435457433,-0.1425807635846785
1681944044.359387,-2.9823603063380406,2.3036923480221563,10.499390650740166,-0.2176488209304375,0.15076429860070895,-0.1116247113409689
1681944044.3694334,-0.6141764739513688,1.4896911909009112,8.459157130605922,-0.2130234650047151,0.1261585896391443,-0.1000382613006285
1681944044.379513,0.09039744593619489,-0.4127750809985143,8.482235374091152,-0.18687631997965848,0.10819206075055461,-0.0831068392458609
1681944044.3894396,3.182413351373379,3.4913129982778006,10.031394732543866,-0.19779348403887936,0.12772331158327063,-0.0685943599405936
1681944044.3993893,3.3903648215998414,3.4253285395984654,10.090341203931986,-0.21915183541156147,0.17094857310055533,-0.0959323878946951
1681944044.4094095,3.3922505108786316,2.4979414769132067,9.677120469783013,-0.25192917345509286,0.23227536240585345,-0.1301261197391203
1681944044.4194582,-2.4119641065000654,1.4275826811131558,10.210430338560517,-0.22462205294721957,0.18827033890888512,-0.1417612295213393
1681944044.4294236,-0.2702901434333433,5.593719778650183,9.48082053011309,-0.27740228752269147,0.18593430772419872,-0.1535885046783141
1681944044.439486,-2.3919242237825644,1.5140292078282498,10.849848130535479,-0.27302147888672035,0.14611521288930998,-0.1550177495542219
1681944044.4495711,-0.6531786790829371,3.934853152491154,9.019250005605285,-0.28828802016265787,0.12501357840684518,-0.1632124196353606
1681944044.4594452,1.541787458329198,3.8566590948782102,9.679719081928177,-0.30964912516844856,0.14461561184361948,-0.1653191905084303
1681944044.4700072,-2.070876761792031,4.289288503754009,9.34157069204276,-0.3370742511275876,0.1280396810715862,-0.1546355794730833
1681944044.4793737,-2.266305174634784,4.090374468815796,10.799137023919744,-0.3643855625330315,0.08919612586565946,-0.1492174278560332
1681944044.489373,-3.5856943069868743,-2.7960214306439513,9.979588064650272,-0.3050630433982012,0.05062488830320115,-0.1508754055562666
1681944044.4994326,-0.46195980984039686,7.548535456986595,9.476606541762768,-0.36774590306822147,0.03661266463437058,-0.1581550996366194
1681944044.5094256,1.2693276476564583,0.8199086182785583,9.710172547994208,-0.3782730596182315,0.06759445677642847,-0.1673596810165099
1681944044.519446,-2.2984669853039543,-1.9700357339550005,9.81856901729262,-0.3356876815637992,0.04319953233802134,-0.154004291779106
1681944044.5294871,-1.9932313633635217,-1.0749697763769959,9.214169973526253,-0.2844635985413242,0.020619335211580027,-0.1592742066445998
1681944044.5394924,0.5490827601837915,-0.2482795639046638,10.400933568007826,-0.27486689096884365,0.04227637680568324,-0.1131963517132452
1681944044.549604,-2.6665487671613013,2.1714118462110776,9.258988649919276,-0.26548379426833296,0.014421547463461203,-0.0844080458942106
1681944044.5595572,0.46882921673130523,-0.7596188002099972,8.769245914348556,-0.24747895785104698,0.024987252409575354,-0.0566513698163679
1681944044.569462,-12.335155625698592,5.890108710752591,7.568990447229597,-0.2826498250219715,-0.09326490408997043,-0.0827642093959502
1681944044.5794382,-0.09347147521366835,2.868963360334657,10.90214958485024,-0.31607199633240224,-0.13847480291661096,-0.0777827288571051
1681944044.5894375,-0.004864581610222972,2.5893770480722815,8.362491628022275,-0.3530974487296221,-0.09327330901946411,-0.0639774661126784
1681944044.60004,-0.46496922068688784,-6.433360471348525,10.908880381952994,-0.22320421677520325,-0.11145463106800799,-0.090989873892372
1681944044.6094606,3.8869223407344227,-0.786603792293698,9.037189003486413,-0.21058139483983557,-0.05665072695368027,-0.1074048440519026
1681944044.6194649,5.711977540868499,-3.9335157187390952,10.449642825179165,-0.14676071764563461,0.03799133650264704,-0.0845063563051871
1681944044.6294904,-1.7744930455706667,0.8361480060013387,11.095828978215593,-0.13446313071303392,0.009414278894282603,-0.0556874360504797
1681944044.6395688,2.2441834209594345,0.8301849044608075,9.03201807468739,-0.14977775246930702,0.03675404782984168,-0.0492502424481562
1681944044.6494436,-1.551271587841393,-0.22960545703557964,9.444622059080753,-0.1231255361700545,0.011715110666558465,-0.0170761841896227
1681944044.659485,-4.123820381378565,2.6675410387375145,9.184506680824802,-0.14018556791090517,-0.034051394381879874,-0.0027472056995383
1681944044.669551,-6.976094181914611,1.0944616489019223,9.39997886395036,-0.13119569974621298,-0.13984712650922898,-0.0066431948530725
1681944044.679448,1.3136380431322894,-0.6549979051027603,9.011038213818132,-0.13411860729793107,-0.14543243220760785,-0.0016490753355673
1681944044.6894393,6.807812696729546,-2.4513252630235516,8.28426483180321,-0.0386418096379348,-0.0565917091330599,-0.0036440437275222
1681944044.6994305,-2.2653196212135676,2.5606967866156563,10.880761326152083,-0.1039741692589268,-0.049928452016169904,-0.0321007977786711
1681944044.7094483,-1.770456019314666,-2.9355636188607113,11.539839533915142,-0.01277046924872541,-0.09141421622922441,-0.0461084927979162
1681944044.7194085,-1.621225820563852,4.744710980981917,11.604966515727927,-0.08030434243466221,-0.09591494844833105,-0.0174586448434046
1681944044.7294238,-2.8569613920418915,0.07378041640890481,11.884231227993702,-0.05105425766025614,-0.15465901080016045,0.0042452286847629
1681944044.7394814,0.7314527269555171,-0.9953275588146415,9.71021867305357,-0.023777931303736004,-0.15550623334662553,0.0389191683766194
1681944044.7494276,-0.3611843724329163,4.799708627880006,8.465270811014944,-0.053754252076825805,-0.18100623790893106,0.0158018552151271
1681944044.7594876,6.324905518211425,3.9656930783191555,6.917589019481883,-0.10713771369923701,-0.10960070057898545,0.0146631596994348
1681944044.7694516,3.5608747077759366,-6.778652886581679,7.566120456787595,-0.022138999201159523,-0.06142784093214109,0.0097113827627846
1681944044.7794745,-0.5733617690210915,-3.6122245978794543,8.865701752656149,0.05303059371615145,-0.07961077223386227,0.0017798878813801
1681944044.7894454,2.9120888014739705,-0.3760072526108272,9.264150508570356,0.05666144704870804,-0.06244145095635968,-0.0009840251027843
1681944044.799456,0.8268407090203006,9.183420074914109,7.984157340810841,0.016038609428604415,-0.029534039263064405,0.0101369375747391
1681944044.8095975,-2.8858714772702223,9.076538568776554,13.67137165852207,-0.14249213732634913,-0.08316877194267568,0.0036108373583057
1681944044.8194609,0.8277147894558259,-3.680699319234651,9.751707222030996,-0.06393055252009772,-0.056272727476687275,0.0101577209693142
1681944044.829571,-5.5579604222695345,0.9785340986067681,10.709895660979955,-0.04772238552259701,-0.15692850841321423,0.0041757364210435
1681944044.8395844,6.378832127011237,-1.4288374591041362,8.812608963447966,-0.0179920214587276,-0.07246408066809183,0.0246054146823235
1681944044.8495202,-5.0153724203355114,0.34220815350753286,10.392897030240942,0.0036376736690004307,-0.1287237224377728,0.0082038765226253
1681944044.866616,3.6079291460326997,0.7163861609898704,9.77514009500054,-0.01298516979244148,-0.08651702467838233,-0.0095836996647766
1681944044.8694918,-0.6896890211394323,-0.31053433915474854,9.13543284114673,-0.002940278005309427,-0.08456191352065613,0.0003512117231958
1681944044.8794596,-0.9509490568316261,0.3335426085279401,9.335540204149757,0.005662014925893845,-0.12569612893694726,0.0074023346801051
1681944044.890523,2.366607691271891,-1.177479261027774,8.219769897186799,0.019027684658217806,-0.07343619379391236,0.0038751648657717
1681944044.8996644,-2.4599268659819704,-3.156566594620884,10.500561222234952,0.06434892205774151,-0.1226105834726441,0.0092533047695406
1681944044.9094915,6.306613107009899,-1.467093651120845,8.396321124808694,0.10010251848003086,-0.062187006387608726,0.0206598814961263
1681944044.9194672,2.2576124901221175,1.924652592827402,9.627100418469873,0.08700596187699913,-0.017061415112754774,0.0166137515020319
1681944044.9300675,-0.5779809161550784,2.886915095244917,11.222571411336205,0.05678016104115795,-0.04285004465353296,0.0185955826577493
1681944044.9395046,1.701107422619065,-1.334137873170212,8.475300136716623,0.08501455938326533,-0.018414065853915765,0.0175394535449096
1681944044.949534,-3.5614697052865254,0.23468159447278442,9.368535304423368,0.09721480678879252,-0.07313067642566122,0.0188132513698884
1681944044.9599707,-0.445497720913363,0.21718916998385673,9.595250972762976,0.11083839767089393,-0.096758875137604,0.0091168972116657
1681944044.9694693,1.46357929601692,1.2107606242353306,9.942248766293197,0.11817130350055058,-0.08260813931464642,0.0159469496843167
1681944044.9795167,-0.19735856372402547,3.21376108062463,9.750297889818453,0.09980720577899961,-0.0840879627589501,0.0082172009547003
1681944044.9896371,1.0223011563405988,2.5720221344893757,10.424795940956669,0.07716420225086228,-0.0686773313444289,-0.0117047169792703
1681944044.999465,-0.23218810428277026,0.9575999227980538,9.38108158018885,0.08845630527374514,-0.06983430949130054,-0.0163139935198477
1681944045.009458,0.414555327448943,2.209340223969307,9.759594027484503,0.07508619388749871,-0.0530626819897145,-0.0154919169458798
1681944045.0195007,-2.3777197660826617,0.16935314117049796,9.408229133364555,0.09618447898599014,-0.08644836845935895,-0.0089640851679495
1681944045.0295029,-1.7528176738876273,4.097109709118392,10.526565186374597,0.06679379239981091,-0.09717969649790638,-0.0254189792636088
1681944045.0394895,-3.76709069343309,3.020595380307094,11.295973841681153,0.031524440863588944,-0.13022336090493086,-0.0401429842773131
1681944045.0512664,1.0013646422150337,-2.282393576465819,9.64113903199763,0.0660487839860446,-0.13835055632173493,-0.0645410131278685
1681944045.059487,3.8826245783690942,-0.7345913365235041,7.749397680931999,0.08447388152279572,-0.0645900649930831,-0.1040186147752455
1681944045.069459,-3.409796633516618,2.9443198849835572,10.975868166083329,0.06285128103062741,-0.10583149996282708,-0.1166217635932616
1681944045.0794628,-2.2120668506740744,-0.7381289340845161,7.07890621344907,0.06714254546336205,-0.12201081922262022,-0.1301371167960814
1681944045.089458,-3.6756946948610763,-3.3911114169268894,10.140083913729875,0.11836771538963829,-0.17795186268695112,-0.1361236732068709
1681944045.09949,-2.876180848615132,-0.06917218368373035,9.217532518925601,0.15174276973960868,-0.21997444939919808,-0.1308909069362334
1681944045.1095436,2.175775197584027,4.663803236968541,11.22405851194334,0.10284492215428052,-0.1974929886445335,-0.12412020671994
1681944045.1194763,-0.4544122684079272,3.0906985381255114,11.539278067925796,0.0803244344589973,-0.20678125510121287,-0.0984304260078123
1681944045.1295564,6.223904379928469,-2.7428032353316234,7.879824807912705,0.11608704991737398,-0.15622555848568193,-0.1043354581657103
1681944045.1395009,0.9794627997007548,0.4377691077437762,6.957446160897177,0.15018577561360366,-0.11829480060115782,-0.0891589309635809
1681944045.1495483,-1.6729631674823517,1.8224256491910165,10.473973692405675,0.1464010157308572,-0.17480755387919136,-0.070928492731159
1681944045.1596005,0.425251438369165,4.583194977865142,7.965479678843002,0.1225031998286057,-0.16201957486803742,-0.0580047826829603
1681944045.1695051,-4.83809738479184,2.7194041661765995,12.206120132783742,0.09176901236106008,-0.24396671486350682,-0.0603820357087305
1681944045.1795056,1.3035167800168697,1.473489990705057,9.483732637789958,0.11705404858590045,-0.24990362801491126,-0.0437250520649603
1681944045.1895714,1.9166908703437413,4.63881538794352,10.6987851297841,0.07636461013905743,-0.2218770508692159,-0.0285436838480881
1681944045.1995437,1.2338875297287217,0.18773697730908007,9.209924122199464,0.10057458122111294,-0.2227574664385089,-0.0377057317259958
1681944045.2095125,0.8734187198438109,2.082653625885424,10.100137958966414,0.09309084787647688,-0.19836814482360202,-0.0588761839631251
1681944045.2194707,-2.0453668532794373,3.3081699441276258,10.966904720165811,0.09124899468625507,-0.22546139629039047,-0.0418475765350512
1681944045.229535,-0.457573319643211,3.934888204527191,11.420936475120492,0.053226946492156535,-0.24252541291489224,-0.0377574387553385
1681944045.239539,0.6664304699177038,-1.549982977541834,8.736564551597995,0.11000542633157737,-0.23006836832715538,-0.005721511001443
1681944045.249519,-1.5415311654668729,0.8449418486191967,11.338147548882308,0.11726917004372704,-0.26987593691431416,0.0034100543393516
1681944045.2597046,2.7433874976391572,3.160110745420366,8.489554255007727,0.11197003832110625,-0.23781108097603754,0.0242419232067414
1681944045.2695873,-0.362589887869408,2.4412482057765157,10.160056445545468,0.08313717335801156,-0.2528968695619203,0.0300561625894852
1681944045.2794964,0.6290221156754988,0.6181677025821898,8.190405812911237,0.0927197634081366,-0.2598175990431969,0.0377888445195504
1681944045.2895498,-2.398531196739692,6.247992021053886,7.767213282251594,0.041872489729160925,-0.29197134038591155,0.0332766499754735
1681944045.2996285,3.8186827597209025,-5.174385686826582,9.445141273740763,0.07834259758700053,-0.26674825667254753,0.0533504810568639
1681944045.3095329,1.6845132670732583,-3.3522729562113573,8.338508555253167,0.16600709855549903,-0.2643510232572718,0.0717541341122933
1681944045.3194687,10.483553264928235,-6.622495165791818,7.596812422704651,0.2510216279592482,-0.1660339791875148,0.0309691921260901
1681944045.3295813,4.552711164585596,5.847936327626629,6.795619987397799,0.22171259866718535,-0.06686065268493563,0.0162239184987493
1681944045.3394914,-2.7534347574749143,4.174263357158398,13.887738138600763,0.1572078364951922,-0.1381101226057192,0.0044453040149756
1681944045.3495462,-0.5405690132091465,12.405950672118985,9.097753905657342,0.03939092943989316,-0.1420833679398177,-0.0071644803124717
1681944045.3595428,0.4068185518790149,-0.20953177143626914,11.021561029905603,0.0022932129731931764,-0.15050831470006906,-0.0146607860538414
1681944045.3730056,2.8737512698032384,-5.175442912721236,9.602516088461211,0.11761882901551475,-0.12789648003808685,0.0044539657805808
1681944045.379494,3.223139671597818,0.9739501232286529,7.643582532164007,0.14761504783246326,-0.09234544848259896,-0.0208404279860905
1681944045.3895524,-3.64271373880296,10.667073668588436,10.42178509778397,0.03210125100406157,-0.14607736041959618,-0.0149905915918997
1681944045.4013405,4.185383502445995,-1.6305017029317777,10.241832449121572,0.04208475978973786,-0.11341405564565547,-0.0053702482569268
1681944045.409515,1.3106691122439504,-3.7953492177797363,7.131519487405239,0.12506166366730684,-0.09801329164999903,0.008869330716575
1681944045.4195328,-1.4721187293019733,0.5011009003668323,10.149618717992237,0.135045792607373,-0.12918587597566583,-0.0058947085949829
1681944045.4294894,2.651243133033521,4.219753364090022,11.03315880518919,0.10691013235740637,-0.11403949397727318,0.0177849185106107
1681944045.439564,2.56303456022312,0.5492827675356395,10.990514805663373,0.12393935409856979,-0.08161490946096864,0.0323153648909875
1681944045.4495137,0.24260468169549412,-0.9342945020228587,10.078763020370259,0.16902953677359933,-0.07564489289752427,0.0340153750416585
1681944045.459702,-4.711302207030819,7.533134895672134,8.597034307708443,0.13469621286020123,-0.1634418881510626,0.0415426481899567
1681944045.470518,6.578906404679888,10.496885491790517,9.398160231436263,-0.0020900015341317616,-0.10705769512990217,0.0571594898042031
1681944045.482025,6.870076784197391,-3.959201968438014,8.243697949258898,0.049817737851215266,0.006627676130826724,0.0673210237559625
1681944045.4906788,-0.10385144318003464,-3.5216091398673646,9.659831036460286,0.15000821808837267,-0.01899183119902153,0.0454546574887582
1681944045.4995708,3.964536410404275,8.107819102545692,7.943617780922656,0.08795866900328729,0.024532561871676576,0.039477928393776
1681944045.5095353,-2.4842061576609056,11.240530472284583,9.98045691672247,-0.026390027602179386,-0.002820144713825221,0.0777126316365548
1681944045.5195994,-1.246388373984759,-0.29408677761546764,10.027096788860332,-0.018769933363952298,-0.05682919208655347,0.0940518368419953
1681944045.5295603,4.319198399872835,-6.623148441449972,9.022739473404531,0.06799322551362506,-0.007858368247357729,0.0666976634797402
1681944045.5395346,-1.0686736647639765,-0.3246595788947651,10.219386639285524,0.14667554011333817,-0.034529947646424794,0.0872278500732728
1681944045.5495412,-3.4817524558263315,14.00026119842662,12.233565236335194,0.009706323415078644,-0.09469660672457096,0.0729505632457085
1681944045.5594828,5.352353202304786,6.279216853594262,10.768021539739017,-0.07940068740828653,-0.06369486928069755,0.0615790028509446
1681944045.5694897,8.45674578386167,-9.94949873103354,6.2328310930334965,0.05027679929043632,0.04120948572244123,0.0532642033335515
1681944045.5795486,-0.7981670884628578,-4.4679013380946495,7.308774255844867,0.17922084426859336,0.04189446918867721,0.0360507060226746
1681944045.5895824,-8.567725478557898,15.744556226130648,12.219975979389528,0.011781141557310328,-0.0943514307209592,0.0698445205029794
1681944045.5995555,6.644608339010563,8.896546971982204,12.108197314286736,-0.10727041032464434,-0.055581044898593855,0.0788632769522019
1681944045.6095417,7.299785507130075,-12.64283261478545,5.9523538866472,0.043993381433125194,0.051229959784632316,0.1102417398628541
1681944045.619737,-2.700417614586282,0.4452478656353792,8.503974190603081,0.12370070008993445,0.015529447766171866,0.0982191477355309
1681944045.629537,-4.957939681626295,16.13258266737626,11.999946890110493,-0.06204563732081693,-0.08725755631156014,0.090279123598034
1681944045.6395252,10.194672051026997,8.825168975361386,10.348251991349128,-0.1725611126147613,0.02786733157952455,0.1465465862688371
1681944045.649654,1.5625675847785374,-15.422374282517548,8.365762320552857,0.026278687536043475,0.039204630990140356,0.1138539452490159
1681944045.659521,-0.36231408567705453,-3.8616734947829965,7.10081356762889,0.12915135212639742,0.034811717551775465,0.0649487961468049
1681944045.6694922,-3.0393943175228895,15.762364061810457,11.779439734962725,-0.022211013110766595,-0.017786262716987314,0.0809987549123116
1681944045.6794977,3.287157166638759,8.671470770665948,13.221275011115846,-0.13391692533417313,-0.003066030169994119,0.1163063038524934
1681944045.689531,4.175154393497903,-14.19225386311017,7.176753776006053,0.03104460964525143,0.04625957232716257,0.0526227455970593
1681944045.699583,0.08617037228886967,-2.459592503060258,8.158509333563682,0.14033539778346038,0.03144823477321593,0.0226691056427308
1681944045.709586,3.9592377126630134,11.880493086105126,10.307641536806408,0.015132293158092175,0.07353986448574729,0.0701197225984879
1681944045.719518,5.339595026449629,4.535927660026715,10.749603006282912,-0.022484907143653015,0.10837882854807898,0.1030604977545091
1681944045.7295525,1.4599265859678745,-1.1524748576179393,6.899942948916163,0.013736679077313406,0.1406478139137952,0.0889313731726952
1681944045.739536,-5.14471329349776,6.0536750574866955,11.37820368584043,-0.03456078209266408,0.039587217048280963,0.1417966921266862
1681944045.7495348,5.358211225455162,0.8596599090362652,8.623923680764166,-0.03026477536825687,0.0655250278125403,0.240107714050705
1681944045.759606,5.883504215024606,-3.4953256789933422,7.081875328011472,0.03769026251115642,0.14332656981763994,0.2642572064337083
1681944045.7695727,-8.446628918987827,-1.633814121758772,8.143199930722469,0.09992068450008675,0.056702831587404474,0.2546714980539628
1681944045.7796245,-1.7035466140689772,7.613759255222576,14.046819078056096,0.009826295084548945,-0.024011564337604197,0.2674514193472215
1681944045.789556,-0.78212755125848,-2.299912020205448,9.04185707298285,0.06672078296001399,-0.012495188770007225,0.26350508522361
1681944045.812353,-0.2866036387016565,-0.5838719239907744,12.486082270475924,0.13219738574091056,-0.07107125056983041,0.2191233624157258
1681944045.814379,3.67819070497857,8.867879342963215,9.466599484540293,0.09418874040637568,-0.04855000089633424,0.176098822468216
1681944045.820212,5.213785942332761,14.775233291573914,8.207002757418628,-0.030143210782446906,0.0027089102447224664,0.1723484982189485
1681944045.829512,1.8055705461311211,0.23061332389552575,9.019684018905135,-0.03195673901629625,0.00731138052419366,0.1840700049337693
1681944045.8432553,1.0445458568409542,0.8051765741792277,8.135803034834812,0.004349427159276511,0.022546274127574695,0.1632995296654054
1681944045.849576,-1.9241852339025258,11.507830323948282,10.175037693368061,-0.07415941674541701,-0.014391582633288828,0.1398050029215165
1681944045.8595407,8.844518681846633,3.563389475298045,8.891076668168603,-0.10890570581658557,0.08381053322170479,0.156856908315117
1681944045.8695087,-1.7201253435610544,-7.426521633550295,8.00745653535666,0.005145776804417741,0.07241149225770493,0.1481967706617661
1681944045.879539,-0.7305305363259688,-3.8061244866567456,10.327490097698323,0.06746434811335748,0.03067235028152296,0.1370016027626344
1681944045.889536,3.812353193859425,7.710358504342822,7.693821089887098,0.04260909351220536,0.06942308928673718,0.1717184175190278
1681944045.8995326,-2.777577523328137,17.103674232418815,10.78845795880482,-0.14527145100146913,0.03803242668125166,0.1570189435419389
1681944045.909538,-3.4271871967296974,8.912868145502898,12.088184551230961,-0.2660279656126213,-0.015224013358618897,0.1886068124708482
1681944045.9195335,2.4669089030366123,-12.06439254677165,11.940373012935002,-0.11446819759719686,-0.039705132169298704,0.1927357305225678
1681944045.9295545,8.169934314820317,-9.614465912153731,6.519101123551771,0.07591235970536069,0.05616100263634193,0.1966574628290482
1681944045.9395363,0.05639134655551085,7.413380504100459,11.645799771019389,0.024340621156812892,0.07181966907032623,0.1783303756651231
1681944045.9513268,-3.587828723192411,8.548272153396011,11.702672507711569,-0.06972536369417001,-0.004638538978119867,0.1653416891035386
1681944045.9595523,0.936160555645256,2.371582018655367,7.782903615244114,-0.1044934881826927,-0.011164689079739422,0.1488689620432206
1681944045.9695475,4.616113659748001,-5.788080217721158,8.817156642911844,-0.012176931928968097,0.013579567352353829,0.1539222885307618
1681944045.9795156,-0.6262195256807572,-6.421696955163627,9.014886294490802,0.1047266852690876,0.007556272212447725,0.1310165215668031
1681944045.9896536,-3.8514301066275354,12.587727093408622,11.182245250256875,-0.007346610714420232,-0.0741310974763643,0.1248174969491311
1681944045.999601,9.701987010748617,9.127261354137858,10.272911339073005,-0.132265208529453,0.020303242145206214,0.1582329858478852
1681944046.0096097,-0.40348891147640187,-6.60570980655566,7.122571192913503,-0.04556617972790053,0.047915897595867056,0.1894148130354234
1681944046.01968,1.9699188610092098,-7.959150870190095,11.019934782555207,0.07741232723556433,0.0049648021180500115,0.1924272764858552
1681944046.0296452,5.308044547112557,1.7170604252935484,5.083376676822787,0.1055110049170765,0.09010041294906747,0.2199007261928864
1681944046.039717,-4.460709077548992,10.194620883064372,12.421972232137872,-0.0013544499453886907,0.025518513521430395,0.2485095698770829
1681944046.0498033,-2.2341073223708037,2.988079950543803,11.586931448558182,-0.04993036597858587,-0.028838816240292973,0.2622414667543717
1681944046.059621,0.21521899900440053,-2.17604622826684,7.768795066792234,0.006422040453266708,-0.029775446829028534,0.2473846812185594
1681944046.069546,-1.9462861237694395,-1.7244634390201918,8.514503958743333,0.044028422212571805,-0.07397768780406086,0.2708033759531327
1681944046.0795586,-2.189953325166995,2.961162525503694,9.682267491586327,0.04267457788465518,-0.10792390005256207,0.2832167286810227
1681944046.0895538,0.24697854120143783,1.471613811135362,11.209747403382053,0.04674507422264031,-0.13956797281075906,0.2559897441801377
1681944046.0995998,1.4079786201070745,-2.668949327884789,9.859995888984866,0.0670352580563113,-0.10552374262871125,0.1955895711120912
1681944046.1095853,-1.5249205902675498,-5.687101823240183,12.2155584588771,0.1677505716514667,-0.15484304066792978,0.1681453574833222
1681944046.1195729,4.612679161895255,-1.201075892201879,8.03458792743143,0.20384200182870899,-0.12047253743383805,0.1624329973396607
1681944046.129531,4.449614876026688,0.23563966525192706,9.086184822300591,0.22249209018508787,-0.07691383077465848,0.1366905112203904
1681944046.139608,-0.07196855630139859,6.164236300445899,9.70521047978727,0.16382291800783336,-0.09658695395217831,0.1284287412103959
1681944046.149649,0.7327643376307864,2.165847121728215,10.935820251443062,0.13426418058722545,-0.11742280454573101,0.1204213489231416
1681944046.160546,-0.8535682711101914,-0.30624382482453577,9.96849088122471,0.15894170426607282,-0.1599904168577429,0.1172712136444398
1681944046.1711044,3.170970713093226,-3.3326746785286994,9.355643165928052,0.2114471085111238,-0.154558759571278,0.1015885312494584
1681944046.179587,3.2749441205448093,-1.8729064358597056,7.951827050367118,0.25648592095509015,-0.13512368136031117,0.112949839645321
1681944046.189901,1.1774912338065755,3.9708129508740795,8.592286789271311,0.24528049192544565,-0.13729793952472522,0.1234861228999444
1681944046.1996124,-0.5557434339786704,6.697297607803321,10.770193271772797,0.16510814270150428,-0.1694150124206568,0.1137226436671563
1681944046.2095685,0.4114787688710317,-0.8809133762094659,9.489838586573386,0.19076499590161927,-0.18778922347938382,0.1240008537110635
1681944046.219595,2.074781531068257,1.6878454774635359,10.215532193728869,0.20870656038349433,-0.1934651026743939,0.1235729519662209
1681944046.2296994,0.06421980582695928,4.353499283448934,7.6320108480155735,0.17016498153536383,-0.1958614755806865,0.1220437873539277
1681944046.2395654,4.9951366398500125,-1.3132176853735293,9.737635705359152,0.19993233222203727,-0.1738986049089815,0.1320962746080705
1681944046.2495823,3.687802171975407,0.4081883401205383,8.097958948524104,0.2381693795579702,-0.13913556959313217,0.1361949880060502
1681944046.2596395,6.463042282210914,2.250489381012946,9.643460843510372,0.2252945404483349,-0.07833781555469718,0.093087239974434
1681944046.2695951,-1.0094776736666171,4.80589718387153,9.128664750819652,0.20951670713066095,-0.08692765414456019,0.0791357223328896
1681944046.2796366,1.5748391674411943,6.177281775344954,11.865842343888898,0.1430118606174106,-0.1110742831673468,0.066896355563099
1681944046.2895627,4.102621520330185,-1.2608782155802265,6.929253205508482,0.1792255119229276,-0.07176820209712544,0.0760343213018723
1681944046.2995696,3.744197464109692,0.6609575502844709,9.035232284928579,0.20567752496102842,-0.052369517140051725,0.0413730767008611
1681944046.309684,1.816049290144228,3.3260426943811763,9.313787118984072,0.19852446064438206,-0.04102397452753923,0.035891956501896
1681944046.319634,1.6898668024114583,3.8256475464545194,10.679847223339053,0.1804873659724012,-0.04701403959608745,0.036092224383051
1681944046.3296542,0.713569213357842,6.040331986198336,10.199725995505164,0.14809865666011737,-0.06111805226072056,0.0485707510647126
1681944046.3396811,1.7265334766955907,-0.5677735417808351,8.52424728098859,0.1643276596532927,-0.06086378793505537,0.0594737034675427
1681944046.349589,1.578701993208775,3.240004403479956,9.120873633974641,0.17646966885240964,-0.07458815730840031,0.0747530300554581
1681944046.3596392,3.04684158086325,3.003363187150639,8.648103629841026,0.17682587208788478,-0.04872601764472539,0.080304293745453
1681944046.3696113,0.07197523744036514,5.574166620742678,10.691265916483378,0.14147633084381683,-0.07368228936809819,0.0886143360671349
1681944046.3746655,0.790414875974244,1.4317408096655226,7.804861190933121,0.1468805661187887,-0.07980366459534818,0.1076346401509591
1681944046.3895843,0.9623321325352093,2.349594784327767,9.439808917034922,0.15617708608763942,-0.10167177943166096,0.1269318748649903
1681944046.3947222,3.1092529854705577,0.5022165731283948,8.032784717974778,0.17607571581754153,-0.08727553598549902,0.1385673869785615
1681944046.4086106,2.318110689193477,2.654690811086981,9.829452221999363,0.16302971687732293,-0.08071318117082155,0.1355795551475831
1681944046.4185624,3.4497161534550767,1.6414688150126893,8.667259677604362,0.18290779192410989,-0.058447224770771807,0.1294208158191987
1681944046.4286308,2.1823207923196084,3.901458088734271,8.266604758221542,0.15451573576198016,-0.03803128621510507,0.1244940076407739
1681944046.438638,-0.36489897185561604,3.1048696457779044,10.131553707631717,0.14617531159812855,-0.06391349285272332,0.1199325386819192
1681944046.44867,-0.13643432727086127,2.8532820964566135,8.91404211160999,0.129145776492146,-0.08213341880190403,0.1167364109691926
1681944046.4586475,0.9605536604659386,0.8259902610534713,9.164854280065592,0.15172107098716764,-0.09543097633183507,0.1218682442244836
1681944046.468592,-0.10089024421519616,2.8963710135129657,9.911256968227057,0.14631128561245482,-0.11479885690534464,0.1209969807800599
1681944046.478562,2.779461730347686,0.9359814108641848,9.579405281385593,0.16279792857600114,-0.1085120728534954,0.1132150430616685
1681944046.4886043,1.9634026730661291,1.0277454117409235,8.282394643235579,0.18155926484943502,-0.09708137211908661,0.1166606013116189
1681944046.49858,2.551330910981174,2.587340122762774,9.395507434594306,0.18207065141007261,-0.09467317174978848,0.1048621748027154
1681944046.508579,0.9200755162402509,3.0029958755889945,8.166575366875582,0.1757094562336323,-0.09702059835498852,0.1087171350058862
1681944046.5186384,3.5858449988896655,3.480729226444885,9.601695243199977,0.1558150812623196,-0.08632699672846955,0.096069625430996
1681944046.5287266,2.676896476747879,2.62489617934253,8.147283421562188,0.16090521105968145,-0.0629009980935832,0.0992341254290887
1681944046.5386548,3.626824793084071,2.409165789424931,9.122538143648798,0.15836913826473667,-0.05748605695586752,0.0819866348442384
1681944046.5487263,6.132202396885276,6.726849868686167,8.064798771789558,0.10726625146769721,0.024949407897899508,0.0452702444431134
1681944046.558593,2.1670673552339212,4.618071678039959,9.551885375391787,0.06898503942285863,0.03984648889912729,0.0210656773683377
1681944046.572099,3.2590405132617697,3.633194424938905,10.531823930681014,0.06588269351756117,0.05337662699741651,-0.0077572531613758
1681944046.578871,2.1813769440157773,5.085000523080046,8.527813366966747,0.05295135820353025,0.0770903453104133,-0.041684576458042
1681944046.5898342,-1.6178668516203762,6.782058683332155,11.66997098617602,-0.01676526084594512,0.0289029323912372,-0.0659240942063978
1681944046.598562,-1.0819979879999941,1.3883306701934623,8.932305968674793,0.01717041624143336,-0.0008641091068073564,-0.0717819939914397
1681944046.608569,2.9390459688910395,5.8442461400893935,10.943356662276898,-0.025210240103167084,-0.003936612133343985,-0.0918596770229986
1681944046.6187968,2.3910551383337304,1.9332040607170913,9.065620858737576,-0.01609832749677676,0.038298032474727,-0.1204805682960203
1681944046.6285973,-2.526212897524325,3.382363541551879,9.837268816421801,-0.008119974140829333,-0.024940930328079213,-0.1390638809266737
1681944046.638629,4.206943597952713,5.798584272363016,9.484209700845623,-0.056986778885016263,0.001226783257566814,-0.1357530515256575
1681944046.6487212,1.0445619962126813,6.1432253408465956,9.92013537290052,-0.0793452126552743,0.0017385548329093676,-0.1413374106946638
1681944046.659692,4.066457000523729,4.779556886364411,11.099486674953328,-0.11811551315157225,0.011976887071862232,-0.155262203103607
1681944046.6686232,4.605409595671758,2.845933182362296,7.647166830658739,-0.1276213183309521,0.06412773345221925,-0.1643189947667769
1681944046.6785934,-0.46412417194828226,0.8068139629070549,8.813783657142203,-0.10584433253819517,0.03448988081363912,-0.158568323737686
1681944046.6886652,-0.7146860152533644,5.693123865133684,9.357568975466288,-0.1457628200976659,-0.005645560756637638,-0.1526660780969313
1681944046.6986642,4.390032348357387,4.268172992998526,10.856174821007759,-0.16643510258921243,0.013414981677025144,-0.1555497955146483
1681944046.708706,6.353436307360597,5.240521766329405,9.77832025554994,-0.19590924785497354,0.0774659020036921,-0.1969990145030669
1681944046.7186258,6.8742159510165095,4.485503725325149,7.772984902565984,-0.22437420057463237,0.17652746458656948,-0.2534023683133772
1681944046.7286212,0.3542133664143743,4.586376578495277,9.338254202532896,-0.26554396182489515,0.17039899947817946,-0.2866679589811018
1681944046.7386782,-0.9255843654310126,1.2875102788498014,5.973488282865382,-0.26164399395142995,0.15684536063995866,-0.3040948371949843
1681944046.7486403,-4.646373824633124,1.5061343836528063,7.672655087376016,-0.2579969314314919,0.06574751623962982,-0.2772082548204115
1681944046.7586386,1.7047527015203783,-1.0495875936132384,7.381116270057567,-0.22492359609458185,0.04910806589333382,-0.2463729690375975
1681944046.76866,3.2550809292192295,-2.416524743746373,9.032782597706227,-0.1624473120750336,0.06344168098391768,-0.2300463031593016
1681944046.7786126,4.559826184113607,5.633913130020503,11.609679435287195,-0.17553721729981842,0.11212502136901319,-0.2578846077981642
1681944046.789131,2.2681143057031146,7.808204124030991,13.476759316452572,-0.2480859085355812,0.14162591681823158,-0.2478493909898451
1681944046.7986388,1.8058450043077006,3.50151110832837,11.154224318327822,-0.25199232316934145,0.13066666863822138,-0.2272710363927534
1681944046.8086302,6.443753983920606,3.858608758362173,8.031529016740377,-0.2657395872419411,0.1939812190366676,-0.2303590487304381
1681944046.8186233,-1.4214469472556104,2.7917445538352252,8.054504229402033,-0.2683057416702403,0.18111353799557178,-0.231820584422653
1681944046.8286686,-6.289345296112618,3.987410258041592,8.379137291873704,-0.2771996759090036,0.07904250481803868,-0.2001536946359328
1681944046.8387496,-3.37041255535281,7.91276645253004,6.301073774184346,-0.34926768745302894,0.002590321894094847,-0.1954671751323393
1681944046.8486743,8.823886261873307,0.5641772127870233,9.618926309175425,-0.3528588123790105,0.082971680651913,-0.1666197489562682
1681944046.8586683,-0.8699791276282328,1.119195401859601,10.707528658981703,-0.3055467412295781,0.05293836680082446,-0.1879082034888914
1681944046.868825,6.768282754182996,4.897658337303641,11.239832594520957,-0.33081795271930176,0.1332113989853191,-0.2359629433217696
1681944046.8786256,1.7083067739583875,2.284304146159858,11.61309877016221,-0.35897202607578665,0.13253709143541706,-0.2564068000379256
1681944046.88862,8.880782001293085,1.6004413027081132,6.962480251461234,-0.3276091054080461,0.21127878471022185,-0.2750956873956374
1681944046.898641,1.006923581561069,4.3801302112404334,8.986445070050443,-0.39080976778416743,0.22619400880442955,-0.2625184516969374
1681944046.908692,-2.560653302556576,3.0153406413751,10.90059826292007,-0.37412737819945174,0.1351456783002559,-0.2237908254924467
1681944046.9187186,2.4532213398836626,0.16487683313238463,7.702214958851742,-0.3867109566771648,0.14444878256865978,-0.2196786265435866
1681944046.928664,-4.376145204146884,0.33415822891971286,5.174941473396468,-0.3414455280592742,0.0799101034580279,-0.1837500046554259
1681944046.9387126,1.4726382450022355,-2.5676091574456033,10.976014816449862,-0.3207968226805498,0.039697523300203964,-0.1810293655458144
1681944046.9486408,3.870408243930743,1.9758408774173972,4.77075561114831,-0.2721295497841099,0.11046344949223885,-0.1486024420324019
1681944046.9586658,-7.2102102222536395,9.640344158767187,15.5993470027405,-0.3925158890719883,0.0007971953409606366,-0.189433203226631
1681944046.9686508,10.224899166306582,2.1470268440682374,8.284545791268544,-0.37198317872479225,0.10824232290790994,-0.2092074017587355
1681944046.9786642,8.012963351173612,3.538406028740246,9.717309510858641,-0.4423331803646806,0.23567107020639308,-0.3055882315698317
1681944046.9886627,3.32657892237905,0.32857233281069403,7.405627249022858,-0.41322165685131634,0.2959122655301103,-0.3172708313527754
1681944046.9986491,-4.589090437575014,1.7873750207868226,11.479465450483746,-0.43593885468081534,0.20235621836640044,-0.299361364132469
1681944047.0086467,0.2912060315748145,-1.3157737211180098,10.689631927856196,-0.3845702339176967,0.16987268754229523,-0.2627232532563857
1681944047.0187082,0.7973568018900364,-4.070732899054478,9.78796748411504,-0.3327715219825436,0.14339787229698142,-0.2309786390128783
1681944047.0286264,-0.8878297375695812,-0.7213931187114878,8.263587545745377,-0.27413767949601725,0.11778451131791962,-0.1949047159019163
1681944047.038696,1.2837453379172044,3.620003287930269,11.68209941304207,-0.3184366009693854,0.08575662020754748,-0.1565701227250746
1681944047.048646,2.205959971602735,1.184089788470561,10.181654987952578,-0.31322410844593396,0.10568112568334027,-0.1417560886207274
1681944047.058673,3.063215677199103,2.314148518599819,10.837741914326395,-0.31493691493281156,0.1309371961033435,-0.140377924925392
1681944047.0686853,1.7557178503557942,1.9741867442136478,9.135243754052693,-0.3240939728894737,0.15203481696787835,-0.1403813968959502
1681944047.0786376,2.9974701433362383,0.6617817246778862,10.147198311684122,-0.3031878188891786,0.1618868049699047,-0.133491636401718
1681944047.0886517,-1.2436337484516098,2.1773778655915526,9.91199453803715,-0.3170857311364636,0.14561812733388224,-0.1179406057658842
1681944047.0986238,-0.3295976112595525,-1.5533722946437243,11.527798858554226,-0.2735035717277682,0.1051385754981528,-0.0931547145906142
1681944047.1087437,1.6559149158340987,-2.6686679310037613,9.014277947201922,-0.24114785380072207,0.10809242168287472,-0.0753005977335623
1681944047.118698,-1.1714263480751856,1.319552294546275,9.316677700681447,-0.19899467127917692,0.08454676915339283,-0.0308959718409231
1681944047.1286566,-7.415085472021538,7.1468740593764695,7.956894141870926,-0.30049151159873555,-0.029708947118649368,-0.0537954654160193
1681944047.13875,11.54478932308786,-2.9234502422609117,10.498598431142547,-0.253657447136253,0.06652583030515959,-0.0310563902917555
1681944047.1486433,-1.09126308125725,-0.06036752316287972,7.54631032839758,-0.21216621923228976,0.08802977632245339,-0.0593775149050406
1681944047.1586392,3.6006433617163647,1.1716957674413084,12.509452453448791,-0.21829307440676476,0.08404644125858442,-0.0693924884858778
1681944047.1687057,2.831512995647548,1.7831134502227677,8.648578428237222,-0.2353487008177624,0.1385909119079048,-0.0696010376873663
1681944047.1786337,1.3769910976425572,-0.7755901165814593,11.238589511013561,-0.19827458218180688,0.12182619066530877,-0.0582784536841562
1681944047.1886368,-1.3642451843664047,0.5200894493883356,8.885588306640274,-0.21356715084624384,0.10447835978419746,-0.0527645583811453
1681944047.1986332,0.1784303150577309,-3.1407636930438834,11.31861915322248,-0.15119402866489515,0.07430244453343163,-0.0209888249251297
1681944047.2086527,-0.9001916884301319,-1.2372497645930693,8.59112766523082,-0.11591225937392992,0.04365870621816142,0.0068617410410889
1681944047.218688,3.3355431776224127,-2.2396875984333473,9.944586904256077,-0.09391213791808614,0.06522909322059152,0.004369210769678
1681944047.2286594,0.5536803355312813,1.7695131670619804,9.710269232033397,-0.08267084195503473,0.06184877228180174,-0.0044726819346896
1681944047.2387276,4.33870536672557,4.189376569834119,9.962314150507705,-0.14659794943849,0.12115942632466091,-0.0116632060694745
1681944047.252182,-1.149949990193313,-0.16719128340650108,10.605213144321624,-0.13710025431987719,0.10133666030882035,-0.0113993614527634
1681944047.2586527,-0.4340520925175192,-3.2723400709659773,9.820888976163468,-0.09370925607366035,0.0923512336897773,-0.0190375607076338
1681944047.2687557,-2.8518691806898278,1.9699490826421016,9.843627560970033,-0.09240685181723997,0.048156807032829624,-0.0203364483627728
1681944047.27872,1.6322606599539093,-0.33933110834482116,8.626227131917721,-0.08705210301368575,0.0363125922889716,-0.022906181550329
1681944047.2886918,4.80598347889395,-0.12814808368200026,6.5779456972312715,-0.06452587578845904,0.10358996806861293,-0.0244746107223681
1681944047.2987666,0.6516662845680703,0.6861034996799829,9.628343104774034,-0.0633629428241398,0.09454825201590582,-0.0236531357827833
1681944047.3087604,2.4874965818410497,2.5953153251843224,9.483483625492447,-0.08270664081304469,0.1175581565687735,-0.0083626817527464
1681944047.318692,1.0155535601417052,0.9555924367630604,11.84023978082649,-0.08988838857457943,0.11718646529828203,0.0035543993266993
1681944047.3287156,-0.39367685732766644,-0.44396350077389624,10.385758681425967,-0.07088134755094166,0.10072699110361394,0.0076423602563091
1681944047.3386693,0.41186584260678755,-0.8946730269032832,9.502414399215862,-0.05255148561888458,0.09532752947913277,0.0199175149586745
1681944047.34865,-0.7359381609402839,0.37669771778794436,9.6572424825027,-0.0305201669847694,0.06505478374045924,0.0280697781977006
1681944047.358683,1.4124364930389264,0.7705732256728574,9.227928324204193,-0.04353741781220616,0.0751088904810859,0.0196211513516255
1681944047.3703578,0.9234794026514432,1.9090657213571793,9.65834977637862,-0.05358820772922084,0.06861533264288242,0.0204130437609502
1681944047.3787522,2.998330555192779,1.3026051762970599,8.87898921480126,-0.060342802587470254,0.09915067737995074,0.0079748591792532
1681944047.3886807,1.613750678982556,0.10176023842242489,9.674568652521339,-0.0716998314713054,0.11210448743923312,-0.0073659142094901
1681944047.3986962,2.1559713646230403,-1.338360975713685,9.334592695192882,-0.03773174394822111,0.127457646286031,-0.0226247172418287
1681944047.4087667,2.7388182543994364,-0.4626196939064466,8.528662094003845,-0.020134595775992206,0.15905325090984032,-0.026691447159951
1681944047.4187284,0.6502476806365145,2.15581922108741,9.077781406623968,-0.04332319022778827,0.15473726175210512,-0.0394168544176272
1681944047.428774,2.4620324552853337,0.35755272870741056,8.944564856214608,-0.030708929770404635,0.18455827386679288,-0.0463383916381052
1681944047.4386842,-3.375887199621257,2.353721610809982,9.71745850014012,-0.05364762429037247,0.13812321448447576,-0.0386869880917719
1681944047.4486704,-1.8151921804950268,-1.5421527896648333,10.103573251931223,-0.022326515030595354,0.0781127004878457,-0.0248617540660551
1681944047.4586549,0.8956368166790288,-0.30706797285353404,8.504172195507449,0.006032635930585737,0.08110292470295379,-0.0055646692949584
1681944047.4686823,1.5231806431035047,-1.981568748768316,11.020471335959392,0.04308703108245763,0.07449160132580299,0.0218947220978089
1681944047.478765,1.2908779734531253,2.446003037038609,9.875643501738347,0.03717424870036555,0.09756411894524493,0.036501097345049
1681944047.488909,0.6543204240482249,3.2174457713987885,11.484585056725868,0.010880752640716257,0.09139353047676223,0.0325715251651355
1681944047.4991317,1.7135989650022185,5.185309098398746,8.959549902261026,-0.04153725741479868,0.118673237751182,0.036485071146185
1681944047.5086915,-2.813563511412456,3.067779330811183,9.75069069821892,-0.07657884293715674,0.09198377180834155,0.0104765788105079
1681944047.5187678,-1.052816424257504,-1.340286770388105,9.499264409630921,-0.035368920252555475,0.07459331707845754,6.188088215376003e-05
1681944047.5293083,-1.0284820722936125,-0.942363204194453,10.217026414933793,-0.005869244059400756,0.054194081938368076,-0.0095388294744542
1681944047.5388043,-2.2161641693316287,-1.6245411546110613,8.870772668890627,0.020509514924750356,0.03426392707102851,-0.0049827142234197
1681944047.5487902,-1.3047628529427906,2.777282621640031,11.496125096253575,0.0098525805037942,0.0030992344823145748,-0.0187640238168886
1681944047.55871,1.0307236887954325,0.6204864523518123,9.727945755809468,-0.01626640776679963,0.030161111397750465,-0.0172948103013685
1681944047.5687015,-0.7280836497940807,-0.06278628776970972,10.92804438968677,0.0015466542776681168,0.008057001531341673,-0.0097415756049803
1681944047.5786765,1.0912190279735638,0.6256418640740092,8.954176334452164,0.0035692842337542103,0.025735802281014627,-0.0201463505241326
1681944047.58871,-0.3077839999989149,1.9620319169441052,9.756455315256286,-0.004663670986275542,0.019455188722704568,-0.0165871988597563
1681944047.5987494,2.4069914478620507,5.86643024808602,9.01793278797286,-0.05642132957420869,0.03541997108038482,-0.0112041087436727
1681944047.6086652,0.6012553596786403,0.07565584665418455,10.115404153848674,-0.056210782295790164,0.04755684449694276,-0.0194928899022987
1681944047.6186662,-0.02687700280141002,-0.7854058423553921,9.275088303262704,-0.02491559455921833,0.03914677176834111,-0.0405370678368261
1681944047.628723,-0.5267294699081628,2.5651765342375223,10.10300487240701,-0.05219396420487485,0.03577010743207095,-0.0593023199203661
1681944047.638715,1.0018886232790025,-0.8213441668562356,9.336651784612599,-0.026961183167000916,0.030036673223395684,-0.0626149039331129
1681944047.6487236,0.7236400930394583,3.9663349769311806,10.669117673375498,-0.06459178775209337,0.04618300970092059,-0.0692584897938421
1681944047.658712,-1.571028637028668,1.8689110702238254,11.364588247740887,-0.08765868861595282,0.020986208086967776,-0.0619359623256376
1681944047.6686895,1.4961179048291322,-4.84333955470685,8.650603601126775,-0.026054897826953322,0.02144707634672557,-0.065612816399639
1681944047.6786983,1.328438963226956,-0.07665239517471921,8.170109840376728,-0.003812936467103151,0.052276099333053265,-0.0643883358302763
1681944047.6886885,-6.891439022134126,0.891334628158092,11.109973000817321,-0.008424810346057717,-0.034458096037921965,-0.0547461930277994
1681944047.6986885,1.1066039538176327,-1.1668528584333666,9.859368541669578,0.01230465992162521,-0.06401503070031511,-0.0507699112954786
1681944047.7088225,7.41345488818923,5.391882926935689,6.094028055364045,-0.027846956768341233,0.05044974179011726,-0.0660333197179487
1681944047.718692,-0.7231606304029253,2.0491783804050105,11.259584501246508,-0.059184224244328405,0.03667032763515653,-0.0648317571345022
1681944047.72867,1.5617629261163581,0.7097359331868208,9.58871008126072,-0.03477369003891279,0.04385727460858315,-0.059738763755863
1681944047.738715,-1.6377563571521092,3.0143954363020717,11.407671030031844,-0.06594696854131948,0.03575664499100327,-0.048421484566038
1681944047.7487245,-6.012597569593739,2.2486408993478766,11.75511934669317,-0.059138884947361206,-0.07377880009783705,-0.0493447269859961
1681944047.7587817,4.956610713874195,3.120640188272786,9.066975051019774,-0.09070475437407644,-0.03509722401307189,-0.0445642705622366
1681944047.768721,1.9684494106236716,-1.7516759636076915,9.0076635707735,-0.06249458159725069,0.0005706313992022427,-0.0336052897933176
1681944047.7786968,-0.45362342794612814,0.46137061279229585,10.46336923210865,-0.039837760228290726,-0.027753344173810143,-0.0286987024906328
1681944047.7899473,2.233620327210236,2.359134932429594,8.943107616168492,-0.05983106204297476,-0.012185075657022863,-0.0189287133130482
1681944047.7987676,0.4507971462694754,2.2997939672583314,8.838081954623526,-0.08144210871598674,-0.004929482179914393,-0.0145970481994799
1681944047.80873,-0.39845152793347266,-2.3262533846261273,9.10864165385723,-0.03825719988276793,-0.03679016222420806,-0.0045954078982821
1681944047.818692,-3.354975174788789,3.3583033558874247,7.672470054251152,-0.05403264371662408,-0.06703070629434267,-0.0201899010303667
1681944047.8288314,0.8224196075863585,4.109420572011062,11.936863737913653,-0.10814874910977015,-0.0902954666241984,-0.0314801420632055
1681944047.838713,3.2255902360973594,-0.507745941804657,7.791391212061715,-0.09358229171159267,-0.044857827507007064,-0.0424490060272864
1681944047.848731,6.5609563695046145,1.8799891880943813,10.349624458792343,-0.09945052703517199,0.02031674585492005,-0.0706209625664404
1681944047.8588035,4.434475830288921,1.081717980807617,7.972887310476015,-0.10983418348108229,0.09549809262756828,-0.0802097033324888
1681944047.868711,1.433765264975342,0.8145737808433553,10.970999670964057,-0.11894566869963312,0.10067762267345663,-0.0714109997811964
1681944047.8792737,0.08465760581436371,2.2491480394374226,9.592298411182693,-0.12060829231047199,0.09945222872133577,-0.0602153960230997
1681944047.8886936,-0.7435527974374339,-2.2430777201411143,10.750535434828224,-0.11029250291971174,0.08031877024146984,-0.0584075200918368
1681944047.8987,-0.5239705888420163,1.2563248352040075,9.865980662083997,-0.10170452122190708,0.05394968700585389,-0.0455524932208708
1681944047.908708,1.7870694752316614,-0.34694621682310245,9.03590573961906,-0.07935374959803285,0.07420359460018766,-0.0453432213130644
1681944047.918693,-0.7556829456092007,-1.0001006404708652,10.494318726334596,-0.07623820534839362,0.0537894739679179,-0.0431880402925661
1681944047.9286947,2.5864033002494944,-0.4123564917248693,9.189663837999312,-0.043761586478429745,0.07204584444411913,-0.0298772241535833
1681944047.938763,-0.5836519473108461,4.261236936504443,10.316047127515215,-0.08918231770252881,0.06600633543830679,-0.0316234539809874
1681944047.9487069,0.43286512335734967,1.2432778514903036,10.54356712322577,-0.10985107430174547,0.059131093433296436,-0.0354898321989229
1681944047.9587867,-1.54922427942297,-3.9779290393109283,7.969400676502028,-0.054106484916671416,0.03628866649186353,-0.0373135070863417
1681944047.9688237,0.34348999203496894,0.32121591724890375,9.902241031258907,-0.03499938806890698,0.016276318012466654,-0.0302652764681032
