time,ax,ay,az,wx,wy,wz
1700842120.327026,0.0033611229050394945,0.22962731343114826,9.896276050133494,-0.0018750962088896707,-0.0002741187929502266,-0.0012172892103172
1700842120.3371038,0.011087302853934614,0.0857453434933561,9.844763608252704,-0.0009087331540238923,-0.002157644569466419,3.811103569199077e-05
1700842120.3470654,0.10995113881381782,-0.0324580749915681,9.76576786699002,0.0006782165588099643,-0.000961460615656647,-0.0021091588651962
1700842120.357147,0.12163422949073431,0.04563843007894046,9.77623891813627,0.002731613218535872,-0.0005665531493496387,-0.0006462252577967
1700842120.3671114,0.181361259564661,0.1340621856984392,9.774048547723176,0.0018852401977331441,0.0016659966450996123,-0.0008768195631183
1700842120.3771288,0.06866796128795244,0.19175213681165015,9.855368887227126,0.0002606116932193512,0.001033818253762069,-0.0002222781996443
1700842120.3871353,0.034819861793574367,0.020530653645392045,9.817132005693937,0.0015588910405084759,0.00034612822032087273,-0.0012873516762829
1700842120.3970952,0.019312534633648532,0.13512850490882383,9.856689011183855,0.000968067172188776,-0.0010847538586678516,-0.0007799622481889
1700842120.407076,0.1305342442244515,0.1743589175070025,9.818695586627085,0.0002252402669769506,-0.0004473571463574015,0.0009157870434955
1700842120.4170978,0.13986018806510347,0.14290475364342417,9.807384867359909,-0.0014809487689040257,0.0012293771703756908,-0.0007550263190842
1700842120.4270875,0.04329075127089483,0.1322979169751937,9.850989848819635,-0.0008476525991745491,-0.0004015369436432992,0.001905591495315
1700842120.4370978,0.04222780949941207,0.005349901386341448,9.824110713331265,0.00048042798457425824,-0.0011406414338509196,0.0008539547042254
1700842120.4470613,0.12722911178625432,0.04174550363892687,9.767685849615551,0.001640847926682668,-0.00010537325391456031,0.0007328810960552
1700842120.45707,0.10142630465197315,0.2243446997308849,9.845891172502562,-0.0008752117621707762,0.00036214749441327595,0.0007310298450556
1700842120.4671092,0.04311843326181074,0.06216712497724661,9.832815459734984,-0.0009080067017655091,9.392382834641058e-05,-0.0006842248486555
1700842120.4780865,0.15333788895089082,0.08262314116349373,9.763946953541701,0.00030309539183520726,0.0014640891631395928,0.0005969048387577
1700842120.4870842,0.05978689362120785,0.19692885616597913,9.8695319731531,-0.0018363433325054288,0.0011440780225095038,-2.5956215822652657e-05
1700842120.497178,0.07475379075432441,0.1325881286013945,9.828089855444315,-0.0015789304057816306,0.0003893372194131616,0.0015569031592257
1700842120.5071363,-0.03335903495683719,0.005806316051715433,9.848862235490897,-0.0008167235502745437,-0.0013011989797457582,-0.0001645432431451
1700842120.5171502,0.12334016610113407,0.07342262648592844,9.77607839409734,8.813267293835748e-05,-0.0004905763491671658,-2.86948589752682e-06
1700842120.5271003,0.16956859820185755,0.23528014475287298,9.815723765749356,-0.0017525226073620628,0.0006813967242033955,0.0015967733114757
1700842120.53706,0.030355953329834602,-0.00745620955216028,9.809784553774328,-0.00043413490830664157,0.0003040306437344088,-0.0001433138032644
1700842120.5471,0.13983597101918152,0.05240158801364345,9.777360646332307,0.0009580161481945413,0.0012245519408709841,0.0002403807947211
1700842120.5570717,0.047706981766077274,0.0953565336714345,9.844402081410557,0.0014821505985690312,5.556340605943294e-05,0.0007880043621207
1700842120.5671017,0.030273888641485242,0.19748878151476948,9.868341698478101,-0.0006472182040160667,-0.0008005159340618387,0.0006281972590749
1700842120.5771005,0.2041650942097609,0.14034937869603603,9.778543910279815,-0.001271210696386349,0.0015441782613329076,0.0008222739333086
1700842120.5872395,-0.14547309270841857,0.03233110176965276,9.92648465606254,-0.0015137104810307967,-0.0023696017177378256,-0.0022540647415644
1700842120.59711,0.1613008441953022,0.147061527308423,9.786440838558262,-0.0007589807213560014,-0.0016904900983796473,0.0009504359685615
1700842120.6071603,0.19059806832090065,0.03921921734401326,9.740105071704262,-0.0006867041766599437,0.0013128458040962282,-0.0010403532879627
1700842120.6170585,0.01672992589560871,0.15609853125357742,9.879284239111037,-0.0010607312766554816,-0.0008664583949292399,0.0006550231472737
1700842120.6270547,0.13144056060119583,0.05087184257073721,9.773536371124644,-0.000798488329531857,0.000811032606117274,-0.0008630476305461
1700842120.637053,0.05512389044739549,0.11297888176409326,9.833151793614789,-0.0007362597154063247,0.00014309462357263775,-0.00049572574163
1700842120.647076,0.11116919215723012,0.08971119443416935,9.789298232451463,-0.0003283337159747331,0.0007875696471085753,0.0001558301509157
1700842120.6570966,0.02047972306728909,0.14180133675769488,9.861575406490962,-0.000165920123128696,-0.0011365257718913466,0.0025370348365776
1700842120.6672306,0.07565608946820358,0.16473228892746183,9.84291835624941,-0.0017513960069394242,-0.0010042954448447041,0.0018281132569335
1700842120.677184,0.04945972825333069,0.0157365448043926,9.797162679620175,-0.0012238926753656621,-0.0007461269453930384,-0.0006596364192865
1700842120.6871307,0.041598320618882016,-0.009439236289740579,9.805265811892944,0.000797814003293333,-0.0014539322670509228,-0.0012191780489138
1700842120.697584,0.14362389083098956,0.19748351534423492,9.824348878321343,0.00022151618043758151,-0.0010326039874203603,0.00154089442266
1700842120.7072415,0.11702301838895042,0.035623795090673406,9.772976233594537,0.001383423753699723,0.00014944267149147886,0.0008032798131261
1700842120.7174556,0.09431293399987367,0.16453540803221425,9.836587822494254,-4.483722773968046e-05,0.00043069131408830644,0.0003342772460109
1700842120.7270925,0.17302974541993915,0.09322716111183528,9.774426094118061,-0.0003428929527947493,0.0024278179536912077,-0.0006179157290808
1700842120.7371006,-0.017524533177021812,0.03396743815198116,9.831196770808713,0.001152840244500623,0.0005119041909253085,-0.0003634704272463
1700842120.7470992,0.07081222674386878,0.0508676326255985,9.794401355038588,0.0018703342752506825,0.0005648005604856315,-0.0007427094616196
1700842120.7571013,0.006044441428456991,0.2067858422205849,9.884707442953257,0.00013285425286106231,-0.0013656418575397188,0.0004069130872175
1700842120.7671402,0.12393090480746602,0.0718681526817944,9.791381647623261,0.00014141769423249592,-0.0003084090465138358,-0.0004923818279258
1700842120.778573,0.1568901893389571,0.20589337553275713,9.813597890287625,-0.001965995619174251,0.0011731286563662214,0.0002597812334806
1700842120.7873926,-0.08061237509372964,0.09091565243449791,9.90240011552909,-0.0014738617226099252,-0.001984784188229612,0.0009474540774044
1700842120.7971642,0.04204877155171178,0.059714675131155345,9.82449507551006,-0.0009128292794074274,-0.002532778955982076,0.0004423033159491
1700842120.8071363,0.27537363008324633,0.08188424357752244,9.708671396937346,-0.0005235626807818328,0.0017557737074390958,0.0005585332492182
1700842120.8171248,-0.04750994988257404,0.20425734522356156,9.920905189348863,-0.0019100944096498331,-0.001359687658221017,0.0018985193809293
1700842120.827182,0.12844588327647966,-0.011476829203140292,9.756502670545872,-0.00036000509541888806,0.0003330832153291259,0.0001733293528467
1700842120.837102,0.19821853394985048,0.18832291081687313,9.779627626075124,-0.0013289546693028204,0.002134260598922968,0.0019644679622523
1700842120.8471286,-0.012535267733137501,0.014402870879667658,9.84832807691286,-0.0007224708012073696,0.0007410080604348648,-0.0001965823695264
1700842120.8570929,0.0562845748382007,0.04209096168066414,9.80729261462869,-0.0008510069271690537,0.0011101690867704127,-0.0025856207004017
1700842120.867159,0.06715564922139095,0.13179171755660452,9.842457166417526,-0.0009195575252722061,0.00039305331637652045,-0.0015876103071696
1700842120.8772523,0.06843552162283027,0.17654340325838733,9.84335897060989,-0.0033286854230937233,0.0005275604041285935,-0.0025151912933416
1700842120.8880956,0.11352669368184476,0.04855328732494325,9.790667341962312,-0.00013723139331186832,0.0001494326991151015,0.0007418225058153
1700842120.8971438,0.11924799739590425,-0.009685190665505952,9.766484655093251,0.001769369109079846,0.0008356363478451506,0.0002131967984404
1700842120.9071522,0.07505240243402288,0.01491990854074103,9.785344038246912,0.002566964363635156,0.0014029966843338748,-0.0016773809557981
1700842120.9171586,-0.02478662075269929,0.21971666703085704,9.909045367444769,0.0010585920464085458,-0.0013369453815912575,-5.8730272130624135e-05
1700842120.927092,0.16793332345052447,0.11979098402182597,9.783817048142135,-0.00023446220026675888,0.0009373347152762986,-0.001720593159107
1700842120.937087,0.13824608233957128,0.11233019594476853,9.793519079115631,-0.00024340973743261748,0.0018124058483061864,-0.0011558364723078
1700842120.947085,0.09426357875265315,0.14049440131644322,9.81834433586982,0.0007382048440897109,0.0009492549656616819,0.0019648350197621
1700842120.9571078,0.08626107292121211,0.05736395230862053,9.803688700612431,0.0008738163267338979,0.0014421077395475631,0.000404305485872
1700842120.9671278,0.034918867985642775,0.13581112779882837,9.867997334383237,0.0005728150566817875,-1.7834094328025655e-05,0.0012428761464342
1700842120.977205,-0.006222404334255435,0.07689084206197405,9.85773601228374,-0.00011227098743702672,-0.0010571856191124685,-0.0007188648097417
1700842120.9871793,0.1252085648384363,0.16026064600171921,9.823359605417338,-0.0020270810704015488,0.00016543921476284377,-0.002195570233298
1700842120.9970837,0.2359901544374692,0.041814727674076596,9.713043022503431,0.001186730473863665,0.002053810550128704,0.0014034150871247
1700842121.0070975,-0.002146553451210112,0.05438933743151191,9.850606473834802,0.0002602567834678179,0.0013914340142804434,-0.0021236835392392
1700842121.0172093,-0.052706219144076916,0.16498649690714495,9.909144000709885,0.0005806321933512878,-0.0023953150405631716,0.0006937656352328
1700842121.0271227,0.07666792159290652,0.14326081476743166,9.837593634186886,-0.0016146650895214616,-0.0016025767185039435,-0.0017586006662077
1700842121.0370996,0.19233063608498885,0.1386091703527552,9.768926047768808,-0.0016131910826152188,0.00016880168905950276,-0.0001466558543234
1700842121.0471969,-0.00418117317051214,-0.0535228442312046,9.819345095956178,0.0009118202121328492,-0.0013607948176197829,-0.0016490685166991
1700842121.057112,0.2044698409997445,0.21726201236645426,9.792119304661869,0.0004398286234284146,-6.284417479689416e-06,0.0018318330757119
1700842121.067154,-0.09266192219223356,0.039649742898323556,9.904006265653846,-7.166921244755713e-05,-0.0026076473754763716,-0.0013897963445834
1700842121.0771916,0.23797493698379524,0.053010506791501634,9.718591920762007,0.000701690946695805,0.0007294755468442026,-0.0016270860443092
1700842121.0872307,0.08078665866994565,0.15180424106030638,9.835548714158524,0.0006558783373321872,8.535981056929575e-05,0.0005928039817171
1700842121.0972464,0.12701797230746495,0.18384973307430041,9.823010193382672,-0.0009191811050690008,0.0009227975140604503,0.0007269139522485
1700842121.10712,0.07292269776845514,0.18536671639815894,9.857428606121623,-0.0019138165856462162,0.00018668845476749928,0.0021559363584764
1700842121.117102,0.11886253065562828,0.03367085383552932,9.77537710492873,-0.00025086176325217973,0.0007667156775964848,0.0028805063692652
1700842121.1271992,0.011823200156677658,0.013851811432281242,9.823280232658897,0.0011882370500166245,-0.00020074083886119877,0.0017327374433897
1700842121.1371586,0.18528460076493716,0.19939115995291576,9.797086294312496,-0.0018556996621343432,0.0025306370738348272,5.190566925187341e-05
1700842121.1471548,-0.028370760787091734,0.09050150099801327,9.864681473208282,-0.0014127844071763972,0.000246285814343084,0.0005548307868956
1700842121.1571496,0.04428052590500758,0.0009520238566184058,9.793203435904392,-0.000614082708944846,0.0003736735370342069,-0.0020026164939827
1700842121.1671395,0.019887635437919354,0.029982099552512083,9.83055195981291,0.0010403335989791845,-0.0010355888571499262,-0.0017988356640763
1700842121.177112,0.17086342752235897,0.19922598360846938,9.808146574543922,0.00041634630917851515,1.7558309440695978e-05,0.0005931734293789
1700842121.187091,0.05464557213997846,0.1491322316581274,9.85013079265736,-0.0003622281007395089,-0.000664911234906232,0.0012778819426693
1700842121.197113,0.07261497430910015,-0.008293619799217682,9.78752428025544,0.0015670915388640936,-0.0005639510974405728,0.0003096876088329
1700842121.2071478,0.18979886675575686,0.2201097864596555,9.804671992000882,-0.0007944039107239283,0.0015397101095470118,0.0006449547280589
1700842121.2171257,0.11548045645618663,0.00862245335110023,9.771238639679979,0.0009706530796843972,0.0023469910217298684,0.0003141410042098
1700842121.227481,-0.02422419581083718,0.06347923212008098,9.879822943685186,0.001069403677514453,0.00014571352111419667,-0.0015138344252682
1700842121.2371187,0.05831978793885598,0.20300712256589162,9.863986733759043,-0.0005563244604843519,-0.0005729031331827271,-0.0009289756063572
1700842121.2471042,0.022975470961278957,0.07626280267111321,9.83473652527931,0.00023642365410997187,-0.0018540325832554323,-0.0003694348498448
1700842121.2571585,0.23663486196293168,0.09824379692794057,9.7320178298313,0.0017522193840308507,0.0004415196808709277,0.0026517772702299
1700842121.267156,-0.044189812584841004,0.19260178188379048,9.92082288365975,-0.0011650331231284421,-0.0015008741252384888,0.0003204839512272
1700842121.277192,0.16827201281800225,0.06522680895733893,9.7692811612666,-0.0008610406271387607,0.0006419112454976401,-0.0006454728655717
1700842121.2872138,0.003337729690616416,0.15985111526919624,9.873975739367337,-0.0009709485032704642,-0.0019479134518933965,0.0018363120388038
1700842121.29715,0.1493637898104481,-0.05665543920266201,9.71647024427431,0.0019396219448398525,-0.00016125379462847197,0.0008919507735208
1700842121.3071992,0.004864209204106772,0.052754386251873134,9.842757252247212,0.0017392015880374572,-0.0008738997412153942,-0.0016703043012149
1700842121.3171277,0.22159971148394397,0.2542442106399678,9.799637522782014,6.244218873869896e-05,0.0008728828587009279,0.0011862510936134
1700842121.327123,0.07977876026666485,0.089839417379933,9.80436353618288,0.00033066562326050896,0.0008725066176437947,0.0010435856301136
1700842121.337225,0.03333220230522006,0.1188867197283101,9.854357731458633,-0.0009258872981126156,0.00029805886263006533,-0.0003996117385305
1700842121.3471391,0.1388464998040492,0.14144119031067826,9.807605701139009,-0.00037155725234408243,0.0005767260177591981,0.0019715311126582
1700842121.357224,-0.05454684104897757,0.05700341780302817,9.882638916078609,-0.0005931883844876161,-0.0017597863407758385,0.0002333212240864
1700842121.3673117,0.15546068128859028,0.06810795342335622,9.769915504633298,0.00014998974406382477,-2.752003978642005e-05,0.0002612512388531
1700842121.3771806,0.18386287213604519,0.1988331123679408,9.797812660020705,-0.0014664317056585483,0.0018600760741797422,0.0012596371588096
1700842121.387136,-0.010705584362034034,-0.10054015492177965,9.797123010928376,0.0014463832383844848,0.0007261084635383551,-0.0012821378996796
1700842121.3972332,0.05277741055177732,0.21120424324394055,9.871061167784266,0.00022822537797685089,-0.0006626859026072997,0.0006926467675747
1700842121.4071276,0.07043156002260657,0.12022669601879088,9.831917293579533,-0.0002635086153942453,-0.0009521369085543245,0.0006665725803849
1700842121.417126,0.17985805093219698,0.057244998624664534,9.74766684320129,0.0003418379826142572,0.0014938899585198414,-9.004191916580566e-05
1700842121.427192,0.03079677871588914,0.2305838630083405,9.889887298486876,-0.0009336932600582145,-0.0006582149122143225,0.0029155247965626
1700842121.4371822,0.09744562474674426,-0.0150333056578024,9.777240205215984,0.00027478666669246746,0.00043739465797793404,0.0006970952444043
1700842121.4471323,-0.11505651397119739,0.16857075380781406,9.957781049767624,-0.0021857649709593873,-0.0032860325397231866,-0.0011666435394636
1700842121.4571435,0.21654481781609422,0.014823047398391284,9.718376532388449,0.001016861652051454,-0.0011018841273788783,0.0013136567785203
1700842121.46715,0.0669055720782265,0.09061234738581275,9.838356769629767,1.5506829860322374e-05,-0.0007651322995291285,-0.0008704906441472
1700842121.477309,0.10502458332163071,0.08871107136673992,9.809891472066347,0.00012837976251535438,-0.00017764463954609796,-0.001398359506411
1700842121.4872105,0.14906026571026376,0.12793899513066945,9.794714513351193,0.0008007906799830379,0.0005879033697706448,0.0003011276775304
1700842121.497161,0.1025059159075697,0.09707846909476636,9.807575959856228,0.0007717366982028334,0.0011057170143468186,4.665487257619135e-05
1700842121.50718,0.014798752079099349,0.20853664121134727,9.900724809969105,-0.0014965871402397373,-0.00041196854716251064,-4.868071947391399e-05
1700842121.5171127,0.1467334236369803,0.10046221744865975,9.78256797593583,-0.0010022490892746339,0.0005521330044095902,0.0007980746512566
1700842121.5271282,0.059984337739886755,-0.04712801882929487,9.776842177871007,0.0017742152593222742,0.0003919435759468833,0.0002031250686649
1700842121.5372872,0.14455373172663238,0.09115845678492178,9.785184274107397,0.002825490595022434,0.0013407910759687248,0.0016053383359484
1700842121.5471852,-0.00413816490596067,0.19798778746801862,9.897737190722381,0.0011729598120374767,-0.0007502242252241561,0.0019733999278195
1700842121.5571702,0.06356439761862703,0.03329755057766333,9.805359674607509,0.0012534230491742606,-0.00026519051635442363,-0.0007646891400418
1700842121.5672567,0.17729491333730413,0.18402879450072324,9.806524549681505,-0.0004844171390557652,0.0014972428555526957,-0.0003705369536965
1700842121.5772023,-0.01612879578758268,0.17115316029146316,9.898855071279357,-0.0010167662152718638,-0.0014587862169139869,0.0014846505718104
1700842121.587278,0.13225307701245212,0.14162673517036822,9.802358037635633,-0.002819829049690426,0.0003975165267178143,-0.0005840006862036
1700842121.5972383,-0.015164585609025526,0.0061287159196469375,9.846113489576679,-0.0005585584343954684,-0.0018532845997893854,-0.0004014727538652
1700842121.6183462,0.11365682514145253,0.14046732131770254,9.815235759921391,-0.0013848303924915563,-0.0009890183953921773,0.0012369081149608
1700842121.6210544,0.2671710118530078,-0.26224930418589787,9.589610118368666,-0.000462828919053392,0.0008546319661666133,-0.0009744205391235
1700842121.627148,0.13538880771953246,0.162655067591936,9.810060743972276,-0.0008170916183718969,0.0012841507110855426,-0.0002021602350487
1700842121.6371598,0.040769898306527115,0.10489690885542598,9.852277660446367,-0.0011132634552443016,0.0005145114687599694,-0.0008254063660479
1700842121.6471546,-0.00898296820838004,0.03946800332294747,9.852461606526735,0.0012575210998924662,-0.0022388371984184267,0.0014757051602736
1700842121.6575673,0.12432144790214583,0.009766975462698902,9.776197375912538,0.002488730904113854,-0.0011283447421296469,0.0003104357518986
1700842121.6671946,0.09669920832099506,0.12338500516147068,9.823138922876378,0.0007415703163429731,1.9783403590635192e-05,-0.002217932918129
1700842121.6771674,0.07690123288872172,0.2530507669638666,9.873943403352213,-0.0005242820757101034,-0.0014114678734026345,0.0014984273938261
1700842121.6872532,0.18305942641581308,0.05031127312515729,9.735523649793711,0.00012651689935428028,0.0010341878658222938,0.0011106263035707
1700842121.6971636,0.05241102057712581,0.048590749096157466,9.819370716458645,-0.0003496119492623912,0.0014901612035823463,-0.0017209649896449
1700842121.7072153,-0.13398781883004063,0.1851166721317994,9.959216795333552,-0.0014269184319657894,-0.003467451697930195,-0.0005642752740732
1700842121.717161,0.3579533940630355,0.1263319277977452,9.67966458585616,-0.0012242785960279426,0.001668230087149387,0.0007761150981331
1700842121.72717,-0.04838688260232993,0.027800354694541448,9.859104033817372,-2.3982486571068337e-05,-0.0008355350940616234,0.0001632854463331
1700842121.737169,0.16799854389753166,0.06533238444150749,9.753253110718287,-0.0001413360317187634,0.0018582227660569911,-0.0016986202327735
1700842121.7471702,0.037876781286487124,0.2056088351397984,9.887527064083852,-0.001372169783892933,0.0002481511284040404,-0.0001622991631939
1700842121.757162,0.04546790928104354,0.02477914068183938,9.815388556917066,-0.0002057759007715499,-0.00019777385181742635,-0.0009014161415598
1700842121.7673316,0.20606410871293435,0.05888138177113347,9.722105751153316,0.002156417419609553,0.001727470708214337,0.0015859828917108
1700842121.7838073,0.05641082320249168,0.1510266928961371,9.86598855646796,-0.0005026895298126664,0.0009276426607994605,-6.879856765414842e-05
1700842121.7871585,0.0036400335558420724,0.4361681916087337,9.98707844135637,-0.002051286931477028,-0.00019590853690145435,0.0014309972529098
1700842121.797166,0.06359359890865623,-0.16652811322922498,9.748360776368031,0.0029052205674781587,-0.00020558789122847854,-0.0002737026307932
1700842121.8071902,0.15110511115048095,0.26591500014694824,9.828085466235759,-7.838460045121447e-05,0.000989488960790208,0.0006650758504201
1700842121.817181,0.14324467410107888,0.10301887812502228,9.78248123621492,-0.0009147343786533579,0.00269566108342868,-0.0004860418494991
1700842121.8272662,-0.0493969952230355,0.07770328004159009,9.880375222511281,-2.5463475766512206e-05,-0.0003046833841422922,3.0662434155538e-05
1700842121.8371634,0.13467553211679234,0.21131029185269284,9.834541553996681,-0.0002720911662050441,-0.0005002625941682029,0.0036125275427274
1700842121.8471663,0.07599401016651872,0.12964814758337384,9.843729095219805,-0.0011251771542186485,-0.0006746114706754873,0.0030734792006932
1700842121.857266,0.09016263876396206,-0.02802413100634925,9.772996397897801,-0.00015175551489026795,0.0005718813953284281,-9.26323346994377e-05
1700842121.86717,0.026462169487947326,0.061659765875129814,9.845366333961179,0.0008045259004690653,-0.0007852403705652467,0.0001927165493634
1700842121.8771722,-0.01886964677363218,0.22681985450042216,9.92439281135976,-0.002319505758388407,-0.002776415510091481,-0.0004845390441096
1700842121.887275,0.3044981342210753,0.005326626333545616,9.64372292090452,0.00011421550387701452,0.0019744522686677467,0.0003841710485084
1700842121.8972409,0.058720437524075145,0.1372763201353575,9.838669129167103,-0.001013050493235615,0.0016205436722126565,0.000345420884414
1700842121.9073412,-0.0022994223150263992,0.0591796499568163,9.846096219816081,-0.0005980520409059415,8.237438826851321e-05,-0.0003426124686575
1700842121.9172018,0.08085136817984993,0.12133558164081897,9.826192431129023,-0.0005559414010466277,-0.00015417817431127037,0.0004609270680611
1700842121.9272468,0.0808318098816007,0.02325709006443758,9.797405349118067,0.0012970013051475599,-0.0005445797225205921,0.0009098365325279
1700842121.9372349,0.08188361301724904,-0.02071933163385215,9.778282580698287,0.003133570459992578,-0.0001459578440423245,-0.0005441348413206
1700842121.9472835,0.02371427957419063,0.18265012397182787,9.87394904664904,0.0021623954742323362,-0.001742636874266576,0.0006758769949464
1700842121.9571548,0.11463004743275507,0.29953749824296505,9.874018734042492,-0.0008863833889897919,-0.0018514165381257324,0.002611913637238
1700842121.9689572,0.08956798887388345,-0.0274639268070238,9.76730175964458,0.0006085694136041304,-0.0006358581465683542,-0.0002193090850688
1700842121.977173,0.19280354373019112,0.20143765122410628,9.798026519395359,0.00014364837992017463,0.000450813736968362,0.0023462905436553
1700842121.9872234,0.04874178888391803,0.055261613309433945,9.8285548391523,-0.0008122533084273974,0.0009324835525789942,-0.0019761599479443
1700842121.9980166,0.11707975450648941,0.13628738574974067,9.817609632768745,-0.00020876012463382518,0.0009116235283308737,0.000501883655388
1700842122.0071766,-0.06258903400237478,0.11394335192198857,9.884186706224938,-0.002239769885099966,-0.0006239425640463033,-0.0022447540769554
1700842122.017288,0.08093289393365447,0.02756097886115919,9.7900357750473,-0.0009828578105828378,-0.0004268727689117574,-0.002563261740861
1700842122.027311,0.17596272943241914,0.14205752747228192,9.770487490438956,0.0005433861227087602,-3.4595417626401916e-05,0.0020508773512937
1700842122.037175,-0.00739842425198136,0.040230078920606656,9.85009559755236,-0.0004442003437393276,-0.0005434667558660118,-0.0018032983290232
1700842122.047189,0.05053905418847923,0.08809079582460642,9.830441293161062,0.0004357162860391057,-0.0015545231527512838,-0.0007483051968939
1700842122.057266,0.141927387018135,0.19832496243728923,9.823979905954122,-0.001847504308641903,-0.0002573774979619828,-0.0010001378478683
1700842122.067212,0.041372225584399666,0.09230036732657404,9.847983333080448,0.0002103467258565319,-0.0024634844118287488,0.0024859989415653
1700842122.0772312,0.1450410244383608,0.1375726075862833,9.810018032079682,-0.001320753917527609,-0.0008016381606143374,0.0007969552451776
1700842122.087269,0.004096229729833654,0.021783852513570363,9.833363421342572,8.852705229651524e-05,-0.0022209707231716372,-0.000366455141475
1700842122.097258,0.12412923412989034,0.07501604128765577,9.789697842824552,0.0007963295380870008,-0.0016092778950705317,0.0002683347619403
1700842122.107318,0.015403508114948417,0.1870115335795297,9.880903075025035,-0.0013311777478994047,-0.0029503860398888727,7.946207814705304e-05
1700842122.1172898,0.3043427823482923,0.04915403112633326,9.671255932516074,-0.0006323055867110404,0.001989354242868553,-0.0005355841359324
1700842122.1271744,0.0046116760258368816,0.09656537186021881,9.85808034702326,0.00025167411166424357,-8.511359794529375e-06,0.0006695452965595
1700842122.1372066,-0.07242757537315227,-0.03900488197294463,9.857480966267332,0.0018945496370026355,-0.002259324662855275,-0.0020052125556595
1700842122.1472986,0.19008915671239837,0.2837397316881318,9.819647036804449,-1.1692124919787509e-05,-0.0012151364967195816,0.0018646254092254
1700842122.1572132,0.03739682330712951,-0.018732584819351635,9.809113580826892,0.00024312003103126763,-0.0009081657299461646,-0.0025595310954577
1700842122.1672406,0.1937754101223859,0.2552044228392879,9.811372407979869,-0.0006613877853110694,6.709738676399134e-05,0.0016243402268536
1700842122.177318,0.03993118908366552,-0.012656323244085714,9.806363628887283,0.0009863208675413675,-0.0002972338439750594,0.0002202744716577
1700842122.187171,0.13324536361472228,0.19863844289513952,9.828474283073295,-0.00034733240761980163,0.00032191319882790163,0.0017610518615492
1700842122.197219,-0.05329232332749823,0.07621436281622408,9.874075205716425,-0.00041178108631523134,-0.002242949808353685,0.000731015176725
1700842122.2071748,0.18830112599040905,0.08888589664751248,9.755497834155667,-0.0006647352387035743,0.0004139270269433127,-0.0002226588777467
1700842122.2171946,0.10564775206468385,0.162019209861868,9.825930046091433,-0.0008081647445910541,0.0002745989265321492,0.0018851051926412
1700842122.2271984,0.019990048998764155,-0.04858419198857266,9.805006948152842,0.001399824322506541,-0.0005881725639126362,0.0002731729536116
1700842122.2372348,0.09349980147795724,0.1404272756900632,9.823740183928468,-0.0008092853583924578,0.0005268238941683879,-0.0023471681280262
1700842122.247195,0.07853173256448455,0.18448413468112818,9.85160922748146,-0.0011568466342891175,-0.0003121341729983202,-8.407231608550318e-05
1700842122.2572024,0.025268195844952428,-0.10268161993634527,9.776938998428948,0.003166355284124739,-0.0015276670119786146,-2.00044242865897e-05
1700842122.2671947,0.14072796712278504,0.2515841819582311,9.837005259770697,-0.000893091341328931,0.00018295690907527628,-0.0016714246822721
1700842122.2772365,0.07688834447093014,0.1555276725323281,9.850481119290716,-0.0010007504057061665,-0.0007681096987699667,0.0004486394162903
1700842122.2872603,0.1449599133250426,-0.04790360465029289,9.73409204612406,0.0010745790801327875,0.001138512479786288,-0.001750025513602
1700842122.2972162,0.07321566051932998,0.16346977627625997,9.83808587244031,0.00103140121833375,0.00021760453811251195,0.0004363457400267
1700842122.307212,0.06632143734386742,0.07491354971707913,9.819035736936392,0.0010243064795814878,0.0002764717894131929,-0.0008648988669938
1700842122.3172412,0.06122936537534185,0.15537936646289702,9.85708481702127,0.0005586632370719203,-0.0007327186207270158,0.0001461485579874
1700842122.3272932,0.11051159917024429,0.1188621449044017,9.793792023229319,-0.0011195781500373933,0.0007476957654057807,-0.0017578630587286
1700842122.3373022,0.006675543977790715,0.033185631089762024,9.831205469446228,0.001745535442399167,-0.0017247615410270387,0.0007719948106477
1700842122.3472447,0.13461000426819486,0.09469139064735707,9.781686106800082,0.0011170895542327508,-9.82950787882145e-05,-0.0008738267580247
1700842122.3572052,0.10834843899797195,0.2353169088761801,9.854150714702756,-0.0005004507367873327,-0.0003538544019673131,0.0016004952257298
1700842122.367311,0.07052424444747259,-0.07410614863101904,9.7740382613327,0.0019932627968637364,-4.764324122448683e-05,-0.0008101676004208
1700842122.377334,0.21990178086645168,0.14487605812823487,9.752809502051875,0.0014310902913048608,0.0025868976791340982,-0.0004320436502076
1700842122.3873727,-0.0842717013730025,0.1671436522911974,9.934287803235051,-0.00027766051760885383,-0.0007118615426221219,-0.0009025198752261
1700842122.3972645,0.11670963707120915,0.18983286695287818,9.844259744805296,-0.001429156377358297,-0.0004928067020445111,0.000294402277077
1700842122.4072812,0.19914449840754941,-0.05592129780360819,9.70845654645774,0.000977375470603045,0.0023514530060232517,-0.0012605159655414
1700842122.4172907,0.029272305993894812,-0.04101073365545428,9.794028109905058,0.003899864032891921,0.001360153562104282,-0.0011592090241811
1700842122.4272058,-0.08006367937786885,0.30610011482702965,9.96695292509695,0.00040257037637177136,-0.002467211462143345,0.0002277237134784
1700842122.4373772,0.2138588390995201,0.06811963946031441,9.735507404792054,0.0003738810671627757,0.0009235511256508354,-0.0010682935472778
1700842122.4472835,-0.050508954705932405,0.11429838188418831,9.900410941768188,0.0010984583320677525,-0.002599822965248535,0.0007995523400404
1700842122.4573147,0.25676962279462034,0.10461528110467697,9.719609359161257,0.00031948658508549303,0.0016931871094107028,-4.9826420863673766e-05
1700842122.4672666,-0.006290172050962903,0.14961891652430437,9.881402007977808,-0.0004341346574959855,-0.0004622597080159236,0.00048551997942
1700842122.4773457,0.12717391703064657,0.1406443979915617,9.8066219133696,-0.001732768772123004,0.0006747001016491475,-0.0002185661224849
1700842122.487367,0.05556668379212163,0.06255766775239556,9.82220820658607,-0.00033951730403506715,-0.0004011684213355651,0.0011691096941739
1700842122.49738,0.11400818954618647,0.11794947345681382,9.805363584141592,-0.0009567851881522268,0.00044522241576005784,0.0005048943229575
1700842122.5072703,0.04985703102670896,0.10975963648933039,9.841542165836184,-0.0011575959235487574,-0.00016535401193640972,-0.000301258253885
1700842122.5172532,0.1019545796903075,0.11907090819274362,9.82571766143237,-0.0015364558066375677,-5.062049986441285e-05,-0.00032882499464
1700842122.5272543,0.08045477945525704,-0.021909907037940306,9.782088873952508,0.0013826918298955031,-0.00041308710856062725,0.0002932929263715
1700842122.537261,0.1408679078947213,0.1979667988910475,9.809199467743975,-0.0010778785918064684,0.0012312529923013053,-0.000744948011843
1700842122.5472715,0.10182117602315077,0.08504174698312521,9.802953483266005,-0.0008245529548241825,0.001520706625239349,-0.0004994636047832
1700842122.557222,0.10698257182932422,0.15587207022361962,9.829210664115314,-0.0010417323813702176,0.0014469487934840799,0.0009921619265605
1700842122.5672514,-0.050359584604305355,0.16894095009101137,9.913253113729153,-0.0024826704309159156,-0.001466223428847978,0.0009403606008071
1700842122.577287,0.13134223965363723,-0.017941542487523422,9.756781903590978,-0.0002724552803907688,-0.00041122489737189903,0.0003435828756573
1700842122.5877724,0.11891016256887676,0.12848026649162297,9.808351190974411,-0.0013505616837508672,0.0006795388709838932,-0.0006305635553054
1700842122.601724,0.11335527912321486,0.23563437089428446,9.844413582293477,-0.004408642283965297,0.000913494120828449,0.0006647009276002
1700842122.6094222,0.004050023985057342,-0.2678442326552135,9.738472301789015,0.0007255377551747886,0.00017999005240931554,-0.0011089021219141
1700842122.6184285,0.052087133052603075,0.09427473791777415,9.838972148206636,-0.0009709693280159003,0.00070115075294897,-0.0042984924158282
1700842122.6272452,-0.3120251190913595,0.15278546197100015,9.735135219768411,0.0006108349987816858,-0.005669097979241441,0.0027519819913231
1700842122.6372838,-0.71014703459983,0.36064802039822447,10.264494789504766,-0.0016848112959606128,-0.033745666170202575,0.0257488222913615
1700842122.6473427,0.6626016163619091,0.5975426836697724,10.40521287519924,0.0011965306031510089,-0.05298087460551334,0.0510397194074266
1700842122.657222,2.7980163328894556,-0.16000947190295314,10.598936397195448,0.00450563689439228,-0.05011170311597166,0.0524590438352697
1700842122.6675107,4.1259663142444785,0.2705871771582982,8.179684104500303,0.008634253610218329,0.006589468807233053,0.0416152900205724
1700842122.6772623,-1.7768261168368173,-0.3770173516745815,9.580310729811035,0.008494464287824136,-0.019858705012246885,0.0252034211652152
1700842122.6872592,2.2274549140784448,-0.37176287287491616,10.312482677835819,0.017663573824978126,-0.017892884106234283,0.0171187663571708
1700842122.697265,1.4527037461499217,2.5916601974116587,9.285765547367294,-0.006441382455872982,0.002190977150285774,0.0193640342103116
1700842122.7072527,-2.066753656470103,0.2362156767356572,11.207936395140708,-0.02779588671449069,-0.03681789296047101,0.0116815133141153
1700842122.7172475,1.2258286671432872,-3.9290192151681103,10.170770010174053,0.025425901890371617,-0.05379519602285056,0.0146445039780609
1700842122.7273943,2.765958888118246,0.49188051841943464,9.139188266831535,0.033333890960564036,-0.022421679802141818,0.0247881015883557
1700842122.737244,-1.1481918182441506,0.8496503305631128,10.55616572534598,0.011798850745624857,-0.04791584864924069,0.0165973076717727
1700842122.747707,2.566396085351868,-2.6713138508131613,9.70956250668822,0.03580527316445582,-0.03591123812488352,0.0163711788253657
1700842122.7575018,0.21033464387281825,-0.5754614859322105,8.712547071469764,0.06775539755477064,-0.029186626236646765,0.015345173341202
1700842122.7674258,-1.5509456080928412,3.003371146054747,10.141328230677184,0.022991177691546478,-0.069517756660711,-0.0065166112845964
1700842122.7772925,3.746480458666513,-1.9527401445406183,9.864359394475349,0.04896464051069765,-0.03278657498928144,-0.0222308007879383
1700842122.7883587,-1.0325310981277702,1.1108015163599565,10.6225619812145,0.052112616486939316,-0.04453225793532428,-0.0299145938707716
1700842122.7973328,-0.1197147971938907,2.572976730643876,11.709555248821175,0.018249370537307505,-0.07139092716198196,-0.0316196406139261
1700842122.807278,2.477191121975239,0.20965205325033523,9.486987954105182,0.029322164257064774,-0.048832655696654244,-0.0332651236904985
1700842122.8172672,3.5529852853660353,-0.08467173217958579,9.128322293633229,0.023137290013325675,-0.010874987040390062,-0.0650821016980535
1700842122.8272457,0.7904182388037967,1.4816045515660226,8.57056798090592,0.006271231821311604,0.013196691426827216,-0.0965502695990927
1700842122.837302,1.2193220646448841,0.4782890354149867,9.111984766340964,-0.0019750203118335035,0.022517174508087538,-0.1261751266075499
1700842122.8472629,0.782493161504325,-0.9697901320958461,9.030953320148168,-0.002442956468877749,0.046689250221899736,-0.1423097016168959
1700842122.8572297,-2.1712603756157516,0.21206087848404193,10.167574593435491,0.0036837711443378587,0.02416329286161168,-0.1433792622639067
1700842122.8673198,-2.3595010816310436,0.0675226219956822,11.225530567204043,-0.01029870180868248,-0.0060154671677261845,-0.1360487552238829
1700842122.877237,0.30070721878750867,-2.8930447359588456,11.406696259779002,0.01861979324393705,-0.0013212918231806457,-0.1117656441284544
1700842122.8872302,-4.202830510560183,-1.0492140067355564,8.008414122158687,0.04730256653595181,-0.0389842107588661,-0.1005945416046507
1700842122.8973556,-0.6819707301684299,0.8218200766915067,9.83049839732666,0.02933897150810564,-0.06450276891762426,-0.0929902033759481
1700842122.907267,3.1808807673516175,-1.9341112967561935,10.416177813769025,0.05855156824554582,-0.022002247642645682,-0.0619466291619665
1700842122.9173126,-1.8287347532884863,5.06049278422651,8.932121374129864,0.01985133549413205,-0.03937385956142597,-0.0516390973581201
1700842122.9273074,2.1415511142422563,2.7311418058903514,12.097748392525391,-0.046936794801702486,-0.025038559065004972,-0.0413666652394659
1700842122.9372566,1.4911201517910082,-5.537717885540521,9.980368508265729,0.03359681047242324,-0.006865496392090013,-0.0304618222518093
1700842122.9473355,-1.7725322071054364,-4.358184172945115,7.17463958112271,0.08801519114074063,-0.016453115796731956,-0.0565619306517965
1700842122.957323,-1.663790374946138,-1.2122387536260986,8.690596997078757,0.1212452894903108,-0.04256978154613739,-0.0658266158653624
1700842122.967707,1.6362040584031952,2.2446474257071136,9.342453809480581,0.10087324039197289,-0.028124893950346796,-0.0745352866007215
1700842122.9773958,1.743499493998448,7.827473406709589,10.49889088327216,0.020381955416485586,-0.0003474739113619616,-0.0830299841119177
1700842122.9873545,0.37526094477186944,6.132927261485065,11.47539706267837,-0.07912897755928389,0.018843744131870534,-0.0901920260740644
1700842122.9976678,1.6729955194950417,-5.216834225572599,10.898533223430952,-0.03812061981000388,0.024161315559467024,-0.0930240662647612
1700842123.007419,0.5419744235120855,-8.864809777518062,6.781990702517483,0.08479173450380813,0.05381361511508001,-0.1069388748957045
1700842123.0175045,-7.000703844802589,1.532414643023859,9.557902104924823,0.09380038599837957,-0.03529254075377556,-0.0967862965418226
1700842123.027341,0.21818437149799116,1.0787091320620834,10.308260396431841,0.06469410226616051,-0.05698778481623748,-0.0943118842197782
1700842123.0374415,1.9679511332821922,-0.46110722524434666,9.28682277243339,0.08474682289728211,-0.027796643673045306,-0.0880377652002699
1700842123.0474095,0.532770501136045,8.244908490822754,10.57784087204352,-0.005243685580414313,-0.024035965358695663,-0.0736716152979261
1700842123.0574012,3.580631051893404,2.2402200645556563,11.95771731606494,-0.061965230494129726,0.0142529728815724,-0.071972763712538
1700842123.0673983,2.9903715108773556,-6.016622009209078,9.299170466469366,0.02183059248788639,0.05783887752927875,-0.0653506429745085
1700842123.0773792,-6.353155811084298,-0.813708464015605,7.622633185138475,0.05256981514211506,-0.005686501096453722,-0.0661697523547537
1700842123.08735,-1.0440124723189723,0.7576937790226619,10.861757883370345,0.03860401931289348,-0.05233450452982303,-0.0714421631647474
1700842123.0973966,4.636877988560087,-2.4348201837032404,8.453486407071566,0.0726754146073396,0.017111501402119377,-0.0760782645894415
1700842123.107332,-1.8502248434801019,5.938053641047448,8.264657114867173,0.025745892192744726,-0.0042986401711470916,-0.0796987326694853
1700842123.11736,3.061874263727697,6.411177189377702,11.13463975816595,-0.06966332754775952,0.027158615333373867,-0.0892833234621412
1700842123.1274302,3.3311446994460927,-4.3326409547808655,11.71512838295405,-0.03306909782525275,0.07384776829965534,-0.0805755914999372
1700842123.1373448,-4.249872973155298,-1.8193873198450359,8.166311832409464,0.004770503362041631,0.03966423240259809,-0.0832749443007833
1700842123.1473794,-5.525580228402066,-3.249442351265613,11.078417862868694,0.04734967319427319,-0.046140158021108046,-0.0796898366762526
1700842123.1574135,-0.4255478735805911,-3.0403035804337235,10.986554868872398,0.09408334750589231,-0.07305841918705235,-0.0787423090888388
1700842123.167324,-0.5459342692497421,5.713249213213502,8.180593546499106,0.050303938526733934,-0.07500602027014014,-0.0777255134536154
1700842123.1773906,4.286770568373218,5.580235908788139,11.45522436646989,-0.03649226457840376,-0.04502007767704822,-0.0834509121133215
1700842123.1874323,5.917666834311863,-0.7860314704853668,10.447175901393173,-0.02971660267441279,0.040064311571827715,-0.0782030509663946
1700842123.197339,-2.8287792888573047,1.2917389242860857,8.291870891883255,-0.041274452080377014,0.010689294014954968,-0.0873506726576216
1700842123.2074168,1.5714600453465148,-4.417181725177757,9.829402663058264,-0.0007635843020062063,0.021877239904689115,-0.0808439316107161
1700842123.2173665,-3.9034789591588592,-5.302521133881217,9.269278511829148,0.08988126862120993,-0.021169269689475006,-0.0703953714920408
1700842123.2273445,-3.715056101026923,1.0834407723007329,9.431936168595687,0.08719650208592232,-0.08500434821377674,-0.0781035410119421
1700842123.2373264,2.696019401556327,4.764558420752349,10.71240193546689,0.03655513130771047,-0.0619005152861219,-0.0712102563930876
1700842123.2473843,3.692639987644724,6.367268079735262,10.90507739064524,-0.0371074806774365,-0.02001145488992144,-0.0722439350439436
1700842123.257364,2.5848239684707166,1.690483602092649,10.005961737963965,-0.0914784071396322,0.022719443783438893,-0.0799430521084196
1700842123.267378,3.5247219863993693,-5.733834837402935,9.077273125870251,-0.022993149701461876,0.05457373535393608,-0.0789713324858076
1700842123.2773557,-1.9426067908448879,-8.926206712266506,7.33031866842121,0.09991504300966401,0.05631954254592202,-0.0879663886381514
1700842123.2874424,-8.855937669525785,1.790744562858419,9.872097226523346,0.10644500899144671,-0.07339223199966179,-0.0871830792976744
1700842123.2974548,4.113374392600507,5.431458596101602,10.951024971140637,0.03311053629722354,-0.04585097171774336,-0.0706202002121336
1700842123.307368,3.1661391399630503,7.15493124955335,10.781034149376984,-0.04211892209329546,0.007450563504131858,-0.0535275885714418
1700842123.3173432,0.1838263547420509,3.363066030369338,10.749340081572605,-0.09937128955580207,-0.00045767389773222896,-0.0600784072531587
1700842123.3274407,4.137619258566287,-4.675387682872179,9.269561974007472,-0.06615083921928128,0.04905033034596862,-0.0656251447154409
1700842123.3373744,-0.6955973152567909,-10.566746224486476,8.13780047782075,0.08699357139398436,0.057899362895026785,-0.0631837310148603
1700842123.347406,-10.039472555754173,1.3078071576280346,8.92033509246557,0.09412557474640244,-0.07767512663841514,-0.055587595875395
1700842123.357447,4.0522444848484795,4.400782672560972,11.22465134310048,0.030401874967260135,-0.06446730878405357,-0.0464239368094332
1700842123.367427,4.938995161741474,2.9937740982137497,9.696188935639672,0.011434594674721334,0.017356291632390625,-0.0262208400173313
1700842123.3774085,-2.1287266703188092,7.536467553742064,10.888234571600307,-0.08227503853711347,-0.014409422659277844,-0.0421760888649351
1700842123.3998208,2.927989345279717,-0.7785111699174971,10.501545983316213,-0.10063500638551015,0.030993797740619326,-0.0518180416776068
1700842123.401021,13.35706381780531,-57.080710811375916,-13.32425458548398,0.03333643736812658,0.0652553985265,-0.0543785640849001
1700842123.4074378,-12.745457689515677,-4.877260933639836,8.18756024232712,0.0974298988183368,-0.0436159062582268,-0.0641530440999395
1700842123.4200184,-0.8791088468602033,2.0559725230773642,10.195149147472264,0.07968085754331894,-0.105402664573092,-0.057295693631304
1700842123.4273396,7.752199267795591,4.405070096725282,10.197191849993214,0.040550609633483836,-0.01984948739922005,-0.0445752540482408
1700842123.443499,-0.03770021881626362,8.389535479044948,11.000470033296587,-0.06915011159981473,-0.01686249708058692,-0.0542272502435572
1700842123.447359,7.661525834217308,4.87413253774687,10.24987687966676,-0.12740570759784287,0.032941450031233985,-0.0705154897524244
1700842123.4573698,1.6882747843108628,-11.601502623861585,8.866580704801645,0.020164463035764347,0.06937759845442207,-0.074176220770014
1700842123.467374,-10.062172759573809,-2.4626109932260207,6.969644233719562,0.08992190116788315,-0.042530801271491205,-0.0933445976926214
1700842123.4774487,-1.1727124631413506,3.283068554071714,11.235151801698631,0.04229243682244002,-0.09871282041339687,-0.0886764438701994
1700842123.487493,4.037511260213811,2.0381118990362967,8.632761061402206,0.033906582164489066,-0.03874090661872684,-0.0759994225455648
1700842123.4975789,1.2056614453389856,6.262187557815411,10.794025887914927,-0.02932150289026484,-0.03123916861609068,-0.0859156312300093
1700842123.507378,3.0500789680268605,4.210097060665275,11.778913418041515,-0.11052034447726529,0.010270408124309698,-0.0980516062928564
1700842123.5173542,2.0956600394447378,-7.883294804724869,10.103649705252579,-0.017750104328696597,0.03383093427885683,-0.0995612056805021
1700842123.5274324,-5.76836254821759,-3.921909763684522,7.391632795217554,0.04964232606312921,-0.015701907594436623,-0.1085451083136923
1700842123.537331,-3.991428739461038,0.977811866770915,11.334401792513681,0.0465739087521599,-0.10274164345470194,-0.0982408286882765
1700842123.5474646,3.410229314129585,2.3821030055473025,8.324664861496224,0.034547827518289526,-0.07101436882209594,-0.0910343812657721
1700842123.557439,3.2365361702196647,5.980018724113911,10.098864785099602,-0.035064818999407506,-0.02818055474602942,-0.1064098091675169
1700842123.5674317,2.608923538840737,4.859965450298367,10.915901355934873,-0.11194869945021445,-0.002198058272195779,-0.1032069237781889
1700842123.5773606,3.5036925109954207,-4.708970938747693,9.77604013895868,-0.06390927815906872,0.03997383411998112,-0.1020665081097013
1700842123.5892775,-5.5578719375743955,-6.598540103401643,8.735194713298178,0.03563900032011913,-0.012709803692977254,-0.1145836474253065
1700842123.5973775,-4.713933677059462,1.0614439688199782,11.471432097359422,0.04905224901475837,-0.10189723277682883,-0.0969318436337835
1700842123.6073716,4.43523576308757,4.216858869298692,8.95639710426392,0.00181189161246954,-0.04845429880795271,-0.0833504931880362
1700842123.6173532,1.614965211190419,5.556978576973899,10.38755945196197,-0.07540566173965832,-0.02885951399458846,-0.085135026450289
1700842123.627342,2.7233194212770897,2.3589260779428622,10.0648790810289,-0.11175200229329683,-7.96364683140659e-05,-0.080082951660288
1700842123.6374483,2.3580629186609228,-4.738954127317245,10.329434336146551,-0.07065203078968212,0.028570335682755105,-0.0812377171470053
1700842123.6473308,-3.562655191178926,-4.720128418189205,9.398177743845704,0.009461810635342396,-0.007305182410263592,-0.0807862641168959
1700842123.6573615,-2.9319034453796915,1.7150284104665137,11.096673382897357,-0.0018211596379623571,-0.07281972610794891,-0.0649509118749029
1700842123.6674523,4.274629772155112,3.5810424678100103,10.04475399606801,-0.03665786183493931,-0.033543356501835805,-0.0411912040664083
1700842123.6773877,0.5425526174192007,4.516790283325882,8.837150071283759,-0.08903480041624735,-0.020358355743225115,-0.0394876735164053
1700842123.689911,1.6482151754624395,2.267508191223767,9.232563083421256,-0.12758310711660512,-0.017147566065105122,-0.0365128429485685
1700842123.6973896,4.786770030557971,-6.884965574696628,8.827007682157763,-0.05941275297416515,0.03184765425701364,-0.0384812788916952
1700842123.707406,-3.222681096270682,-3.115232756965421,9.058089839458672,-0.0023702068925844757,0.0037790559246911873,-0.0423556031538374
1700842123.7174344,-1.591433627956198,1.5553854489600196,10.843483975535628,-0.01532382468580743,-0.03844345734169943,-0.0324638510002024
1700842123.727374,0.8481469381152889,0.5862254656934632,10.986041590672354,-0.023331597986512825,-0.028928723952935633,-0.0298801386608011
1700842123.737338,-1.850504671100854,4.041624408560475,9.656007413154434,-0.06550015942587428,-0.054171959844366346,-0.035411021287573
1700842123.7474136,2.7194019723052874,1.0967460138961203,9.896712164232019,-0.0904848475590262,-0.037112130002129,-0.0365673849238283
1700842123.757434,2.4070215091984775,-3.74089978183194,8.885073961965665,-0.04483289052572524,0.0009278076830319611,-0.046861066098345
1700842123.7673728,-2.3908004245712444,-1.3748707615662017,8.187838863089073,-0.019452046954999674,-0.02829728626583289,-0.064587472553385
1700842123.7774265,1.2974270407480846,-0.8882491128092389,10.062550914097049,-0.008803658432185996,-0.02131834386769822,-0.0686122314883596
1700842123.7874072,-1.2158299689579086,0.4789534764786193,10.246185027411407,-0.006271294845331105,-0.02981061322037605,-0.0741000758363134
1700842123.79738,-1.0066487862093347,4.8820631987165655,11.183902648986587,-0.06294907059634748,-0.04672197970019164,-0.0798042328907377
1700842123.80736,0.4218203335384293,0.444888127454254,10.70968790341938,-0.08572164398673016,-0.03812705035261839,-0.0787057565404303
1700842123.8176217,-1.109044660070415,-3.126129499501277,8.99712135688763,-0.04204308892646391,-0.05756358070058943,-0.0878711851192839
1700842123.8274767,-0.02183545127688397,-1.1545782603747943,8.736313897954716,-0.01724961372209002,-0.06363150244032165,-0.0870369361592657
1700842123.8374777,1.6715759730489363,2.085160814439328,9.591782563238198,-0.033562705878254016,-0.051232967501966535,-0.0796985091520674
1700842123.847386,1.5764232454142588,2.8241568803357047,9.920727865847597,-0.06782581478172939,-0.025594895332360146,-0.0864491002513296
1700842123.858833,-0.18629194719402062,1.9098607257751932,11.05437965334609,-0.09940493421298534,-0.029350835435763174,-0.0767829554034597
1700842123.8674605,-0.8976026178562085,-4.347335526891923,10.35044770803522,-0.061612568489536716,-0.037670519106168913,-0.071885554666651
1700842123.877385,-3.606090835781776,-3.557583818428219,9.979680442484423,0.004607606478724002,-0.09240585492654782,-0.0713847638918287
1700842123.887572,1.4480161374889882,4.0087373466669955,9.215083410564969,-0.030040956617140697,-0.09386678965784574,-0.0554728792859442
1700842123.897366,5.197225330662599,6.274700221174098,8.603176990437431,-0.10899075482932513,-0.03197849438462828,-0.0488562682522661
1700842123.9073591,3.5430297565855486,4.235225426244801,9.474171100138472,-0.1613664756585468,0.008037464579789502,-0.0462576771034128
1700842123.9173682,2.6971884745271075,-2.076031647764851,9.220123379464361,-0.1549122214499624,0.04921065109624466,-0.0464570173872835
1700842123.9274292,-4.506388234750764,-10.641277081979815,10.857125129910909,-0.035017575993114745,0.0073402066532605005,-0.0458099903417951
1700842123.9373956,-7.090138632844356,-6.502907301055169,9.890608775611167,0.07533761572729035,-0.09965045534839889,-0.0444967137528784
1700842123.9473972,0.4366049030564623,5.480003916238669,9.540569396359608,0.019492453693240236,-0.11293673217877255,-0.0402138667060263
1700842123.9575655,6.44061752660143,5.844240418084423,10.14450166813297,-0.06047687750396617,-0.04009582163784955,-0.0280051590753919
1700842123.9673882,3.0312502899496,5.55912820195075,9.803881693153473,-0.1384707943326029,0.007114928322118632,-0.0428585993005163
1700842123.9773564,1.0289933657295693,-1.4794032824613335,9.789852229001948,-0.13922828673675716,0.026514877524220923,-0.0495738373948461
1700842123.9890566,-3.7120138912141143,-9.529075577655583,9.990063469052734,-0.02524911552475161,-0.013212751864161367,-0.0479638377083666
1700842123.9973197,-7.982463504957152,-8.280025131472835,9.415802883740552,0.09152975341590223,-0.11911374288845451,-0.0618671202911264
1700842124.007488,3.239088499712272,5.428158390879219,8.967887743700686,0.04264512331413252,-0.10511336739919162,-0.0494347723080046
1700842124.01741,7.603476687970545,10.66953837842154,10.040124761988528,-0.08421542714333054,-0.01005697464350162,-0.0449946397794611
1700842124.0273662,4.353913234301897,5.277001870141388,9.765032170338737,-0.18287835470891872,0.05726028847067202,-0.0584467710806257
1700842124.0373385,-0.850003579150771,-5.594104327502445,9.510251500124175,-0.13009114105879616,0.05758726316532983,-0.0696530328942663
1700842124.047431,-6.703546875940129,-15.84976915218404,9.846123914076435,0.057374258793657096,-0.021160530737027367,-0.0510035889102346
1700842124.0573244,-7.214099864219776,-3.735259839259414,9.125858121097714,0.1516398534876641,-0.1389404500673205,-0.0537080043805963
1700842124.0699844,4.712757615964554,9.459972375724815,9.692136878117303,0.025646063695263042,-0.10957718200322565,-0.0438410514844782
1700842124.0773623,10.092580900365393,14.788691357576901,10.674847337223698,-0.1279882705624499,0.005643306748717536,-0.0203390834732181
1700842124.0874648,1.534833713172533,0.6157022668771519,11.776585076335433,-0.16440207065637769,0.021132004660607502,-0.0394921289636022
1700842124.0974271,-3.2919188536668247,-9.465278321059948,9.649001684728843,-0.06292277579805547,-0.005246336459272498,-0.0532037900639898
1700842124.107417,-5.8947711576774475,-9.745109745853785,9.42657622674818,0.07775032973062769,-0.0940120730676917,-0.0329200835777647
1700842124.1174855,-4.13235655885243,2.646662717771426,8.332004442435604,0.07562215330671197,-0.1698086009153734,-0.03250014277829
1700842124.127358,7.923657346160388,10.035322914247226,9.18898319699593,-0.05404079611147604,-0.09968081705485714,-0.0200451245410568
1700842124.1373663,7.7865083006619615,6.39619234738032,9.26860877515598,-0.14186454223811984,0.010296884406849432,-0.0133273858456141
1700842124.1474257,3.0098961594138154,-1.7391609718482663,10.221640029526544,-0.14049010443848958,0.049833341837694854,-0.0486192392064459
1700842124.1574457,-3.402211237399621,-11.276281047120724,10.549125747814854,-0.022092478480231104,0.03198552942611191,-0.0550428280485994
1700842124.1674404,-6.81030365275057,-7.792640071656038,10.073133154911375,0.10880261150991791,-0.07073486441494056,-0.0352849015845186
1700842124.1773932,-3.6141183823973537,5.274626895027878,9.471499747160845,0.054633512529686616,-0.13140188220881643,-0.0378928134096987
1700842124.1875863,6.07556196986051,8.157615122492482,10.804014202952583,-0.056870168616707295,-0.07876510022567651,-0.0135599696887857
1700842124.1973903,4.112074726358767,6.1667309824751015,10.531548593012925,-0.13550673184988835,-0.025825655498065293,-0.0064407545952327
1700842124.2074676,0.901208648532751,-1.2312509680614294,9.485728235277406,-0.1402801542286524,-0.00924187343679031,-0.0430969545496828
1700842124.2174606,-2.4785645170445783,-10.916412936888014,8.417776482661859,-0.02817467188265491,-0.03700131980932782,-0.0362027348829634
1700842124.2273853,-3.295639952538011,-9.3454868330169,9.119477661855415,0.12218735915564549,-0.10560373980613268,-0.0281114024920589
1700842124.2374048,2.2547377053041973,4.972315073875006,8.639454928985097,0.07578249567608426,-0.10182914549544958,-0.037277510936392
1700842124.2473943,11.534749634843497,13.462377609519246,10.896244553820662,-0.08569445684901532,0.03769347024000227,-0.0146836466966397
1700842124.2573483,1.9835221282429356,3.639275472246701,10.033704609735297,-0.16519981399295908,0.08654710366979063,-0.0315655717505342
1700842124.2674663,-2.6341981114601234,-9.11022176191969,9.662914484090429,-0.07766596940293956,0.06199643608537767,-0.0569892251743204
1700842124.277448,-8.362880135536365,-12.633984729237264,10.00790343447066,0.08844315815250797,-0.049472034300488715,-0.0332485275222189
1700842124.2995596,-1.5350838660841708,0.9511264370886222,9.094482260954141,0.12729824026949513,-0.12764777395730803,-0.0141659850133783
1700842124.304705,7.852534992758308,20.033416372170795,12.382293647812812,-0.02671615602402892,-0.08454976274347743,-0.0078062020121343
1700842124.308291,18.768060953145593,19.13141545812804,7.97458708249809,-0.15043869459587436,0.03626558092846328,0.0098008014382593
1700842124.3188398,-1.10514802491533,-2.51353828688744,9.303904535347073,-0.1286309356241192,0.025422242610443128,-0.0077249897523052
1700842124.3273468,-5.283049650859089,-11.354561952695475,8.597206952041281,-0.026020675290104583,-0.033572430242917874,-0.0157017657412416
1700842124.3373976,-4.1804723253379725,-9.56092853851734,9.474799763945395,0.1282920020273828,-0.11205168702351376,0.0202166861044042
1700842124.3473947,2.9963226965145506,6.980655845154969,10.35614115049579,0.0691888384769693,-0.10831930414566938,0.0136039707930557
1700842124.3574717,10.552145999168175,12.833844012266715,10.791329909505457,-0.09953887069528433,0.028629904651900483,0.0030764892352544
1700842124.3675416,2.5164850251858586,1.9399854193984498,9.001117629429872,-0.15306752293059303,0.07941034391938544,0.0021931557338484
1700842124.377395,-3.5408753419541874,-7.463607380950827,9.068907218361081,-0.07527729285615019,0.03465179090359691,-0.0313672000421411
1700842124.3917737,-7.049530352103323,-11.69752193178511,9.027516086955714,0.0913857303842238,-0.07575080540283849,-0.0290175160272247
1700842124.3973737,-2.4681996363294734,-2.419656544634157,10.071205930776484,0.14817392280532016,-0.12955815173499627,0.0022250222163074
1700842124.4073677,6.962313189169101,13.188898081295184,12.027433902800865,-0.010881457893367,-0.0514371612570134,-0.017207166726721
1700842124.4173748,8.488619225071,8.092607256364735,10.297906546550182,-0.1398211076862832,0.0632427532850069,-0.0156728668017513
1700842124.4273767,0.9568440295470109,-1.5079855014058443,9.027835952788475,-0.13031841953530687,0.08229742231110558,-0.0335164951039678
1700842124.4373732,-5.737624344491083,-12.270202001593727,7.425718834832704,-0.01253084415222642,0.03209652747146836,-0.0602244945122129
1700842124.4474983,-7.597998258535848,-10.713363477588292,10.127875373449221,0.1533916510927509,-0.10045893424300027,-0.0259231725586778
1700842124.457384,2.8423592466605796,5.858178802302666,9.650924674522216,0.11127445408831527,-0.09627079152915602,-0.014901860232485
1700842124.467432,8.65470591575967,13.745486789231164,12.356595744382581,-0.06818145821840532,0.007126600842496267,-0.0244560880465633
1700842124.4775715,4.599864562594252,2.734585450999536,10.02293301954227,-0.13160405338579684,0.08469649840119807,-0.0225059153391249
1700842124.487377,-1.8629596495293135,-5.660919917908877,9.157790135370389,-0.07397347866600537,0.06559772126817218,-0.0400803895546324
1700842124.4975069,-8.425923271079775,-11.65299154117884,8.574414028142904,0.06863903730734576,-0.04356212613551805,-0.0326212854935057
1700842124.5108037,-1.2347191324006446,-0.8539908006356535,9.587978495018461,0.12103711490770502,-0.11074301179315386,0.008532620419728
1700842124.517426,6.560382440719814,14.49367786507932,11.416795902095057,-0.004987112299466775,-0.05982150375371361,0.0066827967883818
1700842124.5275786,9.018681326516369,8.9139528108547,10.292107360947664,-0.14461598675021328,0.056992712994194464,0.0116117572532766
1700842124.5374205,1.2326400625557086,-4.45258704153854,8.627338231912171,-0.1062582189766773,0.08102217027622834,0.0128091829018466
1700842124.5474997,-6.1878281825759585,-10.727535032367333,8.545706512012707,0.01525756847925799,0.00617238518584762,0.0099381910757892
1700842124.557416,-4.559340865254723,-6.344163740834479,10.424126989953393,0.12406478254973187,-0.0845525887341163,0.0355601882682912
1700842124.5675569,3.8697299245625834,8.026633087429339,10.943950780990056,0.05328718685048736,-0.06324742409932974,0.0513257583724134
1700842124.5774128,6.296353453036465,9.743190238140372,10.98433612709091,-0.09223557586267334,0.021219323250382317,0.0365756316231363
1700842124.5882242,0.6777315634840754,-0.7713839848651388,9.232444300048124,-0.10609407632431346,0.036508688111188375,0.0344716547177903
1700842124.5974965,-3.0258172273401076,-6.704934599297255,8.658577757454703,-0.030686143930962584,-0.005211403619700681,0.0333666926370732
1700842124.6073718,-4.747937492768009,-8.5666176635907,9.122475885435914,0.08420076765402171,-0.08031784411019775,0.0298711521671884
1700842124.617571,2.8783013046872616,1.7771917565057866,10.067258915307738,0.0867978076988784,-0.08260430864521374,0.0510372718917005
1700842124.628675,7.2166097503040545,9.299175421169544,10.093075598663043,-0.030616112629542332,0.015307069217225506,0.0326986065255277
1700842124.6377006,5.056688698552746,5.4807212191764245,9.38895226027104,-0.12070865710635642,0.08095018912444904,0.0224489713208549
1700842124.6489823,0.43711192512004243,-3.966449965873548,8.538493582696175,-0.07926094918306957,0.09165257384944372,0.0139687810214035
1700842124.657391,-8.00907399245083,-16.488879157665924,8.501061207602756,0.0822543428704194,0.008721589129245607,-0.0004451194191552
1700842124.6675029,-4.059258285613866,-5.426946579340983,9.61929514377507,0.1929538741000123,-0.0827326984774688,0.0143809471400253
1700842124.677526,5.802450372396516,9.95625773267425,10.925132528634322,0.08133476099092286,-0.024436161481261123,0.0079147605346315
1700842124.6874418,6.193066888317998,9.517030963819655,11.814852483286998,-0.06088206237566241,0.06517435441325735,-0.0019946015319056
1700842124.6973922,1.0630031094191115,-0.03083245402117142,11.253458632612116,-0.07360726964670786,0.07474380166101631,-0.0181336575998194
1700842124.7074544,-3.6239468290350505,-6.679037564816719,8.724143805619805,-0.00908494442426417,0.04520191417041235,-0.0488384762658007
1700842124.717431,-7.414072238065444,-8.135937140148062,8.415332022104872,0.1099696543140835,-0.06746007037540726,-0.0253955578310615
1700842124.7274272,0.3868010266316291,3.368187211869399,8.62660277118998,0.09227128769286544,-0.0967806926365943,-0.0106397937862403
1700842124.7374842,8.483719677295094,11.36656809907183,10.689127062717246,-0.0472484887808664,-0.004380036349233701,-0.0088394438727028
1700842124.7474,7.067333887673269,3.0973704528272767,10.025152010397226,-0.11345379628799077,0.09516858346270812,-0.0056584278000719
1700842124.7574463,-0.7747545903337488,-8.873745857576154,10.139223831225168,-0.014951060690896885,0.0948216030892604,-0.0196234999103672
1700842124.7675705,-7.609013369035125,-10.646294990193303,9.110385178709901,0.12775642211941768,-0.010079168092954114,-0.0187204113109238
1700842124.7775495,-0.6985684705389362,5.455896155164418,10.31433606953671,0.09666980437862283,-0.05442916313826751,0.0150855327145927
1700842124.7874603,4.129883176437608,9.782772429190427,11.283954874080237,-0.04005204745782225,-0.00579530649279334,0.0215073241041772
1700842124.7974465,1.835823933222255,2.5434186935753407,10.459785452407017,-0.08439851951470655,0.010276933369005025,0.0288024185346238
1700842124.8077965,-1.6501292159770946,-4.95624209595731,7.845031525031409,-0.036228579984754546,-0.006124696759618539,0.0324839068697564
1700842124.8174071,-2.956770773643994,-7.678360948325056,10.098932045283798,0.06719812042406925,-0.0699820563939687,0.0422220615790956
1700842124.8275585,3.05071046282229,2.2142377642290065,9.990076694743076,0.07049981452865756,-0.05280226792418094,0.0485408580051534
1700842124.8374808,6.361543944111282,8.311774982954944,10.098418815904985,-0.03647762077816891,0.019676916040846298,0.0482899410771005
1700842124.8474526,3.179226741580825,2.4169309176359985,8.50229727157338,-0.08428490064835772,0.0673691663003607,0.0479128485666387
1700842124.8574405,-2.2662238302858304,-4.134531482314242,8.695323709848214,-0.046397208260477704,0.03370034644087748,0.046212268446552
1700842124.8675172,-2.7294876345173953,-8.192198309856412,9.992931221600122,0.05602565881001477,-0.012664925039631906,0.054943354253637
1700842124.8774323,-0.27759195944224424,-1.219786736783901,11.196128983452693,0.0952402011133102,-0.04291123615592679,0.0559857649849527
1700842124.887679,4.291992778430559,6.4361316213776405,10.265437875324684,0.01747694604932832,0.0031820674906280584,0.0532361207650773
1700842124.8975868,1.9071620743121513,3.831430940569507,9.935329431999333,-0.04731889575151,0.033141528098583985,0.054332440172302
1700842124.90772,-1.610421530584257,-1.9840659515926002,9.273143551536002,-0.03248276525342293,0.005828548784148084,0.0430434284852616
1700842124.917405,-1.3951181208995855,-5.045022486887096,9.312812156581819,0.02212524249537941,-0.02149248058382601,0.033970949624645
1700842124.9274392,0.5842070613959454,-1.9205202351146122,9.902977067533252,0.06681761060365426,-0.03302220065497465,0.039891322527992
1700842124.9374363,2.971931903239118,1.5345380124433758,10.130696325617587,0.044269357506695514,-0.0012918816853457105,0.0225670779244773
1700842124.9474337,3.326501292755938,5.161652048540546,9.768658308569908,-0.008853454916425469,0.03714147063826746,0.0236587239550225
1700842124.957449,2.2268122784369715,1.7399078032970108,9.519059610389727,-0.0463740102759473,0.06295477554487781,0.0121573604764216
1700842124.9676392,-1.720601544624529,-4.156717820937227,9.000740434304896,-0.009026672343472293,0.04830084176331266,-0.0049944613939351
1700842124.9774823,-3.2958227311642725,-6.978715265098114,9.377137702044662,0.08564755271849224,-0.00789019773907566,0.0003862357906563
1700842124.9991915,2.275215253301927,3.8915993816152477,10.879901720206291,0.013318389305324497,0.018731135504957672,0.0062968394839935
1700842125.0077374,2.744200885002925,2.830738968372713,10.193430166484664,-0.029903512024899458,0.05283491914340443,0.0080093526402287
1700842125.0174348,-2.318733899577844,-3.4023721423284052,9.210229025999247,-0.0027752101358219034,0.02981067425358167,-0.0062446292368895
1700842125.027732,-2.7176869189250996,-4.354247857316733,8.913350170858285,0.06086738478671212,-0.019572486092818493,0.0067949503781073
1700842125.0374122,1.207783745253644,2.8921350200592117,9.979125382996962,0.045449395350241166,-0.016729698374426786,0.0109032405661218
1700842125.047464,2.643029366730774,3.7942515443165465,10.185832905238495,-0.014006088015738655,0.012104337800141812,0.012728924316334
1700842125.0574214,1.6409094237515343,0.5031994263842222,9.449790697672537,-0.021040398319008516,0.03392592045037742,0.020156897057759
1700842125.0675993,-1.6076657144449662,-3.6380832996868184,10.150088050630043,0.012388632467789075,0.014099285894574912,0.0100812757508628
1700842125.077612,-0.675479375858845,-1.1307538886855708,10.031888537963045,0.0491634729564827,-0.00566138724337689,0.0195173112796418
1700842125.0874543,-0.2939683693785679,2.947699557879698,9.901719863069967,0.01272541238442921,-0.014217429875388337,0.0186902037011258
1700842125.097437,1.623473244151898,1.4240865249964123,10.086206260570393,-0.01148383208599175,-0.0021739113173712657,0.0238652112083308
1700842125.1074252,-0.4077862708910467,-0.21445339256631477,9.166521567388433,-0.010191607731330774,-0.004397493213173237,0.0252950111524932
1700842125.1174366,-0.13527775093066063,-1.7149054097117773,10.20427669648162,0.0038509086658897657,-0.016214500528629355,0.023211275611984
1700842125.127442,-0.5009049250491612,-1.9636690660550682,9.37273658236028,0.03686453004206509,-0.02061323198316962,0.0311732566105001
1700842125.1375537,-0.15018748479550492,1.295318387115414,10.556225226998206,0.023281393822157048,-0.040456784898644224,0.0267172580705754
1700842125.147435,2.2300360193427187,1.4566327151128733,9.44111595400648,0.008390490973812968,-0.008102771302993918,0.0307467946903579
1700842125.1574674,-1.3365393852540326,0.6828630404750444,9.574702051222891,-0.007553810226504023,-0.03475760469963479,0.0261328438417785
1700842125.167601,1.9867781012042351,-1.8495431989540427,9.702471005292962,0.014258108327506179,-0.013774351887334967,0.0197901981072299
1700842125.1774898,-2.055433792033552,-1.91956237592318,9.799869040552416,0.04775720517663447,-0.04197561021153647,0.0153644619630448
1700842125.187472,0.4324409327332931,3.13758446137825,9.921335824466858,0.017834638041449052,-0.04625236012930757,0.0082854036362641
1700842125.197507,-0.4350089964287495,1.219941014297462,10.585403146802728,-0.01313456917167532,-0.05150256843232653,0.0108419995875828
1700842125.2074344,1.2725427896301484,-0.8783694536770071,10.35300021074205,0.006302226461394548,-0.0486582241845457,0.0026164149520718
1700842125.2174284,1.1884205767982021,-1.0568577747700298,10.284344810826482,0.01854166161795916,-0.03459486692678388,-0.0095453472687132
1700842125.2274356,0.8024802776899082,0.5625466915128585,9.644227571648724,0.017755743777716076,-0.03218888468508187,-0.0007728949068314
1700842125.237462,0.8188685831291228,0.264477948781914,9.638030119851365,0.0082187418150224,-0.023455814391141187,-0.0014039516328103
1700842125.2474463,-0.7713258826171209,-0.16613527764297883,9.760287833245775,0.015125406624433428,-0.038501837522584015,0.0081886145407133
1700842125.2575145,-0.5250993646527465,0.02046478638737503,9.32562194318649,0.01618959271943078,-0.05328411815385611,0.0168483307705991
1700842125.2718449,-0.06269150071724967,-1.524333758200666,9.5870469442819,0.02210942149893671,-0.060918161039789455,0.0245058810459249
1700842125.2775214,2.3217456047379006,-0.3993391852095237,10.056550440001756,0.0348479333441522,-0.04721067943989618,0.0322307063387506
1700842125.2874577,1.309043400298266,0.786621744951759,10.216090374461785,0.02633186299898838,-0.030046391597571994,0.03352554274069
1700842125.2974896,1.1902531198711768,0.1485426458694866,10.251423710750883,0.013287833462957425,-0.018792184520996413,0.0341722121583097
1700842125.3075943,-0.40952686578863934,0.9669996116923302,8.624018118699357,0.014117235170097513,-0.019249091037857612,0.0347205041097276
1700842125.3174417,-0.41919356033166194,-1.7714322776245732,9.71654592650483,0.019421591891203807,-0.033168741509167064,0.0323002165304296
1700842125.3275485,-0.5793582431436433,-1.4127324080276449,9.128206829900845,0.04206971814046942,-0.04032460272054201,0.0304163241879813
1700842125.3375175,0.11580179482535824,1.5224505830476225,10.438471528909389,0.03290317678361422,-0.047752382788073845,0.0254457159088723
1700842125.3475597,0.8675066617520437,-0.5807494266676609,10.747129253720104,0.02424034681873421,-0.04183947972760991,0.0231551224486701
1700842125.3575432,0.9290807431501366,-0.17021819990245127,9.64034273382537,0.03755877961343994,-0.033529197173274926,0.0185957992570274
1700842125.3675923,-0.35012573841819505,-0.026571329026248806,9.279740150752154,0.033364461563819614,-0.04240409404120163,0.0098191307978503
1700842125.3775172,1.9137643096303816,0.9702218340437696,9.285784450942913,0.025293826069683858,-0.025952063758138178,0.0124346487344973
1700842125.3874888,-1.1726474988111224,-0.22181210109610588,8.947980622953754,0.01945768024072052,-0.038633380928107336,0.0078829097682409
1700842125.3974738,-0.11478611850948969,-1.8802948920904037,9.797021464587987,0.042275856364904836,-0.0540941282081778,0.0126488380254976
1700842125.4074955,0.43668556639386336,-2.4804887508225644,10.964725613193993,0.07629436774801433,-0.052150520460676066,0.0114189036311381
1700842125.41756,-0.6684402914170889,0.24428310749282672,11.055848505450163,0.07609517268575644,-0.07037642181816063,0.0080186495678298
1700842125.4275455,1.0881085262011088,1.8610767372474208,10.440451873733892,0.05175544539807482,-0.060839437767911946,0.0015620165858217
1700842125.4374518,-0.825583534209389,0.7138190557198674,10.19563502198301,0.03566888565906068,-0.0776872622920885,-0.0048722914299197
1700842125.447554,0.6681393156121888,-0.7503491308494253,9.40740267179707,0.04680285169955155,-0.07663598562720264,-0.0074637574954159
1700842125.4575307,0.6111452655096948,-1.0483833851057909,9.500870105784825,0.059081628197156816,-0.07799527422137716,-0.0072316528177089
1700842125.467498,1.811806050590107,-1.4185165729341818,9.031472037773758,0.08144199907327715,-0.06725910705985452,-0.0039512813901729
1700842125.477493,3.540094008555232,2.965635649586823,9.712205603403078,0.05630774112235853,-0.04059367990983139,0.0022286152588002
1700842125.487466,6.109629373757534,3.6280308876164145,9.054631667306383,0.00622047838055411,0.03481347242265761,0.006191953469979
1700842125.4974632,0.14891655789547706,-2.258128468014572,9.30027226711495,0.017810930234537507,0.042915674302018675,0.0025596315162055
1700842125.507522,-3.2909966549863174,-7.2087771816886494,9.376452447397346,0.10272619565849123,-0.009722868586342623,0.0022809453429453
1700842125.5174496,-0.9660036933836093,-5.091843125041604,9.15318289663304,0.17925627620267767,-0.03649256154487286,0.0134768704073302
1700842125.5274563,1.056613253367958,6.70246831134776,10.834423626671326,0.11752695160805138,-0.04857134211734278,0.0100188007699124
1700842125.537489,5.1395557313604465,7.321433347417605,11.321299775506866,0.004160759443370994,0.016517044520110647,0.0012744337208368
1700842125.5474622,-1.6615451108289752,4.66127169884455,9.340988100600956,-0.04279956087742981,-0.00015504720397125022,0.0005719749668878
1700842125.557455,-0.3401150444273393,-2.9204023996717936,9.697767585592961,-0.039382454687984784,-0.019048531126613064,-0.0111538456632025
1700842125.5674963,-0.8729771166076791,-6.16597348933514,9.976698101884644,0.06147775256255358,-0.04252886881912272,0.0083798853801362
1700842125.5775025,3.056548562448337,-0.08774772419662534,10.594300933103705,0.09009458919929089,-0.03072491068518994,0.014046292205321
1700842125.5875237,4.052812313202657,5.257820716537408,9.976436860936763,0.02853231669401305,0.013766890346312729,0.020266660873758
1700842125.5974872,2.4592617639524774,2.8393168848479315,9.489719112368169,-0.005901520751688965,0.04041446264837556,0.0263524701939695
1700842125.6075363,-2.273162573019713,0.9217905504306526,7.966711780811022,-0.026245114965669707,0.00793525564998774,0.0178014164911382
1700842125.6175346,0.7888274241847543,-4.971501854346426,8.84948564439712,0.027090573824555812,-0.005319264630535131,0.0175308151291482
1700842125.62758,2.076503507486194,-2.9895547487045806,9.289888354125967,0.08392748057851138,0.006638780969221618,0.0150092527391188
1700842125.6375,5.811511871355848,2.9596831553648224,11.278890176901612,0.051961448081690245,0.06631688746380217,-0.0052077370574898
1700842125.6475332,3.3682234080000217,2.74634887379619,10.6248043626645,0.01397700260028474,0.11958480205352698,-0.0129980841530687
1700842125.657487,-0.9132387428316743,1.6910276218348768,9.92790788076703,-0.003023459097446774,0.10080880209864182,-0.029251775319708
1700842125.667594,-1.9064964326824503,-1.6843287354042245,9.073911325788846,0.008624107331315417,0.0727411473427063,-0.039214971090687
1700842125.677498,-1.4285244951239346,-2.4388424449022383,8.261465568858041,0.05213694483800793,0.037464857294516984,-0.0284384028865225
1700842125.687489,1.0118803040357327,0.541475660342173,7.738760438803171,0.05006454045587327,0.038609477041734695,-0.0329765478028185
1700842125.6975026,4.1864727580358565,2.573185704368683,10.254054080988375,0.027579525062712006,0.0742118677466412,-0.0208461774392254
1700842125.7074745,4.278907352248088,2.463946153446307,11.300736337646308,-0.009778326766889434,0.13140689562477373,-0.0294735623402721
1700842125.7174706,-2.615265925788572,-5.66788251681893,9.547894614647088,0.04336049432477248,0.11396945938572603,-0.0356202037884123
1700842125.7274942,-5.656330774717257,-6.422095211575801,9.264930675804582,0.13199385361177662,0.022413478923197346,-0.0146080577625162
1700842125.7374866,-3.253546732136376,1.6011690537320558,8.791798954963083,0.12951253884315256,-0.02691649396805418,-0.0107571264608032
1700842125.7475507,1.218231632617785,8.639300687750003,12.54089047030522,0.03538172479755664,-0.038158822369876354,0.0034557268144362
1700842125.7575345,6.390509352265651,4.997021887865867,12.249046082448455,-0.046253734335659075,0.04564946504840709,0.0030608313744686
1700842125.767564,2.7863484837962322,-0.8776781654175337,9.982051779434828,-0.027669607359971576,0.08271290065445273,-0.0164822699381239
1700842125.7774956,0.7658780223046399,-0.5470513745745261,7.760505719873093,-0.019217298728844062,0.10682905176658776,-0.0257484713448412
1700842125.7874703,-2.1188053043346473,-1.0880986812254012,9.413271459437691,0.0004628861341746303,0.07459574656010755,-0.0197273665918238
1700842125.7974849,-2.1023280723527886,-0.5507699750229946,8.868692502867221,0.020710470258479313,0.04383027429209681,-0.0242949003232843
1700842125.8074927,-1.1382492297231577,5.000260096373526,10.230838962775207,-0.0318488563908878,0.016196709972788676,-0.0186536950869686
1700842125.8174844,4.013152603570624,0.6778928856417427,11.58107005743145,-0.04191213687340317,0.05590536094841041,-0.0085553821055419
1700842125.827513,-0.6812747693674541,-0.24028561781702384,10.314455472495938,-0.039209712650490613,0.05382962891464483,-0.0262334277732498
1700842125.8374848,1.110868971930931,-2.1237636572804734,9.113333644029234,-0.012566768064461277,0.057719595589694146,-0.0304938429845697
1700842125.8475606,-0.13718226134129785,-3.0611803512664695,8.85652667541723,0.03345454398314651,0.05963563078659342,-0.0268387632323629
1700842125.8576074,-2.0527225105877625,1.9660699675568578,9.284669183189132,0.021659492504228692,0.021762461744950962,-0.0356552624954111
1700842125.8675082,2.096458109110689,4.674728730683998,10.2810348038811,-0.03420816709499771,0.0381598083178979,-0.0353691788269407
1700842125.877555,2.292879196053337,1.514601214534325,11.594377921448865,-0.06026342346525267,0.06290287519653735,-0.0334307687236196
1700842125.8874867,-0.233676473171073,-2.3153971359431083,8.9964821755835,-0.038765762655085446,0.06236590929424366,-0.0578758442653543
1700842125.897521,0.20793732680390958,-5.205291130957588,8.691699434645091,0.024490680066754807,0.06019424408275439,-0.0530488477898962
1700842125.9075606,-2.527181573369559,-2.661034267132724,8.422872440291899,0.07469297907635104,0.0285695274132492,-0.0509606400383837
1700842125.9176197,-1.6190827155841945,4.338355240268382,10.115961055612436,0.03344767165202539,-0.010870366397928564,-0.0606842996431715
1700842125.9274971,3.4619397198797346,5.808718399618509,12.010727842434221,-0.04583116343456599,0.037208669883839494,-0.0614234009636766
1700842125.937554,0.10007975967413893,1.0816513845796445,11.55788837997658,-0.06997639993941308,0.029587608085342318,-0.0727190064145452
1700842125.9475288,3.971789956997325,-5.345969151927424,8.290283127112435,-0.015986129570012976,0.0803428870685591,-0.0894397707535154
1700842125.9575884,-3.1689828967953586,-4.486669143243159,7.425359208519926,0.05904609460462128,0.05463673909512795,-0.0806431906176931
1700842125.9676216,-4.346122974136131,-0.7510517705445675,8.83986395043648,0.07033126783919648,-0.019239369735452344,-0.0964104222012884
1700842125.9775505,0.1940725007379399,2.1611574373795066,9.520030564710092,0.05618642767903674,-0.016967312670145125,-0.0878724815203077
1700842125.9875736,-1.163549297654131,7.840407444331357,12.792071395875393,-0.0316811580975609,-0.03598203753437686,-0.0999158682180769
1700842126.003519,3.4587775686723683,0.3774081472581422,12.850897715120796,-0.08158219620917276,0.008829879765606409,-0.1129801334692366
1700842126.0075457,5.775271284838463,-8.956604206941195,5.784603539804028,-0.022447468813418223,0.05303227128108519,-0.1160912277056105
1700842126.018177,-1.659498941681023,-4.295388164490569,7.270406525617261,0.04181828842308458,0.04201344289508626,-0.1206522645307905
1700842126.0275817,-5.217301368483905,-1.357816311101245,9.01716895325512,0.06091523678196494,-0.025429657456647946,-0.1262772591663725
1700842126.037513,-1.4103442132292925,1.5465852601346368,8.82996350892248,0.05165184688441559,-0.04748267789853918,-0.1241058321548826
1700842126.047525,-1.075925373614533,4.829741469473612,11.956297786740606,-0.007909360311465835,-0.061783208401144825,-0.1277156831575758
1700842126.0575738,2.3159485789623524,2.3190742853105224,13.065038841179101,-0.05810759722857906,-0.03845485850188601,-0.1389054121328718
1700842126.0675347,4.199227800194895,-4.203381833689128,10.003745785618252,-0.018414228784468984,0.016354355204727226,-0.1376456828667051
1700842126.0776331,-1.223919911664725,-4.770244229881152,7.13700514160549,0.055046936361407416,0.020756667944233566,-0.1398828836037046
1700842126.0875478,-5.3961145851163455,0.8575218695918412,8.267301105000382,0.05003876322482804,-0.04769645051219886,-0.1478528739763624
1700842126.0975184,-1.5359667112711393,-0.7564927277187758,9.147087130638013,0.047715582900036815,-0.07441226801906152,-0.1487672092272169
1700842126.107559,-0.09717797934442027,-0.49195941028497425,10.480375851151342,0.06757102981130489,-0.07573989389206554,-0.1454489590479261
1700842126.117523,-0.46218171222265847,6.3680597502657905,12.160950117964745,0.0008127276616710312,-0.08219170759404815,-0.1573375375820524
1700842126.1275208,5.4238643035486485,-0.12152946207502686,12.15465239793749,-0.03301916212296765,-0.023739340180239776,-0.1535897167278654
1700842126.137541,1.2516739450287655,-3.5433635819793587,6.9138193387455935,0.034181328430188326,0.009497243954616784,-0.1583315493418104
1700842126.1474917,-5.123976755617865,1.5410442969388243,7.91214468597318,0.015207857590687091,-0.04764484336037236,-0.1673841239763624
1700842126.1575365,-1.1874944188726446,-4.177618546566687,9.844010730871808,0.049776699753477406,-0.08121038835319741,-0.1662806035829908
1700842126.1688323,-2.2274029773962294,-1.54997797760839,8.339146266375359,0.09556874160823225,-0.10737344999267025,-0.1780291261030561
1700842126.1786509,-0.6258007954385449,4.06967979503787,11.921346615981236,0.047738407929932995,-0.1236140693779246,-0.1920603277040846
1700842126.1876116,5.046373843552084,3.445215552324121,13.824088302795772,0.0017393581476633161,-0.070928543237452,-0.187688118393553
1700842126.1975603,2.7202053502806924,0.5989690939351048,9.001337866703311,-0.003208585441735587,-0.03601619739769169,-0.1934094937397368
1700842126.20757,2.336713019933688,-1.8649463501788197,7.398549432196661,0.01509941506713547,-0.008591674103210543,-0.1865360500170118
1700842126.2175174,-4.197269807619152,-2.4902651380783185,7.547045671887619,0.055947423678167615,-0.054664038993371224,-0.1882408322645552
1700842126.227565,-2.262115714822574,-2.0061376918534477,8.530524672491858,0.08203372033694806,-0.1079252908092359,-0.2058408321691877
1700842126.2377803,1.1375164918360001,0.2451518411212689,9.344840190851064,0.08829712140063237,-0.07833264094125905,-0.2039755495144255
1700842126.2498486,-2.105681742628686,4.045759989042484,14.328209510248858,0.04191524439672243,-0.13406110267874038,-0.2081118883444197
1700842126.2576764,6.7973101738566175,2.523143855808968,11.537480021802146,-0.005954549195654448,-0.07106736051986658,-0.2372705848766691
1700842126.2675536,7.3451021315071685,-2.329256763657114,8.887652951324263,0.019240484569946446,0.0189517834003415,-0.2204625220848448
1700842126.2775366,-1.9611250254893513,-0.9203463466073541,5.701208953129303,0.04847578883247962,0.008098500571753884,-0.2216026397301085
1700842126.287551,-3.2582667100643263,2.580443585779544,8.395437833829313,0.018635279199880197,-0.05253390525311998,-0.2182994248224623
1700842126.2975662,0.9980782976627264,-1.8844602857313737,10.149067652542756,0.029504549253120415,-0.04756858970860073,-0.2073825808121092
1700842126.3075566,-0.4451765034125224,-0.7799193000894225,10.582949697274389,0.05198696902169709,-0.0652608948018361,-0.2205744000030882
1700842126.3175528,3.5985221848549562,4.322264259194379,12.143313338867959,0.006580602082446326,-0.03621542602339809,-0.2340269448114759
1700842126.3275564,5.672912107496135,0.10610640940687092,11.389942474408004,-0.007937466285202947,0.035981998815266966,-0.2284786166502363
1700842126.3375518,-0.3490245647994824,-1.4580892046345464,8.762628789803783,0.0012737421373696376,0.0355493047128357,-0.2453288050247557
1700842126.347617,-3.9898732895442435,0.3758733384102893,6.725934258161968,0.021342738037230864,-0.01595977370991167,-0.2505466701341993
1700842126.3575635,0.14535486958258,-2.0788500173191973,9.500842777091837,0.014375244081837678,-0.03397549259127095,-0.2486059429003126
1700842126.3676174,3.6590386376248483,-5.056188806048872,9.060433039677745,0.09621247473070657,0.0038209504357421915,-0.2495385171724684
1700842126.3776124,-0.6073740632435226,3.16628608489043,9.604970948988393,0.08519617165542154,-0.009741205347878359,-0.2565001906706221
1700842126.387536,3.2878716500195666,8.932407516426817,12.453113877008947,-0.029308230820663868,0.03236440582943269,-0.2621185840917951
1700842126.3976572,1.8083057010522017,0.17214637984402484,11.932569747863393,-0.041490488942163214,0.042912991193555704,-0.2508041920019514
1700842126.4076197,-1.0317227949457992,-2.1565001784596,7.376445412743756,-0.00808188827324124,0.035957031536449864,-0.2654683353258497
1700842126.417585,-3.306674726842063,-0.06860184540212341,8.765743833555328,0.0055661361245293575,-0.0169023987704099,-0.254701262886656
1700842126.427527,0.12571437870150184,-2.2955523057267873,11.097121840507306,0.03935398632873708,-0.035120107433818805,-0.2343569459272749
1700842126.4375284,-2.6147205503701145,1.0375410621549461,9.89007168344757,0.03901023275031017,-0.07351790107289018,-0.2453175844503767
1700842126.4475715,3.6680910874996657,3.9201506779456436,11.859106111431428,0.0014572678037571621,-0.04532535764677391,-0.2399475337816603
1700842126.4575832,2.755831908383897,0.7297074565886658,10.887769453884335,-0.006664507752416569,-0.006947190346278808,-0.2211868824316389
1700842126.4679794,-0.32714504882802437,0.9617668288699012,8.973198808814667,-0.014017231526124774,-0.019042875882268058,-0.2274736078335173
1700842126.4775476,-1.469773731891643,-1.7993271443909897,8.145228957639645,0.011007951714891884,-0.03901256712208974,-0.2261637957645781
1700842126.487544,-1.4408355362848058,-1.6886186113394799,9.678093236816215,0.03818954265199558,-0.07306757525822416,-0.2257896872116453
1700842126.4975328,-0.41122042304576145,-0.04148684050789268,9.852209010803554,0.04722429133091666,-0.08132437410821444,-0.2411633046223051
1700842126.507528,1.9153570524494536,3.9351826321493424,12.083133131716144,0.006354191827650539,-0.0800301676993912,-0.233357867772711
1700842126.517532,4.606269038339591,1.6004653404403049,10.23052674902278,-0.016880184532343374,-0.018557519131672924,-0.2228669883562452
1700842126.527536,-0.7409915904531104,0.9945521360836714,9.320617812660542,-0.027552526660951517,-0.02834827718304684,-0.2235337110115416
1700842126.5375695,-0.05738628354368756,-0.07416104029138174,7.782173302687902,-0.027154679859419977,-0.043352240432301445,-0.219832739408148
1700842126.547625,7.90632620211204,-7.4766494633342475,7.223797447377439,0.06100851071858719,0.022257344317386317,-0.1909038038803465
1700842126.5575616,1.9499749686446923,1.4172787859984832,7.200038567389567,0.07826394870498547,0.06105416514938773,-0.1935333223892576
1700842126.5675666,0.7396158991758918,10.804664073376166,11.177206592779626,-0.03828422824375937,0.04424297676698575,-0.1849816055847532
1700842126.5775645,2.0842387934500213,6.28493756626537,12.34966700757381,-0.1478059249385809,0.08578914265726463,-0.1861548932148344
1700842126.5875618,-1.3604012742977083,-6.9241422307492195,11.556108579646853,-0.05374396497242174,0.04491456460580793,-0.2062808932615644
1700842126.5975814,-2.8392246333420723,-2.529475802912984,8.839999656436863,-0.0068356525690215055,0.010723140256796266,-0.2270737947775251
1700842126.6075935,-2.3374246975642263,-2.536359685256849,10.391077990170965,0.00845873828629815,-0.03933665924146262,-0.2224332155538923
1700842126.6175778,2.5110251215564183,-3.4392374070508613,9.981631413269337,0.06535910146229162,-0.033630861080675964,-0.220920151646269
1700842126.6276176,-1.5668929918422299,2.068867013361514,9.537746446168045,0.04320737691236956,-0.050083180177742256,-0.2360989810778029
1700842126.637667,3.1290240077248934,2.824793467323204,11.079625393362091,0.00534011299326937,-0.036033884743031735,-0.2274323018146879
1700842126.6475904,3.945557648489212,1.4910290911203312,9.75865857040125,-0.007026333944864036,0.007588407616154877,-0.2123012902094252
1700842126.657589,-0.5922074126879181,0.24592926704628465,8.421482148453213,-0.008609218816480628,-0.0005929060280994677,-0.2281145812822706
1700842126.6676404,-0.08779691428077441,-0.16927535312454656,8.72974721283712,-0.004401447870464223,-0.007840562971329849,-0.2208298804117567
1700842126.677751,1.0934127287623454,-2.1046942657261627,10.164191068976052,0.02945660306612302,-0.01744639353390628,-0.2075892003132231
1700842126.6876447,0.10872413191036306,0.7089537445866917,8.626552611054189,0.03892557745204833,-0.011068801801303745,-0.226448288734091
1700842126.6975834,2.128345489551008,3.805032754476442,11.761960537268443,-0.005526092388190019,0.002637842585892129,-0.224979987914694
1700842126.711827,-0.44179612956262104,3.466665573938993,10.70978965448132,-0.04368681875377385,0.004720060787519969,-0.2253866257025129
1700842126.717727,-1.7005587511654383,-1.4249889256261412,10.01935814377005,-0.046061787522771167,-0.015180487732980981,-0.259584075386656
1700842126.727594,1.5165659629181343,-4.996593294981634,8.468417184580925,0.01828651144003957,0.007316716721434475,-0.2574632527185804
1700842126.7392375,-2.5036134790086155,0.09453559733825964,8.370538799868326,0.046070169319561254,-0.030408325678506577,-0.2727422477556593
1700842126.747564,0.12248362187284038,2.9117974150818404,11.2199994278404,0.0070405906419968274,-0.03935831811714981,-0.2935228409124739
1700842126.7575357,1.1763097351580267,2.6815117959751973,11.010272674746705,-0.023319160167187287,-0.0341956194376562,-0.2900625528646833
1700842126.767664,3.4940384473347947,1.1060202069035294,10.095696353230498,-0.0516521944073513,0.0008534875082405214,-0.2998710038019544
1700842126.777716,2.0355895702962594,-4.600912921844665,8.596376614755753,0.0004705152078936468,0.02516448404234095,-0.2986773015810377
1700842126.7876542,-1.051669980053777,-1.0297469074330035,8.093702949464888,0.03908221990203428,-0.0059973150391974825,-0.2866289676977522
1700842126.7976365,-0.09667107811036293,1.6637908365825858,10.590370423233859,0.010235043046029676,-0.013966194524174712,-0.2889736654116041
1700842126.8076644,-0.08987857587573943,1.6576702738955151,11.3123193049797,-0.0003424272060460985,-0.044073761739686405,-0.28183761852516
1700842126.817606,3.3846322214869318,1.7951165553476114,10.664619583194945,-0.03274657809835368,-0.005793616314375607,-0.2842871906114942
1700842126.8275452,0.39905348726714,-1.7229101227851917,10.62693385381939,-0.010977722370622542,-0.008550604454808942,-0.2864255966497785
1700842126.837535,0.9828619730083308,-1.4927166097150621,8.534957211331465,0.00343962952959025,-0.0001191581083872069,-0.2907237769914991
1700842126.8476725,-2.574692395704354,-1.9649971459808395,9.279475763263433,0.03352354335963299,-0.032849929134886956,-0.3013669611765272
1700842126.8575969,-0.7200198502999045,-0.22450165206531447,9.865336051541904,0.0356959398869165,-0.059877778066248964,-0.3063341142488844
1700842126.8676991,0.9002972627636661,1.4448295179356654,10.009308239474697,0.014718618336699138,-0.05057578758145348,-0.3063806356741316
1700842126.8775685,2.2846756526160985,0.8150537153880039,10.614220996743594,0.009349967292711125,-0.0329697464635764,-0.3095025481535322
1700842126.8876803,3.194132041136275,0.7380842405895891,8.93346180138417,0.004400469293016594,0.01143111492795105,-0.3126233877493269
1700842126.8976676,-0.31820979112554865,0.3423040661435344,8.85516388531655,0.004772388034422881,0.010831741851555714,-0.3061953546358473
1700842126.907674,-2.1159057000158827,0.49627149006518095,8.289410221508401,0.013709410738832927,-0.013581430803343507,-0.3076211573435194
1700842126.917623,-1.37804779116073,0.9307719946136641,10.635728550625332,0.006188868418603253,-0.0434738683621242,-0.3009997667623884
1700842126.9275892,0.21910923160134196,2.9467241595108584,10.115956838848241,-0.019701471898859776,-0.049357355088073915,-0.3032844425989515
1700842126.9376087,4.533501239543945,0.27500503555280054,11.277878355271877,-0.020906953756822853,-0.004332156306745252,-0.3031793298078901
1700842126.947541,2.733754478179065,-0.0604105933117053,8.49741639710593,-0.001753030927845646,0.040316092465273366,-0.2975529195619947
1700842126.9576013,-0.6783108186459332,2.4715624959789375,8.707899690404162,-0.022491886092335205,0.030812576012289514,-0.2945192517591841
1700842126.9717035,-1.4743245092325035,0.43983912904717,9.161874585932164,-0.023331663095347028,0.0005209484851994824,-0.2887465419126875
1700842126.9776018,-1.6601745897205624,1.9141311361232076,10.293929915557438,-0.027301993597528492,-0.023374544583193144,-0.287093943531645
1700842126.987602,0.024590402571839816,2.794268465474041,11.31059896099661,-0.06328681340888438,-0.03809395494541404,-0.2666782798124678
1700842126.9976149,3.0409775972046353,-0.3692363839396269,11.510152591379374,-0.04346590782325724,-0.02662321756715029,-0.2395581217361815
1700842127.0075958,1.9452222471421916,0.06347050421184419,9.306415464839384,-0.03258632430528233,-0.004109000733439846,-0.2377868952108748
1700842127.0175822,1.0115728603885998,0.2428316698671906,9.596166578204297,-0.019920264374036635,-0.006317784174643867,-0.2126589925838835
1700842127.0276766,-1.0581185076058666,0.7952532279225648,8.174194010110774,-0.013993554311404536,-0.02543599364961825,-0.2000249983621962
1700842127.037644,-0.051335777230963685,1.6379478381800867,9.799658465029493,-0.028452960910408713,-0.05013862756588059,-0.2001136006666548
1700842127.0476725,3.5371670940307562,0.9014072499679658,9.275358536652007,-0.030733257134652126,-0.015243002132041217,-0.1888576807333357
1700842127.0582404,2.0802623976417416,2.266717475396652,10.22237943913863,-0.0481167442318776,-0.0008030983202098106,-0.1950754882646925
1700842127.06772,2.768370950011524,3.132534112952242,10.673765144407657,-0.08286279141286651,0.030108946893868466,-0.195883131201399
1700842127.0776548,1.52126010728564,-0.4332639784651953,10.003674744337761,-0.07343143522605128,0.04078017401421934,-0.1838064255072004
1700842127.087654,-1.870735395560023,-1.6724260359489622,8.442075346752038,-0.04241019660880077,0.022061168045634218,-0.1854880960537321
1700842127.0977442,-3.408979189436179,1.7785074231969877,9.658965914485428,-0.051288835059159585,-0.03779826544316271,-0.1770178736997969
1700842127.1076329,1.8283745598151886,-0.40848778200863617,10.828776581912473,-0.04081053017323029,-0.027339660213715183,-0.1599518569065458
1700842127.1177108,-1.2049993606142262,1.171165880398297,10.76930110635274,-0.043773640306341725,-0.047246852021843075,-0.1654609801126844
1700842127.1276731,1.8841355861122155,2.4524980138716495,11.597233612790442,-0.0726818435479726,-0.027986790459049136,-0.1534241350246794
1700842127.137658,-1.4525015103810626,-0.5298293889255707,10.102113627049492,-0.05746567984849469,-0.04601417861926312,-0.1482093991590864
1700842127.1476278,-2.0189156543795885,-0.38595941279923435,8.454361155010776,-0.05024693898118788,-0.06987496047509395,-0.1668870212389357
1700842127.157652,-2.0856520523813677,-2.1867549020740413,10.194207342230701,-0.026294855244781295,-0.09587447276952836,-0.1549791606022245
1700842127.1676314,-3.5993772950377543,-0.29898479811009376,9.327398500347655,0.0032995550933660888,-0.14769004559545948,-0.1604301096750624
1700842127.1777582,1.2067992234280007,2.440354731217378,10.875667340760227,-0.03245569169586225,-0.14087956475154545,-0.163776791269911
1700842127.1876097,1.8894549479851885,1.7858821592313814,11.115868957529406,-0.04380075433347505,-0.10850290315754585,-0.1503205509735472
1700842127.197623,1.5048029797532265,1.628619280139928,9.419923994752036,-0.0656163397284405,-0.09500697935384518,-0.1561016799761183
1700842127.2076356,1.148325174449509,-3.776760190010281,8.871630631858876,-0.026969532715729237,-0.06940514705034921,-0.1576349051548368
1700842127.217642,-2.9593798932256963,-1.2711067952568476,7.803675116631266,0.016510878736223,-0.11373246954898424,-0.1573454948021299
1700842127.2276027,1.1919960040359787,2.0529412116233567,8.821426039063047,-0.009204754369857676,-0.10432776675774347,-0.1774950088812239
1700842127.237728,2.4259992109390454,1.6305538730209737,10.069100691096688,-0.026658118688364943,-0.07792162923287561,-0.174968591506613
1700842127.24758,2.777696597129118,3.942363127484142,9.38534340012826,-0.05929600196065813,-0.04973330096863769,-0.1755777807785399
1700842127.2575934,3.065464619347865,2.4229777851080923,10.58922621326689,-0.10597185076800988,-0.016379155486441848,-0.1782401116443998
1700842127.2680566,3.1213420529472478,-3.681602543818679,8.959880446715966,-0.06882153168181651,0.013320500556214665,-0.1729826392485029
1700842127.2775974,-0.12709366574284664,-4.003659032197978,7.284624449124866,0.0008202157443157805,0.014888403929764947,-0.1875637533022291
1700842127.2876198,-0.2000766260428398,2.292939684693837,9.475508892039256,-0.014847912342402913,-0.00018372156265659127,-0.1882711710287458
1700842127.2976542,-0.1340449935591264,4.040747740609641,10.17879933549604,-0.06385112891044462,0.001620056317932833,-0.1847047122074492
1700842127.307597,-1.0975426091075973,2.220907275360881,11.784146790418601,-0.09081588875068652,-0.024206035867508687,-0.1930162073923475
1700842127.3176036,0.7131686532175868,1.1555011215848834,11.16132094701129,-0.1148352848814779,-0.0276410333271644,-0.1978812726093657
1700842127.3276412,2.5767287873269864,-6.286343650047947,10.393273678356117,-0.05178044661500623,0.005682576092381374,-0.1958054663492567
1700842127.337586,-3.6303332639497436,-5.215668201649552,8.217615973488972,0.03481794428868194,-0.037207023370529106,-0.2145831199242003
1700842127.347587,-1.7794346701915214,3.533649582313754,8.764363847506358,-0.0019129162556754523,-0.07486654240244685,-0.2269896926237471
1700842127.357701,1.862780834171715,0.5324853825258883,10.400655074154953,-0.028129948230895974,-0.05372680024719647,-0.2177441032482512
1700842127.367686,0.6357260140590096,0.7559900894421279,10.246217828203973,-0.023928225978757416,-0.06036531973936676,-0.2236640067650206
1700842127.3777692,2.0940283123589,2.8563040694619817,9.904575336384747,-0.06605746053815749,-0.04381393320933632,-0.2340487899137861
1700842127.3876262,4.768047401997313,-2.5434014731291477,11.480755156297903,-0.0602659225132598,-0.0019093792474511907,-0.2070101858927137
1700842127.3976123,-1.7038864006427674,-2.7381677398344824,8.415980660093714,-0.003214334261149192,-0.015748607463803934,-0.2096373947216398
1700842127.4077125,-4.012213608969834,2.4991555429044765,9.859011597928028,-0.033344708434216636,-0.09369056984178822,-0.2288506837440855
1700842127.4177575,5.024460550674264,-2.4307842229457046,10.566597657713295,-0.025721325401095955,-0.04708320054436632,-0.2049253346277601
1700842127.427734,0.6098511588057349,-1.9033794402633735,9.892584516182945,0.01657360931101716,-0.045097985419030276,-0.2258355380846388
1700842127.4376943,1.328923071085017,2.6278555137813377,9.119974985822083,-0.016764671099197274,-0.03877476613251934,-0.2489004345489866
1700842127.4476123,3.963640079323136,-0.6775356471258968,9.95153658482337,-0.029840992551539,0.0023752070310300044,-0.2231899263216383
1700842127.457608,0.4802049866572795,-2.4216546298180885,9.514735788084556,0.017106389158804455,0.006843189146067067,-0.2206375511242277
1700842127.4676962,-3.037133609528732,2.7888365664023986,8.993442006104301,-0.0021350845013844958,-0.04329271095681437,-0.2271618457390196
1700842127.4776597,4.008432593384102,1.899530371118298,11.28294595313808,-0.0403150763854746,-0.018022808445336068,-0.1923559071375258
1700842127.4877577,1.702379684591304,-1.5017880030804578,10.28333006011685,-0.002870708532992844,-0.0055060282112318485,-0.1720601679636366
1700842127.4976,-0.8652924270689306,3.9292029622104727,8.348798278279666,-0.033770719326076136,-0.028511753833941104,-0.1822753013922102
1700842127.507627,6.538816339221613,0.17311734855343913,9.49077536365775,-0.05773138637086889,0.03548246916637649,-0.1525121094538099
1700842127.5177274,1.4656862353450888,-4.478440445095793,8.637729285592282,0.023334352044448142,0.06010994514546026,-0.1542818756653196
1700842127.5277822,-4.192413683477081,4.076312540031831,8.753599517248606,-0.011095350606654978,0.01122874397906561,-0.1910465868069059
1700842127.5376654,2.707716701396344,4.17579828477709,11.153932351122448,-0.08384928195014112,0.0259495831520739,-0.1835936518265135
1700842127.5476935,1.3726822314430436,-4.868456133467937,11.30339269804766,-0.03102663122351266,0.03741233353670979,-0.18867774921192
1700842127.557717,-3.7327168583082053,-3.0874695476263065,8.653497609130925,0.020274048879358315,0.004482533243657158,-0.2406246425463087
1700842127.5677211,1.893009056173789,2.4744860741383383,9.645403270794246,-0.013463960413300167,0.008215383898922995,-0.2389815958095915
1700842127.5776615,1.8443350055329015,-3.2240287819061395,10.029601670297172,0.021248801374062404,0.024655554628553553,-0.2308236272884733
1700842127.587669,-2.9156302784163253,-0.34458820215904096,9.224028065083859,0.037101041211793175,-0.006551659790991085,-0.2677441002680189
1700842127.5976362,3.3463147524681625,2.965714029499549,9.386631055008108,-0.0015935574418396903,0.021064938152698404,-0.2683268846823103
1700842127.607586,3.3186320662046827,-1.3719511865448986,9.710981521985373,0.0077923476807054025,0.059799017252077515,-0.248899153049124
1700842127.6176383,-3.0620625750731016,0.5629577862781932,9.361072305412327,0.023256687766346477,0.026902716531990403,-0.2623461248232252
1700842127.6276178,-2.0524873366696226,5.768154042971849,10.896828298041346,-0.044404075360893074,-0.014787529468861424,-0.2201234312607176
1700842127.6376455,1.7838085364777163,-2.6492926166273048,11.671589447670652,-0.01185449281221543,-0.024311417827219427,-0.161302483255995
1700842127.6476772,-1.0817012764916165,-1.343067470322981,10.248677958271104,0.029855069208569486,-0.035613357350276154,-0.1492537470413572
1700842127.657668,-4.84442493651571,3.316234081845403,11.322717367322634,0.012725979427728682,-0.12331838168742916,-0.0897613452626593
1700842127.667694,3.5988335169760686,4.7603365051140525,10.333937183033324,-0.030173087514053322,-0.11125009722707985,-0.0161324838055498
1700842127.6777246,2.6935639413736667,-2.3112323551358815,10.045957214892203,0.0032106944888366028,-0.0843062430594676,-0.0205157535029775
1700842127.6878252,-0.42829865095481345,3.730578893329346,9.850652908178596,-0.017605337771311052,-0.11845625798021688,-0.0182201458020336
1700842127.7019188,5.195202694430578,0.5593649233575392,9.431622564851512,-0.04868783535083432,-0.04277183028873534,-0.0250572679443485
1700842127.7078867,1.2082903097029452,-9.079291127402845,8.112307088150464,0.026578518099006118,-0.026500568367349656,-0.0837097452832586
1700842127.7177715,-0.9692069180093509,0.22512388248896095,9.313044993156543,0.021791415321287436,-0.06143294857412281,-0.1510185362650282
1700842127.7277305,5.125793705860912,0.18455600721949522,9.403197957705773,0.0036835183854359308,-0.0064067075492464645,-0.1716366322590239
1700842127.737675,1.7003674818490864,-3.4616618087039552,9.920260366216787,0.030991991489620167,0.0012368498924084472,-0.2269295068336851
1700842127.7477007,2.2192039601098705,-3.0363413519588662,8.953782552471305,0.053458100660399716,0.009295358296053413,-0.2777788998438246
1700842127.7576325,3.6825106902567573,-2.4988416691007203,8.78108293552664,0.07050367843612593,0.032539211715650856,-0.3001459302259809
1700842127.7677135,3.695005594601638,-1.8723599051235704,8.56100939249299,0.08409100554025559,0.06012942572418372,-0.3291763426615126
1700842127.7776875,1.604339395824621,-0.5337457334446684,9.043769540961234,0.07605993408558352,0.05778229271104091,-0.354918992693556
1700842127.787655,4.380633528015088,0.09988308426464247,8.669167084502853,0.06030594307053313,0.08692930590658056,-0.3538770737005598
1700842127.797775,3.105511097750235,-0.1824156905272538,9.12804695418625,0.05980381707109548,0.10857923892566457,-0.3610508503271467
1700842127.8078775,0.15249059852214664,1.204403940732598,10.386851483800775,0.05393936977186449,0.09536175182380634,-0.359534985001219
1700842127.8176556,-2.081234480576782,5.414900264685643,11.684997083454869,0.004732350795380007,0.060900026130395885,-0.3103390099359877
1700842127.827666,-5.6225398051377145,1.735845140200711,13.207361483184876,0.018134898642671253,-0.043572948010651265,-0.2287989469124205
1700842127.837874,-2.5564345073325834,2.19912496793271,11.68504035174377,0.03239089667651008,-0.10510861133695953,-0.1778723509861357
1700842127.8478963,-1.9926393189371996,3.3338281016980797,11.084912765238492,0.02580037563364653,-0.14298299218842145,-0.1254852028442747
1700842127.857652,-0.31965244110876895,3.4096177696031043,10.392598647541691,0.01647891470322658,-0.16317702587024485,-0.0905479701115019
1700842127.8677866,1.4526319688255895,3.4623898501452492,9.301199403586812,-0.01269165108337151,-0.1419383590180051,-0.0980022312952406
1700842127.8776696,2.4792139063410663,2.769023833526393,8.950234714338505,-0.03635026057124688,-0.10947224862613836,-0.1065671803308851
1700842127.8914173,2.6193624744428057,1.9774561431201938,7.803932863940355,-0.056509259883146944,-0.05588270477526601,-0.1206808971120245
1700842127.8976376,0.05207848045508326,-0.3864043221673427,8.097214879668496,-0.059973271009505814,-0.04408138173195273,-0.1482490809513456
1700842127.9076777,-0.011835539733611204,-0.5314957532746608,8.481627508518391,-0.057966359168334904,-0.04589972040344005,-0.1702959151817686
1700842127.9176795,1.2054156660527036,-0.046422854494452125,8.926086251613658,-0.056822240985487125,-0.026085706657825756,-0.190637713844908
1700842127.9279015,0.8001592846241592,0.02693196074088808,11.179052931593585,-0.06440988845722077,-0.030846174681912805,-0.2136370153976805
1700842127.937724,2.549277634404316,0.4745984259352407,9.699094907481093,-0.07752194770426896,0.0022894216458721715,-0.2256384404255278
1700842127.9477155,1.569114780890809,-1.8151861331879267,9.860748712941716,-0.06763566858977911,0.008126379868618975,-0.2363101007295973
1700842127.957713,0.3901700313401362,-2.21559574652195,8.396980596953512,-0.03707801983485972,0.001980545706699582,-0.2451646836353666
1700842127.9677958,0.7220672555693425,-0.03007352218951521,9.217273891903256,-0.03297180011700033,-0.004986004010466013,-0.2558151842905409
1700842127.9776435,0.6830970957271489,1.3098395984319569,9.549728735031403,-0.05196463267260808,-0.009664004115761602,-0.275462901766432
1700842127.9877088,2.1903350961292913,2.272745853509914,9.812599089034604,-0.0806375034622567,0.007386285715645657,-0.2826082767797834
1700842127.9977329,2.468093100426416,-0.19745238112578706,9.946159623903208,-0.08006154834457695,0.025952934788562847,-0.2820225717378981
1700842128.0077183,-0.22368364448168307,1.9151149859376921,10.66177287179007,-0.09361553914064254,0.014300757012326687,-0.2649834217382795
1700842128.0176575,-1.8071377579323793,-0.46276950396113387,10.781193166240236,-0.07549589118183589,-0.0333779262876213,-0.2437306852890379
1700842128.0276856,0.7055466196496633,-1.1850697681960691,9.818586960481811,-0.0581152510947249,-0.043271461437738586,-0.2280654819561369
1700842128.0376632,0.9343275229362467,-2.1258635993692816,9.062041549581545,-0.01950630330446362,-0.05029883601143925,-0.217830187256468
1700842128.0476644,2.1347676302816163,-0.6925409381552806,8.762228510910594,-0.004763084567887013,-0.03365520193848839,-0.2100718380762465
1700842128.0576892,1.028782847067107,2.5044895494790453,9.724596443757667,-0.016527759601847603,-0.027467762527276895,-0.2081751586748488
1700842128.0695314,2.6797962914815723,4.3080421368765895,10.429587443097024,-0.07269912467049489,0.004114065799375474,-0.208592048461569
1700842128.0777547,3.5146123427554605,3.1263146195043734,9.617317252579781,-0.1029970294707499,0.04046143795241901,-0.2108043940616972
1700842128.0876956,0.11741364576775246,-0.6362351222187645,8.618743084617268,-0.0950514289237162,0.04199722858878133,-0.2114587934566862
1700842128.0997725,-0.8742227617793177,-2.348516800064983,8.019716824420907,-0.06144045736307242,0.024480529683214933,-0.213222107465399
1700842128.1076915,-2.2627501830700725,-3.464536863299373,8.763584737824527,-0.01254131686148343,-0.0008993096567537851,-0.2168186070276625
1700842128.1177032,-2.1273232867087484,2.885027119119693,10.920982891151272,-0.04301729081631199,-0.04587141323195995,-0.2195536853624708
1700842128.1278017,4.0671978924329,3.622523599142987,12.437039494059713,-0.08352023940319736,-0.005898755804488087,-0.2155326368166334
1700842128.1377363,3.973297376690939,1.6768973482869374,10.78038775026641,-0.10500195102999718,0.03489229127402281,-0.2286967845512754
1700842128.1477327,3.253609414578279,-0.6669189909222071,8.917282682711466,-0.10369513183201343,0.08457895014414343,-0.2230443717790968
1700842128.1810148,-2.056871447279036,-0.6476217573400553,7.12491783103753,-0.0706096439663048,0.042431762878892644,-0.2234862657143003
1700842128.1844642,-4.047475566320175,-4.701319978284967,10.637520876420114,-0.04342609973527434,0.007206846887479551,-0.2221425237013227
1700842128.1859205,-5.5005219131724825,5.338590439138351,12.895176428060038,-0.0489185719214421,-0.012060042216777717,-0.2096719058109648
1700842128.1877208,4.850261988354362,6.333748737377448,11.836319516873086,-0.06886986521972452,-0.005722566576641264,-0.205664283211363
1700842128.1976976,3.004109293646727,2.4733210584848164,10.603716847533857,-0.0973567770959244,0.04928027676356058,-0.2028356553865797
1700842128.208157,-0.14406364655401263,1.2824776058463103,10.41208092109969,-0.10759395658336683,0.021124093877833358,-0.1850070120645887
1700842128.2176774,3.4491140336145185,-4.4484585592670625,7.496824009882974,-0.06437739831512841,0.06531022137641616,-0.1903181882454283
1700842128.2276566,-3.3049574764998693,-2.7364012894808156,8.318964485474638,-0.007769393630095086,0.021543474418949816,-0.1808804483963377
1700842128.237728,-0.785049295441082,1.3853735176237343,8.511052853063607,-0.019428342213283267,-0.007510423382470141,-0.1781691970182783
1700842128.247712,1.5456604849370432,1.4827708483837678,11.048632021820215,-0.03776469376074886,0.00847823550285024,-0.173733672673834
1700842128.258267,-1.0461358863000132,6.715450538953626,12.679382247389107,-0.10125188666266029,-0.010366273894082002,-0.1762210192037947
1700842128.2684932,3.171443954190469,1.493037211213894,12.038613390249001,-0.15248990740339907,0.016955849872915922,-0.1867185445381529
1700842128.279197,3.2743863807133993,-6.028227370750889,9.077017097946428,-0.06316024859781733,0.05388359697023619,-0.181978798086775
1700842128.2877188,-4.01272404439927,-0.24884182983016903,7.275988107735235,-0.0424707194769086,0.02554795392272713,-0.1882537217689878
1700842128.2979026,-4.3020882645043095,-0.43915838301072113,9.239800722187777,-0.04891018752014225,-0.055117502532557754,-0.1718118699146635
1700842128.307887,2.210621689706092,-1.5950085107870153,9.556589933921673,-0.012920657429285165,-0.044126802272806735,-0.1576965363575346
1700842128.3178828,-0.17894473940083078,6.244983303482431,11.174174262982621,-0.07028041354333447,-0.057409544096508176,-0.1527880193544752
1700842128.3288524,5.308743385847572,3.7053808864237334,12.075497189600947,-0.14809841165422374,-0.0015245976584229452,-0.1544649662329084
1700842128.3377514,5.666299203514516,-4.754927909020694,9.9609587842193,-0.08652905332477587,0.05634462564296025,-0.1447003396107084
1700842128.3477166,-0.7514722795581102,1.0624146169417417,7.795670298492644,-0.07745486126439512,0.04668102689577186,-0.15348268168701
1700842128.3577442,-0.5084186836160068,0.5818077850472144,9.358068898431418,-0.10353887972540564,0.03459353805034714,-0.1404287429405577
1700842128.367777,-1.8735511810043293,-2.755500765543362,9.553394727202996,-0.05331624339617364,-0.014941266046395202,-0.134452781255377
1700842128.377715,1.6312749270582418,-0.3038213989612356,8.459880823119711,-0.050085346229410285,3.9691321833453965e-06,-0.1654391052080519
1700842128.3879547,1.5690104949434005,0.4081708703292516,11.408418681208483,-0.06574155964962243,0.010938239600031527,-0.1593680443121321
1700842128.3977113,0.9892448737251867,-0.16034400470476995,10.13124898173279,-0.04433784169283827,0.012637194548241918,-0.1726217182232267
1700842128.4055624,0.1413817839489786,2.895118154014153,10.161348346708758,-0.09040704956660164,0.02221594011493084,-0.1987851621462233
1700842128.41693,0.5716028857844521,-0.7112545449219884,10.95673230812734,-0.08800917099512066,0.014315298658846929,-0.1870502890898115
1700842128.4267237,-0.19863801897357755,-4.061022724043825,8.51047639144597,-0.032906633740812916,0.004888934451196985,-0.1788687469316847
1700842128.4367523,-2.36741620363948,-3.9402922181000277,7.921371852027722,0.01955245391918545,-0.02967051848300081,-0.207652455742491
1700842128.446728,0.5252905986052666,0.6274866486784944,9.552007185172688,0.027442231411117388,-0.03390848464786081,-0.1935180636001951
1700842128.4567738,-0.8633268174450621,6.537045405428227,11.849820089590937,-0.03874502339197368,-0.057178451437820035,-0.1852969588590986
1700842128.4668872,4.247209673464386,2.7103520481039487,12.020921966945185,-0.09821450569002371,-0.022645112299213285,-0.2019685121132261
1700842128.4767466,4.904958998835364,-2.049027803215261,9.486966379409838,-0.07934031378254963,0.03307259603686979,-0.1779200645042784
1700842128.4877863,0.7331158219742052,-1.849803408495195,7.769630374721281,-0.03666648510384307,0.04899162722973006,-0.1708221794916517
1700842128.5011156,-3.9517409195383366,-0.07323572466165496,8.520013759589194,-0.032948178037982966,-0.021837409793797134,-0.180646246845854
1700842128.5067413,2.1142487194953565,0.7238317054484619,10.460995032125535,-0.034563953686080284,-0.02257740388364681,-0.1659772904468901
1700842128.5167468,-1.5166483594575644,1.6363636834714523,10.036239766780142,-0.05231237242350024,-0.0381925715108531,-0.1616554321600325
1700842128.5267909,1.8210677907806823,1.201538539212232,11.40564993606376,-0.06773931241275943,-0.048481961109559324,-0.1645614119125731
1700842128.5366962,3.792260491398374,-0.2697649941045808,10.37118975453524,-0.06705915974271469,0.0033318200942680865,-0.1450598748279936
1700842128.5467334,-1.8115062010994978,-0.4817037787166644,10.31260717198516,-0.058173513057398006,-0.028423424900743267,-0.1442150534941084
1700842128.5567436,0.18817770878377374,-0.9181291839342867,8.387095021226735,-0.060031804163022756,-0.035133469283627504,-0.1514357836796171
1700842128.566777,1.552422994985735,-6.544026400178194,8.458717795779485,0.02265867465246378,-0.020937014170426323,-0.1403724761558897
1700842128.5767844,-2.858228186283041,1.299561508527812,8.808510609576315,0.029630025136413798,-0.060450412259767355,-0.1612225087238676
1700842128.5867867,2.506334577071894,5.7819447800881,11.209798957782516,-0.05451043670609783,-0.04887879608220756,-0.1656456502033598
1700842128.5967836,3.516477549945614,-0.3056316658174478,11.178315930032927,-0.06414904476645875,0.0004670011130652986,-0.1688156040264494
1700842128.606776,2.2300956287844453,0.13056941492180404,9.133695263942336,-0.056743855691168334,0.022499049060439414,-0.1875511618210203
1700842128.6167364,2.388293767811683,-0.11901442094950633,9.140943428829132,-0.07064326175153227,0.04833574069044913,-0.1820495040966398
1700842128.6267688,-1.4365266979718085,-2.4030093483236064,7.759817322428971,-0.02274718613196786,0.03794781383330237,-0.1774882586552031
1700842128.6367123,-3.1732034339056936,0.057637580695228084,8.903003418008188,-0.03466638665521056,-0.004831418040212011,-0.2040621997667677
1700842128.6468227,-0.4323269760555924,-5.417039301313069,9.147126253635431,0.014998795718002894,-0.025015715146017043,-0.1975364150358564
1700842128.6567256,1.3503442221989843,-3.1285327265838943,9.047047485300396,0.09602256383226017,-0.0315303828110487,-0.1698331745220549
1700842128.6667705,2.5028384778714248,6.836355681485958,12.090841741516712,0.009419102331720112,-0.0024998008227147916,-0.1943194033457167
1700842128.676753,7.049354146852122,7.181114447663853,11.792241049930041,-0.08796209453903146,0.07469572967609091,-0.1777744354559309
1700842128.686762,2.9726981331423272,0.37854966354911074,8.911677062789547,-0.09773248682967146,0.11359667516227333,-0.1476448984695799
1700842128.6967475,-3.545565647278103,0.1790742795521367,8.182613943945462,-0.09666683155716926,0.06634385904784891,-0.1400061162067778
1700842128.7067232,-1.150105997696336,-2.302730839848086,9.21288873147699,-0.06674441427841056,0.027419061849029043,-0.1106497185183889
1700842128.7168112,-0.27731371958142226,-3.9627526263029598,9.852038494927987,-0.007665476831770906,0.010027341371350024,-0.0937006236864454
1700842128.726844,-2.0771439848147373,2.5333136960015943,10.910783940367335,-0.010214119032720756,-0.03376437485962369,-0.0885906429840452
1700842128.7369132,2.326943781833053,5.224513189283026,13.481644326662662,-0.10403993740757536,-0.024863936736323245,-0.0683784769727118
1700842128.746712,2.7156574924310117,-5.001013206500602,11.711506027748245,-0.03075865129190264,-0.0058480617448809155,-0.0578216599179632
1700842128.7568033,-0.08119580058167077,0.7420821986795707,8.052926899843243,-0.020011548414115735,-0.005794247950810321,-0.0769787939144499
1700842128.7668498,-0.3650129309998907,5.733168022287019,9.226857663065978,-0.10220048482831144,-0.028081466948608688,-0.0567388446880705
1700842128.777326,2.972861539252052,-3.2821766161348327,9.60172724507045,-0.06349422787245367,-0.016479847261086943,-0.0208232035739548
1700842128.7868388,-1.5680917320537189,-1.6674308283058255,9.00246309688313,-0.026852156033041953,-0.03720510085511067,-0.0379432612909204
1700842128.7968004,-0.36047875117760825,5.523478953163265,11.110009612376636,-0.09994202476358022,-0.07126070662140364,-0.0241847416265137
1700842128.8067338,5.04898189623976,-3.0148169987495304,11.026001812506891,-0.07776004877189281,-0.024708842769798248,0.0120809510471098
1700842128.8168485,1.7462231230580625,-6.543766812614731,10.137009071792534,0.017674030715948134,-0.019297167646753925,-0.0150773921860582
1700842128.8267713,-0.13769683571693275,4.162116950867947,9.575259336182578,-0.018231116453941692,-0.036770746382508906,-0.0121389623610503
1700842128.8367338,0.738086673748625,5.802656731549679,9.639164981950191,-0.09800555337725582,-0.03136223516381665,0.0208631767080896
1700842128.8468933,0.8445630354261189,-3.9836877284209082,10.956631951595572,-0.06581121742862227,-0.04715709747672679,-0.0058030454321033
1700842128.8567982,0.8457026155843705,-1.699156971438098,8.737798427477882,-0.021511662894862237,-0.058559069072681075,-0.0109887994704968
1700842128.8668363,3.823200423613779,3.9017568457142437,8.789857305644126,-0.0719695823557242,-0.01416982375637466,0.0103038245932929
1700842128.8768246,1.9123296020319427,-4.380432308524314,10.982466652500914,-0.03220503874169758,0.004926117038427544,-0.0022021476989812
1700842128.8867571,-2.25814715018945,-3.4544607482520395,9.000899961355953,0.022637631796359418,-0.03195924111126534,-0.0306183161093122
1700842128.896763,1.1279482373535297,3.9268569834450737,9.406593462281618,-0.025951102226634205,-0.02848624092237249,-0.0264942632867224
1700842128.9067683,-0.17761219076488807,-2.0046014055902814,11.621232481811742,-0.023365505158556305,-0.042423843331522576,-0.0189424684150345
1700842128.916752,-0.5218320194143653,-4.192593708199329,9.601608248708665,0.028329371008570824,-0.06089416856623394,-0.0472468087328798
1700842128.926787,3.011939802193958,-0.7013660153891884,8.515085460963089,0.0407409036516127,-0.02920139791754991,-0.0447415621830351
1700842128.936757,-0.2871595925294424,-0.6650460619456708,9.55409415208594,0.04442671456502457,-0.028265394048266595,-0.0455843346072561
1700842128.9468129,-1.3715264780438372,-0.971325350191885,9.635326974960973,0.04557741293071942,-0.05106493316860873,-0.0726378844930059
1700842128.956782,1.178889893879649,-1.092321865032802,9.719098245651605,0.04890744718924073,-0.044417166146176905,-0.0715463818861372
1700842128.966786,1.197913875993,-2.410818861613476,8.839237301867009,0.08429161999109477,-0.026954751625253532,-0.0642349110795385
1700842128.9768536,-1.7573922610617416,1.8747937441797582,9.34502136989489,0.06136699703268573,-0.04714596038133971,-0.0898285494996435
1700842128.9868567,2.188548846731191,0.7176411718778355,10.55721692984852,0.03293711510426681,-0.03687041113010805,-0.0830749707175619
1700842128.9967997,3.0934663771060267,-3.3738362761711356,9.193118733300313,0.0832496656174277,0.003224800206476436,-0.0774405361963636
1700842129.006781,-0.6548745652799974,-0.5085758449189846,8.97692939581806,0.09004975453190156,-0.0065581828998472706,-0.1074161739899046
1700842129.0168097,0.22586021068666462,2.1931796666679317,9.440374408530403,0.06008577491048866,-0.005809611775431225,-0.1025555567695028
