time,ax,ay,az,wx,wy,wz
1681944365.2099605,1.044651651945473,0.39850990564046773,9.721070628616019,0.0004261084584453795,-0.00048490338729375107,-0.0005120399023643
1681944365.219774,1.0796138579993841,0.3747338715609326,9.699996121765553,0.0018789847077887744,0.00039461624538883184,-0.0012284218414924
1681944365.2297428,1.147532224951121,0.5300683176947107,9.709787839793966,0.00017499904550921313,0.0025172928459905436,-0.0016896118491194
1681944365.2397594,1.042520324424245,0.4405061931544566,9.74786646800848,0.0014498254252177834,0.0014548359851511727,0.0002546169248172
1681944365.2555606,0.973798848175164,0.3855066496364886,9.744985218873028,0.002997295790357016,-0.0007922111279609722,-2.625366554175751e-05
1681944365.2596948,1.2734239991955236,0.7195103833004416,9.711915507894318,0.0004056247022352831,0.0013632031801217694,-0.0006442939943871
1681944365.2696836,1.0300166585560342,0.4397330481301352,9.747510750979655,0.0009301263078487194,0.0005522235422864214,-0.0003593043971112
1681944365.27985,0.954362193106906,0.4194754261687022,9.796643589360603,0.0015932375184654383,-0.001550349846551541,-0.0008421178522757
1681944365.289755,1.104331753862765,0.469151675715504,9.718067910501233,0.0010653784956186991,-0.00030090564497065736,-0.0011975077527812
1681944365.3097107,1.1056824260629805,0.5159889822834106,9.740006435583359,-0.00038303452579535797,0.0007570891380318574,0.0005783390638181
1681944365.3197124,0.9856421568491668,0.35429351189664116,9.74463795845303,8.226119421643271e-05,0.00010776389180844478,-0.0020200534804961
1681944365.32976,1.0976645664472293,0.5300210834628643,9.74921669479577,-4.737933171847843e-05,-0.00021520259010626873,0.0007284793223016
1681944365.339709,1.0946535037740974,0.35118678251485724,9.684086928920006,0.0011901555735698132,0.0012372874230580388,-0.001256740334188
1681944365.349784,1.0612457839146907,0.49083717699951884,9.749250528830421,3.686460854358674e-06,0.0015476132965428038,-0.0019995420321128
1681944365.3599274,0.9818501960172753,0.5237751832857022,9.808096479592374,-0.0006121270284479968,-0.0006637440582279718,-0.0003373403183421
1681944365.3697653,1.114966304809998,0.3186401142439684,9.666704683831105,0.0016256795995034025,0.0011102373203000014,-0.0017730462446114
1681944365.3798065,1.1081735331110951,0.7056228687000619,9.799973005471596,-0.0017099885081003682,0.0009288240607371184,0.001478001065575
1681944365.3898077,1.004944011884503,0.3654778998810709,9.745909649220554,-0.0008050818505278799,0.00035848568144488085,-0.0001849636051109
1681944365.3997788,0.9065645181428131,0.39441521401137747,9.805483517323653,0.0003061809912563499,-0.002586365341441953,-0.0009262898552468
1681944365.4097188,1.049290248628026,0.5225442685482413,9.774435847288311,-0.001051336262357763,-0.0030095650648563716,-0.0007117198861441
1681944365.419753,1.309026377581899,0.39103891539732033,9.580875367248693,0.001774294748395286,0.0014432893775569164,0.0019023026520381
1681944365.429749,0.9627843834271901,0.5417424531101528,9.818235715465716,5.543919574937545e-05,-0.0006287203670237297,0.0018751155270957
1681944365.4397607,1.127383532029908,0.4531206041302407,9.70062251614673,-0.0017572970048122833,0.0021086173191300285,-0.0012649362056753
1681944365.4498336,0.9783728557922894,0.49894608797871,9.7952666865025,-0.002430058067936662,0.00011373212512121409,-0.0001544274005345
1681944365.4597747,1.24379327538344,0.35605072684556277,9.602001067966963,0.0008146528260010616,0.003257134402678692,0.0019641563244159
1681944365.477031,0.9409634823930045,0.3929995913285949,9.784630657070249,0.0011045001079694743,0.0006602516028926379,-0.0023284840013137
1681944365.4798906,1.2611661217934989,0.667993811674842,9.702698683767526,0.00022268929691742447,0.001677592282998652,-0.0015812338411114
1681944365.4897554,1.0432322470429423,0.5753320621208334,9.797716945029908,-0.0011906656377702813,0.0004680098228533641,0.0002993230859511
1681944365.4997272,0.9591146906209336,0.4667172854837216,9.80632835959677,-0.00014943758692481364,-0.0024641646304450313,0.0026008060935647
1681944365.509773,1.0791108950912978,0.18749132453804604,9.635207745988051,0.002275712136699423,0.0001022087852344584,-0.0036226633551767
1681944365.5197582,1.2015600458565834,0.6590098744645606,9.734414352615179,-0.00027984116420432144,0.001931670881836844,-0.0011524366296133
1681944365.529764,0.9850957995408351,0.5129099689996415,9.807927289082485,-8.08980091927672e-05,-0.0005553285518058868,0.001153529823082
1681944365.5397766,1.0885537938586598,0.3051709728840002,9.666616760498181,0.002220975413541406,0.0008423854052364545,-0.00065695206516
1681944365.5499315,1.0332999742904228,0.6400033093872274,9.817562887117534,-0.0009552269281538039,-0.00029865126901657837,0.0010648784495652
1681944365.559815,0.8594562159225836,0.28760149641494626,9.787912930404598,0.0013429136439395252,-0.003668919145430179,-0.0013532237231037
1681944365.5698087,1.2747030157029058,0.5529133927130833,9.661277937742634,-0.0006382051686238483,0.0008506081485665732,-0.0013081325765005
1681944365.5797307,1.1013561776365919,0.5831240601006298,9.759996425988858,-0.0015490500685351224,0.0008446271062900225,0.0017667107599346
1681944365.5898669,0.8965346605861035,0.152637042772838,9.717490607120821,0.0037851981979918287,-0.001763794884049906,-0.0004602904978445
1681944365.599743,1.094159322368591,0.511676555447698,9.736089286584285,0.0035173588245139284,-0.001469889413316099,0.0015483832662222
1681944365.60977,1.195053802269838,0.5955950089793196,9.714492547107701,-6.376988369967792e-05,0.0016172597479777815,0.0005347551463865
1681944365.6197965,0.8967900230540222,0.6075226375108715,9.886537575380757,-0.0037641075954096665,-0.001633055379241046,-0.0002110324881276
1681944365.6297133,1.061605237340193,0.2930262153475347,9.683180891732516,-0.0004824913378720425,-0.0016334148055290405,-0.0003891141700795
1681944365.6397536,1.0678486400236649,0.33996374083896436,9.691591026777518,0.0015772205859675746,-0.0010939820950937027,-0.0010853753506443
1681944365.6497552,1.042158404211999,0.3959729610822865,9.74369614240904,0.0015280566210363795,-0.0009517070444208975,-0.0031160285311988
1681944365.660416,1.0562377203294055,0.6713038925480179,9.822957134459111,-0.0010945469408576546,-0.0025148336475739447,0.0009493808879279
1681944365.672798,1.167138296402235,0.4103351677289967,9.664609633461628,-0.000786092398080689,0.0008781600031820276,-0.0007501036475649
1681944365.6946373,1.075402193677728,0.4312798311538226,9.73483904093978,0.0014155699826421976,0.0005779072146030925,0.0008287201321446
1681944365.7147138,1.0198299842065863,0.4467675703886245,9.764494664293546,0.0009971922395707231,-0.0009379317475167533,-0.0002956231205961
1681944365.7160566,1.5346591740485371,1.6271478570984785,9.877175760356787,-0.0006318672154484115,-0.0006674657920337437,0.0028835562675022
1681944365.7168424,2.3171476784480176,-0.9404552765027291,8.59468788425456,0.00030356339855849043,0.0022811116448694675,0.0003071562072956
1681944365.7198255,0.8026453635921068,0.48689775599490603,9.895658683362337,-0.00019899390594734255,0.0008278633899825171,-0.0002863054710677
1681944365.729766,0.933488884094069,0.43750345565740967,9.803796474759547,0.0014624872985675936,-0.0025226685983322137,0.0018937567051262
1681944365.7398274,1.1673570841765055,0.49061565214089764,9.691292990065506,-0.00040721364646624476,0.0005186532653003502,-0.0003090367268077
1681944365.7497945,1.0089770213805285,0.5348195652935172,9.792966444678735,-0.0013780295955292314,-0.0010057153999951105,0.0002784527291306
1681944365.759797,1.1157556879410848,0.375951476681506,9.699148090264469,4.315054742824638e-05,0.0002787620633054337,-0.0007184323936006
1681944365.7697854,1.0985022790439032,0.4604144106411091,9.715814313464817,0.0006701171794209562,0.0009210244964020504,0.000196524398657
1681944365.7797942,0.9779517808635009,0.3822944331645012,9.752531027306496,0.0014926495505529181,-0.00031910884070401115,-0.0009393372188559
1681944365.7897794,1.0543242290636108,0.5655524256470759,9.783933195976465,2.1543371670399342e-05,-0.0008958159715434828,0.0006524754839711
1681944365.7997456,1.0658009876309853,0.47527065002733226,9.745055259980818,-0.001778155438505794,0.00015992186676894044,-0.0019336211576363
1681944365.80977,1.0785779718394704,0.5698364528946448,9.772647681825521,-0.0023868587689289547,-0.0006387804750737164,0.0012526239420049
1681944365.819793,1.1137346140403,0.32037452688184875,9.66846550428494,0.0007934350876686678,0.0004925873354821846,0.0010827359196492
1681944365.8297434,0.9862947104780924,0.38350845631935593,9.747499417758682,0.0016927144058739786,-0.0005832712060158831,-3.148420595144169e-05
1681944365.8397632,1.0494057693462455,0.4969248808809086,9.749509469308741,0.00025327768329578063,-0.00021930845917869686,-0.0012090435798517
1681944365.8497927,0.9673859043066285,0.4533322478961921,9.79910381970472,0.0006332479586548189,-0.0026239691254200184,-0.0001071183092198
1681944365.8597622,1.1863228757047497,0.4530999741671738,9.67353038040661,2.936768223326527e-05,0.0003625780316486584,-0.0012261955148777
1681944365.8698385,1.122349251676939,0.5543730293414467,9.741313638923156,-0.0004366479628493855,0.0006218590952840119,0.00179167111261
1681944365.879764,1.0686574209866009,0.27490194858782496,9.68041448096852,0.0017787583230502793,0.0018024017862389766,-0.0010019369970313
1681944365.8897903,1.0165211268880383,0.6667148446319862,9.835375058788637,-0.0012625706191599145,2.283441458091637e-05,0.0014910333825037
1681944365.8997514,1.074979566829457,0.27091986364488607,9.666112437320054,0.0016785384627091358,0.0011024483442129138,-0.0004274671978554
1681944365.9097626,1.0185044397510346,0.49531471492361656,9.780025842725594,0.0005080762441285426,0.00039612623957453036,-0.0011624690692177
1681944365.9197626,0.9496488347752465,0.4898302320823483,9.836342104662295,0.0007785165288517255,-0.0026027470416749485,-0.0001749185926518
1681944365.9298031,1.1078258594908943,0.5705347898542747,9.751306094661933,-0.001917094191874754,-0.0013622340969347765,-0.000206577506592
1681944365.9398155,1.0069204974445538,0.33570933536606795,9.717651439791618,0.0005199903917193114,-0.0022689650056867926,-0.0001484625122747
1681944365.949785,1.1948252736111835,0.46539054731629864,9.671848547261895,0.0013317219917509,8.468554150622462e-05,0.0019034184928978
1681944365.9598792,0.8608564220860339,0.3680041566620048,9.811610933299413,0.0014382647752021194,-0.0030538852220767247,-0.0014366774435392
1681944365.9697723,1.1016959901828554,0.525684242677615,9.745477680386749,1.062128241657271e-06,-0.0024075444460527236,-0.0012749877373925
1681944365.9797993,1.1112354483799118,0.5559193298802769,9.736058542372756,-0.0025533896778528907,-0.0006995329511659505,-0.0024179184424928
1681944365.98978,1.0333165537510776,0.37700814271671873,9.73619977793831,0.0008981090329658758,-0.00241796423465635,0.0008554919890821
1681944365.999784,1.1226227153044448,0.38747975140927177,9.690402501483662,0.0009904706953882052,-0.00042793777726197877,-0.0013238074339232
1681944366.009818,1.0251555435991828,0.43300823340795364,9.760265031349233,0.0012177442408831073,-0.0009934460203667092,-0.0020606584462574
1681944366.0197928,1.1839352302767148,0.4582108336730952,9.675310917682717,0.0019013273901938824,0.0010886329978395891,-0.0005049846682003
1681944366.029904,1.0740475301734886,0.4951013372749886,9.749950313044707,0.0016535979916485724,0.0008837565080430645,0.0007705930306338
1681944366.039878,0.9925431862250639,0.5851741184723779,9.845174416123319,-0.0013311070529701417,-0.0006633677327253253,0.000194635792891
1681944366.0498965,1.1190911858209776,0.49410142547470376,9.717553015894294,-0.0013899695983774166,0.00021580318265462047,0.0017190230114148
1681944366.0597816,0.9635478120429304,0.38513355307730435,9.74888800367333,-0.0015307930928238635,-0.00041566078856389033,-0.001098055074667
1681944366.0699315,1.1951404743342944,0.36482615165288557,9.628531037868278,0.0006142313347912937,0.002708762291342338,-0.0010608026373437
1681944366.0800393,0.9691923917008562,0.5663387983591186,9.825418757912983,-0.0007458677031523751,0.00035177891905381425,0.0006636557786488
1681944366.0897849,1.0585006139056656,0.2908633023416021,9.68763317329867,0.0023453825383027466,0.0005324606746415399,8.997411120171411e-05
1681944366.0998092,1.0004800245208856,0.5057657986660236,9.789998689037267,0.00029163825708475105,-0.00016753019828098748,-0.0020390466402522
1681944366.109875,1.2185015370977959,0.6258760539999284,9.711772540305875,-0.0018485666356025897,0.0024226767442282735,0.0006659141194769
1681944366.12334,1.071648304931174,0.4502282254145679,9.741350588811047,-0.000335697651518583,0.0018471126974379415,0.0030847071588733
1681944366.1297758,0.8287851457360912,0.38381638795328904,9.83537785741632,-0.0004482089546592397,-0.000445806108138577,0.000984032548754
1681944366.1399257,1.0248282419885946,0.4140256596081489,9.737554054036625,0.0009070461615479805,-0.0011610617416143514,0.0013323267316673
1681944366.1498165,1.0480749111452317,0.6393940604319291,9.810025950984855,-0.0023797695616563598,-0.0018595658723467665,0.002391820392827
1681944366.1598403,1.0789247312953234,0.2618085281130499,9.66475282554875,0.00043727899496426255,-0.0006681983505462747,0.0003030416241609
1681944366.1698542,1.1553424990303915,0.5589871056863898,9.719672017506696,-0.0020303334882188933,0.0015397736135905997,-0.0004606427706084
1681944366.179794,0.8436960990228388,0.37886385753995433,9.834014429651534,-0.0006355994420915847,-0.0029451213871489615,-0.0007403885561278
1681944366.1898572,1.200378681671197,0.34906496237424167,9.619478245302023,0.001670349935822461,0.000264969070112774,-0.0011815064667961
1681944366.2009685,1.0507390802563497,0.4637113427728903,9.741730183473685,0.0023274975536974494,-0.0003954989416195399,0.0006919743877598
1681944366.20982,0.9974196913143695,0.5740462528539189,9.818007844650289,-0.00021762046271621855,-0.001282136544303353,0.0004017634468847
1681944366.2197468,1.10700832843925,0.43194220675887074,9.71762793528886,0.0009107850006840454,-0.0006514413203697119,0.0006994199624979
1681944366.2298272,1.069849399696077,0.45830423076265747,9.741239927550986,0.0012125212687368605,-0.0006868275178918553,0.0007985122187757
1681944366.239906,1.0410638804835262,0.5505995139288785,9.77998897447346,-0.00035134996374137055,-0.0013406241896832978,0.0017790051255952
1681944366.2502449,1.1173719300123055,0.4623600064115483,9.69645132651051,-0.0016708381280308563,0.0007224533266389408,0.0003384239657544
1681944366.2597644,1.0766218482696543,0.34772757277930355,9.688803646359348,0.00024245750764032906,0.0010793202595766678,0.0002311349066668
1681944366.269802,0.9694769974123436,0.457488643425672,9.783563533396558,0.0004041248327613507,-0.000664479201822108,0.0001443322666683
1681944366.2798164,1.057443153128172,0.5646366638675816,9.798833974525383,-0.002674095690992977,-0.00044693623749180567,-0.0011311861767671
1681944366.2898462,0.972635161894413,0.3737984134223277,9.75122786190589,-0.0008255871858846872,-0.0022961631954766144,-0.0009501438203505
1681944366.300888,1.1135648525111679,0.32623410314880413,9.659654608103471,0.00211700799139476,-0.0008529637518414047,-0.0009844269684753
1681944366.309899,1.101962848629124,0.7367106285821338,9.811938268303154,-0.0024293069813643995,-0.000359394641953176,0.0002486293355696
1681944366.3198311,1.0637476272232866,0.35163714865849066,9.707859869404091,-2.987013051334559e-05,-0.00047373850526544143,0.0006275139434957
1681944366.3298757,0.9995503442724653,0.30793090713049104,9.718173514045569,0.0025152472737873435,-0.0011770688882264506,-0.0009117870672843
1681944366.3400187,1.135046755307345,0.4875018074796352,9.711035265139996,0.002534983259579336,1.5031859483295633e-05,0.0002382090001129
1681944366.3498254,1.068277979510817,0.523658474466108,9.774938787516293,0.0020775362550770967,-0.0005180885476735223,0.0023869671544754
1681944366.3598268,1.0462548426799367,0.4925040288989055,9.769116731040707,0.00011729028688754627,-0.00018243589665913417,0.0005693960387953
1681944366.3698666,1.0560060717951207,0.304172169814458,9.705449859784952,0.002023149346732957,0.0002709439749526109,-0.0018229730508527
1681944366.3798437,1.092291382457231,0.5647557205723873,9.765763326890273,0.00048681048184144035,0.0005499855619144622,-0.000504960686644
1681944366.3898687,0.9664400222149984,0.44272410135710405,9.792244819577851,-0.0005152895672407192,-0.0008593126943665617,-0.0026462694245628
1681944366.3998277,1.1472348295494013,0.5442486061471951,9.717964861712051,0.0007677242420793676,-0.0008462678633464666,0.0029595341452159
1681944366.409829,0.9838215894739478,0.4831082095232372,9.78719533702406,-0.0010751738098950638,-0.00141215267367582,0.0003518432763167
1681944366.4198265,1.2426912833324264,0.4071267924578216,9.625733045345967,-0.000911628338435299,0.00301759318998347,-0.001275734192436
1681944366.429851,0.8393119203582733,0.4317425126779594,9.854891984922304,-0.0004377941843205475,-0.0013976287530103998,-0.0018758905667117
1681944366.4398036,1.2031588297056834,0.46665221115347694,9.660754835858786,0.00035420276430666827,0.00114750757123408,0.0002020899823629
1681944366.449865,1.017791988675291,0.5533295788761745,9.804006895184973,-0.0010070067592126296,-0.0003485772813378853,0.0018017287543126
1681944366.4598303,1.0883621413659674,0.39055749546795365,9.701394372361205,0.0009431886417195997,0.00017521604967026978,0.0027743656805479
1681944366.4709606,0.972364782734646,0.34727883955919975,9.752350059836134,0.0021091912235585266,-0.0008738272609004735,-0.0001373032887703
1681944366.4798832,1.079816641904347,0.44403984267665914,9.724286860423593,0.0014360245039411511,7.582786482837724e-06,-0.001570023976942
1681944366.489802,1.1470374110546946,0.559670391737485,9.730577346135837,0.0003206777674270272,0.0012585181063686816,0.0005258118885331
1681944366.499799,1.0672918483748766,0.4544023799826003,9.731519258450996,-0.0006412007149274101,0.0020810466133250544,-0.0014243886421672
1681944366.5098014,0.9136359945456798,0.4331704418713652,9.81314388458591,0.00034677601864735523,-0.0013417505762347204,-0.0005455782252601
1681944366.5198183,1.157882424046237,0.4123981464073861,9.672549605198366,0.0022216875374443746,0.0003555174391313251,0.0009296126349591
1681944366.5298204,1.0528087955606498,0.6261128711534654,9.797738318531776,-0.0020694632341501885,0.0008140681003311504,-0.0006849264341643
1681944366.5399306,1.1403386398049462,0.3798952999044742,9.660704283715837,0.0002431867649334433,0.002164139697588937,0.0006603168708034
1681944366.5498586,0.9675898453547519,0.6276225772710665,9.849905172423535,-0.003258197708048456,0.00017258835014092485,0.0009501199505985
1681944366.5598528,1.1042310895077836,0.2913629301015313,9.67296929371986,-2.3521362275483413e-05,0.0011273774284427224,0.0006334792974167
1681944366.5773032,1.025289313083639,0.42271050063979865,9.746163152660507,0.0004220227618883212,0.0002989019880304459,-0.0011978621210209
1681944366.5800834,1.017433755589852,-0.005970732354885772,9.611543819358705,0.002498114495164722,0.00046579677720766697,-0.0024603718507341
1681944366.5906055,1.057098700559458,0.6884421217541679,9.813047996436785,-0.0013083820814690462,-0.00037354788702785244,-5.682432905351059e-05
1681944366.6026163,1.0914059284640047,0.3514071614147933,9.683329596841979,0.002138255479598846,8.87722296968902e-05,0.0012809060549126
1681944366.611107,0.9138592471809849,0.40338439873010495,9.798219348757444,0.002058160931794694,-0.0017131447593052899,-0.0008767611894062
1681944366.6213725,1.1994887928513078,0.5326804076337274,9.697715531902407,0.0013138512756305971,0.0007112751313365392,0.0004487216624193
1681944366.6298802,1.0498306684085745,0.5297980929770559,9.764203766842504,0.0004786442288187656,0.00044378845687530275,0.0013226513669588
1681944366.6398065,1.0337147408748446,0.43294447283976034,9.745886362000455,-0.00029883383421265905,0.0009135636611954041,-0.0010220323770544
1681944366.6498811,0.9148390043230482,0.3508116906386116,9.769302514861183,0.0013336122388562517,-0.0015428801642889069,-0.0021697903598896
1681944366.6599083,1.027609156621042,0.5748684480146858,9.793364273374353,0.0003013222801822271,-0.003112362840302331,0.000469563846732
1681944366.66986,1.221722291636706,0.46905754498952706,9.660617354498353,0.0002647860846409962,0.00015733122622100555,0.0005313945852913
1681944366.6801295,1.0852803415724888,0.39729205544377794,9.711130918322498,0.0012199694251432858,0.0008409161487527754,-4.711703744297163e-05
1681944366.689839,1.051203750105069,0.36951117355867197,9.708497220256909,0.00313027226342606,0.0006464934277919049,0.0001558870694362
1681944366.6998572,0.931230150629488,0.647717454742699,9.877485089854483,-0.001207051552164975,-0.0017291643140890669,-0.0005534008692256
1681944366.7098963,1.1565165551412415,0.37990232670846596,9.66863040173066,0.0005557441652326468,0.00016253925564971685,-0.0001406404503858
1681944366.7198963,1.087950321450379,0.5520956759576914,9.762652763817252,-0.0015780888182394222,0.0005358020933041054,-0.0001469730946472
1681944366.729856,1.068348088519631,0.4948396567646701,9.75677313413569,-0.001446233584543106,0.00010441708625938889,0.001494762136158
1681944366.739957,1.0566601890608245,0.40296614977700007,9.717441000146787,0.0004536903085125311,-0.00027818392864210743,0.0029539622750827
1681944366.7498765,1.055586280389417,0.30547709729789024,9.695045091601271,0.00242509146598721,0.0005116129974928634,0.0008737730945223
1681944366.7598307,0.9850489738368079,0.5254669756790629,9.789253370716596,0.00020483527748198075,-0.00012729286961474655,-0.0002434560179016
1681944366.7701666,1.1269559274667236,0.3557683720660947,9.652833108198358,0.0023945583386221696,0.0018087413032705352,0.0003272558946856
1681944366.7798374,0.8151839434254494,0.48969915535540803,9.8524074969388,9.457842312834585e-05,-0.0013044708102553544,-0.0021616031031361
1681944366.7898996,1.2085654590791153,0.5112476240982855,9.65162118202179,0.0013093814267263377,0.0012249910218206025,0.0028630426072278
1681944366.7998855,0.9867322449461908,0.4716939237929181,9.750696718998906,0.0013890966421812954,0.000589444834069447,0.0034725392156043
1681944366.809824,0.8189403169902681,0.34670049772634237,9.81747134513316,0.001675563418750379,-0.0027830633800572124,-0.00055117780224
1681944366.8198586,1.1482524725700562,0.6667777447092293,9.770177620059703,-0.0010312161808748873,-0.0020990873787478225,0.001758886236953
1681944366.8299196,1.1622091546519824,0.30258833373473504,9.655626319099424,0.0019616746849960664,-0.0006361573909352178,0.0011807194946096
1681944366.8398476,1.0849247903033992,0.5269506294535584,9.774208210253924,0.0008757534727874768,-0.0014177213459088147,0.0018233325403935
1681944366.8499525,1.1459912050183898,0.4541974733532832,9.714126424365118,0.000643668040868818,-0.00024724931237252694,0.000873380891303
1681944366.8600378,1.0408841019061736,0.4108724596712171,9.765856448643842,0.0008653334617771314,-0.0011890212619383442,-0.0008316800545207
1681944366.871004,1.2000377753673246,0.47249495440683503,9.698253081440248,0.0013790551513938377,0.0006661781041607197,0.0003175668802806
1681944366.8805728,1.0096955323566699,0.6158570994788973,9.835650247274382,-0.0016134898389252022,-0.0008920994437347092,0.0003969232470491
1681944366.8898983,1.1909705878426688,0.32311731341003563,9.640987665990739,-0.00021313858711867115,0.0020512505491127424,-0.0018278271041116
1681944366.8998358,1.0395443947821044,0.5492386311664709,9.771450154517439,-0.0008527865527410627,0.0007433096725031247,0.0006591945106857
1681944366.9098675,0.9172917791745082,0.4388336877839099,9.806267671749996,-0.0014875701927822224,-0.0015183217184416263,-0.0010414148296466
1681944366.9198546,1.1074411773451933,0.45172244576225806,9.708447241522567,-0.0011429679128462681,-0.0003213823244522192,-0.0006144946987978
1681944366.9298794,0.9812827096134792,0.374377106305709,9.751384861921098,0.001364517108525088,-0.002368048821821566,0.0006461341085606
1681944366.9398966,1.0342745374803077,0.6548918774448331,9.80683157195107,-0.0033442393997534766,-0.002349814961463211,-5.124326210980551e-05
1681944366.9499316,1.2655110719168388,0.27900649856618953,9.56756648520442,0.0013991652068760091,0.0013654258567579196,0.0016787856706879
1681944366.965924,1.0165407167728098,0.5997792167263764,9.816389025183705,-0.002599937040383835,-0.0008399386839564511,0.0026254002854921
1681944366.9736946,0.990731289457274,0.2769410116369132,9.731032666495699,-0.0007354225618353401,-0.0013298233803879858,0.0004971332068317
1681944366.9810915,1.156074567472732,0.41654340150076546,9.679683376649729,0.00037245719103778095,-0.0001831679375864443,0.0011956163484365
1681944367.0013926,1.045615304849923,0.4794450403528928,9.749265737970182,-0.00012485591298900956,-0.0007080689467339694,0.0016955587757048
1681944367.0121706,0.9796661661313555,0.38317149087710384,9.749272921201555,0.0008563834713412201,-0.0018983062557616447,0.0004997376504116
1681944367.0225255,1.1545757303992974,0.5022587894987006,9.711172159450618,-0.001235740920728541,0.0005913068004038874,-0.0014295933383754
1681944367.0299916,0.9744948890114441,0.5173903711928588,9.814536781805062,-0.0013985198285572308,-0.0012135982363471157,-0.0002214826259068
1681944367.0399427,1.105548320203848,0.35698388568776485,9.697955486225137,0.001015083402088395,-0.0005832707922794984,0.0001294462394663
1681944367.049876,1.062040297496255,0.5155960644567745,9.75318055815239,5.582654566330484e-05,-0.000554597217189201,0.0005477980862134
1681944367.0600326,1.0666627258801176,0.6085563080357915,9.78843041799333,-0.002589496065726363,-0.000677150687957014,0.0015867779270275
1681944367.0698345,0.9672201768363636,0.1565967138324636,9.697567791751482,0.0019687638670917032,-0.0017597131188717924,-0.001098032257264
1681944367.0798557,1.1970786557765025,0.6691920301749477,9.725235803612403,-0.0019953453445642508,0.0007779343780982984,-9.370901037519114e-05
1681944367.0899224,1.058072732671778,0.31765978507738535,9.683153196414867,0.0004473454084749554,0.001137806463967316,-0.0010786735533974
1681944367.0998657,0.9895449634839282,0.5601161548008329,9.81648567055534,-0.0017766538616454041,-0.0003642042389153359,-0.0013360699254325
1681944367.1099217,1.1309914679632738,0.419753238471019,9.681215958053578,-0.0007164474089522449,0.0009921685066245616,-0.0006498658645204
1681944367.1199644,0.9051638793122402,0.4623779780838182,9.825140982629126,-0.0008218621856113491,-0.00239525448144374,-0.0006163550156406
1681944367.1298783,1.2098295247557378,0.5362539983785122,9.684782434781669,-0.0009105122009681267,-0.00027482163247595086,0.0023489747231588
1681944367.1398606,1.0160722803116558,0.3876192344468705,9.741079151642312,-0.0009686370551582963,-3.0431800095298107e-05,-0.0007053885224512
1681944367.1499045,1.0732916057161406,0.3528825153282326,9.68686632121019,0.0010843549510558916,0.0005540942801064814,-0.0009993085718951
1681944367.1600049,1.1594020919105759,0.5813789738459381,9.747561848713858,0.00021822799046124355,0.0012972603879519355,0.0023508465069108
1681944367.169914,0.979869176811113,0.5456585416291605,9.80998136656495,-0.0016313808342750095,-0.00031169472251002837,0.0028131425765105
1681944367.1798666,1.0024664584583332,0.2562625126832057,9.702822702567092,0.00013589692263093212,9.026494861993506e-05,-0.0016497589263371
1681944367.189898,1.0831658482157278,0.49267235221424754,9.743050337232031,0.0004562743479617054,-0.0001347196163465216,0.0004110885469936
1681944367.1999743,1.1717469124092212,0.491482969529484,9.694806784034864,0.000396640714696308,0.001752133242329821,0.0018337588967052
1681944367.2100077,1.036889782422695,0.3834153076861931,9.731228379543015,0.0012944661594002985,0.0016273200061704177,0.0008040807128646
1681944367.2199218,1.0202169668659617,0.45735643408062615,9.763154288547296,0.000913384827198208,0.0010007489154590782,0.0001980123028853
1681944367.2300076,1.0208599590692486,0.47053983148324413,9.777564873166193,0.0003992830327931108,0.0002456237571623453,-0.0004937836515954
1681944367.239962,1.0860093955976835,0.486714706545969,9.7443747010325,0.00012138303483592737,0.0006319314327300073,-0.0001342888304269
1681944367.2498872,0.9713983509276043,0.36166353137950585,9.761233227989067,0.0008768509166330285,-0.0005828958360942095,-0.0025952371384254
1681944367.259899,1.1877329296087131,0.5946715010623648,9.724001559956129,-0.0012372223270472064,0.0015617693664431594,-0.0014061014249226
1681944367.2699978,0.9630449729539687,0.5124920491639143,9.817967917021862,-0.0015009826464807755,-0.0011849035283949024,0.000517253616149
1681944367.28003,1.0964509871727575,0.2796773144886708,9.667355641545916,0.000727502159852191,0.00038455094789965996,-0.0020599094300768
1681944367.2899325,0.9554259551748809,0.5335478315204569,9.816638205946948,-0.0010316018486463663,-0.0015238992762298016,-0.0026473856146684
1681944367.2999208,1.2410515682088301,0.5355915695708574,9.675120482622198,-0.0007142027531615014,0.0010603252597285971,0.0010354352684454
1681944367.3098953,1.043544855470171,0.40740926354041246,9.729430692347309,-0.00011818363403314192,0.0009836005295007781,0.0004699296236732
1681944367.3199472,0.8640764969423492,0.39120680014317893,9.8234282859379,0.0004551746650096449,-0.0027141243007290108,-0.0013465140096149
1681944367.329889,1.1424709188180635,0.5629264656296353,9.723427816694471,-0.00019116737884561428,-0.0019735505736023537,0.0020829896361329
1681944367.3399682,1.1717936090983745,0.3380599004917347,9.631867361908686,0.0011588711659394299,0.001018603951957184,-0.0001361797644994
1681944367.3499904,1.030229006490904,0.5030418405590402,9.767287892434423,-0.0003755716089919379,0.0007365923777825053,-0.001620327968826
1681944367.3600326,1.0235412460324398,0.3471286157722395,9.728043617258729,0.0024079753975052645,-0.00036980866050476455,-0.0008145404595187
1681944367.3699112,1.0513896585414049,0.6163986648686502,9.808598801186529,0.00016609651614866853,-0.0013808582219148418,0.0008633358788439
1681944367.3799105,0.9780698093335077,0.3643390070567486,9.734021801220061,0.0012926193774962604,-0.002508135178238444,-0.0005574903066507
1681944367.389923,1.142528640134646,0.4938523899157068,9.701243459086147,-0.0009041596223165337,0.0001316373582671181,-0.0031189915339699
1681944367.3999252,1.0622811508335053,0.4821751656940629,9.748667736823174,0.000724878835366194,-0.0013182644697484625,0.0010551673744567
1681944367.4098904,1.068149832201677,0.4879271838100447,9.740869568147787,-0.0010766784922988778,-0.0002688366960567044,-0.0013677383854291
1681944367.4199393,1.1044846427206254,0.4023443145139267,9.712688029186374,0.0007062419487961077,0.0002012752235326356,-0.0009434497065148
1681944367.4299152,0.8916164205518139,0.526439110351899,9.862105571424541,-0.00048360242316143414,-0.0035571545730907783,-0.0005310556466928
1681944367.439965,1.210780477332047,0.3768664044032021,9.641512093129219,0.0014166789002450005,-0.0006298438879979474,-0.0002423379651508
1681944367.449946,1.0010488611139146,0.5652358904729093,9.80437547408653,-0.0009839156719371402,-0.0017328946002118858,-6.15735419606106e-06
1681944367.4599695,0.9847042571756608,0.4411508153119656,9.781974421535997,-0.0010543071768781857,-0.0030523870518903108,-0.0013867513357899
1681944367.4704008,1.2008463940018703,0.4452557245683761,9.653962949034698,0.00030764404299494033,-0.0007665458927627063,0.0010071232368
1681944367.479904,0.9985733531638326,0.5338737286486286,9.80225775403316,-0.0015117780374332083,-0.0018670002525712432,0.0003883576404997
1681944367.4899292,1.0694457085757927,0.328694981408391,9.686869915550991,0.000481998432626144,-0.0010649887386645282,-0.0008931631769291
1681944367.4999228,1.121182490823657,0.5292464641965366,9.737073056909262,-0.0007000304446900344,-4.534319155769003e-05,-0.0004349475807747
1681944367.5099075,1.0971841813802066,0.4271679134369583,9.719480822439998,-0.00012263184571361462,0.0008014217149082075,-0.0009933609131029
1681944367.5199008,1.212101791251585,0.4961205180684445,9.667411127931752,0.000544922819074999,0.003218395790095962,0.0014403903018911
1681944367.5298955,0.9016509272992986,0.45238499285241096,9.82829170720463,-0.0003290115960619297,0.0003651959597369726,-6.798541520302431e-05
1681944367.5403054,1.010723666780345,0.40179267242926026,9.74252253998168,1.5220762656988323e-05,-0.00011500748178484449,-0.0013290111988088
1681944367.5499215,1.1289842130246126,0.5144273904529458,9.712315350376358,0.0007550432103909969,0.00017297385697236564,0.0021694074361813
1681944367.559916,1.0811475259799501,0.4838093383887523,9.728204643513582,-8.7244188039297e-05,0.0009038696203269955,0.0019477669097478
1681944367.569919,0.9990205614658172,0.43408966822810036,9.75664659678586,-0.0015442174261776954,0.001104265650248387,-0.0015059694729051
1681944367.5799932,1.073916917577937,0.49102847493234836,9.748381778681763,-0.0009037944084929446,0.0005741692504050039,0.0005116467050039
1681944367.5899649,0.996858558782471,0.3388225649521241,9.722502887969153,0.0012940936246650678,-0.0004763322178387431,-8.75667550181286e-06
1681944367.5999625,1.0594799184315946,0.4811489158750843,9.756615794620776,0.0003017048753040723,-0.000325117285359067,-0.0010015537577918
1681944367.6099622,1.1553966178832493,0.48068445272488347,9.691084719497887,0.0011741258826298815,0.0009739175054921872,0.0013517168094632
1681944367.6198812,1.0024107240936695,0.5129359431348096,9.797301799633535,-0.0016701151975863856,0.0007037980060651359,-0.0017101163125834
1681944367.6299365,1.1495021121399793,0.32913793662920804,9.658322012948128,0.0016644047003019906,0.002071758597822619,-0.0007042367092571
1681944367.6399205,0.8694015950757988,0.5193441000136862,9.86465533118681,-0.0005786039394892157,-0.0013499494271698611,-0.0024313220369866
1681944367.649939,1.1451594994072383,0.43097845157443415,9.688387184632326,-0.00045043414610346314,0.0005302753578502143,-0.0029163310851207
1681944367.6599016,1.1213193251969946,0.4992971818306892,9.732290088183683,0.0001325546884734654,0.0009489410939204094,-8.028148417819903e-06
1681944367.6699655,1.09435083731539,0.4053539266255972,9.700822335203256,0.0009327374496560098,0.0019763892246369348,-0.0010913292958638
1681944367.6798882,0.9657613342918997,0.5353521404175863,9.81727130365283,0.0004760308334005989,-0.000920784338652981,0.0014213819499355
1681944367.6899018,1.2086188652660386,0.385816773384551,9.638616152380418,0.0015761212400056744,0.002385413371186234,0.0006506192416646
1681944367.6999028,0.9279347267318022,0.5562045432767604,9.842377946624552,-0.0005685444319645356,-0.0004949789788309444,0.0003902179573425
1681944367.709904,1.160961481221557,0.44052759562777705,9.686759650967916,-0.0008498421270006672,0.002040811993130191,-0.0008473253424516
1681944367.7199075,1.006057275493201,0.40293335226098764,9.744807197405146,0.0011812194372784396,0.00039611801410273714,0.0005220857833274
1681944367.7299323,1.133885274363924,0.406146762639239,9.68817237306671,0.0019288733189636725,0.002065795109846025,-7.880179558460848e-05
1681944367.740024,1.0697364444710997,0.41645908371014456,9.722329122020211,0.0027276032268678144,0.002343693175404135,-0.0004587682510963
1681944367.7499,0.9661833947943688,0.6608595370060201,9.857196148331608,-0.0015050978502427418,0.0003212341805338376,-0.0006126232060841
1681944367.7600005,1.0782713499543521,0.3658724707886941,9.703470958452408,-0.0007280194911930192,0.0013181090252917496,-0.0023065373848429
1681944367.7699273,1.1454118704220653,0.4142797355326373,9.677486313351208,0.0013276337870328555,0.002427878692898615,-0.000487096522679
1681944367.7798972,0.924610375221381,0.5489195429020524,9.855332706920773,-0.0007037729483432487,-0.0007643171277598035,-0.0004964043933204
1681944367.7899072,1.0195337078460018,0.5663285462844019,9.788074110819782,-0.003043619740473603,-0.0013938805169739857,-0.0008111874654195
1681944367.7999475,1.0932749012884326,0.3283221101226774,9.683215489904505,5.729734437286211e-05,-0.0008645324021396956,-9.780589838092464e-05
1681944367.8099768,1.1397923173754836,0.5540193235732824,9.73141172396924,-0.0012603354005222738,0.00040914399766568547,0.0012284101953492
1681944367.8200574,1.1162006227757622,0.48735410466875895,9.722786182541487,-0.0019305072007111254,0.0015274787906890742,0.0012887591414847
1681944367.829919,0.9700251044179026,0.3086808566924121,9.745581242912849,0.000748353742201594,-0.00017386046645366003,0.0005410920980149
1681944367.840028,1.127341550028966,0.48173560925336995,9.714858146446716,-0.0003867807212029828,0.00181321567979731,-0.0009162455412796
1681944367.8499272,1.0730821105786186,0.47767981917745506,9.748428787821238,0.0006600564228552944,0.0011948158443445935,0.0019999170303572
1681944367.8599727,1.0688324500977107,0.3466886547246454,9.71654273846331,0.0028296713090550747,0.0012842150645986257,0.0012119928992115
1681944367.8699567,0.9170017142188241,0.5640961759415452,9.85174386549067,-0.001425367409881809,-0.00044728228625998546,-0.0022502622182718
1681944367.8799767,1.083510126421654,0.4109928990392442,9.708627401071647,0.0010705846538554976,-0.0008518681500581888,0.0006058981793695
1681944367.8899045,1.1052613218481275,0.5222648177039768,9.737510748901393,6.21412601171815e-05,-2.745022957756337e-05,0.0011516705539771
1681944367.8999646,1.066303294809423,0.3464273713111976,9.695271273875601,0.0007666051355537152,0.0010424550135025336,-0.0017994965042225
1681944367.910037,0.9811536034382143,0.5440210337382557,9.807047197704145,-0.00023251603352263472,-0.0013708023346393997,0.0003697268816405
1681944367.9200375,1.0839566258263513,0.5447851007125208,9.755644745948738,-0.0020024101053576324,-0.0008526092553920195,0.0004002777545475
1681944367.9299626,1.0508651385091272,0.30963069795245207,9.704773780416522,0.0015895205280033234,-0.0015194231366412,0.001439267825358
1681944367.9399855,1.0546659403075433,0.5678783463078987,9.795894903436496,-0.0007793873363287979,-0.0019094784201126036,0.0017201445311594
1681944367.950068,1.0224049445893382,0.4303212417791815,9.74460919335721,-0.0004944038172097837,-0.0024924794983420986,0.0015472965000891
1681944367.959923,1.1544417498788042,0.30588213010751336,9.625580721491094,0.0023200488961219543,-0.00024276811274448392,0.0012421769474395
1681944367.9699545,1.0360032207319871,0.5037915860479297,9.782603494880727,0.0005184939222846058,-0.0004450523148339868,5.0213106670485286e-06
1681944367.979916,1.0577928053832026,0.5089462864920914,9.743869394048748,9.233130385738676e-05,-0.0007952370201787943,0.0016162125370693
1681944367.9899695,1.094490924528596,0.3524790769438399,9.682639191485094,0.0008571285604209698,0.0008099985360736514,-0.000890529396688
1681944367.9999254,1.005764237658195,0.4429202988055765,9.77429944736914,0.0007047545562767728,-0.0001231739331010363,-0.0019403187639317
1681944368.009932,1.0888741422250856,0.5464484229919933,9.751940967420632,-0.0002444359295129614,0.00012637480805015726,-0.0005735321051678
1681944368.0199888,1.1437521211856134,0.33492691070919467,9.653273499998813,0.0029641494019193152,0.001546485870178644,6.649756457145078e-05
1681944368.0299065,1.1310274606294854,0.5792707326063194,9.739608878878853,0.0015164884192553378,0.0024744616209174033,0.0020446077373572
1681944368.0400486,0.8360681602699866,0.429354473904637,9.855435363612292,0.0016681251258913133,-0.002412392358484286,0.0016568119731028
1681944368.050002,1.072882325338656,0.5090793255700808,9.741448966627557,-0.00035619941191517663,-0.0012992706280631982,-0.0003313772927275
1681944368.059954,1.103808398611741,0.4769591007590682,9.727009836613353,0.001103744974755236,-0.0013339028733503969,0.0028369788464852
1681944368.069981,1.0460357444204602,0.4863212007731208,9.757558767310092,-0.0009183586664753062,-0.0007847993432432471,0.000211410076613
1681944368.079917,1.0270239552741816,0.3197659606734939,9.710279502572794,0.00316532075076481,-0.002170621992821405,0.0020308314392105
1681944368.0900152,1.0666964757948063,0.5236188607739015,9.764666915847918,0.0005088222683722841,-0.0011524920695135795,-0.0006502516648969
1681944368.0999262,1.0454487988410177,0.5178826419762138,9.767589886923805,-0.0007357954377459203,-0.0013965210370889805,-0.0006227001163414
1681944368.1100657,1.1612491211893285,0.5012259914945657,9.699723102320258,-0.00024592559089812164,0.0001304926468608215,0.0018155259108108
1681944368.120045,1.0363004646331107,0.38868800126810715,9.733279454416154,0.0001832333031669404,0.00033538801171770395,-0.0002628221723488
1681944368.1299798,1.0156029819490098,0.46548168546881125,9.76794029905127,-0.0006348352305162499,-0.0002043954520029078,-0.0013960501260361
1681944368.1400735,1.1003947343267517,0.47264424116720277,9.726566153650781,-2.800173754327551e-05,8.020134045072393e-05,3.593761126930578e-05
1681944368.1500309,1.0341082203615248,0.5461259581649159,9.790929783932793,-0.0010658725211261306,-0.001048557214528235,0.0016586721444265
1681944368.1599526,1.0670679272219805,0.3273510677792807,9.69012187674534,0.001446843735956865,-0.0006283410025633419,0.0011394030566089
1681944368.1700048,1.017313872477045,0.4747057130128679,9.774191052718,0.00023204086630656577,-0.0010586075722144527,9.146143335337505e-05
1681944368.179987,1.0893787162638668,0.5267496152568512,9.752284551817413,-0.001039434402576231,-0.0005888596393770948,-0.0001879438373497
1681944368.189963,1.043977357601408,0.37216478108614465,9.721394547414615,0.0010113657960100822,-0.0011100262100645546,0.0001827251084842
1681944368.2000668,1.131765906771225,0.515047171594794,9.731237488851185,-0.0009283976896585569,0.0007913722359705529,-0.0008573724503866
1681944368.2099984,1.0879295650735528,0.39342638004728425,9.711558501367183,0.0004089669517584275,0.0013322832795134196,-0.001248906281521
1681944368.2199595,1.0396684462539698,0.5804901469005992,9.7867822017095,-0.0002779827004551993,-6.805365316672212e-05,0.0020196487871226
1681944368.229926,0.9110612258411184,0.4805480911491078,9.826065434599267,-0.0021029707785449824,-0.002449281022254817,-0.0003704914438775
1681944368.2400737,1.1824667849642934,0.4271471440988686,9.681235166193098,-0.0020378143944380068,0.00031117448311671775,-0.0014157960272631
1681944368.2500722,1.0025072763059621,0.3890825809256818,9.742341795164823,0.001346633250447811,-0.00214118654813509,0.002465950468345
1681944368.2853692,1.0556145616841546,0.4451896672720273,9.741426934632447,0.0012788324939555305,-0.0020506565640342664,0.0008510274614901
1681944368.288502,1.3146394143829172,0.6831943918595061,9.683139481990166,-0.0009105377138402099,2.8058671391590155e-05,-0.0004781430202773
1681944368.2911458,1.0270266911423156,0.05655020920333127,9.612481156471423,0.001361147606409667,-0.00018315704851984925,-0.0002918778068623
1681944368.2970953,1.1457293310490377,0.5604561670103452,9.729408101839608,0.00043207093006431815,0.0005574155081584726,0.0004937771859341
1681944368.3039515,0.965781605833283,0.31846955507576086,9.741720062511869,0.0010713220579694725,0.0001021871956563382,-0.0019820545881292
1681944368.3099618,0.9850245326448419,0.3269533144789245,9.740782003579165,0.0027134341345532212,-0.0006581187763511927,-0.002131801712071
1681944368.3201883,1.0933657332170927,0.6145432629883024,9.783116687896264,0.0002640657480901439,-0.0007795816140632709,-0.0001924137200466
1681944368.3300076,1.1881320706972678,0.4746917195894751,9.68029749987478,-0.00043665590185298675,0.002122046769805527,-0.0008119164581648
1681944368.3402257,0.939104633102751,0.5744091428248542,9.849473639683069,-0.00283613318812932,-0.0006004032609475945,-0.0007150677579692
1681944368.3499582,1.0483069201235824,0.3743099421557181,9.720281725947075,-0.0011943826604957398,-0.0008276524392470513,-0.0009944754733941
1681944368.3599615,1.17384054202011,0.26346784442768534,9.603996541038223,0.002749952626760873,0.00173462270640953,-0.0013226495671323
1681944368.3699496,1.0303664977605127,0.5235402041401079,9.7879418259959,0.0017325581527338266,0.0006811127996967285,-0.0009609387803128
1681944368.3799725,1.08061059086359,0.6736919190164214,9.807882695434188,-0.0018317809444449193,0.00042702876415988563,0.0011173879879289
1681944368.389947,1.0430561944860388,0.278059678428772,9.687652975773734,0.0017039051055864516,0.00023366740742151974,0.0006144756602817
1681944368.3999476,1.0528747134358012,0.4849098487359464,9.753481278880761,0.0010869982772834473,0.00020315354738354924,0.0002304226777278
1681944368.4099646,0.9673953039375518,0.44759083911971564,9.790516612892617,0.0013768060885218588,-0.0018211708619464279,0.0003596701112338
1681944368.4199457,1.2310678553541725,0.5927513456905786,9.693787885553,-0.0022643193988626876,0.0022490724564691728,-0.001064866463398
1681944368.4300056,1.0245974802719466,0.34327698970520304,9.718916014329688,0.0007088531452931309,0.0013416059157682948,-0.0003507306414893
1681944368.4401078,0.9285899735891204,0.3949242398757855,9.788194712036576,0.0023491014614304053,-0.001367430091754453,2.771817403386667e-06
1681944368.450024,1.159210869693681,0.5515914873734414,9.71985629742694,0.0015667933682863761,-0.0001675230892520994,0.0022223005339265
1681944368.4601552,1.1387834069448237,0.4656091332553556,9.68925526125723,4.985929742674415e-05,0.0024405575873692156,-0.0003730749326995
1681944368.4700732,0.9930886087232464,0.44072502364985666,9.774889193534879,0.0009733522808305103,0.0005399139008603786,0.0006871280179121
1681944368.480038,1.0126075184584116,0.5116955315256972,9.777407477495416,-0.0009612000078444445,2.9891379781493592e-05,-0.0005891764617762
1681944368.489996,1.091010575188588,0.4400615036452722,9.73200056704828,-0.0005141711272441983,0.00035475184987839367,-0.0007415378081849
1681944368.4999857,1.132166680961083,0.500142467255472,9.718707018456932,0.00013330481151277424,0.0011460159376196221,0.0019332484493726
1681944368.5099795,0.955482694953313,0.38852244376275735,9.764555780796032,0.0007945385211338352,-0.0005787962561287277,0.000930747335101
1681944368.5200243,1.0594723630718388,0.37115450682230283,9.710899330797194,0.0018786073400407477,-6.320831270239582e-05,-0.0003578103228709
1681944368.5300076,1.0053225271719315,0.5182072955547973,9.790346099712748,0.0009525029644000562,-0.0014665460774675187,0.0003630219411798
1681944368.5407972,1.1167816275795592,0.4629540487244016,9.725890878488016,0.000869425115963588,-0.00044505161643715313,0.0005459451035359
1681944368.550038,1.1010775739806287,0.4632338413147711,9.73168817719915,0.0004451097206441018,0.00032234483548074656,-0.000171938360413
1681944368.56011,1.0197327990767764,0.4414746060545416,9.758265867488467,0.0006220584536279122,-0.00042532301901083405,-0.0002687984693101
1681944368.5700314,1.0997930077299423,0.48094518235067374,9.737553007568234,0.0010527061104318603,-0.0002587948806487211,0.0014932776079741
1681944368.5800805,1.0080376752676734,0.47244637322939287,9.775658514124864,-0.0002213391934761192,-0.0006831238440151298,-0.000564212127333
1681944368.5899754,1.0708469593809922,0.37210344470032275,9.727450234222655,0.0018324034213404476,-0.0009125692682560968,0.0001190310262837
1681944368.6000216,1.1404494051632212,0.6409258409296913,9.76025214747685,-7.34438869431053e-05,-0.0005299959759194147,0.0035749616485782
1681944368.6100528,1.0357883639670198,0.21635799340182676,9.664383857441079,0.002391584641572394,0.0006620948460332259,-0.0009486436925134
1681944368.6200466,1.0603397653434503,0.5249801389880946,9.771416953780337,0.0018085875686608595,-8.093410616817553e-06,0.0004423877375894
1681944368.6300168,1.020873549609397,0.5468765205960266,9.798894230977554,0.00020072711043968384,-0.0011413162594768069,0.0007567755796709
1681944368.6401317,1.1253842728358514,0.5631935701940008,9.742457021910585,-0.001432066771043991,-0.0003891888465544373,0.0017048745844159
1681944368.649994,1.1726249343969346,0.3263803893772959,9.62882855401278,-0.0001602543104847297,0.002929667156907012,-0.0009918922174028
1681944368.6614094,0.956000374879996,0.32174163288115,9.768796432185052,0.003886525987929991,3.105419420672751e-05,-0.0005351527675292
1681944368.6701343,1.2337823723116061,0.5886239881030532,9.687408846242032,0.0036622785789619285,0.0018988769018984432,0.0034672999440454
1681944368.6800506,0.9266180164310857,0.5679314748760469,9.843959170953594,8.225843771465766e-05,-8.183859964530888e-05,0.0016132240829984
1681944368.6900134,0.9177490348864736,0.3202954805340814,9.776837100682862,0.003077042552051427,-0.003225591843313547,0.0018751270594885
1681944368.700021,1.1099265989077296,0.5602779244245276,9.754699097400687,0.000812801018206116,-0.002318510822487877,0.0021221064648353
1681944368.7100065,1.1383292380931282,0.505576479396053,9.719695355575324,-0.0001941444412314686,-0.0006674631170979576,0.0020986303838663
1681944368.7200072,1.0457077925870661,0.45719213158834654,9.74847156369684,-0.0015132928401077577,-0.00016455149595991425,-0.0004524452693066
1681944368.730063,1.117854011533084,0.2785990647107043,9.663608435202423,0.0012438493607675454,0.0015829889173023417,-0.0028034552547386
1681944368.7400882,0.9894264331280143,0.6135504161003371,9.815440336852559,-0.001155268602154933,-0.00024240631918092472,-0.0011773883912018
1681944368.7500644,1.1192571594989587,0.4558983280976365,9.70645389698308,0.00040078910739699595,-6.508465826204542e-05,0.001596076498995
1681944368.7600086,1.1152548153666395,0.49314769236677847,9.7133407134104,-0.0005354043389580573,0.0013155153373817425,0.000927036887756
1681944368.7770083,0.9919777838311146,0.41119085754008405,9.7495579020177,0.001033330136365867,-0.0007698957970356077,0.0001387548085996
1681944368.7800205,1.4554588818143324,0.7418348710447209,9.632752660470725,-0.0008009698705271946,0.0016794708382278398,0.0001636877109059
1681944368.7899988,1.079454727300921,0.35854012218998366,9.700785732173907,0.0011908952080628018,0.0020527630174132965,-0.0002125253982148
1681944368.7999942,0.8818866138414101,0.6301837319795518,9.894085725144649,-0.002542189887271423,-0.0015097640326944533,-0.0003243018022975
1681944368.8099935,1.1280092217696638,0.27374748852733394,9.638793569132224,0.002093911062674116,-0.0003656904869858634,0.0007210182643258
1681944368.820104,1.0797335096176406,0.6328851146069439,9.796776321460841,-0.0013638819644061413,-0.00024240501011001356,0.001244054144504
1681944368.8301475,1.0846449951782728,0.5214575044193015,9.745543840170791,-0.002890506308654602,0.00047657743798093966,0.0007817385171302
1681944368.840144,1.0043071681341476,0.2785890482075199,9.714044557110306,0.0006675007510426686,-0.0005728389227250369,-3.4102735785294935e-05
1681944368.8500187,1.0232130518613618,0.40476423060003397,9.743298255070018,0.0017050005820950028,-0.0013488235102318068,-0.0001637434202483
1681944368.8600342,1.1997824311629373,0.5478813852074114,9.691966376553905,6.0665880583871334e-05,0.001438437761949326,-0.0001138313987529
1681944368.8701518,0.9783751788828662,0.35324619654769546,9.747044734402701,0.0022447860045511137,-0.0001850429602260216,-0.000188349428331
1681944368.880023,0.924160778076955,0.4726396829009695,9.827096325012924,0.0006541335264412613,-0.002433622248087919,-0.0024015062104216
1681944368.8900356,1.1765588070905386,0.5040686124128202,9.694282993407434,0.00010722822463486954,-0.0002062748708869038,-0.0015927615191093
1681944368.9000752,1.201468107447472,0.5382679184709854,9.6992402336503,-0.0003927142183804689,0.001740945265092488,0.0007269909524121
1681944368.910064,1.0872357023098675,0.37471856880973364,9.696976792394818,0.00011278682017311398,0.002822040053771591,-0.00131259617277
1681944368.920008,1.011001864699294,0.5465954777470934,9.801526493374729,-0.001402630942638618,0.0013397334766548637,-0.0003060259937546
1681944368.9300015,0.9532176710818249,0.3611997567288626,9.76773499866292,0.0014725474097557773,-0.0014564787302657513,0.0014046051923879
1681944368.9400218,1.0838841904820538,0.6088190507064322,9.78486413599186,-0.001793041925986938,-0.0010485556516778454,0.0013994062005304
1681944368.9500475,1.020346383637253,0.41088757672385845,9.745782179163337,-0.001399285091899182,-0.0014795850716345473,-9.928902958099978e-05
1681944368.9599948,1.1058385609423012,0.5653689021256708,9.749866552136234,-0.0018988507951265584,-0.0017388569395791111,0.0030523062136718
1681944368.9700134,1.0065573917936794,0.27975702733205693,9.707737682152807,-0.0005316576600350135,-0.0014363684123146973,-0.0014139405998638
1681944368.9800162,1.1721642606452163,0.4426129841955613,9.664586135670827,0.00023910067469291773,0.0007272763593421705,-0.0005791300523332
1681944368.9899893,0.9713052377820164,0.42089826335448577,9.767056508251265,0.0007852300789166839,-0.0008898496388490101,-0.0009996855247071
1681944369.0000126,1.1442102353755679,0.4841312684890503,9.696352290252522,4.984344645793322e-05,0.0010875263301548899,-0.0011952700174651
1681944369.01007,0.8984621000579313,0.36539277438437473,9.79912906553081,0.0009319898450852972,-0.0015387930440694773,-0.0032292782875946
1681944369.0200489,1.1720857825379747,0.5717459300436067,9.71489894001882,0.0010884729116503512,-0.0006309529163704128,0.0013904431229685
1681944369.0300276,1.1058737808454617,0.5070526162357821,9.729587191768022,-0.0010040385875707551,0.0013393433788741675,-0.000835784393107
1681944369.040062,1.0346288949540676,0.43275144466474397,9.749633875607712,0.00012586240100052605,0.00034842171891060934,0.0002449283760734
1681944369.0500305,1.0962801515635199,0.6141502160126826,9.78804617991866,-0.002997073119530351,0.0007369553892856548,0.0003216635354557
1681944369.0600555,1.0728508251596276,0.27234343843683995,9.661333983202935,-1.2741280089844361e-05,0.00173275738681687,-0.0011468291363916
1681944369.070747,0.9712494665928463,0.5359749592352265,9.818412086348566,-0.0010506013113937927,-0.0007170136133980412,-0.0002095602999678
1681944369.0800254,1.1090127511319454,0.34863579158088814,9.676576516683017,0.0005930133827645173,0.0004195834538191371,-0.0008573710534027
1681944369.090068,0.9985441936593975,0.43203476248195105,9.767221944843742,0.001154048464616062,-0.0009692328501869857,-0.0013241506262919
1681944369.1000714,1.190376754717866,0.5316071494549283,9.709251995614721,0.001008377371349909,0.000748886714232637,0.0010566526593403
1681944369.1100388,1.036494486096017,0.4711192507610102,9.751001880290346,-1.7937951096283657e-05,0.0009020201976041119,-0.0001562588463774
1681944369.120048,1.0080416481479013,0.4457003693363464,9.77021113118374,0.0003664992520336771,-0.00034521167853734095,-0.0002043381414613
1681944369.1300905,1.0529299245937376,0.3295636090761963,9.7176716907234,0.0008083073621121158,0.0008494899761456569,-0.004469797628676
1681944369.140156,1.1597233395466293,0.5863543863779358,9.732961691133221,0.0008340428139942052,0.0012071095311874485,0.0005355272128009
1681944369.1500473,0.9875146163557901,0.32755846912012504,9.751644545540332,0.0020555247700325863,0.0005004531425560117,-0.0028448315884224
1681944369.1601007,1.1592180733648816,0.6081772003400573,9.723500257021954,0.0010035318939634792,0.0013777238528298419,0.0011959600064666
1681944369.1700354,0.9711562020132816,0.4698545684583763,9.77809927031524,0.00021637680620291568,5.337390939760849e-06,0.0006059194833734
1681944369.1800437,0.9522192059864739,0.41314386343258735,9.783833573738141,-0.0002440782054673758,-0.0014672855214060007,-0.0017834942869148
1681944369.1901422,1.0976605827490027,0.4220266508145105,9.713516644218737,0.00157424062455085,-0.001547007875006293,0.0003607751254686
1681944369.200079,1.2361843307678813,0.5307353813379825,9.663741572227487,0.0012687547939684264,0.0015811384454354385,0.0023877251928434
1681944369.2100935,0.9364540400991783,0.4210042028539894,9.789696135497055,0.000748348091986369,-0.00015039043909637073,-0.0002166395156881
1681944369.220096,1.0853402698012113,0.3241370276536669,9.678071763396128,0.00302821111501859,0.000760084010252683,-0.0011416391085139
1681944369.230094,1.0608468573543688,0.5155272293386168,9.76279490127565,0.001408853595340376,0.0010748597584439054,-0.001919082979416
1681944369.2401233,1.0679029516365617,0.469521550870186,9.745310455717238,0.002054797676610293,0.0006621146742659732,-0.000583573159506
1681944369.2500834,1.0883867156337597,0.6947934790969907,9.804061089990567,-0.0008557583077440623,-0.0001261629629136552,0.0036483428825386
1681944369.2629068,1.0337920788926966,0.3582599626696256,9.727765867776588,0.00020483836983004053,-2.038250956047506e-05,-3.555238922585413e-06
1681944369.2708073,1.0184674573863952,0.6181492312907896,9.819541496056184,-0.0020120904039685563,-0.0009345645034927497,0.0011017535266229
1681944369.280041,1.036161284360272,0.3159498318397045,9.700796612558692,-0.0006087646521757696,-0.00044843682196894644,-0.0018211255396953
1681944369.290062,1.0770422605890622,0.42745966786257844,9.722881582092128,0.0010068966836492689,-0.0006983917138675961,-0.0002739980432442
1681944369.300072,0.9725337988650729,0.47877888952035186,9.778761644686794,3.8691719913874593e-05,-0.002088655211110701,-0.0009344948071292
1681944369.3100162,1.141365275437203,0.461207847260075,9.696164022022632,0.00013218549221279854,-0.0005702315922853347,-0.0005306786938807
1681944369.3200226,1.1178748826974465,0.473210137962344,9.716420172566117,0.0007565398308896309,3.097363704386215e-06,0.0009102585877054
1681944369.330019,1.0924246814287433,0.5325918251217604,9.753210790531337,-0.0013392974514137396,0.0009154098083729757,6.83427474224077e-05
1681944369.3400452,1.0601107125259226,0.5304779547900919,9.759577706934083,-0.0027918109913300697,0.0010767156805347395,0.0001365344191663
1681944369.3500755,1.0429280193438502,0.4336160438684944,9.744840259885446,-0.002059766259851219,0.000380844571196917,0.0006960634759389
1681944369.3607018,1.0965817839851275,0.43098464675836173,9.70575382787054,-0.0017874399684281478,0.00156399842395745,0.0001167972490885
1681944369.370091,0.9522940966351153,0.2799059742619509,9.740378914104834,0.0018268245169940592,-0.0007185094817715371,0.000347368387761
1681944369.380076,1.0916323785977484,0.5522052078885034,9.753359181612483,-0.0014235266222708612,0.0007813140352794354,-0.0017127030610344
1681944369.3900976,1.1496786635740888,0.4170293178317915,9.688343001827416,0.0006932139042627974,0.0018705798671840269,0.0004405037884363
1681944369.4001083,0.9721464020065463,0.5177512042024635,9.820488204762345,-7.681336388514806e-05,-0.0006797474161698517,0.0016325942246704
1681944369.4101698,1.0165839039292144,0.3473523491217019,9.733235513726182,0.0012419373085969213,-0.0011193221183698747,-4.751378085975783e-05
1681944369.4202046,1.1304266317603748,0.5887865908812818,9.742648722651147,-0.0017841102326377402,0.0004359619039634314,-0.0006141275248727
1681944369.4300697,0.9527215615251362,0.4039652896245767,9.775338393274305,4.352618224858482e-05,-0.002163904410668886,0.0008595987723902
1681944369.4400816,1.2498935807244507,0.39624341292154924,9.616108101454024,0.0020987606956822426,0.001212330389123529,0.0019794183148997
1681944369.4500587,0.9553060197547061,0.4491262079686458,9.802327799915028,0.0006756959961441604,-2.9690527722729196e-05,-0.0012548802501759
1681944369.4600632,1.0474737578495459,0.517875671100348,9.764277671979729,0.0006779430959786373,-0.001145792035380454,0.0010261182009936
1681944369.4701045,1.1404028610412427,0.39233864309909555,9.67350888540687,0.0009904842569214201,0.0012175412248159013,-0.0009859073057076
1681944369.4800708,1.0497321973434757,0.5590277632214374,9.791648294966459,-0.0003532113042483791,0.000449009804962369,-4.041442528878586e-05
1681944369.4900873,1.008824387217344,0.44107653753959275,9.750654647542046,-0.00017180089661964022,-0.0003422381134158107,-0.0005865543230674
1681944369.500047,1.144119743402945,0.40075424886535266,9.666187456214278,0.0015973508375398428,0.0011195527991797205,0.0010160623619095
1681944369.5100498,0.973231528899256,0.6010983002656004,9.845126193710515,-0.0017587709546885617,-0.0009345727952666447,0.000907278297259
1681944369.5200589,1.1266399056609333,0.3404854198189206,9.66755031591432,0.00022234180420591145,0.0007097858440890413,7.271386007319525e-06
1681944369.5300438,1.1110706667981238,0.4136897600741211,9.701001983868446,0.002135268101633902,0.0012022731335159735,0.0013286134030432
1681944369.540073,0.9075189313163051,0.5779543474361313,9.850565786434846,-0.0011757696319731187,-0.001270230323284167,-0.00029411973313
1681944369.5500782,0.4123836599489261,0.13648527755175582,9.368761288313703,0.0020413672354135997,-0.012735551288606579,0.0001998572529056
1681944369.5602586,0.10085917633833077,1.3653619840941351,10.496283299843126,-0.0008071624025152649,-0.0666847538079218,-0.0024531694676033
1681944369.5701883,6.575997351090176,3.6189709792575027,10.139384918406549,-0.03999220345529452,-0.037526980820460326,-0.0170557826373032
1681944369.580186,3.411985348896628,6.008625373283776,6.862338214345649,-0.08783663697343609,-0.004776899616211573,-0.0107139601919106
1681944369.5901902,-0.9833753351633456,2.8707053156077107,9.187429892129998,-0.13161197755041273,-0.05038956728291522,-0.0096697110298327
1681944369.6000612,3.1982311322286163,-5.148157813588447,13.084319534309712,-0.04795622439658498,-0.05775256410902302,-0.0171288039150885
1681944369.610049,1.3143834668122354,2.9174380574378787,12.475921018507755,-0.05676889348187096,-0.09166373371789614,-0.0530934195581129
1681944369.6200778,9.235951565893634,7.955927128458126,8.0885935598146,-0.15433064784019526,-0.0045968891274076945,-0.0724947835865668
1681944369.6301496,3.05646799244748,-1.6698773865163568,9.006166398168682,-0.16652631942171986,0.015986908818524145,-0.0912495713296583
1681944369.6401548,3.842738410588961,-3.0825212163574074,7.90390068965545,-0.1140669614985078,-0.0003899648033502642,-0.096970209068363
1681944369.650154,4.621448400059394,-0.9898570409659294,6.916390305313447,-0.1019021557256994,0.045678301497129065,-0.1193015213671377
1681944369.6601088,3.9517077242035534,-0.8025209173623626,11.317922324106263,-0.10818268306530325,0.06844949430964431,-0.0850404660764387
1681944369.6700745,4.041530276348494,-0.7730992066874715,10.893924967329559,-0.06665158180546175,0.07391780168308965,-0.0545347530010393
1681944369.6802337,4.70232571827149,-2.1944604403986796,10.007176082312311,-0.06405648152610925,0.13719456139919575,-0.0649925108614615
1681944369.691213,-3.0339838438296587,0.9681689085005122,11.425368586864375,-0.0487724829318898,0.05698858401513954,-0.050611698216503
1681944369.7001643,2.1928905255301494,1.2192449430408654,9.145705703597702,-0.05214524785625559,0.06076562082179666,-0.057548375016754
1681944369.7100978,0.06474188932186423,3.5304270663298047,9.976081684819007,-0.10029365944255784,0.06051264270194442,-0.0651001121464422
1681944369.7211957,0.06898387737479801,2.0660229622562283,10.360299944087984,-0.12031092411831826,0.034640884320390995,-0.095693850106304
1681944369.7305667,3.786109249098749,-0.23663356245377226,7.943155430550735,-0.13047557139670166,0.084797223427809,-0.1020848687353781
1681944369.7400882,-1.5340459335388812,-2.2675452094378876,9.773333289631273,-0.09436449514131794,0.06623635836286444,-0.1086793776217154
1681944369.7501588,-1.9494776236083602,-3.850173324473827,9.274362409872303,-0.051933189191773074,0.021367044320098953,-0.1243896495166472
1681944369.760174,3.7409740602599864,2.239206793921188,9.293193792903988,-0.06443084288695373,0.06680826985531446,-0.1136976938310316
1681944369.7701085,-2.6600241481033895,0.967520363830859,10.964624014836497,-0.07713961777125361,0.04123155523268278,-0.1101491238537482
1681944369.7801075,0.2058601816752468,2.3168303299441955,10.711578630117348,-0.09859739932032054,0.026315247810278563,-0.1087166230741194
1681944369.790067,-0.19769367083512185,-1.3500468592179766,9.946941511379796,-0.09372563850699656,0.03847914381309416,-0.1103535752359083
1681944369.8040352,-1.782503201075288,-0.17634087281368255,10.03212574863568,-0.06865306491721537,-0.000442600224890305,-0.0975010480347327
1681944369.8100855,1.5539941106361665,-1.1178856939075648,9.640062935095571,-0.05418556080164358,0.006486287083551247,-0.0785547952714613
1681944369.8201306,-1.8313821680579407,-0.09946855272368849,9.564445122341887,-0.05355679409496822,-0.012153746080085666,-0.0807533349457434
1681944369.8300784,-1.4713316717155163,0.7568592542781558,10.040580727718957,-0.049145914533583294,-0.04509750280231267,-0.0710065599146536
1681944369.8401258,0.08799279708363214,2.1837668907953347,9.588513540525534,-0.07885700233795669,-0.04733948742200631,-0.0740440573158911
1681944369.8501673,2.2448091547512377,-2.098708096430308,10.237638666869682,-0.06374703972501648,-0.03850092042174963,-0.075081990248268
1681944369.8602767,3.576632408417135,-2.601810148520996,8.150718746194832,-0.017364079692675147,-0.0006341977152904763,-0.0859728689852408
1681944369.8705337,-2.9339941191580623,1.6906027912175663,8.776549080788735,-0.03993883667683297,-0.02704782288826829,-0.1025106172624281
1681944369.8800948,-3.629919973591239,-1.2625229564305127,11.120458774026869,-0.007192101861375794,-0.10944459156998362,-0.0988311256828955
1681944369.8900752,5.169521144244495,0.3706013321057281,11.187820986587736,-0.023399572147204867,-0.06006104644254499,-0.0954302187624625
1681944369.900117,6.092375338179323,-0.8348424709909631,10.185864790194255,-0.005748560532697577,0.00876136658172779,-0.0779565583530119
1681944369.9100783,1.7678903787267237,1.4104221530722634,8.038783198636326,-0.016909297719213626,0.048351780450333996,-0.0746300454798392
1681944369.9201176,-4.850825534415839,2.6750091982973188,8.126642133964392,-0.04760338581483431,-0.014773962573711143,-0.0819276507559469
1681944369.9301288,2.59692873983943,-0.16432922175400122,8.706865423867331,-0.0464120339265026,-0.006473451039837008,-0.0764774020376852
1681944369.9401023,3.700373469951407,-1.4222196637820936,9.894814510560987,-0.034204863284765664,0.0504987869920724,-0.0689927201333693
1681944369.9502614,0.17479929254652035,-2.2506835318783347,11.088937737853575,-0.004158719870723211,0.04037919758279107,-0.0790101747575453
1681944369.960173,-2.114358263578019,2.294865664302108,8.973124266642785,-0.016812555740131012,0.021710195774149624,-0.0760985921683958
1681944369.9701638,-4.527149149755216,3.409228218548079,11.143656974762681,-0.07166205770336262,-0.05329732882921614,-0.0776256557169607
1681944369.9802015,4.711207866099059,-2.3054642774961738,9.933262397681194,-0.04800388306567379,-0.01945985635998376,-0.0588102649512938
1681944369.9901578,3.2413277889331167,-3.7676596373062012,9.183393466162867,0.011414894791184028,0.024089662020634124,-0.0606783751013926
1681944370.0002344,-2.3554355533598024,2.6572578159728812,9.741697312851413,-0.006324993496717794,-0.017848183315542325,-0.0616940717759779
1681944370.0101418,-2.79179944769183,2.0960975375079425,6.786980744318566,-0.044266098677112724,-0.0473361434535069,-0.0597688156727007
1681944370.0211058,-3.1119126701946347,-3.8741530734587126,9.697059343353061,0.03466165222564965,-0.11725518491739258,-0.0369702476623705
1681944370.0302398,4.956888003260342,3.351684502938951,13.522474864082142,-0.01367989924010468,-0.0822828466675014,-0.0647130172315291
1681944370.0401728,2.9801264278150494,3.5828057970874507,8.93252483801776,-0.03282771125678929,-0.03153289521278465,-0.0683150600257567
1681944370.0502076,-0.5455640614889089,7.126161164386621,8.445586552986704,-0.12560323260886289,-0.04503853690286084,-0.0730163912835768
1681944370.0602753,6.92690648558147,-1.7903813236873538,9.36634095516691,-0.11741092708828363,0.020566890554476563,-0.0320249769452265
1681944370.0702093,0.8031364615755068,-5.404967976801598,10.071958902739752,-0.03212600303977717,0.03042652977426926,-0.0382817808154276
1681944370.0802162,0.16313715205857127,-0.0736501332988824,10.54147120071139,-0.021624165386569583,0.019786238205012505,-0.0452776413026503
1681944370.0901551,-2.9699942814617426,3.208588038330871,9.235651206980107,-0.06623892757982049,-0.014561313781235414,-0.0527024242642573
1681944370.1002429,0.08579792482425663,-0.5204761092917456,10.562966098925965,-0.08149443420050813,-0.03860084254895661,-0.0619235496583632
1681944370.110195,5.145809254683831,-5.679371213403169,9.260412702467384,-0.016749283293961227,0.016350311590537972,-0.0583509776356867
1681944370.120145,-1.0589834935087865,0.6834928365227059,9.778682356433416,-0.0004857360980437721,0.009236808614254369,-0.0592062931123427
1681944370.130298,-2.934947595533374,4.6924272611862685,9.763194115370439,-0.06494354151420198,-0.044813577019152485,-0.0644120435777357
1681944370.140247,4.283455694324134,1.0898673060458794,8.811928064252857,-0.09604909203159544,0.0010048034075099618,-0.0395619395735911
1681944370.150226,2.965163678514607,-6.003634149969412,10.79751664128322,-0.011304679288811523,0.020549482575950375,-0.0145588714245012
1681944370.1602125,-0.5607482916231887,-1.8360000183517589,10.543385603396402,0.021485181930229826,0.01233898879075922,-0.0360996957483938
1681944370.1709116,-3.456654066173421,4.778426578837209,9.43925421462243,-0.01939974607980369,-0.04550899766564942,-0.0228259536984614
1681944370.1802037,1.56387058825513,5.586803712970447,8.355237930135688,-0.0995952588990728,-0.045434987787736955,-0.013140580764716
1681944370.190203,7.3490865034653075,-3.757888371381856,9.299007931924594,-0.05670556619792339,0.03989507960530897,0.0144595334690758
1681944370.2003124,1.1158658227298859,-4.1533328709289785,10.61287719965522,0.01089201948137098,0.05290015428129127,-0.0307452652218989
1681944370.210215,-2.2526374158565705,-0.5857624198082937,10.8743035123146,2.700332777448458e-05,0.017895582309341462,-0.0758162002626112
1681944370.2201495,-4.399625252077453,2.9500120840084145,7.888974840795385,-0.01322134939346504,-0.03460352547276993,-0.0780557777348212
1681944370.2301526,2.086631082550689,5.7613452930696925,9.424637044099713,-0.1100199312188544,-0.04028587822179548,-0.0516234684351137
1681944370.24021,7.143686183246847,-3.949615954285983,8.817375544200413,-0.05218279715014844,0.060150485886910875,-0.0077556922647408
1681944370.2501824,-0.8523584012414923,-3.5065444359023044,12.391548737427751,0.00866291403379987,0.03350892830312034,-0.0130736847955039
1681944370.2602117,-3.200999251750686,0.5848959354075043,10.06601437687866,-0.004231293129271341,-0.004827812493545159,-0.0344226296606711
1681944370.270196,-4.861315773018284,5.383242972543234,8.299460403773896,-0.05418949888964152,-0.08459324509602499,-0.0328739817801169
1681944370.2805307,6.310694717910881,2.7345786083110832,8.467755755689696,-0.11180681990850656,-0.03427700461318612,-0.0039471389341405
1681944370.2902925,9.750358839429264,-5.086608321386551,8.805208170263793,-0.02969650726646183,0.08755588205561088,0.0107070513454028
1681944370.30013,-3.8591060359888947,-2.689921091054415,13.28587085033657,-0.00284422795682997,0.030220367954584625,-0.0552110496524027
1681944370.3102598,-4.104314087073117,1.4767138744006445,10.212359824446569,-0.008718689887673901,-0.042089856908374086,-0.0638751770916632
1681944370.320236,-0.8246950442116061,5.775742069384411,6.7239719372043485,-0.08236641778392075,-0.06764570024896441,-0.0324248533311537
1681944370.33014,6.44443917923867,0.7611618631999044,9.381604490762705,-0.10121204164290071,-0.009196810673118047,-0.0013670776120624
1681944370.3402658,3.6839064311085385,-3.6586475776659255,11.002882513628624,-0.0403181258484399,0.020208817195336314,-0.0036203471559337
1681944370.35017,-3.413506008283175,7.209225067034625,9.765182333827898,-0.10632020283492132,-0.02944213880388553,-0.020084285325115
1681944370.360263,5.527505592413907,3.6634907463407305,8.665299024532764,-0.17271221919351779,0.014338777409509645,0.012091253736312
1681944370.370226,1.1290844080935054,-5.958220212238937,9.134500621930194,-0.08400948368258714,0.0378462129717502,0.0333445657429047
1681944370.380178,-2.275551517658803,1.2402060013375282,12.11043483304013,-0.07707478029887457,-0.02429604762570057,0.0088230980013259
1681944370.3901985,-0.8925844860841886,4.68096878051297,8.817748256887832,-0.15008303017770713,-0.03714436526773541,-0.0025446588720432
1681944370.4002109,5.2585207316741505,-3.5247373950527083,9.642576747706796,-0.12374995242840989,-0.005885121863079113,0.0110723682132312
1681944370.4052987,7.107085642749309,-9.964272987966341,7.719934654533132,-0.05450046613411124,0.04685664719620921,-0.0114063677924922
1681944370.4191933,-5.166202845380385,0.621541161756039,9.572099295924374,-0.0390181362294003,-0.03777961624785717,-0.0675869743886641
1681944370.4291651,1.953324478985647,5.757586643949079,9.596799439250038,-0.13563993501359548,-0.04674179233764679,-0.0547773960593393
1681944370.4392214,6.14173430745097,-1.6491671159314059,8.466314820074276,-0.11507086119281178,0.028069556919374253,-0.02280084896714
1681944370.4491887,1.1996815590796428,-8.152102982744154,12.66020192211264,-0.016400483029266454,0.010583072327074589,-0.0437251340213469
1681944370.4591703,-5.260535006852446,3.061588703022875,8.937445310646222,-0.027802787987512807,-0.06462087305685185,-0.0543205488088778
1681944370.4691527,9.005225982034146,5.393779335200816,7.538880180691444,-0.13099267185199254,-0.004914848711515634,-0.0646338697138479
1681944370.4791503,9.247155999917979,-7.249979900109512,7.613967061665813,-0.08566855587989342,0.13583876660187236,-0.0864821161690405
1681944370.489225,-6.31159075566366,-8.267589981400109,12.774663324303646,0.019113858154618163,0.031121380230443384,-0.1757246862712553
1681944370.4991598,0.8608765762629388,5.129367513690284,8.555597057933852,-0.055363912146470816,0.016707255846520032,-0.2431977700057677
1681944370.509153,5.8804448306235555,5.275003456945066,7.964112710662636,-0.12686692655086432,0.08448173071771373,-0.1870974313083342
1681944370.519252,3.6612657210305555,-3.318823477627337,9.37861614408404,-0.0886534923458021,0.11728153053302658,-0.2123530815902403
1681944370.5292218,-1.9633066645073562,-3.3040181982998247,9.225511820000124,-0.05489620422115503,0.08635286679451043,-0.2633081238332442
1681944370.5391786,2.293264916670618,5.436031058517591,8.972149347491245,-0.11549432996175296,0.10392349217011641,-0.27874647188813
1681944370.5491452,3.130512378855501,-4.232192981977608,10.391228703947258,-0.08805797017817146,0.11831389946197267,-0.2451982657972029
1681944370.5591643,2.3148974093848893,-7.103698947747484,9.894781164129062,0.028915504324544376,0.1499459552597467,-0.2767210464540175
1681944370.5691502,-10.811792973537823,-6.652468621340273,7.421984934500202,0.07471824103322507,0.008135053334633026,-0.3104439239564589
1681944370.5791967,-0.23250990465427648,0.20111805397792032,9.917176517752036,0.12358079092735584,-0.032383541363917856,-0.2816519897046736
1681944370.5891778,0.6190803036313807,-1.6181733326699423,10.531276704669319,0.09843709497767798,-0.010640777100601745,-0.2598728399339369
1681944370.5991497,-3.3098552027366246,0.745649182437631,13.167682010782816,0.153557668473388,-0.08965223409203889,-0.2516247789922408
1681944370.6091475,4.3697481925666075,13.51604284939858,13.448282957612516,-0.03496355213917832,-0.0463841282831696,-0.2254230688872984
1681944370.619166,3.184315661054603,0.04002395676868476,10.95309387736939,-0.020926590445229667,-0.004567326057854796,-0.1231126423540762
1681944370.6292517,-2.737338027896501,2.154048418618667,9.710594033922163,-0.0019022911208330918,-0.07554403348552077,-0.0785766552749327
1681944370.6391697,4.8559449055083554,6.094298268142391,6.703559266600401,-0.1067871043848603,-0.014097207367435092,-0.0904265056911162
1681944370.649274,3.9381452259541674,1.461389564904134,8.141561468207861,-0.10847301084142472,0.009864632081679307,-0.0763432915869406
1681944370.665897,3.392938924563643,1.2729872896233003,8.997908757652567,-0.16067024930677523,0.07094600733430924,-0.0865583952131918
1681944370.6696622,-3.8372584597198234,-10.450167868220657,9.717977055040109,-0.09506464829072618,0.052099308230616814,-0.1140374850097349
1681944370.6791751,-0.4840235651273766,-3.3083180429354746,10.921775673568112,-0.062346293864849744,0.019263043507927666,-0.1197012375655821
1681944370.68916,-1.4910749850303238,-0.43779265236337034,10.327377440502927,-0.029537953317368415,0.018062124915254153,-0.1228896539273909
1681944370.6994064,-4.922285547473087,1.9662504799699436,12.924580549369287,-0.06227903443578137,-0.08857581050766049,-0.1339719157281569
1681944370.7092142,6.129099167006991,-1.5916271590413564,8.102427635457122,-0.05034639831661239,-0.02346148373300331,-0.1153278510633162
1681944370.7191703,2.1313292565017408,-0.5426282292071104,7.714091820472939,-0.023706801112126506,0.005425606916008638,-0.0844501491251639
1681944370.729173,-3.8074175263040155,-6.658985289026877,6.269451082194694,0.059945005972208344,-0.04648919784210697,-0.0556206602218798
1681944370.7391975,-3.796198407849836,10.575504070998242,12.454733998706173,-0.012165225562531074,-0.11965287621049367,-0.0907880153122595
1681944370.7492166,6.426089783077568,6.739100479494247,11.999247747819544,-0.15092332146274745,-0.04841142977416526,-0.0601631562772444
1681944370.7591996,3.5152615586033154,-6.840592050651387,10.905450135823317,-0.07358690940469674,-0.035827342938414865,-0.0402312252286127
1681944370.7691758,2.16324139718977,-3.147865505663504,8.165858247440166,-0.032455934317756785,-0.010632329026613672,-0.0818593214812926
1681944370.7791543,-1.494872614863886,-0.5499694863490548,11.042278696808914,-0.04529268450128537,-0.05290411779464757,-0.0845804523292235
1681944370.7891674,4.825562883356128,1.9396191129938365,7.72185731020461,-0.06858839485078197,-7.587130042977109e-05,-0.0412002067628554
1681944370.7991848,2.080553137790749,-1.8455775031320163,10.403890232435245,-0.06534612168532719,0.029299168777383016,-0.0374055590096167
1681944370.809173,-3.965862752988508,-0.13095492249837343,9.468253741676108,-0.050018761470984885,-0.04360145833694513,-0.0585924584034136
1681944370.8191714,9.454527210423343,1.5138752540094715,8.28454165015389,-0.08430001112336796,0.040465895943341976,-0.0066989205393246
1681944370.8291936,4.423307636987664,-0.5956380608330288,6.7678451800918085,-0.06513658107737774,0.11896613195732973,-0.0365566212299517
1681944370.8391738,-6.799156808833371,-1.439449553609062,13.243736174643114,-0.07829524809544608,0.041446404558788105,-0.0835975568357161
1681944370.849786,-5.018577657063346,-0.756964922055359,11.978804783264241,-0.04849623705112811,-0.06260550121381847,-0.0914802338543585
1681944370.8591914,3.468546158622751,-2.032634413730845,10.082157290816276,-0.038918658890623514,-0.032507804945610855,-0.0941465135279349
1681944370.869177,1.6080954549674287,-0.6525572856695513,10.311654027001426,-0.010172078636945957,-0.04813118639385041,-0.0966886069241217
1681944370.879334,5.701274770239335,0.2754306985047179,8.081360157345205,-0.03743153492559791,0.01971654264338229,-0.1016768749418906
1681944370.8891892,3.4588581589760805,1.9272755972198432,7.5646680387655,-0.05620905693145561,0.04875158980372568,-0.0825395296874693
1681944370.89918,1.0672297964103177,1.908260066025868,8.3366381313502,-0.09478436482970785,0.060496310747522715,-0.102940970248287
1681944370.90927,-1.163367185665408,-1.0316663613015664,11.313379180067562,-0.09360400198839362,0.04191253186242507,-0.0951940204563788
1681944370.9192894,0.8202375027930963,-6.062325897893984,11.732475511902923,-0.01160026290677259,0.010544497576655574,-0.0730817328754118
1681944370.9292626,4.178482198308439,-0.21674542152675738,7.886442382336583,0.013339291827740372,0.05512072064059221,-0.1224721308413199
1681944370.9392266,-3.268947239190333,5.962509680322991,10.514828195213255,-0.09692524997427072,0.04853538512001753,-0.1238521795335463
1681944370.9492457,-4.504742569481554,-3.646173641039568,11.524789862101382,-0.04993044091611125,-0.048330278277527755,-0.0944519649806669
1681944370.9592285,4.13884907651942,-0.7715298403851016,9.638504499164787,-0.019569013551247644,-0.022498358640938937,-0.0616041954222372
1681944370.969313,1.8040356804178863,0.6470358943021921,10.057642113920364,-0.017947484537166207,0.0036412309633058358,-0.0403425443533114
1681944370.979185,1.2029847453509248,4.559227911391417,8.70712165155119,-0.06354157951700133,0.002485533306596991,-0.0258816547307423
1681944370.9892595,3.2910493877894798,0.7203379564737398,7.0532221823071986,-0.06517593987563441,0.06463216190202033,-0.0139819897326878
1681944370.9993126,-3.611239992108419,0.37357015176436004,11.461520949508675,-0.08581972823767166,0.012327558910294384,-0.0179255708667687
1681944371.0091662,-1.128301200430442,-0.9157158481703687,9.4978733790983,-0.06928921545714216,-0.006956170602111218,-0.0490764204028299
1681944371.0192547,1.3361701485192297,-0.716133651375129,10.078023892423689,-0.07194871159095123,0.00856697104132644,-0.0430199440184286
1681944371.0292118,-0.6889276288003136,-0.8582142603073398,10.175163224420533,-0.068129792639203,-0.007226877386549515,-0.0317969332996061
1681944371.0392294,-0.38682030120018307,-1.5847107657730117,9.43896950300349,-0.04776766015980215,-0.021710895923611293,-0.050045569575136
1681944371.049204,1.2389628144350022,1.365392666530149,9.673005107702576,-0.07194219426358262,-0.02439830253784151,-0.0462566699448279
1681944371.0592165,2.7229754273297218,-0.5753391684009393,8.976362217922318,-0.06897929914167726,0.006342022281810173,-0.0485137451055697
1681944371.0691717,1.4784041188198445,-0.7083450705663792,10.606499370706356,-0.0770151028669654,-0.01241742384017312,-0.0558481823268583
1681944371.0791824,3.317842335083511,-4.424554035787507,9.507597689958828,-0.07824991899186173,0.007839778585567034,-0.1600895087781599
1681944371.089224,2.2812008551610665,-9.238658458296044,10.172950208423654,0.013782435786911072,0.018899863942827975,-0.1813786785665205
1681944371.0992076,-3.447525665706429,1.7346221888714342,10.139760979427535,0.03227927327744305,-0.04287919673548916,-0.1942218850913695
1681944371.109233,4.047253589110458,4.489012086496406,11.053128287615412,-0.04211559527498507,-0.03520865634594362,-0.1926608692470244
1681944371.119192,4.136776804532569,-2.0805184369040313,7.910912714489045,-0.03652789126388897,0.03094974629175534,-0.1932963441672972
1681944371.1292214,-0.6830960129346926,-4.622418081025806,12.402567326731674,0.017273795117725595,-0.024106267531413456,-0.1990052919450453
1681944371.1392007,3.4564560384735907,-1.8288215471772467,8.39540049781405,0.03590440135880166,0.011998608163332926,-0.2069426785770109
1681944371.1499758,1.8559205044111406,0.2557840368877295,9.530136724111859,0.004172460328563039,0.03401854355071021,-0.1673516045871428
1681944371.1593246,-2.578101576785671,2.8951064900767647,9.121774648929044,0.011692341669072306,-0.01778657694538851,-0.1601058255496672
1681944371.1692338,5.593120024467358,2.53923367830738,9.786622607293776,-0.056164391497766954,0.036417120216385886,-0.1351582716766051
1681944371.1791725,2.637707166395119,-2.664624224977545,7.302409506269521,0.008492083403720554,0.07211261364620274,-0.1642897884908369
1681944371.1892188,-3.3324558940613596,5.673725604025661,10.131895265448668,-0.04479863071141949,0.03616518291653482,-0.1606481533113173
1681944371.1992154,-0.4611644776299125,1.162007343300385,12.276889502395237,-0.05937182811052402,-0.0004909486072361153,-0.1246089201036146
1681944371.2092104,3.4069084867880277,-4.4354366047318585,9.506438581744387,0.0020111881283513718,0.029755840863937653,-0.1215107898774794
1681944371.2192364,-2.6742174282676765,-0.44211579152810715,10.87229827228231,0.020115908718595463,-0.008748582164760542,-0.1386778365436247
1681944371.2292588,-1.4836130439703663,6.952753314999895,9.432443997766615,-0.08535695803837261,-0.0437281561008166,-0.1263238947454146
1681944371.2392092,4.128240881648306,-3.3222763482380095,8.464027785739205,-0.05626893978810839,0.004785150557722544,-0.0966217007103613
1681944371.249193,0.3954533752294716,2.8435700576399405,9.31032202223372,-0.09757987913682963,-0.013687195180114903,-0.1153204451862028
1681944371.259233,5.252884921702169,-4.647369312559722,8.737117937313602,-0.08418731328498007,0.04875484224514679,-0.153003902322357
1681944371.2692797,-1.217838677634237,-2.531892353917876,9.953036750254713,-0.031265327764044046,0.037782646743709784,-0.1341591488185576
1681944371.2792096,-0.5932244532274575,-1.0345140955266003,12.00961355070394,-0.002276247072274636,-0.0017021828654991912,-0.0983184437814406
1681944371.2892716,2.1600992681799736,-1.2594959576469762,9.563596790143986,0.018683400666621913,0.015751941453186775,-0.1026235159102133
1681944371.2991996,-0.7256273430471334,1.5625430558766993,10.822556531184784,0.005643609755590778,0.004828913317578946,-0.0790126558008841
1681944371.3092036,0.7343435956131352,3.4038668894170643,9.42860677086455,-0.029421329985607696,-0.006277076635490857,-0.0803475316229513
1681944371.319215,2.737187694765884,0.6775959460168476,6.575831168048803,-0.08456585391026829,0.062407970579921423,-0.0613943721714667
1681944371.3292449,-3.942937576351578,-0.6628133203409752,10.17262828679847,-0.02268432086594922,-0.009948339797959943,-0.0478212695184401
1681944371.339213,3.4379549687174653,5.684407356498289,9.051208294090168,-0.11555633735604666,0.03791804971384364,-0.0256613690021685
1681944371.3492117,-1.1869934204522825,1.8092275119251433,9.627716054237887,-0.12453061068487267,0.03953710784403643,-0.0047521485562673
1681944371.3592353,-3.267981091682352,-5.937815476522538,12.392903781592317,-0.03945367803435946,-0.03516418049201435,0.0014293616381702
1681944371.3691995,-3.0695017112387695,-1.5104487006151566,11.752708245143758,-0.030250232508223104,-0.09566608544260725,-0.0422519679728201
1681944371.3791914,5.9095222318766805,0.15105661357003888,9.268622684891342,-0.03745368401270933,-0.04682639017932219,-0.0511899303260496
1681944371.3892145,1.7065455466605404,-0.5421098054675786,8.009539418130284,-0.06855608483842664,-0.021348545534101464,-0.0754900510969809
1681944371.3992355,5.641015196669645,-2.967253291708617,9.524835714247688,-0.05828969494830325,0.0038486151306724777,-0.0756194602313689
1681944371.4092028,-0.5463161069780426,-1.51699884273712,8.172278746847468,-0.028175847994069515,-0.007015984661195057,-0.1035068567457846
1681944371.4192376,1.620366126755213,3.0263560570354198,11.29115179299925,-0.09292300583401163,-0.027597523899285215,-0.1142113741102865
1681944371.4292047,4.719890730074775,-3.8680764022314693,9.04811684536321,-0.04176314143953442,0.029220417252739016,-0.1065770696464232
1681944371.4392564,0.07152571362119665,-5.493704273622021,12.862650106417123,0.004593830700923511,-0.02178247812916493,-0.1854486625257185
1681944371.4491851,2.859074463262019,0.8015277255993379,7.381516817129782,-0.012186646351324994,0.026839657118933626,-0.2182919095817259
1681944371.459303,-1.5118583182238208,3.781174187750042,10.195574604297434,-0.064889236033449,-0.013249691364969085,-0.1909369837108305
1681944371.46921,6.072259337956917,-2.660370407891868,7.960272139059472,-0.047585886944907764,0.047954899751107935,-0.1479668479028395
1681944371.4792333,-3.668612269541767,-1.9034851523039529,10.988617495444448,-0.006633720330377861,-0.002611478651320055,-0.160521061307495
1681944371.489257,0.9332044460615155,1.2664971317284726,11.569367231851034,-0.021613859899772277,-0.02774599797135951,-0.1395225684705427
1681944371.4992344,4.141288242601304,2.232088218144564,7.632793783414548,-0.02582651518557617,0.027766616574253968,-0.0905874382320097
1681944371.5092328,1.5849881052789572,-1.994090923049097,10.12858717376414,-0.028113597284899244,0.00941277948223383,-0.1026572074356726
1681944371.5192573,-2.8444553220115645,-3.5998174383269,6.996875849049255,0.017108060607916968,0.00540123820200293,-0.1522609304252318
1681944371.529245,-5.814934512210239,-0.6664349476737985,10.891790569488444,0.035332578947142874,-0.1039471125369486,-0.1816108386579207
1681944371.5392392,3.468300707604861,4.741002689270479,10.255267916928139,-0.04630245457007377,-0.06541417056237438,-0.2122739862266234
1681944371.5492215,1.8231150774250113,2.212725264291992,12.705063981031289,-0.07900315557451959,-0.0940732732306578,-0.2142520259681395
1681944371.559274,7.012261912604628,-2.2531076212013237,9.828792806382168,-0.06676110890741054,-0.01739321659053353,-0.2081256817641905
1681944371.5692234,-0.8089299990741174,-4.749653795448475,10.157524326114276,-0.0106442714108112,-0.04106611871644396,-0.2120850246015242
1681944371.579214,2.0482358504386453,1.500987525605877,8.496544410972579,-0.020015826723416237,-0.04075198985383708,-0.2011156241956404
1681944371.589275,2.172903171276359,-0.6007121195369254,9.119547690446781,-0.03377867835027993,-0.012881971086625157,-0.2131503533187559
1681944371.5992243,1.787573953125461,-0.05932821518781707,9.383898767813937,-0.032377948464687605,-0.0003392096982920699,-0.2277867655816725
1681944371.609223,3.6544186328434956,1.8755564507093447,9.110978293295226,-0.0694789024418851,0.038967511755729024,-0.2246124308171919
1681944371.6192355,1.3444215535334432,-1.7358826465626718,8.297694064497215,-0.06526255847103565,0.055510043318294296,-0.2397326539817503
1681944371.6292405,1.110519386066162,-1.8872854967450126,9.880160330702862,-0.03835361789818223,0.0600963047088758,-0.217095197326248
1681944371.6392624,1.7878133378573533,-0.2813538770509365,10.86180150258142,-0.03482419121916429,0.04990422529170322,-0.195698992497032
1681944371.649241,3.9256876274045367,-6.172374506466277,8.291858992531544,0.010379706043747184,0.11304361251032251,-0.2211015235248259
1681944371.6798518,-3.8226985026626457,2.436720580532122,9.275083573096715,0.020620115585367686,0.036174919331248424,-0.2121318589511565
1681944371.6857746,-0.7458108134135939,6.079744315341584,12.115483130597656,-0.06172401182045065,0.00022048642390530473,-0.2000637214246443
1681944371.6883345,14.496838653153247,-7.201429757822792,0.8696070310948301,-0.026393538655905546,0.07087073280597843,-0.2049979280296019
1681944371.6895454,-21.150087171468098,-5.527002868895471,21.121948154824956,-0.02706849228798255,0.02382150105014881,-0.2289363305631331
1681944371.6992538,2.825760829412807,0.12473223742685485,9.464354291718015,-0.023662414933999443,0.036557836172066656,-0.2482959787908247
1681944371.711062,-0.4456779087080765,-1.4024753065967308,9.38126883915272,-0.017623531157845717,0.035125641989796466,-0.2358972441020659
1681944371.7197075,-2.1859616202032144,1.8927399632207682,11.12471343444375,-0.040228553732364655,-0.018161460299721727,-0.2354069958987883
1681944371.7292604,2.169264512522182,-3.8889148804627465,10.109827141278314,0.010403161827922652,-0.005743460259618377,-0.2331894199910811
1681944371.7392588,0.22020200338660148,5.780962549687606,8.616421428348762,-0.057685451333168235,-0.0065545581729183604,-0.2392058681312254
1681944371.7592366,2.770831750235885,1.2621814649906666,7.6950269962224125,-0.08395882037890874,0.10828245607428182,-0.2266077261033705
1681944371.7692688,-2.6451137942027607,-4.293146659702618,10.97215558710791,-0.033937480604565556,0.05752980002810001,-0.2434964488807371
1681944371.7792425,-1.2021902374089017,0.35078454657719393,9.442740234038276,-0.024815122112462257,0.03231406063632811,-0.2409641008439711
1681944371.7892585,-1.649037164968928,-2.8799957172302517,11.466459044634318,0.012929214327654169,0.016992686271907902,-0.2315936695399931
1681944371.7992892,-6.865318519771167,2.0146705915841245,12.946627293752538,0.0007476588281802783,-0.10821617092635477,-0.230088458544319
1681944371.8093112,6.720129095873174,3.1747997700042956,9.711025113651939,-0.042855094254340906,-0.051008162081777095,-0.2042824785772017
1681944371.819288,2.3897002159552034,0.32595470307024194,8.574106426752373,-0.08178455025522914,-0.01693151696863642,-0.194604815131729
1681944371.8292687,3.7578450245950696,-3.5375622566391254,8.866105883710528,-0.03958558521455441,-0.006294943556832852,-0.1944621961179427
1681944371.8393562,3.6855837354126257,-1.5240202889887406,8.177999197321386,-0.04691793289978302,0.04297300747749823,-0.2048080425325087
1681944371.84939,2.6509334053898255,-2.752796467836232,9.575544470186577,-0.015339683163935643,0.06772672143459198,-0.1845343570771864
1681944371.8594136,-1.5964030158663367,-0.5585155590978697,9.688170375761013,0.0040986512781162185,0.04046386181533847,-0.1531644772353819
1681944371.8702824,-2.560454303667885,3.112360535745304,10.829760640111168,-0.0502058862685977,-0.007198628444972513,-0.1371888678136519
1681944371.8793209,0.34510938963731935,-1.584039323268537,10.163897338771232,-0.03254247955882464,-0.020724385612675172,-0.1314557652536085
1681944371.889321,1.7940316692876046,-0.1823860539749326,10.277775444532681,-0.03073199328327662,-0.009786787862355864,-0.1346165846648863
1681944371.8992505,2.1543443445654846,-1.2717609108124706,9.095851751713992,-0.01974870219746765,0.01513048340010699,-0.1663405906024626
1681944371.9092531,0.8223942437546904,1.0675488574212404,9.792996085808994,-0.03106012831481003,0.01980228779347554,-0.1569958936038664
1681944371.9193988,0.5872513732525524,2.946718207032929,8.54005282489635,-0.07303203966415858,0.03055902665989255,-0.1575500826898268
1681944371.929256,1.402655361991545,0.15481134417366998,9.043830013939482,-0.07375760719948236,0.04467099435457303,-0.1509963135781935
1681944371.939271,-2.9950301510826582,-5.576242210966458,10.532315843739378,-0.017566689355689842,0.004443988260940369,-0.1863847683730772
1681944371.9493015,-2.6523572664140334,0.15058002648074656,9.659372091559042,0.026945722963468883,-0.03373913663542936,-0.2147198628249815
1681944371.9592996,-0.829452508808849,4.5853229686918064,11.707886322900373,-0.05781733166423249,-0.049573562689152424,-0.2183673690620116
1681944371.9693143,0.11293030842896315,0.18197716211767936,11.352258272641322,-0.06686911361122172,-0.07875360307759895,-0.2014657716813734
1681944371.979276,5.008026343445538,-0.4412440977116333,8.490865174660692,-0.07268682547669557,-0.047675499684391054,-0.1961426596704176
1681944371.9892554,6.097773771818599,-1.2222361804025927,7.884876516397761,-0.06668059588464689,0.015527521374059114,-0.1720349352422407
1681944371.999252,3.2947093144113015,-4.0808332015517035,10.298897394241854,-0.042491467352139926,0.031324066262513016,-0.177275137192314
1681944372.009253,3.1275491952854924,-3.8720952756069873,8.884925277844747,0.017965627447208744,0.047032170279393215,-0.1782004098954848
1681944372.01934,3.2287471663991103,1.839181292953701,8.919771059809614,-0.02329918064117319,0.08223545432837069,-0.163784519917076
1681944372.0293052,-2.901640411243634,-8.156174197107186,8.870454618767553,0.06862817710977612,0.05177619741651471,-0.1729814719024351
1681944372.0392728,-4.416693583921703,2.538083833266454,10.789770779161802,0.07330782412645796,-0.022882688802583193,-0.2150865804019621
1681944372.049318,0.11865603262820591,7.0175568647125335,10.911123299165734,-0.03127994028370006,-0.019750149931492107,-0.2069154839578322
1681944372.0592706,1.629870592052652,6.606163591763843,10.509632398890343,-0.12262464838320669,-0.02203593987737825,-0.1782731275621107
1681944372.0692616,5.649149669987827,-1.8407947524530377,8.238894103270944,-0.11534703487502596,0.03201206816230167,-0.1522959183517149
1681944372.0792527,2.279613489373166,-6.323897623134307,9.233412642450418,-0.05902075507358738,0.05783870904473448,-0.1701861481729201
1681944372.0892737,0.00885989824146958,-2.0685768928671724,9.190913835107297,-0.010236942353628166,0.033252969333600634,-0.1510869424405745
1681944372.0992656,0.5730071561462214,1.963772078542947,9.747178948602786,-0.04198996021109682,0.04073266077113577,-0.1339885603252104
1681944372.109319,-0.3345866963019016,-0.9870394067528803,12.854429131295378,-0.04326316284222314,0.009466923628892584,-0.1097949232521704
1681944372.1193476,-1.0311507384107879,-4.1293687701668675,10.132558255354377,0.008055167692754602,-0.027326028733873537,-0.1201013933482817
1681944372.1292646,2.1286615086201985,2.23851391956101,9.057437389676487,-0.021057740016756508,-0.014120597286038495,-0.1230664860072783
1681944372.1392963,3.994320283325061,-0.35976371148379527,8.820968352385142,-0.026279137311781265,0.026821593043489186,-0.110936575717037
1681944372.1492894,1.4512144487890541,-1.1956749017989463,9.681579492651744,-0.023915122389715344,0.038861737561286344,-0.1115545939269713
1681944372.1593208,1.180121451579139,-2.502821918751493,9.588635570917969,0.012689175028509792,0.022690599102846234,-0.1211451302829436
1681944372.169287,4.973716260458109,1.0892248996585454,7.682631862989243,0.008374397744754496,0.08475238175560769,-0.1061008508864096
1681944372.179322,-2.2202956998781427,3.430382360957183,11.029579119689013,-0.046856075703782155,0.04765544795237494,-0.078319163209503
1681944372.1892884,-1.2356539790497074,-1.0780956306662397,10.438747232365285,-0.024745837848087548,-0.0018744831210672412,-0.0652823682490042
1681944372.1993215,1.1214178177415575,1.8700536257897094,9.037191114332689,-0.03996432799679003,0.007731743384359051,-0.045513090825384
1681944372.209363,1.6336353203547505,-0.12140991880657091,11.035122291854726,-0.04313427569225268,0.019461237091783396,-0.0336970772209814
1681944372.219271,1.8166248659084352,-2.7438139694879333,10.320080020328852,-0.0035132659359168442,0.03761172956159779,-0.0219937480601719
1681944372.229288,-3.5297441657960245,2.238563176031989,9.472003193625905,-0.02148891566925297,-0.0038261812779843613,-0.0182778901967457
1681944372.239295,0.5216325793145771,1.632071852558068,9.095479854996496,-0.06368575706466484,-0.013847417519077882,-0.0137654115992835
1681944372.249295,2.3484065796897426,0.16724541205812668,8.161315147577549,-0.0616327984670722,0.022825421304393814,0.0089827453170665
1681944372.2592742,-1.5494186434502066,0.5592405784876905,11.058763726011039,-0.06730031498978697,-0.011734785180044362,0.0073450820904919
1681944372.2693088,1.4946618378859864,2.1173559674023434,9.824046331895891,-0.096905875165515,-0.011670377103344945,0.0123683017131635
1681944372.2792888,3.0660125256481034,-0.10165325555511741,8.53230088095734,-0.0950648732179388,0.021745486415852885,0.0138525840279408
1681944372.2894337,0.8007191681583464,-1.6465292994879581,11.012229185999766,-0.07390033139485067,0.005691844086503425,0.0100123629358359
1681944372.2992706,1.2618114190112566,-1.7229357367037301,10.26206875731536,-0.0681111814847512,0.004153254484956222,-0.0137131010729125
1681944372.3092732,1.1917187921522236,-3.024727028930674,9.856725766180237,-0.047377310311086315,0.003924243731998339,-0.023061939662998
1681944372.3193636,1.0432784186836563,-1.0626884952814148,9.70239958362172,-0.044015880671273724,-0.009971484821116702,-0.0296816762152365
1681944372.3293085,1.3310752093255047,-3.961778192253495,9.464429629490201,-0.023675784492690328,-0.0015381154386320947,-0.0544163893523863
1681944372.3393,-0.2631731823678327,-2.1582674213560247,10.433723981576914,-0.010829896122734056,-0.03158412663643641,-0.0355883139732531
1681944372.3493264,2.990272987406806,1.301912217083892,8.647464395871813,-0.015331044310321852,-0.009450383548586176,-0.0110008764627627
1681944372.359308,0.7051314049070947,1.5781214337069205,9.2282263508594,-0.04751154013888719,-0.0016280066721248109,-0.0091655646997741
1681944372.3693132,0.5823707593393398,0.2085089533505148,10.389008357574104,-0.033867771576395804,-0.013189728730469918,-0.0066285693633607
1681944372.3793197,0.8024466829049023,1.838750881771852,9.553005376041261,-0.055088577937040216,-0.002194510602990771,-0.0035715835715881
1681944372.3892715,0.04661907455373228,1.1310629635594616,10.30525561330694,-0.0695095456157291,-0.014780502708792526,-0.0088698353233984
1681944372.3992882,0.878520910629658,-2.4977217334010327,9.983295203556295,-0.04911528165347438,-0.019759283242209963,-0.0176475375506333
1681944372.4092977,1.2834903704138139,-2.0808206982026984,10.401785806320712,-0.03429127935298443,-0.026522085621821272,-0.0185324988874844
1681944372.419305,2.0233858260967676,-0.07569429092010932,9.591947785694037,-0.04821585118335806,-0.0268184731404569,-0.0246335893485001
1681944372.4293094,4.671759713623573,-1.6750912038143244,8.488087053142445,-0.044920696023837955,0.018838361950806445,-0.0212305552873066
1681944372.439438,-1.0876270842677416,-1.6199802362080638,9.073446808098879,-0.03685026025803257,0.014479484518121876,-0.0224618810775927
1681944372.4493318,-0.7088309935655306,-0.2948453632908951,11.205131630873597,-0.03829717152151908,-0.032852206384532325,-0.021227988562291
1681944372.459309,8.136000601183067,-0.7926691828257935,6.807498183686102,-0.05910878488773636,0.054080978684745235,-0.0676053698721579
1681944372.4692967,3.840182745420224,-4.046677256344203,8.131381189754215,-0.03536121454768022,0.12024093080327063,-0.0950983550015143
1681944372.4793715,-4.358876286648171,-0.4452842182558059,12.307848221434769,-0.03046966039622411,0.02257495773690985,-0.1309367429080656
1681944372.4893854,4.8518242473506525,-3.8182143031351914,9.6080112978568,-0.023641021886624546,0.07565215765870216,-0.1620348106685332
1681944372.4993348,-1.8265672002921716,0.656212413749869,9.408729444172815,-0.025596723561636073,0.05623796599134261,-0.1628419767680815
1681944372.5093453,1.4181143780237004,-2.058573694016908,11.480948524173234,-0.024339401081979656,0.02614862822362418,-0.1746792506042174
1681944372.519287,2.9753752679192673,-3.691266432318391,8.146746221051398,0.009629151462331963,0.07473389483029506,-0.1678406308952025
1681944372.5293608,-1.2354081374501789,0.9700025739454282,10.616669088288418,0.0182575753547987,0.03556298570173743,-0.158900247103279
1681944372.539348,1.2059101777424437,0.6812775903437206,9.541549273676416,0.0002670973230951061,0.040896395104521914,-0.147506357318466
1681944372.5494094,0.6422682242923681,2.112935870414802,9.293444058478325,-0.017797463768634506,0.043099178377300644,-0.1396167289081267
1681944372.5593498,-0.5376704835141317,-0.5658591984889536,11.238923368502753,-0.016040466499947226,0.02363734078577794,-0.1278917502227476
1681944372.569709,-0.5176316015917605,-0.12670922515925961,9.548205135430536,0.005354243576127193,0.005379699979978346,-0.1317621629300764
1681944372.5801375,1.3364964462744526,1.9940248418548443,10.887484059801151,-0.040672040498878015,0.017738816540497512,-0.1153910841408423
1681944372.589296,-2.9498479901280037,-2.949556170848615,10.26166072101533,0.0010241524949104472,-0.03212266784968509,-0.0795935328665427
1681944372.5993712,1.7708771335380287,1.4717952247140844,9.559558188899324,-0.008840954373101121,-0.03454701609633182,-0.0768921684089354
1681944372.6094775,3.8790307204459817,0.03595498776334954,8.622642443306262,-0.03346902170617483,0.019656235120399213,-0.0606262731912783
1681944372.61948,-0.40708384715312945,-0.5942505763706071,9.367365250316388,-0.014803865305366716,0.010854340096184639,-0.0405068743589571
1681944372.629342,1.2564229636826358,0.634658748569429,10.775181578476984,-0.028986353571079225,0.01324766550535286,-0.0337523791554621
1681944372.6393545,0.30184118551464245,-1.582845618316353,9.481139645122813,-0.02188588830003368,0.014465045886681517,-0.0284110374364308
1681944372.6493244,-0.9101006044296385,-2.020744874198744,9.998265260124167,0.017145436587883086,-0.0072872392224860244,-0.0254832069936445
1681944372.659415,1.468721851824149,3.545510279857583,9.093411823118597,-0.03658506411330556,0.0003733622120973943,-0.0115122880402258
1681944372.6693995,0.10523692530114215,0.7269487446663813,8.54593944070665,-0.045755077720960775,0.007089872606850828,-0.009248616321688
1681944372.679368,1.254369137310371,0.53118392071047,11.17390378439876,-0.06406684381874277,-0.006552067520484218,-0.0073565972584537
1681944372.6893578,1.6287844092687327,-0.512259097878672,9.276474621649552,-0.04242312206370859,0.015462229250447629,-0.006014458051627
1681944372.6993372,-0.13079429025902187,-1.874405517458728,11.307705198702827,-0.051510595673646006,-0.011039484901621297,-0.0187414820852926
1681944372.7093198,1.2514787985072395,-2.7675784639914687,8.72899704358063,-0.015420240246512,-0.007903595290236255,-0.0096631535875848
1681944372.7192988,0.8707980033965828,-2.278644116279479,10.914468853669346,-0.013411526917342303,-0.021771689038519892,-0.0044016420456818
1681944372.7293844,0.8605360610982508,-0.5429553504314742,8.785880477281546,-0.003966548687389507,-0.021737376403514946,-0.0086683688300899
1681944372.7394016,2.6090732376629986,-0.37773088473504385,10.170305671324737,-0.017964023521013027,-0.008081530752613217,-0.0126938998314789
1681944372.7494287,0.19086368832911618,-0.5016447828109187,9.22702032487433,-0.0025267684183409834,-0.007406423879887161,-0.0206798344466141
1681944372.7593489,4.268038235895977,-0.38463880282379664,10.558769587548719,-0.016597881650036093,0.020815558565402154,-0.0177406772586754
1681944372.7693243,-0.5641836305533618,0.1366747231395191,8.176318379400039,-0.002967749029997185,0.030700281874801755,-9.849880237643854e-05
1681944372.7793877,-0.4417014943490785,0.6835347231543221,11.206121298381719,-0.014139827378782234,-0.0103070402283806,0.0189470637974091
1681944372.789331,1.4376122085785144,0.43588727811199424,8.185912351336299,-0.037559775664184177,0.023031272083054343,0.0266558442649194
1681944372.7993226,-1.3022085504518917,-1.9701480630257437,10.538215767631316,-0.014404429641526727,-0.005212320879815927,0.0293380905327149
1681944372.8094108,-1.7042871870168885,2.3464264040072362,9.392591865915701,-0.04642648066305478,-0.041547252953410704,0.0041711878415891
1681944372.8193347,3.243281259643356,0.5045458122195795,9.258336759378242,-0.07868305374853422,-0.019218494255093203,-0.0304525505366972
1681944372.8293505,3.1713214661268325,-2.1988558543435976,9.471031256937929,-0.046522253458110494,0.008730760364721398,-0.039644953942602
1681944372.8393586,2.0972516351983277,-0.326782678451439,10.99949924254743,-0.0569595301038187,0.013104903344359722,-0.0446674164000204
1681944372.849352,1.214978336815454,-1.856676009503046,10.452984452653753,-0.036311857349699536,0.008260054188873541,-0.039049093759363
1681944372.8594358,2.3221685096762346,-3.031695271667324,9.967380830898387,-0.012996057313569042,0.01575013816742771,-0.0071870546403578
1681944372.86961,0.18620733798291209,-2.1126664656934637,9.827766394766291,0.004663627227229153,0.006137138606351718,0.0055985963822105
1681944372.8796751,-0.5711472421079792,0.4407785847481349,9.520428004352697,0.0018864384913606339,-0.02485366120166488,0.0023438113543898
1681944372.8893456,3.9756900329169054,0.8347292722269388,7.957341270326548,-0.029415081537632445,0.031901144703820376,0.0086148761597224
1681944372.899328,-0.6731355318783637,-1.2275362982732465,9.886323371396431,-0.0037242356059064333,0.02864742139551897,0.0129756162327476
1681944372.9093163,-3.7640154806471884,1.2237523948030318,11.21378862696567,-0.030415034327587343,-0.04070249716513056,-0.0323898914817026
1681944372.919396,4.329788630235935,-0.12060455432156926,8.791632877032587,-0.038139985959206604,0.013225420790059504,-0.0407346758607081
1681944372.929342,-0.46713457924922014,-3.968736173272874,10.4512080632171,-0.004147763905253815,0.00488648032330414,-0.0311848643782786
1681944372.9393778,0.26158221547801486,0.808968004277847,10.273373958458732,-0.01641892198083365,-0.020065655623242532,-0.0281407303723744
1681944372.94936,2.616421803773116,-1.6127375359653506,8.70325179986441,-0.0181187359125523,0.0063661984058228285,-0.015382430664008
1681944372.9605403,-0.20032040570586557,-2.532667344002026,9.66104351457147,0.01158034884720919,-0.003966610078796162,-0.0022839220787635
1681944372.969348,2.1011073114529455,1.918673943726313,10.064378804092268,-0.014755636184715197,0.009582443228556364,0.0222953882452794
1681944372.9805849,-1.6858364926987068,0.2008515059949422,8.903973966538285,-0.017289306157993324,-0.005362255869955334,0.0158133589115687
1681944372.9893715,-1.1113769424821638,-1.3164510284194144,10.619641667239373,-0.002514180281135037,-0.03843521145205715,0.0046698433265783
1681944372.9993513,1.886265813553838,2.816986207149031,9.100541466756306,-0.049258368686848755,-0.014658957940617095,-0.0062853918957761
1681944373.0094323,-0.9597871722924448,-3.4868843576191653,10.405817702951525,-0.012547174281118924,-0.04373387120393089,-0.0376501541200331
1681944373.0193825,4.139483273859994,1.5705624406065968,9.535747770856695,-0.03867230449418474,-0.023038356634388104,-0.0309690173330954
1681944373.0293388,6.354276861924248,0.18231505027833464,8.4189288701582,-0.05800736510446613,0.05110229536415544,-0.0079329453024319
1681944373.039388,-1.1304060635204911,-2.1636934905493566,10.852350850812504,-0.022579635200979335,0.007818717302672121,0.0004622244427674
1681944373.049384,2.3897464495559535,0.5584957503586186,9.983613758769472,-0.038135512296298725,0.018995680338753883,0.0039476729848184
1681944373.059373,-1.0151224593366035,-2.4891290499542227,9.953104005498643,-0.02648105132441503,0.009104852249591743,-0.0007152796338549
1681944373.0694532,-0.926109094145708,-0.7148913365673785,10.874589669558706,-0.011272412912084586,-0.042188755241170786,-0.0057291888247481
1681944373.079439,4.612919211783864,0.34841448521364365,7.827043960870469,-0.03858436867489812,0.01754501757783427,-0.0158181871834448
1681944373.0902278,0.4521986368575048,-3.256985689746286,10.471007751360872,-0.012141028591494777,0.022383552529270656,-0.0138900626066378
1681944373.100815,-0.5203754593913694,-0.7331488030025548,10.640745593500025,0.0006452994504200758,-0.011991542808754085,-0.0035755044396272
1681944373.109403,1.7540266584368849,1.150211328119305,9.054937700069836,-0.021402097338371315,0.0044310354935214475,0.0072394975845464
1681944373.1193433,-0.7010879871142945,-3.1229551357588377,10.116082851301396,-0.007243398601965495,-0.011364812520404112,0.0357596602675267
1681944373.129342,1.6927679362775918,0.6893009342865546,9.550130691288677,0.016491947975812046,-0.019903000347958753,0.0526102807757207
1681944373.1393788,2.6721685172521226,0.6988313473829042,8.713331747895092,-0.03866960984997502,0.03404566546280225,0.0321141582366773
1681944373.14947,-2.7405912450816685,-0.45215491789413154,9.8509817483617,-0.013469366305495131,-0.014552249819556185,0.0165958570700832
1681944373.159408,1.4823669203137235,2.3614547436799485,8.972443540401393,-0.0565493779970587,-0.0056617357871682076,-0.0076413984957388
1681944373.1694582,0.8064142374791387,-1.7760709088427746,9.235633323250521,-0.038405734679771035,0.017969071571821312,-0.0259158119174889
1681944373.1793497,-1.4688697921168836,-2.3551583873119037,12.325277201470257,-0.025286851708545888,-0.03724868496493474,-0.0342156935098818
1681944373.1893733,2.187785175359958,-2.0510050384815792,9.36628432478656,-0.00662780544984605,-0.0217583493991985,-0.036394951081579
1681944373.1996756,1.5893677540227018,-0.866762069814586,10.228637251227935,-0.023504573979908384,-0.033787874372346566,-0.0322231623891047
1681944373.2093492,3.2165047371654714,-1.7780151075144313,8.602010812082032,-0.008394374073930136,-0.013469687480968388,-0.0140075452241352
1681944373.2193444,2.0411116386789683,0.13253805042264147,10.286413594968444,-0.006122046668905957,-0.017496187547282355,0.0075290820945748
1681944373.229343,3.9103992795447096,1.7035387708055145,9.345801798945518,-0.026550521073557966,0.01843185672892657,0.0145638090011426
1681944373.2393534,1.0954759208459655,1.1659910683186534,9.28182375013515,-0.044880829530873925,0.030658626217270484,0.0248964455363103
1681944373.2494185,-1.707743631259822,-1.8827606504260475,10.795676261226971,-0.019862535012845097,-0.0013457299027312185,0.0183711246040412
1681944373.2606082,0.4902502736143527,-0.6287478848335,10.445862235221014,-0.028235549075956715,-0.011386029736500825,-0.0044935188803127
1681944373.2693748,2.994385223158616,-1.5497280032231737,8.96178663967254,-0.030480696479858568,0.01692599269159732,0.0012189077947051
1681944373.279364,-1.1505804338887737,-2.479133579706803,9.202824044335811,-0.007814706125931431,-0.004948136073408735,-0.0016214006196013
1681944373.28937,-0.9218188445377206,-0.3381853627558809,9.532651519654626,-0.015209431004496619,-0.023942802308596776,-0.0123349234077385
1681944373.2993586,0.3669805758183085,0.13295523356370156,9.83504618245756,-0.02969708129296893,-0.030244007242620295,-0.0138379783916524
1681944373.309412,2.0612450102701074,-2.954494073628536,10.173530791634656,-0.00037341329398688135,-0.021123597352456478,-0.0123243342700651
1681944373.319404,1.3858969102534735,-0.5905442050253313,10.187767318232984,0.0034773189312891847,-0.014277384596751245,-0.0145795654121092
1681944373.329409,1.8033280707002695,0.42512695681462576,9.75357018787223,-0.015951722921931706,-0.006086523958879561,-0.0079495181876472
1681944373.3394487,1.597259117491803,-0.05653118155014784,8.178394058344628,-0.014115295599658313,0.01643760958233474,0.0077595685993083
1681944373.349394,0.04130533280937279,1.827638486632892,9.989781865136468,-0.03303318298105521,-0.009217008954972452,0.0146499907982298
1681944373.359567,2.384796114741828,-1.2815672218867067,9.645663130320182,-0.034660914708820705,0.018732022824810252,-0.004867456535553
1681944373.369373,1.469560078413335,-1.055218773796886,10.396000539734896,-0.02643575024864931,0.02115715834391095,-0.0019122370600006
1681944373.3795009,-0.0052463081409361905,-0.9946979413148965,9.082932665959893,-0.021534683369617585,0.01887930534342638,0.0012550772202895
1681944373.3894465,-0.9672571100688091,-1.1753375110503976,10.048389520351897,-0.03377233851942884,-0.001419928495922092,-0.0033967482473007
1681944373.399371,-0.520609529740741,-2.0414082656036814,10.001191047300102,-0.008489627533037584,-0.02167427081238368,0.0032023932703533
1681944373.4094274,0.16013589826325908,-0.24679862331512684,9.822969442946992,-0.012612307103493382,-0.03466646263621426,-0.0102917302015474
1681944373.4194465,3.3897223159335788,-1.3730724975627975,10.103235991462991,-0.020739025773239023,-0.0003673105758852092,-0.0145276404532841
1681944373.4293716,-0.3457509661229804,-1.2451380237375518,8.917955152821756,0.0019709707956992906,-0.009628937831931415,-0.0041063266421905
1681944373.4393902,1.1330971697498686,0.49648043630818944,9.63905438557611,-0.013909052201727114,-0.007836072256148347,-0.0019403599749556
1681944373.449439,0.6977536749784351,-1.0783682563711763,10.125703940497244,-0.015520327138689581,-0.003522766738435388,0.0050993988674827
1681944373.4595094,0.5966053637941579,-1.8940590709703267,9.947213665768132,0.004376596102194764,-0.014807262845880789,0.007536333837802
1681944373.469387,3.1248083935888973,-0.0805039701530552,9.286457761129984,-0.003539962958244844,0.008379491071297927,-0.0053309361997297
1681944373.4794152,0.9909921746666824,-0.9231005982017075,9.580368655607383,-0.007500309172484053,0.009385971113102479,-0.0218974697950533
1681944373.48936,0.2876178807473546,-0.06773192662521782,9.796145459122753,-0.00356372766522531,-0.00691922571573652,0.0005765182117694
1681944373.4993794,-0.9217736806396853,2.6311338228403236,10.142664218533367,-0.03858340152955888,-0.04509010614952555,0.0143638568383404
1681944373.5094151,6.158788330540658,-1.240068439054055,8.716764596579699,-0.04445114165013418,-0.00789468785746248,-0.0272760159882954
1681944373.5193648,9.385657526458555,-6.125647759548128,7.03622903574559,0.0019946079801491097,0.11461917198912953,-0.0499323058489016
1681944373.5294724,0.7945130300311327,-2.0238634008864786,10.898406476649756,0.02032597380187995,0.10929367973280563,-0.0632921468082121
1681944373.5394175,-0.30573190862005234,-3.2313524303826298,10.080457064573261,0.05292158941462702,0.08691520979777993,-0.0597789782646349
1681944373.5494027,-4.678131432454131,4.546819423408085,11.24244555839921,-0.016036924769174246,0.01840636638915392,-0.0193863484624079
1681944373.5594313,1.1767463997547443,-0.19847542585157754,10.892294630276805,-0.015411983574699736,-0.01511030066720941,0.0046194313012757
1681944373.5693853,-1.623232488831216,2.666251591343416,7.929641449965799,-0.03963139308447127,-0.018288962363503077,-0.0134767351287654
1681944373.5794098,-2.0751836585502765,0.07444182206716557,11.353536545646662,-0.07293763248597639,-0.08488656459933809,-0.0546805198851278
1681944373.5894215,5.3622809339166615,-7.4608617429740685,8.472603012853412,0.027859185726990515,-0.03344918741696297,-0.0655860539141348
1681944373.5993967,2.371805565244851,-0.41718442796610405,9.685926129480695,0.018188059882492617,-0.0193036823198257,-0.0629835586610487
1681944373.6094203,5.275507300916929,1.5311043359789158,10.216181892544789,-0.011913026809157035,0.019909360604368345,-0.0508096005383185
1681944373.6193795,-0.26893913946469006,0.40830792560844315,10.453949874072695,-0.022629842358464592,0.014671298335198046,-0.0218313794198683
1681944373.6293695,0.25302067722293153,3.291326729904074,10.900675858070404,-0.06451633342459223,-0.024876319534333963,-0.0023584311443618
1681944373.6394014,5.2092475898439154,-3.228011659849094,8.459673591297381,-0.040056599941393184,0.04151095355063819,-0.0133164964231899
1681944373.6494102,-3.0942458479553197,-1.8825961735049699,9.983206013535348,-0.0013093488976602186,-0.008604258408168764,-0.0170978020492247
1681944373.6594875,5.072625567915524,-1.3604876430941022,10.834178577662207,-0.016624048023354498,0.019737884166682634,-0.0262574340763739
1681944373.6693938,-0.13722447324168333,-1.6536663549636605,8.143722378411065,0.016665261726940366,0.03055789749819651,-0.0295599188271216
1681944373.6794095,-2.7698213967742715,5.6283015886474805,10.997978482632051,-0.06633175463273507,-0.03972947214160535,-0.0135094310703924
1681944373.689412,2.576598877897776,-1.077926984572352,9.43609667737805,-0.07851855855760899,-0.01408256274395306,-0.004991941767489
1681944373.6995173,-1.2327935799812582,-3.572784081847201,11.402333586304668,-0.024965851305044497,-0.06095958316821893,0.0025673746399344
1681944373.7094252,3.742991792954363,-1.0678425438878667,9.636325916236125,-0.022051497873979264,-0.05224466483808063,-0.0090737726154974
1681944373.7194006,3.845269672027977,1.9476406837583995,8.15942718033346,-0.051851965352680385,-0.004405567773540336,-0.0025003558571687
1681944373.7294085,0.2879535795100539,-1.8140843468759515,11.645891311332143,-0.044823593050494964,-0.034341468104438125,0.031762485244567
1681944373.7394686,2.09827125723237,-2.7451951431141417,9.653864641954765,-0.017238797677612105,-0.0317085981413236,0.0343753423926183
1681944373.7494268,2.04949293747595,-0.030885870104282998,9.723672554970772,-0.0030799428919888044,-0.025983698351607704,0.049988019132311
1681944373.759508,1.2627567863107267,0.6308395303846821,9.427753854103445,-0.03990300472371193,-0.03345883319266836,0.0504648041364499
1681944373.7694862,5.109005688436008,-1.8565618986707513,8.562119045733683,-0.005634000845680693,0.008751787301719674,0.0513679970440217
1681944373.7794445,1.1390590776229261,0.20698608204989488,10.45095370948244,-0.03402611206140816,0.012361089851541147,0.0515875731047936
1681944373.7894363,4.1081293082772685,-4.133304350624628,9.949122766347575,0.008280303683181656,0.03341618618584889,0.0653715569910355
1681944373.7994137,2.713868628608668,-1.6349478581627015,8.939331539425792,0.02184866380565545,0.0714095825016376,0.0794352803763696
1681944373.8094137,-2.1502978789345253,-1.0858663122505026,11.332103741417342,0.02390473278897237,0.016216361172939238,0.0692912701901742
1681944373.819512,-0.05785971811611846,-1.4293280416188252,9.470785486081754,0.02084666385437912,0.009378026715650748,0.0654807377991029
1681944373.829438,-1.722658917005329,-2.05215283482986,11.359570309442587,0.032557079319314966,-0.03444409568127479,0.0560500797268697
1681944373.8394234,-0.21583870943920033,-2.6695717349948715,9.457491295990536,0.049525636966820684,-0.052006142004300634,0.0276897240814515
1681944373.8495278,2.439597374117232,-0.4512737522000084,9.211739888410435,0.05233754996681578,-0.036771902593730865,0.0262724839535304
1681944373.8594384,2.438449469919644,-1.8496292368199279,10.120433483050052,0.05372499513303197,-0.027612879695093188,0.020858748668129
1681944373.8694224,3.7173845947745474,-5.4675454783641735,9.006148915102065,0.10415015358726126,0.01253285712130216,0.0122040406253882
1681944373.8794951,-2.132982079607409,2.4266940223192224,9.601284937505836,0.07105815207539734,-0.03166686782880421,0.0065399490681239
1681944373.8895247,3.7040477287620264,-2.270937986333559,9.701000617338236,0.08214314123669017,-0.01218153707558531,0.028361230009491
1681944373.899708,-0.2975366200361259,-0.617501921949435,9.724817243262187,0.07976287890651483,-0.0222837753786814,0.027893929594452
1681944373.9110098,3.679833864730267,-5.952873825733933,10.56681976221759,0.1459548351445259,-0.013799104859960854,-0.0022369540843418
