time,ax,ay,az,wx,wy,wz
1681944255.212777,0.6589103576376396,0.08913684865408027,9.790293745122664,0.0024813530273703572,-0.0016438653148650206,0.0001707703026705
1681944255.2227905,0.8077183494367901,0.30245550238500357,9.77761102099972,0.0011588737715048484,-0.0004897487440054124,0.0021198591252551
1681944255.2349613,0.6956345054483594,0.18307170638820122,9.797815526913345,0.00011915018623125676,-0.0016483247893844854,0.0012477830436774
1681944255.2427137,0.8400060538834783,0.2206972920392714,9.727829452207377,-0.0005469268744333571,0.0008472404955212112,0.0004397626884975
1681944255.252804,0.6767841026091602,0.20728513554895983,9.824039435986878,-0.0016272703812569382,-0.0007184904750147045,2.1408280613373357e-05
1681944255.2627454,0.7520782092958243,-0.046586740269081016,9.692603263607364,0.00307294047861775,-0.00021857256628157992,-0.0002140218007615
1681944255.2727492,0.673215566951736,0.24280700383924306,9.82125774693954,0.0008127922346446822,-0.00023682794605285587,-0.0025184998835674
1681944255.283349,0.8340739572227928,0.14028508001617906,9.711875538111626,0.0018353728061291524,0.0011572100621132196,-0.0016221726860157
1681944255.293927,0.6850889431898414,0.36103668559430996,9.871122374874512,-0.0005294257693576673,-0.00028672909374452744,0.0006238004111447
1681944255.3042123,0.5891818122903231,0.10124518721936131,9.835408864139671,4.1666134080654955e-05,-0.0029670880925153184,-0.0008029948535612
1681944255.3131027,1.0730119156196856,0.3454246235377306,9.652083525029475,-0.0018146663367225153,0.002560868806114147,0.0012816706707463
1681944255.322745,0.45535033738542496,0.005867229309713049,9.874289024054113,0.001671483503681948,-0.0024231651324161663,0.000234491509641
1681944255.3347356,0.9367073519140109,0.31591200342468545,9.712562218274282,-0.0011515650432034705,0.001730881475148149,0.0020978845400032
1681944255.344993,0.5319996495759978,-0.024162135403333482,9.795385961522607,0.00207603438205583,-0.0010888040149154865,-0.0007784214417687
1681944255.3538406,0.708698091496005,0.3225183257918782,9.828590124345624,0.0004719352703543981,-0.0018588015181886278,0.0010179291398027
1681944255.3630588,0.8472889005615449,0.38048971424841077,9.79529316761675,-0.002361525382638443,-0.0007322793735749304,0.0027613548713498
1681944255.3731704,0.7261271611538019,-0.00604192991665116,9.710600853308039,6.401573155284734e-05,0.0008680848831016482,-0.0004572953644446
1681944255.382877,0.7287945780543074,0.2478409442393585,9.803140727040983,-0.0011213885613526164,0.00033055028713222304,0.0004129554995098
1681944255.3927715,0.702050009480476,0.06243342737393842,9.759877607139694,0.0010333129817136806,-0.00018389750499796587,-0.0002423333085379
1681944255.4027238,0.7737616963601933,0.2120463973029652,9.77471365991396,-0.00017256682729339238,0.001293899604754784,-0.0009583543601683
1681944255.4127295,0.6467166566834824,0.13564458486869818,9.818793026495833,0.0005646932748330989,-0.0010336496310057288,-0.0011747764970413
1681944255.4227495,0.7783487153769931,0.12152088485766781,9.729033853768168,0.0022317539155322893,0.0004639068825533448,-0.0008529291103831
1681944255.434914,0.7263975892168226,0.2492646598955204,9.797468510405746,0.00029161938262577754,0.00045238150681471006,-0.0011568832292458
1681944255.442783,0.6575903441865734,0.20647710904661773,9.818166790102138,0.0009498849992184165,-0.0015477214987945102,0.0006573093973794
1681944255.4528,0.8709335397675024,0.2965074943116854,9.727679342867534,-0.0008781192293686393,0.0016113069014381488,0.0020628454489861
1681944255.4628172,0.6335170370672168,-0.016457930300265013,9.76797459552589,0.001188285750395075,0.0004326414774320621,-0.0024220022919825
1681944255.4727628,0.7909781957368751,0.2932678917580125,9.777308101418814,0.0010374455712589053,0.0006639559933286167,0.0013327246101335
1681944255.482749,0.6134902889903427,0.23235576475769631,9.862908812513488,3.6823698799132366e-05,-0.0016859559695875449,0.0016486181243318
1681944255.4927597,0.751500685240243,0.12946303323151676,9.754643434183208,0.00044213271536053245,-0.0011569520592519128,4.041645794595344e-05
1681944255.5028708,0.7425592450990157,0.1042303703787944,9.733582569206774,0.002226178447356011,-0.0002859800994860008,7.284196678037508e-05
1681944255.5127535,0.7902700689039289,0.2554925440321642,9.775339124045672,0.0006656437428749306,0.0005931919533463306,-9.40549967116608e-05
1681944255.522747,0.7514230444674662,0.24784737515593852,9.780383167209528,-0.0018530419716229604,0.0017796916268358034,-0.0023769151035002
1681944255.5429215,0.7233701056864741,0.14595606238514902,9.77448530904269,0.0009543614011685896,-0.00023159330468644205,-0.0001689377554929
1681944255.552815,0.8076056846076649,0.31272283205458773,9.783083042645723,-0.0007324608620485389,0.0009489420581530734,0.0020218937110849
1681944255.562775,0.6161680001132408,0.0866954018882888,9.831639984171106,0.0006038125893547012,-0.0015317167655689685,0.0003276333131589
1681944255.5727718,0.7339694011454434,0.1936695878157571,9.761765827501998,-1.831881657854179e-05,-0.0015280062810834045,0.0002512510086172
1681944255.5827675,0.7666887287197716,0.2109688709902061,9.762448580794224,-0.0010505855794673195,-7.345927912128723e-06,-0.0005306817206791
1681944255.5931158,0.7977380603893984,0.1656662690315159,9.728555517186683,-0.0004344539285459775,0.0009679495128745976,-7.54483358240618e-05
1681944255.602938,0.6649115834314837,0.22224549254673004,9.829706669035387,-0.001451062842661838,-0.00020218037171666065,-0.000198756492441
1681944255.612806,0.6921186103783945,0.06957662221035048,9.774316492739368,0.0010694672446434868,-0.0010943844932464883,6.684972091997726e-05
1681944255.6227782,0.8531696354539547,0.324239344019475,9.760557935285156,-0.0008162796488531056,0.0006263256422876604,0.0020174041541987
1681944255.6330378,0.5289910036083662,0.0827834411069456,9.857588872404596,-0.0014719470138254344,-0.0015440018492413085,-0.0030668509739688
1681944255.6427822,0.8984449954368241,0.17570665659549523,9.678899805696581,0.0005963583515446913,0.0001535928459406756,0.0004177831264906
1681944255.6531055,0.7433519426155295,0.02697785924379614,9.718691611692089,0.0032457921198044163,0.0008215223080565329,-0.0006756027310392
1681944255.662801,0.7182440822622624,0.38998187355170366,9.858884357624543,-0.0005927535657708669,0.0005086079933249786,0.0001223695848831
1681944255.6727867,0.57922257555565,0.16055417569699185,9.857118316268474,-0.0004407484011247803,-0.0029976384411152125,-0.0002497738774171
1681944255.6827736,0.7112799253532319,0.016637168432859784,9.731359697189985,0.0014095943438672907,-0.0016881895382645801,-0.0035384731914154
1681944255.692865,0.9074142837794933,0.515528084122264,9.79461109974691,-0.002409216185976479,-0.00016716483621096964,0.002430181802506
1681944255.7028332,0.7075857374916779,-0.08958466950700035,9.70388670409612,0.0013436540067401762,0.0002940238377093933,-0.0014240086625567
1681944255.7127447,0.7122291207897655,0.33600906705348405,9.839466110760197,0.0001414965538502254,-0.0010269470941041048,0.0023623862921022
1681944255.722891,0.7758012766388854,0.17902626648456688,9.75030260587735,-0.0007469908540674576,0.00017817736136612126,0.0012690054404311
1681944255.7328377,0.8295338729394014,0.14722698647515348,9.71292266860202,0.0007733241864436042,0.0022617292746763312,0.0023411643028021
1681944255.7428825,0.6676544925145294,0.1434177197344483,9.78626005270281,0.0018059546833419217,0.0007075581317979062,0.0026566759019852
1681944255.7528255,0.641624006302623,0.024038827202977887,9.773712235519286,0.0031992330576832238,-0.0002621637155805346,-0.0007646057370356
1681944255.762883,0.6268167371420577,0.2957973922677525,9.874866239575983,3.2752868977140327e-06,-0.001437475790554793,-0.0024234989273599
1681944255.772753,0.8099894998066077,0.34011174316649395,9.810472309489066,-0.002290376053422158,-0.001086941664142145,-0.0005686782847396
1681944255.7827623,0.6567118052116009,0.03249013062482697,9.763338989885339,0.0017471025430842086,-0.002800558841485584,0.000909881693101
1681944255.792771,0.8123871614281217,0.14994753110001557,9.719176424740526,0.0019400667871454541,-0.0007050694980293577,-0.0001000096404231
1681944255.802756,0.8783641036959362,0.2162048617270469,9.714245964103217,0.000871662928830274,0.002245718237924158,-0.0004807423415831
1681944255.8127692,0.6256697239107982,0.19643273101017059,9.846866006704646,5.8422294898597353e-05,0.0008792721478559012,-0.0020506017922661
1681944255.8228283,0.6921566973404789,0.15012947536854063,9.789934563339347,3.3080540514145596e-05,4.6278543418832603e-05,-0.0031097090418687
1681944255.8327742,0.8343799651894087,0.23633910285018628,9.74356286269046,0.0010120921403986168,0.001204128141604013,0.0003436492674746
1681944255.842809,0.6970728393148,0.2773153704188413,9.814046957706577,-0.0007875853408908651,0.0009124270820308906,0.0003417730017327
1681944255.852842,0.5955940282372366,0.13008120024585232,9.832861413687674,-0.0004851021417112463,-0.0018468812225172944,-0.0011032558127543
1681944255.8627565,0.7492452338285278,0.22349398892770353,9.789594655187956,-0.000507811816989685,-0.0015123549287968793,-8.587321147834198e-05
1681944255.8729386,0.7546794484020192,0.20292541022889143,9.773539610548236,-0.0005666755490533392,-0.0015514761046512156,0.0008413419977524
1681944255.884382,0.7504022415058939,0.051496438031581916,9.708221954370524,0.0020808868990625008,-0.0005098704319684587,0.0001279645052501
1681944255.8929791,0.7243187540974965,0.41396471548898733,9.869896427928357,-0.0016626517635968997,-0.0006741776587254235,0.0006867426831969
1681944255.9029036,0.8947971716429036,0.1054638478439134,9.675429382857976,0.0003832384386963048,0.0020449372989355093,0.0012314022437431
1681944255.9128988,0.662284154810869,0.26589368550990516,9.838158839492506,-0.0013210647948358647,0.0008900769514027778,0.0014314221893665
1681944255.9229016,0.6553062078571164,0.14206710774265818,9.798674537969054,-0.0005875382164760854,-0.0006324436382302412,0.001568919176375
1681944255.9331186,0.8139673450761671,0.05272617748398827,9.690952540900666,0.0011741495668589413,0.0016124152660766835,-0.0002043486188403
1681944255.9443183,0.6469851176351966,0.2521373010028807,9.855737240004014,-0.0007741817701658364,0.00017557936489067468,-0.0009922342456183
1681944255.9528482,0.7306345136585509,0.13524118445634314,9.75691134148439,0.00047603454053264313,-0.0004752326340261751,-0.0001410068094036
1681944255.9628875,0.6800933712521793,0.17284740670383694,9.784887526713232,0.0011417310994779539,-0.0014359803251342636,0.0004900326871075
1681944255.972843,0.7289696079136532,0.3579520276410514,9.840081306540815,-0.0026807767189575343,-0.0013860704143492197,0.0005761051702075
1681944255.9829202,0.8728231252444412,0.01534446045646222,9.651199843123772,0.0005043440684220382,0.0013676558624810876,7.465676523233516e-05
1681944256.0090244,0.7060162206755994,0.2179073937715961,9.808437484943473,-0.0010125952675070426,0.000327943105446688,0.0005995877704345
1681944256.0112765,-0.02890140018651974,-0.1991607899551127,10.070153501912733,-7.04541249361085e-05,-0.0028490144991190776,-0.0009989290579459
1681944256.012781,2.0703268519241402,0.20888758853760306,9.057483041368062,0.0012575985700189617,0.00058237481546358,0.0015159932058532
1681944256.022787,0.5744001763418294,0.2149541434399863,9.868706284112948,0.00037508412777848796,-0.002298392797052379,0.0010972920258292
1681944256.0328624,0.8152194523057369,0.22058375815716172,9.751036100981949,-0.0010863375651303183,-0.00047486134050794685,-4.601481717591421e-05
1681944256.042811,0.7267589384488736,0.0514189845066223,9.725389111740835,0.000819126459735313,0.00043969526633746113,-0.0018699252127907
1681944256.0537806,0.7743823334826033,0.13897586398322118,9.753375490521284,0.001428593485150932,0.001497673041952464,-0.0023419155354848
1681944256.0629454,0.7378422162902649,0.27042679406318854,9.815069929441332,0.0012531227479238556,0.0006270810811359415,-8.885705259208815e-05
1681944256.0727973,0.5421153861529895,0.0961645346991819,9.850535859627733,0.002207929246991458,-0.0025919438648553113,-0.0013003048102608
1681944256.0827873,0.9181524768509449,0.1905106189915703,9.68637637117006,0.002196733871326429,0.0008100102399091315,-0.0008853125932863
1681944256.092856,0.6871576582531113,0.2811723382190812,9.828611683334776,3.326989298288994e-06,0.00039982620891927255,-0.0009076696901819
1681944256.102801,0.8183512300782064,0.22803025277826447,9.751658351094623,-0.0006747124820828391,0.0017580659509965338,5.454694970930679e-05
1681944256.1128335,0.7462392862458738,0.22818863948996707,9.78841805606416,-0.00147118271959706,0.0018236396569540716,7.468540340150459e-05
1681944256.1227915,0.5108970988197381,0.0021935873453432725,9.844081630500414,0.0018700164184911265,-0.0021929555040168395,-0.0006327735341391
1681944256.132872,0.8829939052022674,0.3749308041809222,9.7572867541483,-0.0010662095339411426,3.365131602431017e-05,0.001746599829371
1681944256.1428082,0.7082830469678405,0.04400504462271519,9.74401200338077,0.0013336045868004864,0.00020013881210952455,0.0004162769450568
1681944256.1529002,0.802880859353117,0.25968646737269485,9.769085392071965,9.491230571882531e-05,0.001589708154838323,0.0011397485772841
1681944256.1637309,0.6520947506426095,0.1940140339108825,9.829517766612122,-0.0008784785583995603,-6.963861785744215e-06,-6.650007211183445e-05
1681944256.1728334,0.5916257850513524,0.23512260989451078,9.86431748251882,-0.0020173134811846175,-0.002014154297048955,-0.0005455751984617
1681944256.1838725,0.9511593521696129,0.12628119303662197,9.643774661084512,0.0009520840359117369,0.0018925732710575434,0.0017849562222773
1681944256.192835,0.6290991703321768,0.27112029537136684,9.87058898501118,0.0006246782050324539,-0.0008417985930657548,0.0040473268286087
1681944256.202984,0.6483880053234903,0.10826603099211157,9.80250954476257,-0.00028803020894249866,-0.00118936186871801,-7.842402786528008e-05
1681944256.2128432,0.8921614446776803,0.009870402529047013,9.618778875115332,0.0033854814896991667,0.0021134938667779677,-0.0001659351715124
1681944256.2228577,0.599180941778241,0.3090572771722787,9.89218856312811,-0.0014239100748748288,0.0009384940436722629,-0.0040492174762538
1681944256.232951,0.765549274446304,0.22031228694290142,9.774787031392584,-8.27618066101978e-05,1.0514052171540415e-05,8.061362083489759e-05
1681944256.2429285,0.7588798783200583,0.26466925859565055,9.789632067739626,-0.00046534432863949997,2.5441672164316214e-05,0.0024670679972269
1681944256.252827,0.7150667519912589,0.09584340387904058,9.772266397696574,0.0009405611690820994,-9.59893983977789e-05,0.0015480191481993
1681944256.262839,0.712137863013247,0.22310057239715733,9.803878903287192,-0.0016160826456129182,0.00045867870441860126,-0.001655357804825
1681944256.272829,0.7407093282378268,0.21380599355456043,9.783341029140272,-0.0015155051097480794,0.00042777163468751513,1.0607499884913996e-05
1681944256.2828383,0.6874340933920395,0.07610604837897836,9.76640439299318,0.0009010937287125017,-0.0005903577610622572,0.0003179408062943
1681944256.2929037,0.780744793227376,0.39197618070106305,9.822132683900993,-0.002374579641433918,-0.00015190269560823484,0.0021776171901957
1681944256.3032928,0.6590011437443781,-0.16831641835123382,9.711879114585493,0.003637335761414512,-0.0006819912445569496,-0.0012414352118275
1681944256.3128064,0.8244550640333926,0.4109944664101377,9.792740517808955,6.585775586528727e-05,0.00039128032607494643,0.0012079100974598
1681944256.3229425,0.6381177962406316,-0.029767353044939462,9.75472193499039,0.0030483482651972515,-0.0005035247430825297,-0.0010574193752608
1681944256.3328683,0.6773333378544442,0.20237914649222247,9.81704613834974,0.0025245630105874416,-0.001421420433070267,-0.0012913778505525
1681944256.3428802,0.7952994501010963,0.3150274206670752,9.788702533625669,-4.364318641815212e-05,-0.00035750901883977273,-0.0009076694573513
1681944256.352852,0.7301010412466219,0.14405518851514973,9.769114895327162,0.00011019091213332388,0.00026350205515670753,-0.0021426036569527
1681944256.3628602,0.807030556053063,0.19561978060547622,9.748151319880332,0.0018156395353486061,0.000345830839701157,0.0012038139661536
1681944256.3741355,0.7616802282956026,0.30878303360095366,9.806447844160031,-0.001426861181514899,0.001478676728773238,0.0006904659944349
1681944256.3828175,0.5364039185014376,0.13983952791755105,9.878874265983276,-0.0015523874335937882,-0.001458701034830785,-0.001107720573177
1681944256.3928542,0.893715652873863,0.19199423750564998,9.688299451689902,-0.0005849460472260575,0.0011195702913233813,0.0010656247881935
1681944256.4028895,0.6772920743879415,0.05222814214873833,9.75968135987355,0.0010206837443877956,0.0011463805768408026,-0.0009561096399328
1681944256.4129004,0.7379548968289849,0.2439931153324831,9.787404832371823,0.0003087770611926017,0.0007008381589865256,0.0006387050647982
1681944256.4228945,0.7911522854226247,0.11387501410536292,9.71426720954544,0.0013607627960541915,0.0023392336355121026,-6.055183124308722e-05
1681944256.432908,0.5204327672018678,0.27954934868410086,9.92622353539584,-0.0004143163616605478,-0.002229465015945618,0.000427832911978
1681944256.444109,0.8759887167091536,0.12078945710643191,9.692031380904938,0.00014594404284537532,0.001314022139837949,-0.0013342254410735
1681944256.4538124,0.8194894032226289,0.2475629885302056,9.74235270266922,-0.0007056620045727795,0.0031673671703386585,-0.0004401231731525
1681944256.4628382,0.534904554364203,-0.0009177752643575139,9.817725098450756,0.002251121045947847,-0.000518077144010393,-0.0012358945410004
1681944256.472996,0.8995404486794092,0.2045849853053308,9.697387094044222,0.0016736635819432175,0.0031602963638482254,-0.0015339019323936
1681944256.4828424,0.6468057642517037,0.3385867405575206,9.921201239241208,0.0007014330808004721,-0.0005944748530748292,-0.0054260759230009
1681944256.4928467,0.7913885132638766,-0.32711595795887816,9.575440969536178,0.002779786550641858,0.005268213370582368,-0.0359197828534296
1681944256.502869,0.9884091356665049,-0.3419442041837652,9.886076484565738,0.0034664920975151065,0.011597395865604281,-0.0512409705284289
1681944256.512904,0.6727381309849415,0.269293954298997,9.792417691285557,0.00432346877357077,0.008895205736283128,-0.0449539657297781
1681944256.5230184,0.29371134072060984,0.3591469999381536,9.816084405897644,-0.0010309641774390766,9.147210593494668e-05,-0.0344185281160525
1681944256.5328689,0.9569938560565746,-0.29746887540022593,9.83820192384391,0.003021495900793755,-0.0031334144553040494,-0.0220967504742792
1681944256.5428815,1.3697224956061054,0.16198302523709618,9.609346041616453,0.008514916562551211,0.001597153138995405,-0.0113827615591934
1681944256.5532005,0.6291076679114889,0.7187434004924118,9.837856905422115,0.0038703383617375185,0.0031305403830661957,-0.0152605093631199
1681944256.5628717,0.25593318242963153,0.08954688954901222,10.054410742605404,0.005713690184909068,-0.0008876388722921681,-0.0270506694528511
1681944256.572998,0.42739980142757006,0.4941590863483188,9.827962790957589,0.0034493256626046153,0.0006539388014289747,-0.0354079130652598
1681944256.5829928,-0.06413355343023724,0.6617160943105787,9.983804776831022,-0.004665796443878771,-0.005571315466211537,-0.0373279686632803
1681944256.5928426,0.8318069969244887,0.07061604556778675,9.773505296554767,-0.0029313264425682916,-0.005389821239556006,-0.033688360041683
1681944256.6029155,0.8939581971699361,0.18242141075371254,9.63443027283607,-0.0021164549222378276,-0.003330543909219806,-0.0314822543028048
1681944256.6128716,0.4631610776442793,0.13582291037550542,9.96995944253973,-0.0061691747667327185,-0.01138594882965338,-0.0276179100933722
1681944256.622837,1.558723213640944,-0.9576506995346704,9.508158999034602,0.007632466459454619,-0.01118391392725968,-0.0182676847639731
1681944256.6329713,1.4247677083699937,-0.5253864957352687,9.69559110223456,0.012329418302191414,-0.004739752744142824,-0.0251522726926258
1681944256.642862,1.548523607689935,-0.09475640287899403,10.000858123106914,0.01657833672530276,0.0063446139446963635,-0.025627150348132
1681944256.6528924,-0.4379790812847553,-0.2713825009038983,9.844918106881511,0.012744268670618784,0.004318257258506572,-0.027668758443301
1681944256.6628573,0.8392331769650442,1.132032011433468,7.9638206357301655,0.014800339866263236,0.007604755725306681,0.0229522128042527
1681944256.6728816,3.5154054653580964,1.3306985364530795,8.963441956011316,0.01282697943671357,0.059767944422666947,0.0338984903332539
1681944256.68285,-4.764404485498605,4.878463148104573,10.702758203535986,-0.02220238906566386,0.016609238323588862,0.0367217500147172
1681944256.6928377,-1.9778490161398132,0.3293255589063408,13.759364539260266,-0.03815964644398318,-0.046339027224068574,-0.0375974859657934
1681944256.702895,1.423139135281248,-2.4728318220455083,8.308230429505679,-0.016756660781809027,-0.024882259435005126,-0.1058153297367743
1681944256.7128403,2.3782113538709737,-0.5509896438280595,9.984363753431431,-0.0205084353872741,-0.009682545271465812,-0.1397030513349226
1681944256.7228632,1.5892044146309634,-2.26048089205798,9.680264496473534,0.0017492902949427336,0.00708594741075742,-0.1248483817639998
1681944256.7328491,2.2311865156308865,8.785995709321508,10.054516890258201,-0.11443317651593206,0.012378491519351957,-0.1719008247914961
1681944256.7428532,-1.681074494559875,-2.1556320072038018,8.105135557948875,-0.1869920646360356,0.004263156859612653,-0.2591845851007155
1681944256.752896,-3.4608726584765037,-15.325566779389291,6.732232114363251,0.040561054327855055,-0.05365072872250012,-0.3188618283334425
1681944256.7629223,-2.7052473889509017,-7.244840189190121,6.713971764042621,0.11721269844924802,-0.03826826896156358,-0.3362325291696242
1681944256.7728643,-0.42473789328347683,0.5968903267469932,13.441716250377308,0.11790294351347157,-0.08354100487156602,-0.2824947695794753
1681944256.7832134,11.18130480288281,8.851348497944436,11.54111758042259,0.05554883193595479,0.011044230672575742,-0.0969954292836836
1681944256.794132,4.265321635799073,10.457837927645771,12.138431338830163,-0.059120206380216034,0.017487107463164536,0.02063284333914
1681944256.804589,1.435054765196755,-2.720428627718575,8.964487311861669,-0.015276150344246188,0.011626149143584799,0.0549430873629399
1681944256.8130405,0.8976709693667416,-2.4587626057958483,6.512549592075259,0.0596338797565335,0.012905064994898496,0.017711668127472
1681944256.8228822,-1.3651202071542685,3.807188811321573,10.623485307016054,0.007818561119890021,-0.001574482463248557,-0.0192349917802265
1681944256.8328865,0.19476199874388284,1.7575382867037965,10.706658167650126,-0.0016076707915543117,0.020034911607163038,-0.0465727012220076
1681944256.8429062,-2.7951550474667575,-0.32087388370347514,11.957214186898705,-0.006240939774323479,-0.025919441756657842,-0.0668721209827116
1681944256.8528671,-1.4100710193907187,-2.092760348622755,8.972849540338583,0.004454221124087453,-0.03138434718872549,-0.0842349912586859
1681944256.862893,-0.9907946939120819,1.803141004019105,9.432871729676446,-0.0032268242141691287,-0.05941548951058839,-0.078457647151058
1681944256.8729253,3.5646048071996095,1.4685076809801456,9.638739033075717,-0.025708485459961853,-0.01907094208256366,-0.0658239956560782
1681944256.882893,0.6679383977096175,0.9053278896681791,10.776240392601007,-0.06132613221672794,-0.015212037247997074,-0.0698863949242285
1681944256.8930404,-0.8323881339302144,-6.666444938539408,11.02080237093065,0.00742315946783164,-0.054117375739151034,-0.1057405408087424
1681944256.9028606,1.7679590207734566,1.1490563275487768,7.867552329710406,0.010976098136070324,-0.033356334653578755,-0.0923419307532957
1681944256.9129002,2.997471666588151,3.2276618009681113,9.165993767432886,-0.02452702747787517,-0.006032046182814815,-0.0812841813626936
1681944256.9228714,0.6534561183809943,3.0000142292784715,9.63189067616623,-0.056663184401025156,0.010726943299804382,-0.0793147246900252
1681944256.932912,2.407282798442158,-1.7880190151346094,10.511066882616147,-0.0671220353718342,0.032388033219300755,-0.11180820423991
1681944256.9428957,-0.5404364012815172,-2.0488402032434556,8.472668967598038,-0.021954177385927653,0.04354183986796537,-0.1369057159486464
1681944256.9538906,-3.1220651021997536,-4.975979694073969,9.27871704536826,0.028032677907914392,0.01154099962309791,-0.1489176611962965
1681944256.9629898,-2.3875535017253275,-2.8909003279778247,6.809168765101479,0.09402376641839497,0.00039964216993920753,-0.1558453898492506
1681944256.97287,-3.084950484377205,5.790877759530414,11.964331249626456,0.039163710391413475,-0.03869003364702746,-0.1712591509881667
1681944256.982988,1.5594959601767202,9.978050457213799,10.90809134368989,-0.0814287845469722,-0.028345140534789356,-0.1543319832149199
1681944256.9928565,2.9680645949208566,4.897498302167246,10.931676008259403,-0.16287942596166763,0.005445362092805493,-0.1512895535293272
1681944257.0028608,1.0777969299747665,-2.8684854746511954,10.29573711331561,-0.13726451652475757,0.0027849315755638657,-0.143254728204315
1681944257.012897,-0.18959195978865648,-5.937420267008105,9.44553581000478,-0.06854892366725655,-0.010555955768644952,-0.1505806903901747
1681944257.0228803,1.0575453079403456,-1.7777683767902546,9.808082723174591,-0.015856192491370418,-0.03206466889505575,-0.123309762364929
1681944257.0328803,3.3529633743491987,0.7839443177322144,9.518664989848682,-0.009562984001559043,-0.02440047462866815,-0.0931921537581137
1681944257.0429225,3.4663264979645203,1.9803788559865998,9.801186567506404,-0.022849950511912902,-0.0157469594780159,-0.0752241249743155
1681944257.0528653,2.822081658201494,0.44272802681811696,10.639770338212262,-0.02934835669638238,-0.02539519081649499,-0.0623272742691687
1681944257.0628636,1.9976057680373949,1.7424409999460169,8.435765043161942,-0.034861707068147035,-0.016661548257920916,-0.0411480601492575
1681944257.0728707,3.232923199513479,4.801139176687076,7.919990240329761,-0.11052105938783689,0.01666702535846544,-0.0697471584740332
1681944257.0830393,3.160807122346318,-2.0940156445804172,9.308203642079377,-0.11161823650211564,0.07175338555416749,-0.1085524644318274
1681944257.0929494,4.246384978217533,-5.416739746351467,9.972264117570036,-0.05678449048519991,0.10317730840238949,-0.1507998864713362
1681944257.102918,-0.125437510777389,-6.427042852457719,9.462698086535795,0.008534563847855977,0.13492533697854428,-0.1723285179200819
1681944257.1129684,-6.269221871591687,-1.6721324370564612,12.471512456490059,0.06271786243102259,0.04337529448203413,-0.1231171276035956
1681944257.1229167,-2.3308006545530646,1.9333879503905695,8.041861791760226,0.04918204199684122,0.0014425530063977379,-0.053804573750799
1681944257.1328974,-2.226446907240055,-2.293955610737761,6.916074248496125,0.11097369382293466,-0.046618695084708076,-0.0268467358860424
1681944257.1429098,0.38191115850011204,5.408040135078814,8.2511147079292,0.05679373635309041,-0.045791217187510114,-0.0385588418307951
1681944257.1529105,-1.362625109217448,3.2407981630817484,12.591095021243241,0.014095990774316542,-0.08818162113770643,-0.0733216117683104
1681944257.162928,6.768007851993783,4.609899402486592,15.945696470147277,-0.05141090053633545,-0.05134404205752661,-0.0354378122451952
1681944257.1729486,4.988042166063777,-2.7690224766709393,10.45082516231383,-0.01666047723395617,-0.00743853380611613,-0.0199146430555037
1681944257.182973,-0.3050460624321488,-2.6222547863250374,6.597744254918369,0.015401854868274079,-0.015494287947791775,-0.0399547714355639
1681944257.1929443,-0.4810345701241262,-1.2376344167671667,8.99578730927715,0.029622666302282875,-0.03585313491875668,-0.052347992694681
1681944257.2029169,1.496644800151358,5.941029459580839,8.578846300387701,-0.04440394794597408,-0.016968584997159596,-0.0840362023177794
1681944257.2270422,4.173804612084543,1.952430780648158,9.270297132052718,-0.12117159208531683,0.06243492650145572,-0.1312802742782286
1681944257.232728,6.0662980375838345,-5.759787438553106,6.815237381677076,-0.08922336137062098,0.1299886953946024,-0.1764186035457304
1681944257.235036,-1.3346054906119034,-25.512835538396754,6.504937183439023,0.010325519630111293,0.12505321813191897,-0.1806735407176665
1681944257.2452588,-1.6855842568342914,-1.5841379632711268,9.34850475498715,0.06799400043547882,0.10442792144329363,-0.1388936947646788
1681944257.254734,-4.267580361163026,4.925840373534637,11.39326269753214,0.03996249854642109,0.039838652105517326,-0.0721642162266424
1681944257.2650104,-0.2896500020877446,4.994664144675081,10.384680309568733,-0.00538899988529432,0.024447705371996184,-0.0163439672055891
1681944257.2730012,-3.265602169631631,4.427666976644931,9.899154736835497,-0.03158773848643204,-0.011395862222353465,-0.0055821744340709
1681944257.2828984,-0.34111485370647915,0.9825173302256681,11.340790764124122,-0.04566296429147141,-0.049781457514456645,-0.0396483625832251
1681944257.2929604,1.950970177057682,0.10858864146087176,9.338989361440753,-0.04753787954865802,-0.031907376213952905,-0.0625329773488692
1681944257.302888,1.984736152056808,-0.19719159047756876,9.652382170241228,-0.04837333809622699,-0.0196990787195276,-0.0624991442623785
1681944257.312924,2.2707962847115546,-2.0084920259264343,9.513343205187981,-0.013929638028187455,0.008962211594075259,-0.0683929111424139
1681944257.3229437,-0.6609664069073089,-0.5084562584188622,10.48505861162191,-0.015727999322297775,-0.01324131777510519,-0.0700343634548834
1681944257.3330593,-1.29920234681861,-5.727707372472601,8.278870832451046,0.06916062031557971,-0.0586166175357532,-0.0609281297388724
1681944257.3429792,0.42065705763956435,3.3115942978557755,8.081361554047334,0.028435094137403596,-0.0597531328607242,-0.078511455244129
1681944257.3528962,-4.315497538508762,0.408608434776665,9.464579824158161,0.03671957900314536,-0.12359074341421257,-0.1201551865401915
1681944257.3629572,7.317444042326001,8.557509630454488,10.580983880138827,-0.12098815500448883,-0.059724684445951914,-0.1629971872630766
1681944257.3729906,12.18414544640878,-2.7417279359749513,10.650947801302236,-0.10655399344321945,0.05716044969153541,-0.1527548890176466
1681944257.3829358,1.4973653607607451,-3.315919192067185,6.37399004016146,-0.08623958319100908,0.11895956415117699,-0.1673910032573393
1681944257.3928802,0.005473358386406384,-7.267308521068144,10.584973656993135,-0.0012824595659803961,0.10417240621492896,-0.1324876408639601
1681944257.4029944,-4.0351945425145495,-3.0258320612626615,10.05654005469175,0.0767816026455148,0.06791837875281202,-0.0500653694930723
1681944257.412941,-3.643145593320048,4.973441277721525,13.9028013619463,0.0389029305443399,-0.021061429792778728,-0.0091424371662787
1681944257.422994,3.044971175245409,3.9911525428985937,8.238693195243906,-0.004075541670384763,0.018474449870285365,0.0025828802294791
1681944257.433473,0.9067598358580466,-0.1907239186830733,8.823394183018005,0.003971322107729888,0.035078503590887315,0.0038703860168107
1681944257.443053,-2.3364261778361537,0.8833386040789261,10.552843810754084,0.009608871054949567,0.005565875667761453,-0.0179967667523077
1681944257.45305,-1.3462283885516653,1.9913542078777442,10.912511394415294,-0.01579346922681805,-0.017181029437632635,-0.0551595512393168
1681944257.4629688,1.582828396516418,-0.3153798764762451,10.25968163498866,-0.022576653255030745,-0.019500586403250003,-0.0742497827473334
1681944257.473036,2.273100563871832,-1.2727215534436627,9.739435244729941,-0.016052647573887052,0.00023785897068227907,-0.0735923509660414
1681944257.4829085,1.1682442051020996,-1.53244707273472,9.182784217564086,0.005442678975030852,0.008086875659470747,-0.0580341826739958
1681944257.4929168,-1.267040955840054,2.963975440003326,7.786949838827874,-0.004490426361399253,-0.004234915767877971,-0.0353949714067629
1681944257.5029614,1.2485612159304298,1.102706828008561,10.982896682486428,-0.021769569178245164,0.004390187641601679,-0.0288885525974682
1681944257.512945,-3.0573684100638907,1.2122674780590335,10.232582833049625,-0.02850212649596681,-0.024959610865443033,-0.0299013789358786
1681944257.5229118,1.213256689871046,-0.6881778978278467,12.089940682876477,-0.029278307935643073,-0.042341327582120475,-0.0781282271805456
1681944257.533002,1.891190713826471,-0.9926625711656416,9.3531360310471,-0.0342387278802756,-0.017647589037280177,-0.1078663479152373
1681944257.5429182,2.2592572281270793,-0.7429537108594224,9.097284367874591,-0.014432242964578158,-0.02159257606424065,-0.116914325541561
1681944257.5529287,0.19581865044957092,4.399471063675876,5.933995608411262,-0.09755239566774197,-0.004614777015334409,-0.2033599178853682
1681944257.562914,0.9761918302571746,-4.032579877515911,6.70370436688428,-0.08403821154450493,0.011982347505007181,-0.2920582752290419
1681944257.572956,2.9994538036415244,-5.120872940289806,8.194196060377045,-0.05004510524062466,0.04989871245019262,-0.3428559761109999
1681944257.5829172,8.235628462804447,-7.295373571198948,10.122798204263718,0.02834179591976286,0.13264643574814042,-0.2885337333741835
1681944257.5929518,2.953735495785522,-0.5115820925017373,13.5750906228682,0.05726818930362123,0.14373923492288582,-0.1281408231321028
1681944257.6030557,-4.678701995800718,2.917697573624075,12.331709573211727,0.08651800867715188,0.05585508758833122,0.0171745799866267
1681944257.6129563,-4.856192380940656,8.655129184478893,12.233307629016199,0.005646593072421444,-0.0558224234712997,0.0755087647971459
1681944257.622986,6.2401781593566685,4.29312883053154,6.763149606708955,-0.015646619808634053,0.016033743072280428,0.0978162352380105
1681944257.6330128,-1.7124686167138552,0.7103415199608839,8.120731581313471,-0.01049256205384359,0.02608031147841335,0.0493745122489282
1681944257.6429858,-3.7561228935848057,-1.352243491750196,13.221076368126658,0.0028984740021295538,-0.04691379389564904,-0.0456088568630865
1681944257.6529496,3.036182697215925,0.03026142073476952,10.365359607510793,-0.017975721090327506,0.012334016054612212,-0.1039918969932249
1681944257.6629975,-1.465218475271574,-1.4467594061816715,10.513001001989755,-0.01464437539859738,-0.0035294840228099144,-0.1069513644638708
1681944257.6729395,-2.1749996784512753,0.13808687455189775,8.108392785742025,-0.004475395511654444,-0.03538395058212653,-0.0704105730715445
1681944257.6829348,-0.8061351394507439,2.623838291201305,8.881207095765774,-0.042437108229341824,-0.05700158681873455,-0.0563173342111757
1681944257.6929195,5.504275664700218,3.875227640176046,10.115248301601312,-0.07576682596792389,-0.006491144901912517,-0.0452553528907946
1681944257.702922,5.042388750860153,-0.9406495299371285,10.35781598871668,-0.11375789395984641,0.05199442895741184,-0.0865828107658079
1681944257.7129607,0.4492894969961776,-6.53148412328163,9.015072799883205,-0.044207268635661774,0.06347257192726002,-0.1567553143563917
1681944257.722946,-5.94532230600051,-2.090609946166491,10.092272730482778,-0.005365548892454401,-0.013390693044832824,-0.1622637521091154
1681944257.7330904,0.7862207035263828,1.9649901335827495,10.102717408617398,-0.01713391360104127,-0.018519146093963552,-0.1000441621604613
1681944257.743031,1.806803773181409,5.07592500865069,10.297734441648448,-0.04848350699784861,-0.006728258011189305,-0.0504415604832819
1681944257.7538586,2.737617955995049,1.1350055621331363,10.634325955816266,-0.1011791784100323,0.010939010257437586,-0.0996895666781119
1681944257.7707915,-0.5884940336307436,-4.484660462389781,9.884473059001962,-0.039570375736054104,0.002460565759500591,-0.1591324369970015
1681944257.774391,-1.1979336239183214,-2.299660891998733,8.285644639538512,-0.01877376495407778,-0.0048374355567460964,-0.1640284966293028
1681944257.7849994,1.6629796885182022,-0.09769472530414137,8.514881058888086,-0.02484726279830848,0.017151808661280934,-0.1381968270602873
1681944257.792958,-4.8571792427088205,-4.79277302327128,10.013631043548008,0.02613110408295703,-0.04414087946733443,-0.1734588753047636
1681944257.8029983,1.7182293079349893,-2.7119630187472636,9.916309040754454,0.03237065264981544,-0.029491196064281956,-0.2125009458127669
1681944257.8130617,-1.5963794147729984,2.464725760970917,9.00772183442719,0.0512014151636799,-0.05661704484389455,-0.1975017349782637
1681944257.8230305,2.851280669209045,10.891012972710802,12.294299959423668,-0.08416359585491537,-0.06720348325718634,-0.1382463287177733
1681944257.84298,3.2582201282350547,-4.238747607882434,9.494263080193809,-0.010073586249774077,0.026135037104687866,-0.0899969573679617
1681944257.8529816,-0.9746600795516702,-3.3322715912516307,8.846869324240387,0.05233751810918618,0.0061186815026480065,-0.1000290896359137
1681944257.8630064,0.24784823377327647,5.857577697174177,9.893058617210846,-0.00420922414684327,-0.005666429297879184,-0.0636064719024351
1681944257.872995,0.9816772359725635,2.705960165301912,8.526548187162911,-0.03178859876336996,-0.0071561354780306195,-0.0273576985660246
1681944257.88298,1.5360124617997846,-0.5005924053508605,9.618576604788249,-0.030829769343768982,0.007145805536812597,-0.0170177623245171
1681944257.8929956,-1.0504100604682036,-5.118680815372682,11.671488075314793,0.018428026181509537,-0.015741929766036538,-0.0545235100749186
1681944257.902989,2.209522567171015,1.7099072649135647,9.791749007920133,0.019192007679916228,-0.004822502102174587,-0.0572057861450365
1681944257.9129715,1.3407417747782513,1.2727560335185684,10.108785735822337,-0.01786085130562122,0.004440011664284207,-0.0705202009144476
1681944257.9229405,-1.0419068600884904,-2.3763142388923324,9.5945844739532,0.00733562132638703,-0.015032399432287947,-0.0933617364230803
1681944257.9329958,1.1581875940070216,7.705102322736035,8.301867790283799,-0.08009591550323736,-0.013337146585434827,-0.1325516562524489
1681944257.9429865,6.760228920142151,4.7303128544277495,8.394365568970922,-0.17869218065101908,0.08408393335654742,-0.165691600328987
1681944257.9529555,6.15059171759379,-4.548228980786464,7.530570579532813,-0.13395614728319644,0.1718022780835056,-0.1997013400855711
1681944257.9629476,-2.508255906913919,-14.016533037933948,8.942227799625364,0.020734622937420587,0.1585455277864939,-0.2241772126022032
1681944257.972954,-8.797720031772451,-6.225165547098286,9.424769686873349,0.13330021372161446,0.03824531372809544,-0.2135255496564558
1681944257.9830174,-4.541269084543949,0.8624158400777149,9.644784331344153,0.15540525633068233,-0.030814673840218357,-0.1767501841846159
1681944257.9929702,1.1565847427157943,15.168602798781361,15.017401509504104,-0.026231835165348587,-0.06453266891508076,-0.0473376486066034
1681944258.0031502,6.358870801123401,3.0273700008529096,13.290266220327084,-0.05159923268283695,-0.037269385444873314,0.0478342313703843
1681944258.0131035,3.8385887974956914,-1.9523616124191376,7.156175307151235,0.005322812838224818,-0.005852001924554185,0.0430407327052899
1681944258.0229917,1.6614590938152558,-1.6361828066971547,8.182019775408083,0.009190059119205852,0.010792405622425177,-0.0220069616648605
1681944258.0376625,-0.058108953714192633,1.0837695500727014,8.560899267265311,0.01860892460721453,0.004542009099611195,-0.0310519385698488
1681944258.042985,-0.5313933933358912,5.10559016128649,11.558537618290568,-0.037460283077580175,0.01413376105851193,-0.0236052248242548
1681944258.053396,-2.8122626306060896,-1.6737883474267257,12.043477564242883,-0.02154994844394026,-0.02016621854932814,0.0014709508954775
1681944258.062981,-0.3939536339428653,-3.090499849680147,9.10231471018218,0.018358470308964148,-0.04555677117645756,-0.0252275719854286
1681944258.073052,3.8255285502598126,0.7766967602468368,8.804764246916616,-0.004932536117239048,-0.007135433089722718,-0.0589050475123575
1681944258.0830135,2.506675901082073,-2.4759983466889968,10.396878387708433,0.018592649076762856,0.013568093151694093,-0.0717105354729346
1681944258.0930035,-0.6948721811144113,1.2895706217562313,10.215734267981773,0.011420671071571712,-0.0033678376079222688,-0.0594898584845713
1681944258.1030214,0.92083468478599,7.402070894551773,8.10402739655171,-0.0479894684720079,-0.005965908636920931,-0.0808922435703924
1681944258.113457,7.134817925432447,10.82038581637078,7.750870103565299,-0.24478605357516328,0.10502562639501015,-0.121155769712036
1681944258.1230648,7.082617536373944,-10.602778414269475,7.624670024247376,-0.1302745633087262,0.20033872679497522,-0.1866328280034712
1681944258.1337624,-3.6490486391107018,-0.9463318748595485,7.802911416085281,-0.1298724048185912,0.1812493717972753,-0.2524739961686781
1681944258.1430533,-3.481476554547484,-13.407179294413654,11.541192244471244,0.013447510631979022,0.12669825500756426,-0.2352885018649748
1681944258.153005,-7.93567137167221,-8.93281789520147,9.182930465289816,0.16141032085916152,0.05870297273176676,-0.1510354887309721
1681944258.1629808,-5.987969707628202,8.648039928177154,15.019579001042006,0.08945623965667643,-0.10330540687033221,-0.1031522165599516
1681944258.1729858,10.304221776778142,10.899949122852764,11.054852195446713,-0.061096960306705334,-0.016428024478677812,-0.0029941188718429
1681944258.1830966,2.2742850769446883,-2.200989291098959,9.835017123557384,-0.012071990656621576,-0.013737314644316058,0.0322498910513469
1681944258.1931214,3.4157053269810294,-1.6088622656484848,8.60772772897352,0.02268905792378049,-0.008018918092738206,-0.0213242183986357
1681944258.2030222,1.988588450225361,-0.2992941829023261,7.613278396651502,0.04500784857242548,0.04147429145225511,-0.0388824801507643
1681944258.2130432,-3.2134565056445954,6.658994066443453,10.395795471885709,-0.021569688437494256,0.013406125507824117,-0.0165522276970795
1681944258.2231147,-1.2152414361352388,1.6162638981886637,11.344069201386722,-0.053335498872309144,0.02507121595200754,0.0078926518012532
1681944258.2330875,-6.041057018406521,-3.960856155120998,11.469357950063678,-0.02146107214967244,-0.06445626545257216,-0.0174226827535084
1681944258.2430236,3.9456486552524694,-1.154495006768545,9.670923806421603,-0.015971695748018527,-0.05288492179895932,-0.0381479013326815
1681944258.2530696,5.6622114126683565,-2.1343592678299284,8.521919087584784,-0.008438386101434924,0.019891376672497803,-0.0696521859231642
1681944258.2629547,-0.02229959151465596,-1.8643343399170615,9.662904954949529,0.005269061836888364,0.02282137994322446,-0.0793937008443526
1681944258.2729776,-1.9634927019561401,-1.3832710967868123,10.473153391969843,0.029945810979105272,-0.026712094957961483,-0.0652617897453955
1681944258.2830017,1.7037464693049615,5.001100164440631,8.351755817532197,-0.004966167171559613,-0.0012323045861818574,-0.0395517546299151
1681944258.2930417,2.6436032191449876,8.882030458615572,9.892480513567442,-0.13177704476799415,0.030885727745534747,-0.0972950543823889
1681944258.3030243,4.406953117346217,-4.221921076977705,9.936680183405604,-0.1385417697999439,0.09272423979897176,-0.1750892262521437
1681944258.3129764,-0.879173848440596,-3.8888439981432255,5.81041174269166,-0.06496297771917059,0.1031071618354608,-0.2324229638639143
1681944258.3230133,-4.270223399506364,-4.118074848136253,11.29067862552681,-0.0413269506840539,0.044572628440224006,-0.2454897474113158
1681944258.3331823,-4.2237956312730125,-10.234220279034458,8.160492458835167,0.09249885156019097,0.013336739193324053,-0.1806409071746519
1681944258.3430705,-3.8239146836380575,-1.953319708844455,11.476276516925722,0.16847214948596292,-0.07773563905081467,-0.1307629357639006
1681944258.3530996,3.6137019846442184,9.68406900502685,10.529405973492445,0.007251985609915379,-0.05463315008578066,-0.0281689382705143
1681944258.3630822,0.5915948918514652,1.1119216488075478,12.913554163094485,0.04546095263914018,-0.12445838503219117,0.0434932586190053
1681944258.3731005,9.915386200375034,1.6948856094378062,10.587379409760297,0.00917426172555294,-0.016469916092924114,-0.0080331518861702
1681944258.3830783,-0.08225204939272726,-1.6521073961336745,9.52948355114839,0.029923937423171308,-0.0202010084179433,-0.0909587006631544
1681944258.393082,1.1045596865905356,0.046122388954693165,8.215371202767786,0.021660459115316315,-0.009576944792797191,-0.1289578985038451
1681944258.4030402,2.0444861638300362,5.745549779653518,7.079276723648617,-0.03139019412161328,0.024526808107560923,-0.1424577992025069
1681944258.4130418,2.3895545419146713,1.6464694235674209,10.945747479674287,-0.08595137618041815,0.058620874038786935,-0.1424177895847014
1681944258.423113,2.217023049373788,-6.361948043232371,9.612130656450937,-0.02074193505021671,0.10345308297721449,-0.1170676584902457
1681944258.4330685,-6.19686532100774,-3.924120800493278,10.539909929057679,0.07442251771638028,0.03989533443319657,-0.0806473951402357
1681944258.4430833,-5.652452746285353,6.699452815154737,12.804320039496456,-0.0036506476775368486,-0.0581068706591937,-0.0775092850986174
1681944258.4530787,4.072306061584845,4.3228211449766585,8.454587281487443,-0.047911832699264335,-0.021680890955476966,-0.0345023247960261
1681944258.4630349,1.7913547610256206,-0.39608788613342605,7.7414476162968455,-0.037815281231421936,0.007242600775728892,-0.0349271121981791
1681944258.4730847,0.4750315601143422,-1.1429729305503302,10.712858845773255,-0.018761131949653606,-0.00012928733338630853,-0.0324077244463614
1681944258.4830248,0.5857567483376493,-2.351888272209274,11.412283718745403,0.009557809777604101,-0.01983393510237706,-0.0608031984034231
1681944258.493059,2.5464812648626816,2.337905042489629,9.644603472274518,-0.0241133411954442,0.006510301873053942,-0.0667819987598112
1681944258.5029843,1.0958264826710131,-2.0879646049945495,9.97884912175602,-0.01848832746893855,-0.0013860011262645476,-0.0679594736161879
1681944258.5130415,-1.5714322140094492,-1.1675206181620812,7.625299563785103,0.010712385793858392,-0.015116107989295318,-0.05251336205632
1681944258.523029,-4.914291571806574,0.9741594536212487,7.394933724347663,0.030385053894190633,-0.10234157025049143,-0.0804421092930487
1681944258.5330915,6.751946157418456,5.004321581191856,8.813580522293467,-0.09835439684055165,0.0003697060748023142,-0.1341135512653044
1681944258.5430217,-1.5924479778384015,-9.095703938841497,9.50863034723841,0.03320896619581926,-0.015563408159994751,-0.1660986255469969
1681944258.5530975,-3.1308197624685694,6.577184622376993,11.548424960988035,-0.07719987286431917,-0.050576674612362454,-0.2169030915561369
1681944258.5681207,4.40663877684828,-4.140313272804292,14.108809539440406,-0.024418273553624473,0.010239841918594178,-0.0851847763720206
1681944258.574127,-0.20416487909122347,0.7499422813779386,10.592803648320993,0.03246175028978625,-0.013819150062634311,0.0119355440524169
1681944258.5830064,1.5092824423540316,5.142840797410545,8.738563652991916,-0.03302126985754881,-0.023121959504899866,-0.0185750025871447
1681944258.5930138,1.5870886798501826,-0.97595809183071,8.931609270115084,-0.029156761186191166,-0.01630956024135421,-0.0479791175189665
1681944258.6030247,2.0673118780524518,-5.619718151410018,10.340122372263494,0.02296044491096949,-0.011373683313057877,-0.0502907123032263
1681944258.6130545,3.6932954782377982,0.3184776157964434,9.79822237781988,0.01959393765275929,0.020088381079834294,-0.0315337638917616
1681944258.623099,-1.439060089225992,-0.4527408505751762,9.304696509728467,0.024757007601967182,0.014422129516330663,-0.0165421582374027
1681944258.6331725,-3.61172453455416,4.573731832564553,8.70031169848232,-0.008797070320224368,-0.02494560363884904,0.0037534347188421
1681944258.6434991,2.0107100464196863,1.3421241674358704,9.362054911730757,-0.03398691807141654,0.0024545875149392404,0.015647356250579
1681944258.65344,-2.639250789080272,0.4083108863306006,10.987332091551378,-0.022992852678769313,-0.021350747346474762,-0.0096718754234961
1681944258.6631458,2.997902120610449,-1.3946773804522767,12.645163838793222,-0.01069552155544895,-0.02828257098903161,-0.0499174605670622
1681944258.6730783,1.3770412987490217,0.3695802702510959,8.562945693545162,-0.023974552301814035,0.00881271697899274,-0.0933425511780432
1681944258.683136,-0.21383350384509212,-3.0218329407100226,10.559583816283151,-0.005787246712671141,-0.029855731293723223,-0.0979093174997023
1681944258.6933773,0.5985317119365872,0.6767844204523461,8.985358042742735,-0.010993500143323762,-0.03422358092872076,-0.1222759645047835
1681944258.7030926,2.4067147936530735,4.410879947577313,8.903008842177552,-0.09678637116525393,-0.024460744724853482,-0.1432177584233931
1681944258.7131512,-0.3605045151948929,-2.824194905530779,5.141657866927609,-0.06074766708193588,-0.01598730587700353,-0.1987765591207198
1681944258.7230492,1.0930727770010185,-6.5440014722025435,10.066524637336332,-0.0513882087852264,0.011450200988455582,-0.2307821224990538
1681944258.7330687,3.6653789369347245,-10.854863017242828,10.399391018293642,0.12396028750831965,0.042951168781053733,-0.1422730993095091
1681944258.7531178,-1.2817831418988508,10.528107861149405,11.154765085659417,-0.010765613101890538,-0.03417007025415475,0.0148352206137725
1681944258.763699,1.8580806965245669,0.32303596252711025,11.053422266646708,-0.020697550516915936,-0.03676869148359525,-0.0113549392285994
1681944258.7730904,4.570441601320086,1.564968620730068,6.53250207072848,-0.004867015452334896,0.027337166709851025,-0.0056456110055795
1681944258.7830656,-1.1293441747251083,0.1133017480635045,9.69677935069317,-0.012478911438975775,0.018152627681981084,-0.0231648172798803
1681944258.7930942,-0.6779500252467632,-0.7286513333665815,11.43314736237087,-0.009111556971627275,-0.00266947955631848,-0.0100423676508716
1681944258.8030622,-0.2744553661590016,-0.09960458337575366,11.13118018302171,-0.023004457087068143,-0.026215665445336527,-0.0159888948860815
1681944258.8131423,1.4351796819691907,-4.4530380088881865,8.692399027105989,0.00834224526558244,-0.022481517044274063,-0.0420891206327131
1681944258.8230186,1.9759649773580554,-2.070335518460906,9.033676088789855,0.03019152400336188,-0.012094613968268643,-0.0470882031682184
1681944258.8330543,2.5242982331553647,-0.2778759008379463,10.161586620242584,0.04095368347582751,0.005895218627066428,-0.0508134673896483
1681944258.8431013,-0.2922173036378056,2.520880637269515,10.057677836147727,0.011378030122290737,0.007642229583561108,-0.0357895578804663
1681944258.8591597,-0.9224252543118702,1.9647143855763172,8.44310071780409,-0.00108351410447946,-0.0042408392521307,-0.0203198223921707
1681944258.863031,3.5398992150957045,11.773022215678562,9.570253483417721,-0.07992703006238419,0.027599190715471986,-0.0525604087474993
1681944258.8730323,3.400086528496178,-2.6253848237411357,10.728161373903774,-0.1016648749844881,0.07577166654443367,-0.119225212520664
1681944258.8831952,-0.04276620206209869,-5.144911439981748,9.254704053609252,-0.029833877356853777,0.08475215370664875,-0.2051853846374205
1681944258.8930595,-1.1940053788823342,-3.5524675256788467,9.448917596698182,-0.02986274579097237,0.08097754048801688,-0.2077851455274275
1681944258.9030972,-5.832298662427301,-5.328379518924639,9.43420333031142,0.09438279178001903,0.010034862938797665,-0.1177806641522101
1681944258.9130466,-4.995975314054647,2.960223360901351,9.210043337077252,0.06481016896959878,-0.09316460622967462,-0.0537485751870325
1681944258.9230275,6.181996145713508,3.1836227502629844,10.085104427358358,0.03327026485914676,-0.05871079498052216,-0.0136489087331346
1681944258.93306,6.3771344876254545,2.285965169466665,13.4652044690436,-0.00027420156448215374,-0.032344329793033755,0.0276181184139796
1681944258.9432008,5.6389440594735625,-0.37909393532782265,9.50051215215137,0.0275273695466251,0.01740970606575766,0.0056034972344287
1681944258.95456,-1.3165393763411182,-1.2057654526893191,8.598353685534022,0.03137723876487054,0.014743568855951239,-0.0548139113548449
1681944258.9653924,-3.216339228998771,2.170508049394975,9.740017798774774,0.027545609497633627,-0.037691511588065996,-0.0366126309695891
1681944258.9732418,5.055430323304096,8.584607847798983,8.855709722915018,-0.06723743922983497,0.0021869629022978282,-0.0793313916388205
1681944258.9830332,7.67185830876605,1.416207533415021,7.933718136101052,-0.15078822584206944,0.1531074750027857,-0.0757354583206824
1681944258.993062,-3.436872882672774,-13.112971582347981,10.451809877263456,0.007756684238772173,0.09381667451431233,-0.1720357399049452
1681944259.00303,0.14591879454539125,-6.309301698357147,9.38102653744588,0.05425930568869083,0.10449441123119797,-0.2082631747785261
1681944259.0130413,-4.720378393733891,5.130446092738572,10.040181170438197,0.039591071583540124,0.06674540221624586,-0.1386273067060164
1681944259.0233393,-5.613487009319486,4.544206179669753,13.18984624900828,-0.008428157653486161,-0.040023035277504344,-0.067125626987522
1681944259.033017,2.062397060211637,4.694290014909054,8.47715937201847,-0.022396843280489024,-0.021427408513962576,0.0019229235162721
1681944259.0431042,1.8486395562353046,1.9489732044276482,10.591035363692624,-0.03324197089730537,-0.031567284466805026,-0.011816480344837
1681944259.0530274,3.4046396245739707,-2.0808436288932772,9.619155564258758,-0.014657556251357907,0.00799377667722928,-0.0492222766938856
1681944259.063034,2.316597531302195,-0.8814698744689985,10.642684037503876,-0.017516589714563116,0.014944906536418836,-0.0666264976921728
1681944259.0730577,-0.15190146471953347,-0.6037025952111208,8.607306038105962,-0.013552424233973308,0.023973972069972285,-0.0556203286710432
1681944259.083052,-0.7780709129089932,0.07603709244921504,9.783125689706187,-0.019999440121372693,-0.011614694139443773,-0.0167640737804821
1681944259.0931137,-0.8390744638341083,-3.9159018701548125,7.532170969082107,0.04778337509306769,-0.033951624053537494,0.0218812160578318
1681944259.103114,-1.553891527281749,-2.677363670447978,9.689740259517066,0.05965581802696931,-0.08116762052419274,0.0125612726819464
1681944259.113156,-0.5969662753067431,-6.561686288718545,9.389542591221293,0.12497235578773765,-0.10727688931581673,0.024254661836917
1681944259.1231556,2.7675319677949033,3.5615313384782588,13.43989303148949,0.08410452419857557,-0.11709227343140997,0.0153878711548396
1681944259.1331506,5.7902403600353685,5.320050303199158,11.221273641437488,-0.0034500063124634247,-0.05802800945644544,-0.0458065580192259
1681944259.1431718,3.7141522608680853,3.9649830612394816,6.638289260588079,-0.06682941991444348,0.00941550331033607,-0.1198001663747481
1681944259.1535618,4.097283869869047,-4.318838877884546,7.768449149738431,-0.020669717242008424,0.07632995976139152,-0.1665133546653441
1681944259.163043,-0.6343192232691249,-4.503084943579122,7.742383908859047,0.06601575257457205,0.12951030322404833,-0.1364678602281264
1681944259.1730874,-7.307929581460841,4.414698092653749,14.4154095529702,0.057334607760969075,0.03273694261469723,-0.0519254218402556
1681944259.1830502,-5.104619961358133,9.15152284917772,10.685583755198937,-0.031985623315675456,-0.04032176176316413,-0.023790354988282
1681944259.1932518,2.581007877643151,1.3251862282545508,10.526759249074692,-0.0700646700586757,-0.03852977093305919,-0.0268901336553743
1681944259.204184,1.4960915596858058,-2.4706859014996305,8.371825251902633,-0.03881308236831923,-0.0149340531562026,-0.0372565101447752
1681944259.2130826,2.157607695494844,-4.542642649938546,9.569580033367991,0.014200784503909904,-0.014973530010148301,-0.048344598299568
1681944259.2231424,3.0729186686282537,0.685242346140306,8.535877627036006,0.010092429634168894,0.02870483125516763,-0.0548856008413485
1681944259.234782,-1.1047756416973873,0.2015129994237926,12.044052438896205,-0.022640489316404267,0.0013640451752555361,-0.0626169900956801
1681944259.2430632,-0.24359896712519277,-2.6984454522134897,9.923431846884231,0.002949240749652447,-0.03072722301219113,-0.0610370721283606
1681944259.2531033,2.8065769774181817,-2.2345849561088884,8.388194305575377,0.028101472157789385,-0.0022391393191181874,-0.0587853651109388
1681944259.2631834,0.33991549384509423,0.9167283151365383,10.049186048426057,0.0341213800687309,-0.004661016786111725,-0.0388545292976549
1681944259.2731311,5.890501985434207,12.120154218135852,8.664922454617429,-0.1267933972987343,0.0650264693842697,-0.1039942960801771
1681944259.283256,7.6262219845323,0.7314587760490006,6.981922697974322,-0.18655029473461932,0.20262280626400406,-0.1362447898450545
1681944259.2930658,1.4256944903898374,-7.4289396495543425,7.3735643608573245,-0.082506847339992,0.2219328861962004,-0.2062834065023115
1681944259.3031282,-8.449171975279027,-7.436334913776014,11.184225795567837,-0.031540815443375246,0.1306637220508893,-0.2323294590774229
1681944259.3131118,-4.420049352979632,-6.247393589198451,8.418701715532489,0.08563701335985169,0.09288875490121613,-0.1721801172557524
1681944259.3231,-12.149309073797156,2.0386349020412626,13.9472896525494,0.09959166463684543,-0.08565358363406739,-0.1052875231567076
1681944259.333178,2.800396373656407,8.639957473999507,15.055744554390188,-0.008400741159859306,-0.16750685761053935,-0.0013011728029004
1681944259.3430743,15.103116748413015,1.7113026957396296,7.432004740295459,-0.009526738378739295,0.010892365099075223,0.0206150792923518
1681944259.353126,0.8153131276166994,-0.9573553681958826,8.795794625749851,0.013974456493003684,0.015157430367943583,-0.0255646753671816
1681944259.3630898,1.5586424612381669,-2.402374952772962,9.281182953209811,0.02260516230956182,0.014523637966849317,-0.0789455484214476
1681944259.3730853,0.5109475092242544,3.025111589452155,8.685174989305919,0.0033401590764396234,0.033374367869002136,-0.0446201648178747
1681944259.3831575,-2.443920662916,1.0622496395254075,10.94649022284252,-0.019715830910754805,0.016086745017855866,-0.0165453675749949
1681944259.3930805,-2.2370785503347124,-1.1844658378013881,9.632298347108364,0.0014094431931486132,-0.01913235790172649,0.0240962680813619
1681944259.4031172,0.13773158918122408,-0.987193379006868,9.922055845687046,0.01607882067071854,-0.022687533007759355,-0.0187269869807413
1681944259.4130704,2.690018152317489,0.0028544817282939953,11.180608921456008,0.0038386869434285653,-0.01443478926013283,-0.0392662074032477
1681944259.42313,2.592624304295568,-0.7714154308231687,8.879831042556711,0.022186068721290447,0.03569182784073948,-0.0613531555596045
1681944259.4331627,-2.3844033470124213,0.5428617209542825,10.856277226126247,-0.0017347657042363896,-0.004204324287795769,-0.059377183354204
1681944259.443106,0.5431585273065248,1.4853264857975175,8.084236434129458,0.0025784081839847445,0.0039081205241044,-0.0349544446530989
1681944259.4531927,1.6940691635366587,8.481119297968972,8.702856412828304,-0.1360833906686993,0.03639667609253442,-0.0840495686593703
1681944259.4632084,5.0860352267403535,-6.016902950450539,10.326838560061226,-0.09278372073070607,0.10006994078666091,-0.1291312586131743
1681944259.4731286,-1.529484566219369,-2.638219061407898,6.7015471062172995,-0.06241530329085064,0.10711253366963856,-0.2065629969897917
1681944259.4831052,-0.8487467552104775,-7.175489645984928,10.447458321474594,0.002568784571036624,0.10174921195294086,-0.1890496473375014
1681944259.4931717,-9.274172659818932,-5.163722111447958,8.805778164054798,0.11638121407525902,-0.0019262098757649737,-0.122503237015312
1681944259.503127,-1.9343782765539854,5.949711579181138,13.889947402087506,0.05293956784321151,-0.09986618910717751,-0.1011604081454924
1681944259.5131204,6.661726476687278,1.6728667264345347,9.08981762171024,0.014990032518870065,-0.041156783864026304,-0.0332722078624418
1681944259.5230856,-1.6972091733225396,-5.542162180834037,9.375296459230086,0.13101190721088754,-0.10972004532693481,0.0140150709462114
1681944259.5331442,9.05206026309077,8.668647688709692,12.915782996152922,-0.0008864076751279831,-0.03333373871853022,-0.0260065059724501
1681944259.5432143,2.2736336757094042,-2.475715531829876,9.229366158900751,0.026092104405849015,-0.002170684016362604,-0.0621637265744856
1681944259.55331,0.6904231655886011,1.2937782833624414,7.427566245233614,0.012905585410093946,0.007641885322423328,-0.0698903735342673
1681944259.5678756,3.4410002954461336,6.0424354598182,7.761269677931731,-0.04749638526881724,0.06701488959004948,-0.0834258060517958
1681944259.575592,-1.8403648106946915,0.2640059853711772,11.400670421442541,-0.07751129574816652,0.07148100832756692,-0.0769387941423109
1681944259.5831716,1.3124209810778995,-10.504271203498133,9.687650858437848,0.04867261447117298,0.0581730788527279,-0.0854262943926504
1681944259.5931704,-2.033797455143813,-0.8149841328197562,9.048646762429735,0.056642935685638815,0.07669057185267451,-0.0901015560689619
1681944259.603367,-5.833578099031948,5.134690002656752,13.795842966009225,0.0023398926737104413,-0.029406003858668116,-0.0608856390777281
1681944259.613197,1.9667436184696931,3.6956635891846923,8.234479842896826,-0.032184023057226376,-0.0009782247595667376,-0.0189436778041771
1681944259.6257224,1.4892203192947016,-0.5605398142324108,8.654313516235156,-0.01923269130627717,0.011453924993307576,-0.0051459927658787
1681944259.63319,-2.725102594188946,-0.6066988848046628,10.04461663850258,-0.01116527898181896,-0.01768483100421551,-0.0334912139537981
1681944259.6431642,2.5510626414151414,-1.872164934944246,12.331959258011256,0.01308473862003333,-0.029663951699423888,-0.0638689558568648
1681944259.65317,3.715823214685415,2.367806880276932,8.912695333171719,-0.022778502974134786,0.033314887631106994,-0.0736870627465895
1681944259.6632328,-0.6020697564387536,-2.883686082711986,10.59135879314645,-0.006838648572235502,-0.009446842476564611,-0.0639256100717238
1681944259.6731608,-2.1856173781019996,-5.920511419005857,6.540867155107338,0.07533145470153148,-0.056850955120444246,-0.0172764576587132
1681944259.6832032,-0.7925999187546118,2.402587836648957,9.527536685240005,0.067730781362993,-0.09585949583322607,-0.0145201563450745
1681944259.693133,1.7164898587664736,2.119974009544337,9.179668821061874,-0.017697147399744803,-0.07899555686012734,-0.0414389457169226
1681944259.7031555,6.833972543153492,-7.111985388860185,10.757122550912065,0.053097042087958776,-0.02780661322074996,-0.0718527372542074
1681944259.713211,7.1444192690328245,2.824462238997233,9.81780028645701,0.023531703273342593,0.051099859328702535,-0.1192409108939818
1681944259.7232149,2.4613754698562493,0.6703407162878641,9.934385262341305,0.014318230321818866,0.10383346854734102,-0.1121391515794447
1681944259.7331612,-3.629168111977854,-2.165346868031975,8.388554619572275,0.07532303213222602,0.10166855131223151,-0.0759378607931784
1681944259.743152,-9.855539741976036,7.0720370437049995,12.21852520961124,0.03990071387541925,-0.004809502697298646,-0.0430680710437945
1681944259.7532237,-3.062714558201561,6.455126551776673,11.539577121152279,-0.033427411284879,-0.06417212461177935,-0.0256177849683216
1681944259.7632108,4.462402630171571,0.9879408536446806,8.072514501509183,-0.04143675632811952,0.007690394342760614,-0.0303874734404734
1681944259.7731535,0.6258280835928529,-3.0018806365797728,10.635516991413821,-0.017266752788518372,-0.01255570359931057,-0.0333784196141413
1681944259.7833,1.3416084995183837,-2.275972148344355,9.12795623269653,-0.008710815000865487,0.0026249855700042637,-0.0505392711225203
1681944259.7931664,0.7316233526433308,1.1574684717662302,9.584624644128693,-0.015703009660986544,-0.0025173502543589248,-0.0065898412454179
1681944259.803266,1.4665562225562003,0.5850116613506592,9.62120050427732,-0.023245609883775283,0.018653294891501446,0.0091901904356428
1681944259.8131409,-2.866402570400407,-1.055674703504092,10.4558464886254,-0.010272385450015744,-0.030365085374145694,-0.0151829581323317
1681944259.823207,1.9090716249886635,-1.2320452346052884,10.949432326200194,0.005872222775419884,-0.038466697703328105,-0.0535290438297442
1681944259.8332243,4.413409270695751,-0.8291776643379319,9.267786009085617,0.015487510848300533,0.009632064254496924,-0.063415900951927
1681944259.843174,1.2170803280574098,0.3710035289077923,9.87236395107992,0.012246333225606606,0.01804561727358889,-0.0659086789551428
1681944259.8611305,-0.9445280313327404,-0.8640747217849719,9.929016892586759,0.006299544516119301,0.0014644757029394868,-0.0722426335874251
1681944259.8631136,4.713051712714284,22.61725367426997,13.13374740947593,-0.07775317380819716,0.013427325127278856,-0.0692065219941786
1681944259.873141,2.384474589456018,-6.221408291527984,7.030650291275264,-0.0385804830128241,0.05116840376270401,-0.0728821318212202
1681944259.8831556,-0.3162333202021937,-3.302538929661112,6.8910064266320745,0.027935425481510106,0.05576204574588426,-0.1206587414804152
1681944259.8933392,-4.976157316024331,-6.293301352134838,12.05580685579927,0.06034035366920782,-0.01046498861228322,-0.1388380985322646
1681944259.9038737,-0.30039021137057365,0.34618563307639144,10.520222680839199,0.11021158958315339,-0.035669752270126656,-0.0505528237286261
1681944259.9132023,1.3582669075352143,10.307133044393247,14.305076544964828,0.023559781252608075,-0.06840465567885477,0.0365692440804788
1681944259.9231527,6.961932484143963,3.049277469733244,8.681283048639955,-0.010601367049061861,0.01501573334193137,0.026555337795312
1681944259.9345152,3.022998559514737,-2.413616348275625,6.788961935191514,0.04404488278162872,0.05714309458561369,0.0171634525445052
1681944259.9431748,0.03457223208379864,0.877018652816369,7.921657253126722,0.03892591366986359,0.07933510842185314,-0.0200786899390867
1681944259.953172,-5.2901648721793695,3.6691886941222567,12.078686791815482,-0.01153283145191281,0.03266477980961637,-0.012174752688711
1681944259.9631455,-5.191084570090545,0.451085667321794,14.209289564170051,-0.030945698639813318,-0.05878904374271314,-0.0185078914824179
1681944259.973158,3.583279249507644,-2.1775148001589435,8.409014656835037,-0.013230381295509097,-0.027257443017949436,-0.0481855470302752
1681944259.983142,1.6798351320634324,-3.062166213352462,8.816264092384888,0.01819394931575334,-0.013593733354661656,-0.0704352270427397
1681944259.99318,1.7879880243464854,-1.3017233169406932,9.649025554707421,0.028741697362741056,-0.013673411676491276,-0.0640620451036146
1681944260.0031562,1.8356373951663782,0.6087775656175622,10.06517564596168,0.02757491508927645,0.004902051465374692,-0.0449610363307646
1681944260.0131383,-0.6723461517764276,2.361672788777824,9.578303087805592,0.002413022296327005,-0.004429215110183457,-0.0084443689870885
1681944260.0231757,1.6558190100303716,4.182235496880523,8.379128580463355,-0.02904397514294707,0.013490422032103799,-0.0281439192208698
1681944260.033206,2.8651811275703123,2.580265744450517,9.590653605360234,-0.11047623709699585,0.0645500480541446,-0.0946530710521391
1681944260.0431695,1.619535828274531,-5.7971375626369035,8.90973268567272,-0.027548569665124634,0.08389252668280299,-0.1601636718574217
1681944260.0532231,1.757574964720082,1.3838131961198414,8.164033008827142,-0.07001686624507965,0.12679185123822248,-0.1978432546916655
1681944260.0631714,-1.7241399782549198,-7.424287238311065,9.946070753388831,0.01705377606322964,0.1372195572636129,-0.1400339912238768
1681944260.0743952,-11.941787743617667,-1.3332998455572553,11.751924788683862,0.09326429435787548,-0.042798948615422994,-0.0859644349280051
1681944260.0831213,-0.713718433120798,4.981446585384981,11.117551452195528,0.033900985790162326,-0.0964197128023244,-0.0909433226648024
1681944260.093216,7.367798833765916,3.392070344270678,9.899193093968881,-0.024118067223731485,-0.021379563590146092,-0.0587121221783808
1681944260.103268,3.7297523677514612,-2.046770211143893,11.381449496303205,0.016964641433386708,-0.020161076029631728,-0.0254126742097786
1681944260.1131392,4.865137463934513,0.9719381228459231,8.680384801009193,0.009956707942879244,0.02696977693850323,-0.022111787608569
1681944260.1232336,0.027430893008869472,1.1940728660107471,8.103983162046976,0.017647783307563395,0.02406006063964547,0.0142104437959143
1681944260.1333144,-0.26264603746926035,2.2694830687808145,9.050816731815452,0.0029938249996054964,0.024383775558020914,0.0166069966193982
1681944260.1431952,-2.9200174877709726,2.673082571009203,11.452103282916841,-0.025602148863079228,0.0047767443265221065,0.0176260032144137
1681944260.1531775,-2.4494948644725683,-2.369521051354434,12.870884783457106,-0.01444557324141063,-0.04922218997605371,-0.0335944305720976
1681944260.163176,4.082616982259631,-2.5782682513021267,7.826223069820183,0.01472163691324559,-0.009012717232800577,-0.0520613688591173
1681944260.173138,2.626648828711901,0.4019156082946327,9.06333972869481,-0.0007487712828014029,0.01876918131484285,-0.0545208204153231
1681944260.183159,-0.6870186992524321,-1.0657233035481248,9.86180720714204,0.014395815838094591,0.007733861106417504,-0.0446695062878779
1681944260.1931448,-0.8284241251680879,1.755028763035749,9.568339262652799,-0.008514602695838298,-0.011012993889934883,-0.0172216418746164
1681944260.2032452,0.5713621000925166,-0.5726429474113851,9.35501198874634,0.013980393506157842,0.0032879588634706913,-0.0036126507061771
1681944260.2132154,-1.2825960990914627,2.667689084863847,11.16543251770455,-0.010357159896291561,-0.027603475746778572,-0.0127223759505203
1681944260.2232027,1.631112413218674,-1.3741294936762558,9.995455729284224,0.0006282914736229678,0.00035408409642108835,-0.0734338994684866
1681944260.2334192,-0.09263275957892976,-1.2375776763218065,10.807594843658128,0.005967209781440227,-0.014608343955589761,-0.0873289491596869
1681944260.2438886,-0.2956618171501859,-2.4152192015639233,8.232058229318348,0.033871564472588066,-0.020997176298376254,-0.0436015065375021
1681944260.2550151,-1.8935681327413905,7.32800011937325,6.993481964781173,-0.0330229787641727,-0.0585961239209851,-0.1332970272365263
1681944260.263318,8.465634947961693,2.903481496319107,5.814319892554799,-0.09901709812683998,0.03760306442810953,-0.118355878776615
1681944260.2734754,2.373944104249885,-7.416956716695433,6.675938362085772,0.0017517184845575507,0.08500107201264037,-0.1848638515535048
1681944260.2831802,2.4425310034490852,-3.42305384591214,13.71927074252692,-0.014495577743980354,0.09429728967314925,-0.1840108494821242
1681944260.2931488,-2.6150837419668895,4.199440788884535,8.76411098495719,-0.001970480850309431,0.04838313488207498,-0.0966885771217993
1681944260.3031452,1.4398797779062944,6.693532266362874,12.866263920058985,-0.07775625344956973,0.053697194498947734,0.0163988991093584
1681944260.313162,-6.195830055536629,-5.320611904058917,15.44645591887064,0.027735247021025797,-0.039706155528841686,0.0661761377391167
1681944260.3231795,1.4796285852039466,3.748399324071523,10.85769791269588,-0.0007731079420477362,-0.07071376693406492,-0.0185874301555803
1681944260.333238,6.689193728884652,-1.0972171847132548,5.447133157522161,-0.01341182778387293,0.04282484101094836,-0.0728594820562056
1681944260.3431785,-2.2418795242726755,-2.5864153150788494,9.725366986476548,0.003426290281310101,0.016114854138209657,-0.0495528366032293
1681944260.3532455,0.45371573589641556,-0.17634387460525433,10.989359622642313,0.0032649463586129114,-0.0017080079323374805,-0.0157371695700338
1681944260.3632388,-1.6929385364767757,2.0051722481834164,8.587314588663105,-0.015533671124741251,0.0027932090254025846,0.0107051561039635
1681944260.3731587,-0.5062944861833267,0.3773563926217128,10.55871523125139,-0.010082039764441258,-0.0023311076400323225,0.0224279899534531
1681944260.38318,-0.47893517778435857,0.6998900424080212,10.06841954806951,-0.024360619642804917,-0.02044007023489231,-0.0145744058850458
1681944260.3931537,1.5246054101859763,-3.9240507319611937,10.375689894572265,0.022409186682691165,-0.022950147312962143,-0.0895040344062498
1681944260.403222,4.926150122938487,0.9026310726554183,10.031266579035538,-0.00025906180202302784,0.007640939555371849,-0.0661179285112074
1681944260.413217,3.234365931949452,-0.007552274616348288,8.1758472799656,0.01915821264100943,0.051734685618886465,-0.0214575036975792
1681944260.4233313,-3.791270449927913,2.2917339578535225,10.772024504915658,-0.01694893745567958,0.010041247886885015,-0.0050045895937136
1681944260.433209,0.004684813403178932,-1.246064174860643,9.296785235762119,0.001330910045927998,0.004408665844710735,0.0123323666316219
1681944260.4431665,-1.1138533182694341,-0.030643975678503237,7.939389549732033,0.012635776012773475,0.005407773066432499,0.0105404600885459
1681944260.4532604,-0.26776503092253856,1.8132221813504252,12.380780613150744,-0.013173482378035851,-0.03524104172510916,-0.024063739142125
1681944260.4632275,3.795502317656841,-2.1072769680311416,10.576318023420304,0.005440277697320009,0.008561491606963114,-0.0575715016189268
1681944260.4732292,0.8709248454902798,0.36547290356954815,9.774234942636902,0.005312954805479745,0.014848757769416722,-0.0582665923598459
1681944260.483205,-0.21468728432929843,0.8061952957694312,9.486508933203698,-0.007767673773764846,0.008527734299373481,-0.0440551425877264
1681944260.4932864,-0.48840106579276876,-1.3488560597752106,8.793067382482748,0.0022358129300195932,-0.0001796330476162615,-0.0050985316361538
1681944260.5032256,-2.1651957589452677,-0.4105355295058202,7.176030305145758,0.04589648036615261,-0.03613261516698547,-0.0065034703898481
1681944260.5133078,-1.106173835086565,1.6410919543583573,10.111696481714922,-0.02369276704334946,-0.04755869730739975,-0.0611305918160132
1681944260.5232632,2.049647738800906,-4.212268140576017,11.183743941745103,0.01368753917866648,-0.046570502116633106,-0.1215053956571272
1681944260.5333214,2.1347596133413553,3.017492514380629,9.403864136456198,-0.03281826079062019,-0.032712418953751946,-0.1321983646217039
1681944260.543264,5.243446070398557,0.011349172616484257,10.325819579194901,-0.03345052332253918,0.024398436587187534,-0.0628362681332281
1681944260.553298,0.6209169382869497,-2.775162388051044,9.952706493949142,0.05894172864639659,0.03943658718321058,0.0151651164901205
1681944260.5632217,-2.682793861622365,5.3467230476875525,10.256317157304311,0.0227766552472673,-0.0006169872263324816,-0.0072644009801796
1681944260.573201,0.27977468944740763,2.593825833507657,10.640433512198806,-0.02997781500584679,0.00679316716128339,-0.0359492722514322
1681944260.5831826,-1.4377081733874475,-1.146396967326685,9.305669738065802,-0.01137170544262347,-0.01146409966772366,-0.0303952518466166
1681944260.5931811,2.5379651427232535,-0.437478833915031,8.973221718626192,-0.009323977235799918,0.0038310992967799623,-0.0070323628920367
1681944260.6031816,0.007641915703593648,-1.9158119139239078,9.767444923599694,0.00401833109129214,0.00576862978069148,-0.0191835045430115
1681944260.613221,0.5213800643884239,-0.2683870622039598,11.566640809187271,0.0066170339867966865,-0.024059021876198357,-0.0226129304233244
1681944260.6232293,2.559706761825324,-0.39988630523730967,9.144589004171921,0.004447382541179596,0.00945856029651862,-0.034756687617605
1681944260.6332133,-0.49381628979020037,-3.4581590614923523,10.125983399684285,0.038264754533720635,-0.0027150931279294834,-0.0612589876714399
1681944260.643332,0.9696132237046053,1.2467593538421464,9.028718641252794,0.03519828901376654,0.0015949987832587862,-0.0313443775835684
1681944260.6533172,1.7507375356540158,2.8384213746344877,9.459367031319813,0.010238864939249604,0.03407056470102635,-0.0234960198018005
1681944260.6801226,-0.751611455730212,4.850455041508249,8.118047618071403,-0.059717660200282206,0.012978764215165505,-0.0535965349140814
1681944260.6812077,14.216471399068539,1.5067953101199074,5.56727877096007,-0.11208549643583907,0.06772902771061463,-0.1407487552228621
1681944260.6835566,6.783729237530373,-23.952713517304907,-0.5953258592028146,-0.02789167373685416,0.11309010688483312,-0.1929080348077467
1681944260.693199,2.451335396787334,-2.107817198375542,8.489182965748043,-0.011563221334822828,0.13931956157754183,-0.1973812590900114
1681944260.7033627,-6.0856072847580895,-7.858946793545836,8.219684051360135,0.07318907667852152,0.11192422513780732,-0.1864685725036314
1681944260.7132342,-11.705898335934346,-2.0810730238893975,13.789940628551385,0.1344414791280282,-0.07420422865710584,-0.1187964763107947
1681944260.7232034,2.796958708850359,11.887983177460582,11.620241806927279,0.014918279679706102,-0.09730294754802149,-0.0290860004338673
1681944260.7333148,7.3491216798712005,7.8114163487238795,9.4619242571851,-0.035987293031564616,-0.01359921174516076,0.0207016904291459
1681944260.7432542,2.349177494907219,1.8994829058273548,10.292144348887934,-0.043148045215023065,0.015569888216424934,0.0188422155019589
1681944260.7531953,-0.1716592055684123,-1.8066876198520787,9.830040735016324,-0.017758336538981265,-0.01184223358051788,-0.0110109300899556
1681944260.7632062,0.7934717486621422,-2.8045834240100995,10.242998840563345,-0.0032413464404836374,-0.00988639809390774,-0.0436652723315409
1681944260.773202,3.0820915555290838,-2.239306438487472,9.730278081549258,0.0016780831267558837,0.01010940586656115,-0.0292440794023922
1681944260.783241,0.03409094212428562,-1.9748147741546793,8.677631653135307,0.012251585522864896,0.023446565513997247,-0.0248802911105803
1681944260.793248,-3.2491136252358066,-3.1857321723576058,10.292219692748686,0.04195147331147593,-0.023824001993643287,-0.0405735198023966
1681944260.8032348,0.7017400213527908,4.305343050021667,8.60426910609697,0.01794190468738356,-0.01890772745513122,-0.0434526253107241
1681944260.8132446,1.3418111772749262,2.7214694575295346,10.547922112805445,-0.017009178674033017,0.02461188160787483,-0.0344206552568129
1681944260.8232474,-2.857161668333792,1.1952148455479048,11.795851234273844,-0.01430807874734117,-0.03784694490429058,-0.0276527620467594
1681944260.8333943,1.9698545935312892,-1.3909471215288634,8.82734867178487,-0.0060787229295221745,-0.012937458424462773,-0.060006369984453
1681944260.8432512,1.0649794399924721,-1.5871439966718637,10.981361598058228,0.011580036511862232,-0.024895643714882856,-0.0547394241753271
1681944260.853207,2.9166335170342204,-0.34570412572529957,9.141466864417849,0.02737435795869053,0.006509203566552997,-0.0413791920605353
1681944260.8632605,1.9724664164726575,9.842690300635482,7.970476143211279,-0.12062179029907294,0.045176894803948466,-0.1066220786038092
1681944260.8732042,6.013325037053382,-0.0823067234454965,8.259791971623054,-0.1505553452210952,0.11742720393550632,-0.1385571520391157
1681944260.8832238,0.0893939908045043,-7.225326813985009,5.6849140276013195,-0.03709389566725751,0.15259508734886254,-0.169125096088951
1681944260.893242,-3.1848920368364877,-7.697928631424495,12.697095742383603,0.008035360299966694,0.11868540943481914,-0.2114955197635344
1681944260.9032333,-7.541578916719872,-10.96014826068718,9.179099256244752,0.18373358821352465,0.035607014428978644,-0.1581422101321867
1681944260.9132652,-2.3748052233680843,11.376190518761993,11.965176652993208,0.06270641865747778,-0.05220767503538278,-0.0559031787875345
1681944260.9232495,1.1883563353228057,12.064397038585854,10.386250563205158,-0.05428935085561312,-0.06520860788590921,0.0536931109067746
1681944260.93523,4.7673207741390815,0.13527863589173159,11.355219289804001,-0.052563749516697574,-0.025313880904634843,0.0583244663116284
1681944260.9432795,1.190453332961861,-3.907441145878962,10.783781310587049,0.0013254674820044833,-0.015189855462010198,-0.0071170499163917
1681944260.9532256,2.2844179576666783,-0.7550635016491494,9.67000594955076,-0.00022076952043334513,-0.0076565835771094035,-0.0640893291297606
1681944260.9633615,3.5548031124814634,-1.490660172192707,7.816273212666869,0.0071016869346142404,0.04573421678335019,-0.064550818091934
1681944260.9732456,-0.5764195844458749,-1.6130968931193,10.188837166267497,0.013103861993763344,0.035066238092207304,-0.0292188107582977
1681944260.983299,-4.436314109465679,0.9647797512902114,9.293773857260827,0.0011664648962485481,-0.004756851180528405,-0.0248163409146717
1681944260.993235,-2.160491479704456,1.7338306090906068,9.868784215755666,-0.01839403572018917,-0.043149075746886964,-0.0104891147080114
1681944261.0032754,2.3324720451176835,0.26409817208230757,9.050649117101432,-0.003489757448578917,-0.00715273928821303,0.0163368301850506
1681944261.0132391,0.9848611753538788,0.620612406842077,12.644969598843144,-0.012446948341041736,-0.03312894920956252,-0.0028905632521263
1681944261.0232575,3.8923194694713215,-1.2600458134143122,9.010281307062165,0.006791744091375729,0.024182675839377044,-0.0508547361555746
1681944261.0333643,-0.46179447709041127,0.06336741605425099,10.851524003680906,-0.004346153282171047,0.006806772882143976,-0.068313279336994
1681944261.0433288,0.3508117418374335,-0.21478945801885238,8.585073003995687,0.0032680951122637213,0.0083126317943306,-0.0417434211435965
1681944261.053214,-0.29211645429465727,0.928012036191721,9.327689633222253,-0.01109769990898722,-0.005919336813504349,-0.0323988396289995
1681944261.0633426,0.5630660616517171,-2.7331386541472047,7.97687990937859,0.029324273812116896,0.0029275507351027926,-0.0200137488159588
1681944261.0733027,-1.6374369208874242,-0.4051120870800317,10.125379170754703,0.02444292979649246,-0.026825017521362116,-0.0642138581338576
1681944261.0832431,1.500715469996789,-3.395823983081141,9.351999145621464,0.04318240624718727,-0.01686629359456441,-0.096763962096279
1681944261.0932438,1.676204579435384,5.945486110786577,8.454522901833855,-0.03312946038925365,0.00941228281577449,-0.1284784834447554
1681944261.103225,3.148338733885532,-0.258734377300369,12.302063843882324,-0.03460168791163917,0.03758273136238175,-0.0518228832247904
1681944261.1132455,-1.850108686205331,-0.8693257689264546,11.268753897116422,0.02558307456361511,0.015599222859853564,0.0477405216929265
1681944261.123273,-0.9408047095589173,1.9223179323726218,8.99022718275355,0.02557100753904183,-0.02621184105800328,-0.0015755255322209
1681944261.1332605,2.8743285562853735,1.9084232957660725,9.023578316124519,-0.012611892781769225,0.021181321869376112,-0.0450943495693854
1681944261.1432269,0.11370914880012956,-3.261696766735729,11.43099545876756,0.004822996293228268,0.01746227858164652,-0.0493216562631777
1681944261.1532452,0.8239200056513923,1.4094634116451004,9.81004047424894,0.0041597856828987255,0.027629944464029214,-0.0203939389053038
1681944261.163223,-3.561420332142075,1.93743890502792,8.411560427866092,-0.02174350690924599,-0.004085053307728688,-0.0255284003529003
1681944261.1732614,0.17958073112254302,-0.4271587247922616,9.74291860249483,-0.018075288049711608,-0.0181269127764587,-0.0051029288756898
1681944261.1832116,-0.18338627263218008,0.1305466437922238,10.17584486576245,-0.009141028268890312,-0.03440936741607616,0.0032532710733586
1681944261.1933398,5.073427800112615,-1.3318633688265495,11.22651133786575,0.0032813591283665216,0.004231290857179289,-0.0283709216478518
1681944261.2033298,1.12205266312803,-0.5155631963924503,9.442997334018164,0.009115874149914405,0.02360419098944041,-0.047686816340988
1681944261.213277,0.4571634485991911,-1.7976749006174417,9.47234053401583,0.02410539590931301,0.01748516205346471,-0.0526519614818743
1681944261.2232857,-1.137774449066845,0.9025955418943835,8.894781295632201,0.019461786701541577,0.006752827731225828,-0.0510861362877539
1681944261.2333448,-1.7458620855396698,-2.043878916584182,8.96679980132265,0.05785761736753838,-0.026677891644407415,-0.0508797030511549
1681944261.2432234,-1.5573441313262002,3.8771567570309418,8.407488508464457,0.0033322019842604977,-0.03476143758038061,-0.0479929048183611
1681944261.253311,1.2975886675984472,-5.169102633314006,10.372152509576214,0.04454702739382784,-0.04171442981834195,-0.0442001942160776
1681944261.2632256,-0.27178816251828264,3.8110682780150036,9.062333674663352,0.006769965563066306,-0.04372358284642562,-0.0705714385572127
1681944261.2734122,5.21302311207378,5.599407664496559,12.712948271230601,-0.06640858596269461,-0.01972000869244533,-0.036245034224098
1681944261.283287,4.879863752110527,-2.6090468026025166,8.192777097837114,-0.004328355843735224,0.08424624500892082,0.0490517083939858
1681944261.2932916,-5.507340604917936,-1.3890558737022216,11.814061887963819,0.039177646531941106,-0.020375502537007872,0.0093920182821103
1681944261.3032143,0.6041270971685566,1.5228940581706736,8.690603045211223,-0.005958777879373502,0.00635978871511473,-0.0659390400710753
1681944261.31331,2.128073475382372,-0.8752268140226783,11.063050323360585,-0.004538276110331751,0.023500850594304776,-0.0509240116539648
1681944261.3232331,-0.5397675019349031,-0.41157572862596853,9.970683527411781,0.0016354350405771764,0.006787096870308027,-0.036777475065296
1681944261.333296,-0.11292153689658121,-2.402371928047754,8.869584592296587,0.014426221786544544,0.010142004320035897,-0.043676694071596
1681944261.3432703,0.10747008434557578,2.2445154191012953,8.42289332514158,0.006397209419473588,0.002379984446573101,-0.001965686826711
1681944261.3532195,1.699906478872982,2.368016646623469,9.705204205961087,-0.010707140163981235,0.023795996425598823,0.0207624946173974
1681944261.3632598,-4.31927943909423,1.9170799401810243,11.762744656770913,-0.031519211727992484,-0.026854767178641385,-0.0049308023031107
1681944261.3732984,2.0849320375671017,-2.9773977302559262,11.507478886049507,0.0064633185501978725,-0.047330499134091604,-0.0437702323857
1681944261.3832622,4.849370527269142,-0.06469193615123985,7.762055577878626,0.004880507006002243,0.02495274601443223,-0.0561216521623781
1681944261.393276,2.288143892386951,-1.466812770671968,10.250731517079313,0.01622610744097153,0.03558516068949198,-0.0445282321038893
1681944261.4034271,-1.7844106110304456,0.5191114956239854,8.715664418478783,0.010216829569463523,0.03101650087534797,-0.0473442349198511
1681944261.413231,-0.9348730454224086,0.04534296104095327,10.334210153562074,0.01116001634062439,-0.004811631598274686,-0.0263556457671574
1681944261.4232478,-1.840981023162514,-1.174522578508106,7.090093989201283,0.05679771175556461,-0.008081879983309354,-0.0114190123590878
1681944261.4333527,-2.1079698203924178,3.4687018434337564,11.679370357291154,-0.002142928478908329,-0.058076129288072716,-0.0470355536404303
1681944261.4432542,1.5279064832145621,-3.5423471373127815,8.952305716087178,0.029903677921571278,-0.042847437488969645,-0.0750857378903082
1681944261.4532926,0.8105619208572858,5.971785648001622,8.495256327937332,-0.04136134503479828,-0.033112908468034115,-0.1115717004600218
1681944261.4686484,4.396399654157895,2.2795560784274818,11.014801704658678,-0.08668552021339142,0.005678562096232923,-0.0702880780759505
1681944261.4758413,4.356788665117589,-2.210970555764973,9.933898427055219,-0.03225629416784178,0.07079949714870398,0.0385669794318028
1681944261.483287,-7.917486962758547,-2.4410681207052702,13.218610185594752,0.021379519602251908,-0.041688607978410376,0.0338371161755868
1681944261.4933288,1.5824672794949597,2.267474450220292,7.620538822173982,-0.0315899873308258,-0.019581016986743596,-0.0326673287513903
1681944261.5032978,3.2230237158132087,-3.4061924333592426,10.201272829585935,-0.02400943860939091,0.014037749454415086,-0.0586037795606306
1681944261.5133064,1.6553352698678643,-5.067565046031317,9.561532772017836,0.03558874345221584,0.02712401609441348,-0.0444272283080271
1681944261.5232806,0.2919455612276936,0.5666290557942747,9.968944162854129,0.03334162029470737,0.02646345655690598,-0.0421856950584105
1681944261.5332444,-0.5186575428074377,2.488699604764226,9.124321740388776,0.0014624213512669164,0.015397840440514484,-0.0117721354204467
1681944261.5432708,1.4499731187873544,0.20126497777621868,8.486511042511134,0.009601737590926937,0.03452019064821641,0.0046864217997291
1681944261.5532746,-3.9449592078372273,2.2154609896464037,9.862016909930539,0.006942619345388014,-0.0025155415458074227,-0.0047218149143508
1681944261.5633128,-0.5208122719268063,2.324048227094305,13.55931314302472,-0.018682366933654583,-0.04831423621431891,-0.028246457836335
1681944261.5733526,4.551223581104961,-0.41424069886519893,8.714012967229685,-0.017369644895922787,0.016770779735051335,-0.0442157286766222
1681944261.5832813,1.3849389288840726,-1.1705590343845653,9.913579331044431,-0.0035115556567647055,0.021766179341895384,-0.0538410778704336
1681944261.5936477,0.7562120863443386,-1.4445687792925153,9.292773368353691,0.00596799477291027,0.027725942542685532,-0.0550054173532179
1681944261.6032789,-0.3968145181438034,-1.231569254881549,7.72343748392251,0.033482974991824704,0.025603477391890634,-0.0274086493614367
1681944261.6132977,-4.298325569167633,-0.674352032583743,8.371108112938014,0.07210993261604516,-0.030528386520273794,-0.0243788875255039
1681944261.623242,-8.061971530717347,-1.3248028942508974,10.723862794249587,0.04313857567703487,-0.12401079756546521,-0.0168042584869316
1681944261.633363,1.8481939415243487,-1.8754295466430368,12.874435328088495,0.07735096555915176,-0.14714489364379726,0.0119336618494936
1681944261.6433113,9.751137386211953,3.3416399202145017,10.939830821834787,0.028712751527828134,-0.06338663872003658,0.0300105613109418
1681944261.6532383,8.034353631136442,6.92506042144967,6.320715274242295,-0.059212870464804,0.05163732580848631,-0.0219802494707754
1681944261.6632397,4.125161548970023,-0.6542858953955466,6.676843771031817,-0.06680269731155392,0.1255236964439015,-0.0619169782462767
1681944261.673235,-6.603787018775451,-3.874006555067384,9.60119887875864,0.014968815705645322,0.11094522081687029,-0.0296820785465887
1681944261.6832724,-12.849634868872116,3.2821999656586742,17.427512568914103,0.007796470311780559,-0.11148873034194369,-0.0242162879172018
1681944261.6932683,7.259870584708198,5.204074207000449,8.969655615688785,-0.06752539088955214,-0.0365105488196618,-0.0337744254234484
1681944261.7033317,4.3875419237564595,-3.2743130903502893,8.381292511005832,-0.038929817961562585,0.020123629078145355,-0.0513332683208635
1681944261.7132657,-0.012141552983778293,-3.0751835643442234,8.84755200092526,-0.003083492031158065,0.004018426712304167,-0.0543707321944883
1681944261.723303,3.262554538512778,-3.24697250867358,9.407004665960116,0.022213923304563395,0.025643272704386037,-0.0507442179682902
1681944261.7335148,-2.9001874541058106,3.605782271681358,8.56303076279261,0.005255042813974758,0.0069616121113588855,-0.0081635212141326
1681944261.743353,-0.6699356137827712,2.6027226869461177,11.096101402975528,-0.030331844916666222,-0.022434599055297672,-0.0010289798106304
1681944261.7533844,-0.28127037719260384,0.14751334916002098,8.664514620582704,-0.019190424054630083,0.0015861780239890832,0.0061294276651688
1681944261.7633617,-1.0156802414640718,-1.8266301695975358,14.205762604232962,-0.013092137615496208,-0.07148670795368274,-0.0179462927940539
1681944261.7733035,7.648012548259949,-0.6417422324594431,6.564378524718002,0.00045793153817117843,0.035964193212123276,-0.0359065655234507
1681944261.7833588,0.3829104759792045,-0.47394274891263566,10.731628780872832,-0.008375344891390466,0.0383228112476785,-0.0487844954791716
1681944261.793419,-2.468707202359583,-2.236027059175247,9.672827874506032,0.02212546560833193,-0.00288048674837763,-0.0501621637108973
1681944261.803304,1.555683866140815,1.3816400698462072,8.574994732462601,0.01249013001345999,0.007935072948368259,-0.0198586575302532
1681944261.8134031,-0.29989163208393477,0.20376295257428936,8.455217645500534,0.028701597203047324,0.005004567459221611,-0.0365753780666044
1681944261.823376,-5.73804398878422,-2.2265682930300863,10.609451543122532,0.03510319645980139,-0.06970313458554428,-0.0287496216210774
1681944261.833392,1.237258524980072,-0.5138265635293328,11.328521904406111,0.05362647017066515,-0.09416577787201642,-0.0126723434391668
1681944261.843346,6.28301559753006,1.5496331298433053,9.49660566733177,-0.0006076067931391409,-0.018235156888084383,-0.019515297523444
1681944261.8533826,0.8434612073760531,4.638255356322586,7.534760564815233,-0.02005901063747844,-0.0034179921869095264,-0.0577674071851423
1681944261.8633068,8.487300583075694,5.0521981275524075,9.82334352103995,-0.1054117593765535,0.09068125185287539,-0.0672888543072394
1681944261.8732765,-1.2570564547965097,-5.005711683237568,6.788251603848334,-0.013241147635929493,0.159200820500366,-0.0316253166261366
1681944261.8832822,-11.56884432600485,0.4993675063087895,16.516900877400516,0.005237430994146657,-0.03373387825107544,0.0132065395277687
1681944261.8933456,-1.544789995944645,4.033572007818434,9.969163621365617,-0.046164413608703346,-0.059922816624635944,-0.0289596981915882
1681944261.903314,5.845391826387593,-1.9007081745822525,10.469265410821476,-0.05585519816208083,-0.025990515978346455,-0.0436234261456183
1681944261.913325,3.5106658041008085,-4.927534458486815,6.565722569034547,0.006729908725943792,0.03127855089382693,-0.049470328873699
1681944261.9232934,2.561996059677793,-2.337812514548923,10.825339300512798,0.02367390804751664,0.03312557243449269,-0.0422775718930414
1681944261.9334352,-1.186203770493539,1.417135315376874,8.788611539957087,0.03241586394497741,0.029029564443078415,-0.0065446311223558
1681944261.9433236,0.5056936650882615,2.058841068457975,10.237370178958745,-0.00825186356585307,0.024963702635533356,0.0109666481998511
1681944261.9533114,-1.6168162194789601,0.5478929713820213,7.963673617616987,0.016216548927025554,0.021327545231934208,0.013210044094617
1681944261.9634247,-3.458664447488934,1.2580869326017587,13.059834496858487,-0.018965136454739635,-0.04920522209594007,-0.0355004865291765
1681944261.9732642,5.131533556726738,-0.974595134854439,9.591782868338408,0.0048099313019261914,0.004802051762286316,-0.0384535688522509
1681944261.9833434,1.1667734502146376,0.3847690480239626,10.064413049797022,-0.005805748228163077,0.015717687617316997,-0.0394715081515959
1681944261.993371,0.5585860996659708,-1.9375080044753699,9.272142803314265,0.006127351547875351,0.011569449279356561,-0.0351327668491057
1681944262.006518,-0.8084926463226781,-4.071723361210896,7.801929174833456,0.07113125224528993,-0.021386956995861753,0.0008058420184762
1681944262.0132897,-2.800340722265215,-0.8290414750572785,7.585679780103205,0.095806942602872,-0.049735588866230585,0.032583650985057
1681944262.023298,-4.864786784129411,0.007154119588672413,10.873576463019319,0.0864501549252381,-0.13457565062425936,0.0483328726527043
1681944262.0333543,4.499931554049947,2.7395139091967686,11.273523140555946,0.04663639088879233,-0.1108444351771534,0.0080215449829348
1681944262.0433643,8.138747626303072,10.477426649231454,10.284959351762058,-0.0741660233855665,-0.02357784864099048,-0.0002482362638465
1681944262.0534346,13.117251354668376,-2.2516972824619215,8.003994515724557,-0.04885263100657757,0.1687154005464651,0.00067506890397
1681944262.063304,-11.2094063572024,-3.8678876628941112,8.959750356928804,0.04337961937313117,0.11369991741521272,0.0091045492713102
1681944262.073344,-13.406227081853666,3.555218651734971,15.345704368536296,0.003948484506020054,-0.09717005084892782,-0.0602607924106768
1681944262.0833626,4.842651426975601,2.4495742907900606,8.797498576286547,-0.06741628411521441,-0.025457504181143162,-0.0707899193826369
1681944262.0933352,2.9382779325420065,-4.219578076180057,9.215622958647655,-0.02276300453310086,-0.006458223093870233,-0.0429890762630156
1681944262.1033225,2.6713533422048488,-2.769570151815323,8.90448271795943,0.008583994203498714,0.003860122590792996,-0.0435490022960356
1681944262.1133268,2.7867894461545824,-1.1111899224252806,9.958233598040596,0.030173792596013032,0.014211653812521296,-0.0267203628632477
1681944262.123323,-0.10482663744900368,2.8509660686528364,8.975099383063954,0.0025290286433638544,0.02044850058791279,0.0065553945873626
1681944262.1334608,1.9381455701910868,0.5328813698411258,9.341001748491419,0.0049437830225877374,0.03140862211553386,0.0253057711210795
1681944262.1432931,-4.158700175816476,0.5114359476715887,8.502141034022697,0.02004339024830242,0.010945781341237725,-0.0002473156514814
1681944262.1532943,-1.4472035361614477,2.618930553682067,14.542692341994716,-0.03127610078224974,-0.05928072333421883,-0.0219425029668263
1681944262.1632922,5.68309662359034,-2.064802917389791,8.142052053751613,-0.005442206708634214,0.02405867316493743,-0.033007648921316
1681944262.1733005,-0.46582739539672763,-1.6785583404705553,10.317099363823537,0.009024095134675445,0.008501105779302973,-0.0522255573037317
1681944262.1833403,0.7960379562835229,-1.6211489255462033,9.114183332247164,0.02464214618278161,0.012846197304829826,-0.0607030663254908
1681944262.1933763,1.0246421375143364,1.567101591426935,9.108434652620645,0.015810362962493163,0.029350103960816023,-0.0363886814180067
1681944262.2034023,0.09557554602710559,2.047632231075805,9.889435289418206,-0.006083559433012625,0.030286267194688313,-0.0201760764780691
1681944262.2133727,-3.3355013954405517,1.6760609124963801,8.578717339236986,-0.0074061106109530594,-0.016387390893610423,-0.0316516469779661
1681944262.2233846,3.9472226505891803,4.3514782767221805,10.351427222114816,-0.07703363261087169,0.010100979938879822,-0.0709057461085966
1681944262.2334003,-1.4716397256036595,0.9906987741450738,6.249795851921876,-0.08666244729994707,0.028718788352547587,-0.110520438438957
1681944262.2433896,1.681454512882332,-0.5900099048355741,11.588438952831366,-0.11739404554865875,0.023930857541118587,-0.1119218330445936
1681944262.2534096,0.6831007697530894,-9.365714293679034,10.63907987045244,0.02152408400308518,0.0366319924978909,-0.0054052664513937
1681944262.263347,-2.5177065199584003,2.5728912012638836,13.929197616509011,0.04121422379636529,-0.04500869052143526,0.0555018958088704
1681944262.273308,1.7255297926559805,4.620210048730944,8.342537663242446,-0.0402446392031755,-0.02249844144524544,-0.0253589555236748
1681944262.28344,4.188608111583334,-4.282895110804921,8.617136014491324,-0.011402454609545141,0.0252704197771724,-0.0691918667021445
1681944262.2933478,-0.44111879815990485,-4.9276573827088805,9.462398206222996,0.05501447493411165,0.017172755547374335,-0.0599548417690447
1681944262.303363,2.4530419029410675,1.7999289430897853,10.525601821898583,0.04215041545665467,0.020923652883036808,-0.0161545306059769
1681944262.313403,-1.6917633215994161,4.592141678567022,8.819185483811264,-0.0036179850931198063,0.02992164232289643,0.0061846034054406
1681944262.3233602,-2.5271614017328425,0.5989308599283698,10.218132372512258,-0.020159159930020033,0.000261562340400588,-0.007887857182627
1681944262.333526,-1.5805964196768572,0.6461837404117134,8.377316627194425,-0.003419265328723025,0.004924966367868963,-0.0033571279223314
1681944262.3434396,-2.1238396793882193,1.8553608874792669,13.328616197454437,-0.027045583805243408,-0.06525254617171318,-0.0248883433255604
1681944262.353438,6.645627973909743,-1.3805015103991753,9.265908739208124,-0.011271964212169491,0.0017565779821018001,-0.0464639748993567
1681944262.3633547,2.6534942180239574,-0.690413274035542,10.076742014857711,-0.014827592189858362,0.032455741302735173,-0.0639820556703261
1681944262.3733225,-1.0398990395158585,-2.179394147170372,9.308471147655881,0.00573465032474588,0.006735793736727486,-0.0560480404260805
1681944262.3833792,0.07942799253940158,-1.0621979937241937,8.896783023125526,0.027608577757597872,-0.012300557664015862,-0.0080618049565008
1681944262.3934567,-1.7045252743017072,-1.2992425688469602,7.581583336524222,0.06726982659701793,-0.04166625367185884,0.0152851192665048
1681944262.403361,-1.4750927365446738,4.005407104996037,9.597060868159016,0.021249797070038542,-0.061866281871171803,0.0367263581988164
1681944262.408417,6.653514851399613,3.314760642634227,11.632178357595507,-0.028255300936757804,-0.020371121721063697,0.0119203187909671
1681944262.422343,3.1070025897953513,1.4959181602344735,9.280439285234817,-0.036380161308319205,0.029604857281375803,-0.0323799710336378
1681944262.432364,2.01538068911622,1.2413597494957884,9.203667454074518,-0.0845201237614417,0.06859432188136887,-0.0926759104791334
1681944262.4423304,-0.7534367683436836,-7.2470749809918455,8.942183256142869,0.018506995439967745,0.10969523139783642,-0.0610843535128287
1681944262.4523468,-11.156636373880513,2.9620089624686723,13.552962033085917,0.02322220437174764,-0.049306505099387,-0.0323672677937201
1681944262.475268,2.6378866680602493,3.2430480638716133,9.749629478716088,-0.05719521840308939,-0.0569536107140481,-0.0385387662413767
1681944262.4790883,10.586196514636574,-3.4633025318303714,5.364047740331962,-0.032768271069500185,0.005172951843332057,-0.0332298699381998
1681944262.4850843,0.9011194424551796,-3.989118572605322,8.999745736333926,0.0060253773721973694,0.003299750649657614,-0.0308909203472784
1681944262.4923656,3.239693441899541,-2.36053313359513,9.397892113929247,0.022285890672408524,0.024810491699714377,-0.038886957949703
1681944262.5023715,-0.40587289822047645,1.9863375943208574,9.17088299840068,0.006195471697270984,0.037030893160105445,-0.0115316399920037
1681944262.512333,-1.094393255339011,1.217200688737575,10.285913589377106,-0.011269026590216773,0.018867080104476786,0.0036982155556553
1681944262.5224874,-1.4498769352982663,1.4395639112736207,8.283320792972756,-0.009526838425922586,0.012445339904051108,0.0107082453009435
1681944262.5330882,-4.389761762428775,-1.476505085610629,11.618376999561896,-0.0022153528236984856,-0.08618049062704465,-0.0170767299446514
1681944262.5449936,3.411548948971732,-3.277351709937381,8.295533870315344,0.04592013424850521,-0.052334230437832,-0.010039864255791
1681944262.552325,0.7028958351518277,-2.479720049979649,11.36454489622189,0.060914096171819934,-0.06778536860473579,0.0010428098880448
1681944262.5624187,1.678460904476849,-2.9187514737458877,9.925786358270445,0.09168086826563467,-0.05725161513618209,-0.0178998849901608
1681944262.5724432,4.763658183274756,3.1551270061357064,11.491857037164724,0.04446088232948916,-0.022917157230569033,-0.0373874242964438
1681944262.582655,2.6901218683810777,4.8475661305813125,7.172504951205886,-0.020187643336922263,0.036700814583760004,-0.0935915048781088
1681944262.5923846,3.9981165598457538,0.27438152860384685,7.102869508099316,-0.04556598861555041,0.09101278268163182,-0.1511134516063383
1681944262.602474,2.771809709586564,0.23351826754394708,7.75211874013653,-0.03916527027394571,0.1657733260854618,-0.1526283632579497
1681944262.6124787,-0.7102434841497564,-3.3041923817078764,12.102963828086422,0.005719024350867186,0.15089961272569744,-0.1068028371396712
1681944262.622638,-4.365265036049198,0.5639730108536248,10.543090761592408,0.02784171488617332,0.10734913539359851,-0.0284021898719719
1681944262.632917,-5.822531434338667,1.5455764009236679,12.430819280691306,0.056298861922006824,0.004528430778590817,-0.0002292007289132
1681944262.6424603,0.019458998591868212,8.5176839890843,10.176953744791636,-0.06400365925541787,-0.007923742523781136,0.0160963571083494
1681944262.653819,0.8264408407363701,-1.5904000169369747,8.038415853777101,-0.026255935961170224,0.010585673435728289,-0.0061528293031505
1681944262.6623702,-2.6204943799387954,-1.86952999515064,11.944131286772748,-0.01627555833552251,-0.04798228038501001,-0.0324690539005449
1681944262.672381,6.141908732628647,-2.037781723126381,9.834387888277957,-4.050845667004226e-05,0.004857707766784176,-0.0344780955079249
1681944262.682399,2.950283723164326,-1.0382647694468436,8.874287085187019,0.019984133492259915,0.04269331884917548,-0.0264619264367273
1681944262.6924715,-0.47255277030108345,1.1762475696001855,10.154862190921795,-0.0009448300041881712,0.035345482101127985,-0.0091027311596325
1681944262.7023966,-3.063853928921485,-2.7797072914675414,7.738363560711896,0.027178634010250273,-0.00016289129607156662,0.0022103473870311
1681944262.7123444,-2.8117071879107973,-0.8384285076852762,8.398811420401277,0.07206239599343335,-0.03261317644408753,0.0015366816928372
1681944262.72236,-4.4560762438177015,0.8749524095854971,10.027785302426457,0.043617009206352045,-0.07841681932125104,-0.0108400594058684
1681944262.7324429,2.6238607441176844,-0.8753233529450271,12.838576107913937,0.04474221494252516,-0.07857809905359875,-0.0217903267207792
1681944262.7424812,6.458829928092765,1.7998964582025143,12.03568704900913,0.025119103638348718,-0.033891490954574194,-0.0074915291357091
1681944262.752421,4.6354508441927065,0.17916724854626784,7.970151310410859,0.025258153068902018,0.03588455271051182,-0.0288090362760475
1681944262.762468,-2.8553725388625533,-2.571184756647014,9.780239758416322,0.04794422000799238,-0.010757030249228111,-0.0576957139733484
1681944262.7723453,-2.4412484924463955,2.02688579387562,8.944317909582297,0.04380951235390779,-0.04004937602359797,-0.073072635716503
1681944262.782392,5.907886056139007,7.19243816531493,9.446482396005132,-0.06654333580337318,0.02469126089802663,-0.082968943900173
1681944262.7923996,5.353689367200078,-1.0955459004015808,7.489207098014116,-0.055707488611530145,0.12495260908095544,-0.0870490457478216
1681944262.8023608,-0.8945259776283596,0.49535628628034756,9.95920597960437,-0.05659653009545205,0.10986964391075772,-0.1076400216284445
1681944262.8123777,-1.0884732955971714,-2.066389488649233,9.095141210299486,-0.03380540209402485,0.131155379855198,-0.0823794018092802
1681944262.8223653,-10.668946309669838,0.05704747995351617,12.625794823362039,0.011707920327551115,0.009779368035899613,-0.0076032673555663
1681944262.8324182,-4.384507091655113,6.124418833614826,13.691022907607813,-0.046803660347143644,-0.11819776542797804,-0.005252307894384
1681944262.84235,9.811588025688927,-1.4045025064491898,7.460009977349262,-0.0602385758720197,0.010502172147313877,-0.0527242581906965
1681944262.8524451,1.8203105681393323,-3.6516080360857246,9.303212042468935,-0.011560706963341796,0.02041690254012558,-0.0640281002584151
1681944262.8623488,2.3959554119540187,-3.1868987564984486,9.576595233468986,0.019987809545019188,0.009305263929139062,-0.0501787747803381
1681944262.872376,0.22092315523074285,-4.3019954302807815,7.547270407932863,0.08068393482972575,0.030969510789799388,-0.0383296619716337
1681944262.882408,-4.642831018858079,2.2481541320206087,9.893049874944953,0.06783244530399409,-0.04841768146850275,-0.0152248471590927
1681944262.8923855,-1.4103862140536378,1.1181782369752777,7.375912700864019,0.07344287452847417,-0.051404023196755744,-0.0170383836689642
1681944262.9023623,-2.197263423399893,5.659992405121303,13.877987694073656,-0.016833413375542325,-0.07876623314793804,0.0086210159037956
1681944262.9123898,6.907568000886658,-0.5130994458032284,12.886168262991491,-0.0017153770570047858,-0.02886904010019739,0.0180150986102172
1681944262.9224918,2.255956702544509,-0.5625443446270718,7.546121514589723,-0.008565835635957156,0.028102484258908527,-0.0257534097495726
1681944262.9324293,-2.6632875128106805,-4.053363045043989,9.51276240805534,0.03553376901063911,-0.024693751373711978,-0.0722437586250952
1681944262.9423947,0.6390587898018316,-1.056564756671846,10.18010230217249,0.05071345734637669,-0.032499717912083226,-0.0738699670496634
1681944262.9524107,1.3782058458727655,1.4541200198132813,10.423450299633062,0.0369906838788572,-0.02273816567869887,-0.0463573123875311
1681944262.962521,1.8908255524375897,5.424046883119148,8.145517626478103,-0.028624351114175862,0.0016031521883404865,-0.0430031578603438
1681944262.9726136,4.440600263703227,0.4834505389732375,8.066737130034475,-0.056974130456016944,0.07101755475526217,-0.0828164603176764
1681944262.9823885,2.1748705425595,1.3917505540874586,9.416419494665105,-0.06928304381680246,0.1071964387853165,-0.1032254483166388
1681944262.9923968,-0.22993711208584802,-0.148892809315356,9.082046068963306,-0.07502586316760142,0.11889227791209654,-0.1193631600204161
1681944263.0024216,-3.5208914499440067,-3.8055271857516657,10.33804439699015,-0.013842207244937548,0.12053860879841453,-0.0789576779666594
1681944263.0123763,-15.781410603448602,-0.06879875615914935,13.838290654315095,0.04038531132603218,-0.09906188754210014,-0.057792366630142
1681944263.0223963,5.748932179149245,8.006262346105093,11.179965721285969,-0.07664385850367089,-0.08984068153989105,-0.0635870780411413
1681944263.0324652,8.770023015986,-4.232946149550444,7.076904827252227,-0.027188598882624194,0.02223302577229449,-0.0380462865892103
1681944263.0424614,2.295863427718929,-1.4785696365860266,10.730824313333873,-0.016223627709348747,0.0035799489243693037,-0.0090374566230229
1681944263.052533,3.317860098045727,-4.993234194800754,7.861392657000634,0.0475276925776631,0.03519255345011603,-0.0216537948313406
1681944263.062362,-0.35411581783736656,3.0895293604088354,9.52427410705003,0.01663594188362041,0.04317237112096139,0.008832806573505
1681944263.0724242,-1.708349202998902,-0.4792382769887558,9.945841618957006,0.031140795216589117,0.020122771935525693,0.0021891051996727
1681944263.082373,-3.268819894178396,3.7042128118558826,9.923637471695223,-0.007673105232170131,0.006001352565957703,-0.0191433030727556
1681944263.0923731,-2.0135493888751737,0.3294579603518931,13.020703760867677,-0.016562148771241347,-0.04161672487559696,-0.048417666143482
1681944263.1024144,3.039905865342971,1.1265290810247997,8.835295131539445,-0.02149659330678736,-0.008107793178660236,-0.045547203308647
1681944263.1123776,2.273892567508172,0.007727092086513335,9.665488576380938,-0.02467072579462584,0.00340641692263303,-0.0348940055432966
1681944263.1223712,-1.2520891119262423,-5.738973131370284,8.211205075097864,0.034496084552918554,-0.034098838081668276,-0.0124919443938187
1681944263.1324806,2.2478968566745876,-1.3115030679763782,7.567202009306687,0.0992302680584398,-0.027175003805081865,-0.0164359632495096
1681944263.142529,-5.085240262367742,1.5671051361899082,10.529749007669505,0.042912558835878245,-0.05531416518367892,-0.0075269324320605
1681944263.1523898,-1.2757439867414322,-2.164014796592851,13.607671274349109,0.05639120610276369,-0.13228171152373938,0.0051956496585854
1681944263.1624494,8.916851097024235,1.4324670507826172,8.897064818142656,0.03585909232360506,-0.012496752398490709,-0.0108250101643851
1681944263.172383,3.691160140869707,1.7732417872057011,9.518179867519773,-0.009896190878365723,0.0426902705026839,-0.0605905215802839
1681944263.182428,1.2976212199454866,-0.047088351614500604,5.9571768075068405,0.0012173427222642833,0.07459690103511096,-0.1207831661763838
1681944263.192464,0.7050935423775553,0.2836522760053464,8.95942386740649,-0.007545344152509568,0.12448266485250764,-0.1221155758562735
1681944263.202422,-8.27789345411026,0.7211268255367436,12.538890851944489,0.03408832900613323,0.02492839679152349,-0.0267307992640188
1681944263.2123957,-2.7500788193475243,8.11144967868084,12.888103197809963,-0.028499999862983846,-0.057759158398076604,0.0088692143012532
1681944263.222473,4.1138994410696155,0.7634048309043409,9.253932463932891,-0.06600389330998198,-0.016711196815252245,-0.0136978031683019
1681944263.232398,2.022760048487853,-4.8361874204259045,8.852062239103477,-0.005431121135994912,2.3438023725889586e-06,-0.0311689648392847
1681944263.2424626,2.849215229220209,-2.384277305249949,9.760085767005082,0.015510830577457252,0.007045956615305714,-0.0358561325433901
1681944263.2525573,1.9513329992566621,-1.0460132844259369,8.80324940282313,0.025646729554515465,0.053845493298057955,-0.0208325732114962
1681944263.262449,-3.9837220419865003,2.1937312133841664,10.08010340574089,0.005525986500516203,0.008166065307732026,-0.0099527511361292
1681944263.2723927,0.8928965648878618,0.769537676188184,9.420856973836855,0.004131683084051233,0.018306766530236517,-0.0072691144037297
1681944263.282492,-3.819430860351215,2.6154752583021748,10.229883803730544,-0.018619451317943812,-0.025546291785854817,-0.0179995327803543
1681944263.292443,3.0388276834594863,0.18952653894869323,11.927042929210225,-0.02454946401877338,-0.025316861304257487,-0.0350503373506716
1681944263.3024778,3.126140029484438,-0.7983503033354475,8.986539928889636,-0.01583667046802821,0.021769130593625632,-0.0433868180576018
1681944263.3124568,0.09965112790340597,-2.032894696761812,9.779073628741838,0.005863810982994731,-0.00017852969844905393,-0.0362447362008742
1681944263.3225188,-2.3279934792969685,-5.47460045047347,7.233895202139737,0.08378444542829298,-0.046210047008722964,-0.0158418632659367
1681944263.3324811,-1.1657724193227659,0.46487396246015283,8.745299548301432,0.07920937907312117,-0.0714469972978981,-0.0303719054523161
1681944263.3424952,-4.292194519400052,-1.1383931831188039,10.297015538730609,0.09386184873166624,-0.12812719815348764,-0.0179339658084562
1681944263.3524446,5.048812949321759,3.5560062173909652,12.447737181562772,0.021875661917909236,-0.10723345033578906,0.0069488397252508
1681944263.3623846,11.281512139786019,0.770172299880618,10.29883274711272,0.018672966495842064,0.019123178271361535,-0.0053235522086969
1681944263.3724132,2.3695989087310476,2.252809365772732,7.190756603393769,-0.004821560636555153,0.09428876207749706,-0.0553504574659517
1681944263.3824055,-2.983241311425322,-3.280694694722795,8.265215303510917,0.02877208311448013,0.09286175956312684,-0.0392796184483221
1681944263.3924522,-9.976371846468991,3.6290960663400837,10.65642815102873,0.061214271210139316,-0.0012747136369627972,-0.0340824100735834
1681944263.4023924,-3.5660054697066785,9.401812850408993,14.551365441770244,-0.08133082271713844,-0.079485899415272,-0.0295025828841379
1681944263.4124372,5.880913135398272,-3.328855198579843,8.320642222108578,-0.04507020687897337,-0.009218540325641315,-0.0215405962976864
1681944263.4225523,1.5495480370216073,-2.240962262331536,9.39384914485989,-0.009736906269869741,-0.021026414474277527,-0.0186364959541014
1681944263.4324346,3.8971284613638084,-2.7314058639835324,9.099171105211731,0.002357002615273212,0.0056345945495422205,-0.0325482386711291
1681944263.4424715,2.3178191873826863,-1.7360419741763355,9.02608901423121,0.029377273588942994,0.03799721674742653,-0.0227995991322449
1681944263.452398,-2.6729874166301903,2.0604584021414305,10.569992450869298,0.008018449101140853,0.000852249991241294,0.0087869347457536
1681944263.4624083,0.26506240481660764,0.45499265542684075,8.817503993943122,0.006984894104585278,0.012864870033475799,-0.0013906777917644
1681944263.4724307,-2.5830250643084667,1.5142338946540073,10.027143667384504,0.0024793119040811074,-0.013878771869889901,-0.0014655742875537
1681944263.4825094,0.8453927971818288,1.898363609221513,11.68489528659545,-0.014210179210693253,-0.027959167375583956,-0.0258267048361948
1681944263.4923823,2.868801809006448,-0.15687370932454048,9.698711314576476,-0.023212895402455913,0.015527286542217454,-0.0391339521470717
1681944263.5024276,-0.4925804385013085,-2.9961219635360443,10.156236141007204,0.015017447542951572,-0.010502606721506155,-0.0506397235754183
1681944263.5125844,1.975451974648411,0.4996534253127504,8.802259557440832,0.008653494098981638,0.006336355367242427,-0.0343062851193598
1681944263.522467,1.2195578205116924,-0.5875397237939377,9.60595825085964,0.0070516396893068305,0.008468697970199222,0.006037839540536
1681944263.532466,-2.6284132110980014,-2.845105609299268,7.9156409265483,0.06546652004872194,-0.02844799529288555,0.031168247425253
1681944263.542579,-3.1067643285109976,0.5983085229962347,7.760400117806319,0.03552992047575576,-0.07652004962095377,0.000708462988282
1681944263.5525274,3.013567186325929,-0.6682252630507425,9.918934078633189,0.03790967413207857,-0.04740087582906874,-0.0219079453113726
1681944263.562444,4.793045191147827,7.153027736508368,10.530257976723217,-0.05613017697055235,-0.010461147703902041,-0.0224405407521179
1681944263.5733733,7.869458389228648,-0.2929833358771908,12.084027031237676,-0.040102353918425135,0.10045894128391425,-0.0054739766369811
1681944263.5825322,-4.483326192113628,-2.4090295094169587,10.36057162395954,0.02569354087496943,0.0737549386187362,0.0154841615271517
1681944263.592435,-4.184732380244693,0.8689186385881823,9.776850456639359,0.03317014696326178,0.014561347313353894,-0.0383582014206103
1681944263.602567,-0.0653329254144478,2.4874821501164,8.844394205880805,-0.012174315391112637,0.026394732692792067,-0.043086563384836
1681944263.612434,-2.7277157200198636,0.08533737191365635,10.806937087096841,-0.019903911415437202,-0.011322322858777142,-0.0234412207815102
1681944263.6224532,0.25313187396318865,0.7875476930618445,10.694630153036883,-0.029332639400471483,-0.032526132150902845,-0.0020886633160761
1681944263.6324358,2.9400841982582158,-3.037236230001445,9.569061438241281,0.002904725480795626,-0.012334451647783937,-0.0157180457922867
1681944263.6424448,2.661745181295923,-0.8165495608345198,9.279938408379923,0.019685271691100174,0.0028289022874445993,-0.0236500680062225
1681944263.6524415,2.275498231058768,0.45774399176372044,9.560129097752977,0.01840481104473975,0.0344685740338448,-0.0323312479618242
1681944263.6624558,-2.3853755442191833,0.10189092438824121,10.733412964208474,0.008459663575347507,0.009824965351515112,-0.0334941308561018
1681944263.6726863,-0.5338448132378784,1.7740135200656189,8.104572979858531,0.010682952429021744,0.0027252478077978235,-0.0154016047331741
1681944263.682499,-1.7239375359417124,3.160764518858539,9.751265094454302,-0.023107604339889055,-0.0004127842620445785,-0.007334564960306
1681944263.6924362,-0.8517223761432315,0.5806225549647116,12.231791485194192,-0.031278041781420435,-0.04028217867611175,-0.0084902599069527
1681944263.7024782,3.1932215378340425,-1.7638147084387497,9.567101663130773,-0.01124984250280575,-0.006317265276330884,-0.0375783640506914
1681944263.712432,1.1312146283546485,-1.6692626283050247,9.911276673021508,0.0026803983353736825,-0.004547090501962845,-0.0566756549838236
1681944263.7224667,2.33041630298591,-1.3385520853750117,9.059016237115797,0.018835831947835613,0.01650935484264673,-0.0607339527073553
1681944263.733417,-0.6991323610113005,-0.6515194912002585,9.877742081376855,0.027358355544220964,0.019306059055767107,-0.0794825490179709
1681944263.742623,-1.1206286587086505,6.053009578647368,8.844731187610375,-0.013582183698012004,0.0018564492129355037,-0.0821008096996001
1681944263.752469,3.549782161431609,5.100015574710375,7.803329944166714,-0.11864989589842981,0.05026926011585375,-0.1204379286232641
1681944263.7624624,4.324361463943777,-6.5869275657063495,8.67189176427915,-0.03950849379322123,0.11574214002436473,-0.1431521337094954
1681944263.775477,-4.484562800820471,-2.3634102679662856,11.591576286849879,-0.036061585040475075,0.056045690890749934,-0.1494422565761259
1681944263.7825022,-3.586851696528826,0.5568486092565114,11.24603642773167,0.009714105521851783,-0.02624873929528465,-0.0214130963745764
1681944263.792478,1.7581157264871132,3.412616307582755,9.759523649472657,0.0013838690001528365,-0.012084716878516293,0.0473472241696664
1681944263.8025389,0.5602464377989629,2.273907233011386,10.879091353540433,-0.02793027698519848,-0.026622051808651064,0.0336056713399239
1681944263.8124864,2.063734537419569,-3.457945460565226,9.338694227669125,0.0077955161580800045,0.0038091161520354224,-0.0396731469395807
1681944263.8224626,1.233025647508406,-1.7313486170739516,10.329272579402367,0.02386883945653421,0.013469075897889484,-0.0581392731133154
1681944263.832769,1.205553641664594,1.775216505265141,9.50632018234352,0.001138489777761708,0.028779717495051184,-0.0415707241359404
1681944263.8425634,-1.5374208792432953,-0.8992864964217698,10.06183652770394,0.0031668211958517283,0.010958829090500386,-0.0206937409552982
1681944263.8524766,0.3102400929111802,0.3156462884411011,8.32050731538158,0.017847443437194785,0.009518874777103056,0.0040898025885918
1681944263.862581,-0.18247387239640545,1.9619432575610856,9.306641494688044,0.0015697406618538827,0.020580816628467558,0.0042663601611503
1681944263.872474,-2.8556766791525603,2.1241959118281617,12.356258995397692,-0.020414485532676455,-0.038422619042141726,-0.0217703479889086
1681944263.882514,3.213788872514721,-1.5024009967024157,10.007555134514778,-0.009703498506320329,-0.006746607399125549,-0.0500884290400198
1681944263.8924863,0.9117701190911209,-0.6961054848257191,9.633723405346514,0.007502029656328017,-0.0033043859399248085,-0.0532963510218313
1681944263.9024537,2.110852877140224,0.32077198932138257,9.816656451568504,-0.006274545917181391,0.0031480456101719797,-0.0416919637087038
1681944263.91245,1.0760215068724641,-4.875962165737561,8.534671920572626,0.048999543471415476,0.012778636744582425,-0.0298588994506052
1681944263.9225302,-3.1394865425081964,-0.47327681443998726,8.637881955699028,0.0747517666038198,-0.04444237975292758,-0.0027619853231362
1681944263.9324896,-3.7993418435439756,-1.449040486735301,9.001388186119392,0.07638680500123293,-0.10098708163980065,0.0183513004717179
1681944263.9571953,0.007382993867690055,-0.2409456632879952,10.376029474395235,0.08320989889941785,-0.1407472731542472,0.033508452439005
1681944263.9587042,16.896007773788593,17.489641938059922,9.764036907609825,0.020221598683465982,-0.09429176642576971,0.0106601052370616
1681944263.962481,13.655223581654898,6.366124138032067,7.055751753615077,-0.029781035805468255,0.008878775182346213,-0.0489040698471716
