time,ax,ay,az,wx,wy,wz
1700843800.0191176,0.16189731740164087,-0.9071064173874028,9.791429002088163,0.0014040675590968003,-0.0009268129396091191,-0.0006133594316993
1700843800.029045,0.39126201995226256,-0.6700019994790926,9.763822129224693,-0.00012589257317915126,0.001021145097403348,0.0015033622738342
1700843800.0390406,0.19030518685439332,-0.8729292820695751,9.808041932826365,0.0011373401874772173,-0.0004145721450999466,0.0010075286380383
1700843800.0490594,0.15584233622055205,-0.8029844705383874,9.815442008617325,0.0002585408684797384,-0.0015258366377110626,-0.0005734808975462
1700843800.0590367,0.32957392342130254,-0.8030507252418256,9.73707828337376,0.00022688229396128075,0.00014495903589034992,-0.0007455905899037
1700843800.069049,0.09356362852748745,-0.7837241512773663,9.880248453252976,-0.0009544030385103588,-0.002586425082952968,-0.0015498813474182
1700843800.079092,0.3198819430079226,-0.8430346232616573,9.724683370496056,0.0006843464011094238,-0.001445736648540265,3.0388834457413383e-05
1700843800.0891094,0.2635994108132519,-0.7267373358106277,9.81328454056831,-0.0002603856664301141,-0.0016111473270692194,0.0009333922760929
1700843800.099082,0.255744175578318,-0.808372628581082,9.782230077921948,-0.0012308233270897637,-0.0008228687325481154,-0.0010808661346886
1700843800.1090584,0.28490107080993016,-0.8948514393741781,9.721954269861019,0.0006556548486640265,-0.00014896395030421008,-0.0005284056998421
1700843800.1191106,0.2130499608652922,-0.7147653733862682,9.837139317458778,-0.001518803026930747,-0.0008761521492441952,-0.0007329147075866
1700843800.1290617,0.2890884965896965,-0.847772597159703,9.755184980010311,0.00012182745925845125,-0.0005609818917978726,0.0004938201953705
1700843800.1390517,0.2517997971851416,-0.88236710664772,9.751685952616155,0.001948709214734051,-0.0006284025865143301,0.001050382107533
1700843800.14921,0.24059501943845155,-0.6628623327096929,9.84099489894163,-0.002153585048203126,-0.0003039491856418732,-0.0008774711051587
1700843800.159099,0.2618981995721776,-0.878668735339395,9.743276825377592,-0.0014778122075773884,0.0006392745743212603,-0.0024134178412709
1700843800.169067,0.211492797702396,-0.9066146344089867,9.767421709188403,0.0020351284119729104,-0.0009465442441588505,-8.62229964327653e-05
1700843800.181249,0.2574247787981716,-0.6989119502063157,9.809381036016612,-6.96530368869081e-05,-0.0010024314539613171,0.0009177537111468
1700843800.189114,0.4002253095970297,-0.8732612567662127,9.686508376720818,0.00024176410509997267,0.0020079670911762313,-0.0010496108326692
1700843800.220152,0.22086145381989772,-0.8259941128794572,9.798624628020985,0.0021576957388861457,-0.0007412854293283201,-0.001578940707222
1700843800.2229118,0.7212750042508094,-0.1386720836628088,9.761280507655854,-0.0011268847444607676,0.001628356843590277,-0.0003578208735775
1700843800.2265708,0.3276450052913685,-1.042334120447777,9.658629555676491,0.0009317025881739956,0.00206534630882835,8.102798605294628e-05
1700843800.2305405,-0.2213326277473795,-0.7109131251676815,10.055638378851684,-0.0012699350686253882,-0.0008973804048625957,-0.002465555840135
1700843800.2402055,0.33052176096023816,-0.8797717073684247,9.711528129013054,0.0010043478101978047,0.000147942961018219,-0.0007426018593464
1700843800.2490883,0.2979866107400557,-0.4734294547043983,9.877344367072343,-0.0037662682738449607,0.00010957028906473527,0.00252035593152
1700843800.2590902,0.17926744334472702,-1.0835468187232395,9.72223453222799,0.00030846299717150516,-0.0001798847810863724,-0.0009594246977571
1700843800.2691145,0.1934935968267702,-0.7791715668741553,9.822857015306548,-0.00037400811804349176,-0.0013593268010324104,-0.0009214261546362
1700843800.2829309,0.27468031467741416,-0.8152451785528174,9.754420857113015,0.00026003127660250466,-0.0006816858783833586,-0.0006222884868834
1700843800.2890675,0.23017625631562605,-0.8002189295410788,9.786692493338442,0.0014234483699639697,-0.001668129403087607,0.0014221507124971
1700843800.2990954,0.19906858553459808,-0.6775399439515755,9.858644637880547,-0.0018752961044489942,-0.0022265693150286415,0.0003470421987371
1700843800.3091004,0.2552951482074417,-0.9096242926704123,9.74772794184716,-0.0007007070265250035,-0.0013865212976058954,-0.0016992629272495
1700843800.3191197,0.3393011541223175,-0.8661849359804453,9.705845544236288,0.0009108341255380711,0.00038636722915499927,-0.0010063546243686
1700843800.3291025,0.19994944249651309,-0.7413215299938914,9.83537025431954,-0.00031440890197335854,-0.0007640110214111431,-0.0004285656497445
1700843800.3390903,0.31976174689470815,-0.8717138251683022,9.720241724404412,0.0013183925765116239,0.0006743239374943588,-0.0002899833954502
1700843800.3492734,0.1361189343171997,-0.7883407326582489,9.840532907897282,0.0021849002589221485,-0.002542084866655424,0.0019898911239947
1700843800.3590908,0.31286194620601304,-0.7346038060594962,9.758885221969866,-0.0004779446009931153,-0.0002640790107116447,0.000248691224297
1700843800.370289,0.3010713276938191,-0.7983806570613433,9.75584019124592,0.00025817417586904227,0.000552131369489002,0.001507471152618
1700843800.3791742,0.0926857694898788,-0.7910640505878977,9.869702253639698,0.00013485668371483284,-0.0024117129460100714,0.001739170705005
1700843800.390011,0.37315348389932135,-0.8101091333359445,9.72737801270275,-0.00021606405108761837,0.000538720928625936,0.0014273708919431
1700843800.3990724,0.13689508879195963,-0.9591671048051253,9.794253808707365,0.0012360620926898792,-0.0007088830880586426,-0.0014314160681892
1700843800.409205,0.36296184661070546,-0.6342035915131748,9.777811745787602,-0.001530729605396007,0.0012528544261072537,0.0001454892161204
1700843800.419084,0.1627225749761996,-0.8028351856041447,9.82393707849112,-0.0011510987334251688,-0.000693228127566491,0.0010067854426238
1700843800.4290564,0.20939948396935248,-0.8320365877931738,9.78974209275433,-0.0015828652261882029,-0.0006962184113085598,-0.0009337170514841
1700843800.4390883,0.2792734490999766,-0.9220784752685766,9.730142126832234,0.0008173531397948345,-0.00011581716871595845,-0.0008919927524034
1700843800.4490564,0.18249738073327965,-0.763666585503938,9.834092773964606,-0.00018103742169974505,-0.001550044925044812,-0.0011818219674382
1700843800.459064,0.32715017702652566,-0.8104815116440788,9.732480496465094,0.0006843467170569076,-0.00018286809042018033,1.0272412364871334e-05
1700843800.469096,0.12597766754544804,-0.7417165457036362,9.866206324087466,-0.0012617364815638596,-0.00249106056232472,-0.0009147290140022
1700843800.4791443,0.409332257451261,-0.9265480038361273,9.656200000562912,0.0015262535524134739,0.0008415939815946119,-0.0004602435975898
1700843800.489096,0.12154888783002832,-0.6182709758657393,9.919368802189593,-0.0006362757769302719,-0.0029645436487907447,0.0024272364797438
1700843800.4991364,0.29509729678439756,-0.8777101879691928,9.73921250665068,-0.0018257435132975732,-0.0003627962608686295,-0.0024063244228814
1700843800.5092034,0.2651360485659087,-0.8109059392568754,9.769725251382884,4.582357735452502e-05,-0.0010929474362988709,0.0005951402389114
1700843800.5191548,0.39676329873216565,-0.9044932329704909,9.669119723194097,0.0015433970538658954,0.0023965467286456072,-0.000818186486103
1700843800.5290997,0.22969029254489076,-0.6906613415301543,9.83179938225539,-0.00030584090191885415,0.0015777046203009593,6.57839817363183e-05
1700843800.5390875,0.18227054287482608,-0.8255628363099016,9.811414029743936,0.00036397241655304987,-3.8696247890262974e-05,0.0004137210788398
1700843800.5491793,0.19838861375644418,-0.8511529157902314,9.796287778211145,0.0005517307743000132,-0.0006753567092304263,-0.0010801251511652
1700843800.5591376,0.4133761377418711,-0.6014569859573898,9.76271948276003,-0.0030927268223823515,0.0024341547360150406,0.0002531508915494
1700843800.5691512,0.22699113539485888,-0.9449880855677517,9.748061142257107,0.0004473908558098071,0.0013460012459151477,0.0014281160082104
1700843800.5791476,0.11050274389400631,-0.8551722930279809,9.829605021985047,0.000785306121345731,-0.0009584739029420662,-0.0004531550104361
1700843800.5891263,0.2739078494813824,-0.7360695897042518,9.785825957394167,-0.0010721263815331697,-9.383458795544993e-05,-0.0011907635954771
1700843800.599127,0.27189356908795753,-0.8002521683360649,9.764260310344973,-0.00019295586545283185,7.231790420555923e-05,0.0005269821748156
1700843800.6090934,0.26378232884609837,-0.7575178635450125,9.778044648310384,-0.0012885718931811873,0.0006426602012155389,-0.0001405805116151
1700843800.6192434,0.164625785598601,-0.9098504499725888,9.789397315444006,0.0005949373531272716,-0.0008590032199520364,-0.0008025866001476
1700843800.6290886,0.2887251164926885,-0.8045145137504639,9.759812717623218,0.0010501653078591985,-0.0004797650730649469,0.0003056843241579
1700843800.6390874,0.20396851706115457,-0.7788366242233659,9.812380469482441,0.00010282847201814347,-0.0012494165789018153,-0.0004877991624739
1700843800.6491032,0.33618340636770777,-0.8065791176496081,9.733264944606304,0.0011187260092042613,-8.230074708795431e-05,0.0015562718734513
1700843800.6591322,0.08002385933428895,-0.8467166522582942,9.85851524556944,0.0013586336209523938,-0.003227537214518454,0.0003060518618808
1700843800.6691196,0.3695081900331936,-0.8220536630474317,9.714074159432904,0.0006195197438938132,3.469928478081883e-05,-0.0017793529433761
1700843800.67909,0.25105353695326255,-0.6785336912756709,9.82720218058247,-4.28289274236681e-05,-0.0011492136413071509,0.0018177860882501
1700843800.689091,0.1877272914892055,-0.802465278111236,9.805317311856875,-0.0003952402709511178,-0.0018395057464955255,0.0006893900252548
1700843800.6991093,0.25104982976804546,-0.8269110218928577,9.77857391336395,-0.0004861362600233793,-0.0017199223646776733,-0.0001685432390872
1700843800.7092395,0.27045770330609764,-0.8557214740167446,9.748668076616049,0.0014256818884432918,-0.0016145037123469765,0.0011069983127895
1700843800.719252,0.24379249416651871,-0.7403821490176556,9.801921645807392,-0.0002227578519674414,-0.0014334460632992093,0.0003962246090309
1700843800.7290964,0.2687434234570911,-0.8364315177378411,9.763449804171698,0.00038185025739515015,-0.0009811954026635091,0.0005843399966038
1700843800.7391326,0.21547717333804633,-0.846025242030044,9.801699603687975,0.0014055630463445275,-0.001722527230879911,0.0002594908117684
1700843800.7491326,0.3285054892384043,-0.6889626416669747,9.784606789960472,0.00019297741621574724,-0.0009767236346436368,0.0023642801214377
1700843800.7591467,0.25430407599720367,-0.8014629634482555,9.779720669618637,0.00027418834938916503,-0.001025162030118004,0.002357954229265
1700843800.769238,0.30270850515967695,-0.7733789054360257,9.771392963858675,-0.0011186979124224038,0.00040647713065276885,0.0012981008738647
1700843800.779845,0.1350282214816978,-1.0110704065427059,9.749161427143694,0.0015922005681617223,-0.0006742244867979972,-0.0022286283084754
1700843800.789134,0.2547977840451053,-0.6464215322133561,9.830297716245356,-0.00031403237670921553,-0.0014665984169320732,0.0004591695622734
1700843800.799119,0.3430255912840833,-0.8915747683790071,9.701189805014778,0.000924626316087515,0.0009999146616707756,-0.0004527792217773
1700843800.809307,0.1260560393482067,-0.7765624300663677,9.848372584928025,0.0010207444646343066,-0.0019661569115498297,0.0004625256005651
1700843800.8191516,0.16304086511694746,-0.787040665630829,9.827996554299377,0.001364957306715151,-0.00388766597279311,0.001721303281411
1700843800.8290942,0.3552591536936244,-0.7840621166224832,9.723690661437166,0.00047684740131612597,-0.001321313398131255,0.0005910450389278
1700843800.8390858,0.39984807609041423,-0.8135627704242395,9.705650897466612,0.0007577295767053442,0.0015296514305610566,0.0004334522535286
1700843800.849143,0.28050741515418937,-0.7182577957610139,9.79906136841753,4.804224605768067e-05,0.0016503408039400243,0.0021065122681106
1700843800.859156,0.1170737154917967,-0.8469342095160198,9.831373551027216,-0.0012270974114640227,0.0005208296345754673,-0.0019220429705087
1700843800.8692207,0.22263260849342306,-0.7652391491457777,9.816959392196427,-0.0021900981655985753,-7.186451184501956e-05,-0.0020825939019773
1700843800.879133,0.1994145478111767,-0.8142933190914613,9.809692682998463,-0.0009961395479446654,-0.001735938144381849,-0.000149187562019
1700843800.8891268,0.22790677300018647,-0.9013809571287834,9.75672506661279,0.0013847047784432333,-0.0023737038685548903,0.0004047793416616
1700843800.8991382,0.21334977285905365,-0.818154553952726,9.796586300226423,8.532352131736637e-05,-0.0021759013284423354,-0.0020859480602298
1700843800.9091663,0.36636361949679674,-0.8980614860429659,9.678734561719256,0.0023964860272226492,0.000181845283498902,-0.0013960272073377
1700843800.9191065,0.23435542241017646,-0.6277855763910051,9.845688612767932,-0.0018410342075635526,0.000298057624650767,-0.0023273498983685
1700843800.929117,0.26492405081238657,-0.8632012088556889,9.758557754573589,-0.0003855617773892485,0.0005513850688794442,-0.0017376359784607
1700843800.9391108,0.23956083396991357,-0.7525445733586131,9.80371165482888,-0.00022611840611083236,-0.0004846161102146008,0.0010239174124221
1700843800.9491098,0.18119538274974167,-0.872796500451664,9.79063083044928,0.00014157527881819026,-0.0009219669513073313,-0.0012902260524783
1700843800.959108,0.30304489359982617,-0.7630407033488288,9.782346417496743,0.0005383154142259758,-0.0009137702016575284,0.0006465528539051
1700843800.9691703,0.29215660673308086,-0.9195020995810904,9.70176886217766,0.001583618176702809,0.0012640469431073806,-0.0016076193889234
1700843800.9883158,0.19978967024752736,-0.7801894009052202,9.832537606130545,0.0007633230908827142,-0.0012088094530049928,-0.0017622210317854
1700843800.9893382,0.2701869220146349,-0.3978406697041972,9.907559460937932,-0.00045633906833374307,-0.000959975113705074,-0.0024383644805852
1700843800.9991446,0.2227508683672984,-0.8832764044945296,9.773761362203487,0.0014346217185172434,-0.0017266200691030296,-0.0018538627074663
1700843801.009311,0.35448237323202647,-0.7110435960110016,9.751163329328882,-5.587429493987494e-05,0.00029210678669876975,-0.0011691573774073
1700843801.0192127,0.18924031390050453,-0.8681457442369651,9.79544120551453,0.001078847127012407,-0.0008724316073799468,-0.0013707026838888
1700843801.0291262,0.36052660445058543,-0.6958575190092593,9.76395105827159,-0.00033042412686967824,0.0010148143551207823,-0.0001663184840795
1700843801.039142,0.23166743655664845,-0.9281231840536848,9.749793003489312,0.001568353954339001,0.0009425480634165642,-0.0014906459720437
1700843801.0491586,0.183576891696217,-0.7372159328510113,9.852607779032644,-0.0005230139882887305,-0.0001724340785817882,-0.0021030853269253
1700843801.0591316,0.2593441411842027,-0.7673156570080103,9.780804050603095,-0.0005468649022764929,-0.0002912753261759485,-0.000944523070902
1700843801.0693393,0.1885246037436767,-0.8431343930170988,9.817007489699526,-4.617754493429333e-05,-0.0016469116846456605,-0.001592346862853
1700843801.0793312,0.31778759390950323,-0.7776126995751248,9.74088031154534,-0.00026672732918182413,-0.00028270455247401364,-0.0001618338166367
1700843801.0892088,0.21036102680197544,-0.8244047892353572,9.797782684869995,-0.00016725135096100943,-0.0009759802309752141,-0.0004181370487999
1700843801.099209,0.3472439016861648,-0.7869256876603969,9.731355489377798,-0.0003486897691923951,0.000951106487442536,-0.0003555628819954
1700843801.1093154,0.24412850474486839,-0.778629954773267,9.787651215386298,-0.0010158814945108437,0.001160843915898322,-0.0003823744947653
1700843801.1191216,0.13900243468722487,-0.8234390425229816,9.841644974967723,-0.00010802922608068377,-0.00138278919589422,0.0001116029278277
1700843801.1296644,0.21434037330789568,-0.8613493302475933,9.790539041397745,0.0008389524879123645,-0.0020894610103710976,-0.0005261679645259
1700843801.1391714,0.1917889069057877,-0.8475756883383438,9.797257632433528,-0.00014155703988517118,-0.001827964909783052,-0.0037772305542234
1700843801.1492283,0.4580694020012987,-0.6718516057671955,9.70481782378036,-0.0006094677743699149,0.0013024025332360198,0.0004468954765256
1700843801.1591675,0.1235197294907609,-0.8662078877765317,9.82414248020095,0.000478716462990239,-0.0011071151090867777,0.0001801502192761
1700843801.179207,0.23982524741258307,-0.88035042328606,9.758466683635914,0.002323495752780175,-0.00044624048432465664,-0.0023016221122447
1700843801.18919,0.1987929854153599,-0.5306578747747632,9.901302667003678,-0.0016242108740993247,-0.002652367525429636,0.0012761235237489
1700843801.2000988,0.2837419284274854,-0.9220610120949144,9.729256391659112,-0.0011384513922880575,-0.00037881120630022853,-0.0027594782178853
1700843801.2091372,0.2681320272462113,-0.916120912325152,9.735165206628885,0.001540798446972265,-0.00041718913865973636,-0.0019659990677241
1700843801.2191565,0.2154246694150914,-0.8315076204239349,9.789976773054642,0.002244142629585053,-0.0011421241368470446,-0.0019648593617234
1700843801.2291565,0.29527710098031645,-0.6890520535258596,9.80246518186585,0.00043996066260189185,-0.0005021183176732441,-0.0010436119511355
1700843801.239313,0.2926035068327832,-0.7798857026641632,9.76450871699901,0.0012640043307230733,-0.00027004521373496,0.0009304195235385
1700843801.249151,0.15227174940574742,-0.6954817258111373,9.873624676100095,-0.0018507109335540051,-0.001700553952278031,-0.0007847075350214
1700843801.2591558,0.3451991106885552,-0.7560700151682277,9.741592263400708,-0.0016149079793718608,-0.0002946246351653686,0.0016814266099031
1700843801.2699645,0.1882319174766013,-0.9662202967318054,9.764256957236912,-0.00012514831150325443,-0.00026631674117371973,-0.0023400177480284
1700843801.279166,0.28946225913077134,-0.8207367323265774,9.755473879385779,0.0014785734102241476,-0.0003296382296766505,0.000117929081935
1700843801.2894013,0.19254291154731798,-0.7389098201357641,9.833144664952808,0.0007078239139652186,-0.0020730820717973853,0.0016054363921652
1700843801.2992024,0.12225882014791922,-0.6883235005048836,9.882105296626873,-0.0030215753265505243,-0.003738272749955208,-0.0011497932020206
1700843801.3091817,0.4773957355175588,-0.8743667335773135,9.634219433355492,-0.00030807797277940507,0.00029359821263356956,0.0011062522069919
1700843801.3192952,0.22675635932548885,-0.7890320194228149,9.802135043807958,-0.0008601655819974499,0.000151663652908925,0.0004505977556986
1700843801.3291502,0.21089767169431428,-0.7501726186570185,9.827411108316376,-0.0018585331983387078,-0.0008344172265510634,0.0006014666404012
1700843801.3391387,0.2698571089802389,-0.9903639575908927,9.712535372354083,0.0007595894197557484,0.00026046004838234843,-0.0013598825782169
1700843801.34914,0.2324480401120981,-0.7460387368264386,9.810354244263133,-0.001016619036895904,3.954131298732196e-05,-0.002016280940697
1700843801.3593032,0.2643311373411214,-0.8601642059856845,9.7589773535913,0.0019982583716221416,-0.0008046212007962135,0.0012362567475433
1700843801.3691933,0.23606437041043604,-0.694178457425794,9.824264147765406,-0.0006381364541666823,-0.0008545403928251901,0.0010607999400603
1700843801.3791852,0.1984032195148122,-0.8272704599046714,9.805894025623594,-0.0018894551610586095,-0.0009819453818905876,-0.0019596646772329
1700843801.3892064,0.27140773296088283,-0.8510318997806346,9.759611078222624,-0.0008091310362125743,-0.000480525542313351,-0.0017588705988232
1700843801.39916,0.2969280984498559,-0.8271663936870988,9.7501336961151,0.0006832321771691775,-0.0001247507707538074,0.0004934384895391
1700843801.409155,0.27671304188432577,-0.849235566587663,9.748943993909322,0.0013198770693880189,0.0008192421578265042,1.7738738134072255e-05
1700843801.4196537,0.23954753749696034,-0.6623593938478983,9.84613630578708,-0.0005777846234671311,-7.70700519086778e-05,0.001477665803432
1700843801.4291737,0.23052408345904782,-0.8305676213863681,9.788263087176128,-0.0007942158790988031,-7.774522326043608e-06,5.0131767093704175e-05
1700843801.4392064,0.1522865896604465,-0.9814864032832278,9.771610047328384,0.0017680263555798737,-0.0011573966166624834,-0.0023333180462573
1700843801.449153,0.2489518798475767,-0.6124564133228177,9.853851035771553,-0.0014055398557075854,-0.0018953817865042886,-0.0006140887736905
1700843801.4591522,0.24060286255470703,-0.9375040850863876,9.73414818814107,0.0013034986292508434,-0.0017810070215110124,-0.0010108274174485
1700843801.4691525,0.3841206404286733,-0.731658064927282,9.740843324578185,0.0003363963537926515,0.0006884818585956549,-7.950461000247197e-05
1700843801.4792542,0.3936751574656717,-0.7898408225879977,9.711133819848119,0.0006564102274889489,0.0033539197672675884,0.0010499996249932
1700843801.5008626,0.10727884025741335,-0.8353141758291966,9.839061653400048,0.0009827441432100764,-0.0018663283709907431,-0.0005988115910072
1700843801.5082808,0.3599144551182926,-0.6524503947691588,9.768040540434672,-0.0005740628760280725,-0.0005296889715917534,0.0007828928472376
1700843801.516086,0.22090934993751596,-0.8908361415105328,9.770369087896356,3.94872064214891e-05,-0.0004562991246015586,-0.0006636366480593
1700843801.5192528,0.19832513296707494,-0.4867214626704493,9.92016160944212,-0.0016663110302851233,-0.001091092885119784,0.0001525831583789
1700843801.5292978,0.1997949088344574,-0.9111988147984836,9.770059718508127,0.0008270247060102015,-0.002226936244814422,0.0004718336857335
1700843801.5392115,0.2443774254325234,-0.8572256180950721,9.772006813701053,0.0016726725399231004,-0.00234017368728276,0.0003269280976751
1700843801.5492911,0.35258112339688036,-0.7331623412258721,9.756143131962437,0.00028387479385370314,-0.0002979749189804936,0.0003898825424043
1700843801.5593064,0.14838315452147746,-0.677375871614555,9.884788328900003,-0.0025849661911571185,-0.0024184298185854157,-5.417123898906904e-05
1700843801.5692358,0.3573701856744239,-0.889146045715033,9.708610294962202,-0.0004764526009355674,-0.0006559734343476684,0.0006513869855921
1700843801.5791564,0.24167843591355018,-0.8112997713221565,9.791112696993567,-0.0005986434181347393,-0.0005516712763778066,-0.0004896629135687
1700843801.5892646,0.2600488887530948,-0.7850535851603833,9.799949488455077,-0.0005707044406424489,-0.0007815207405402303,0.0003164902271605
1700843801.5991795,0.3267762723602846,-0.9258275690197784,9.702546594637113,0.0012938144354264962,0.0013597763558708678,-0.0008260396308828
1700843801.6091945,0.26985693304067326,-0.6137708103629637,9.827999254179852,-0.0015676045240889038,0.0013467230290440766,0.0010667771101366
1700843801.6197128,0.1472427444300566,-0.9632458144990439,9.784703520577116,0.0006467204612446656,-0.00017951775730261693,-0.0012615432962407
1700843801.6291847,0.27253594065482883,-0.7990190020135444,9.770148798532853,0.0010036008709461805,0.00011106142092801877,-0.0003480999031667
1700843801.6391876,0.22955663742407,-0.8388918646642961,9.786154682650373,0.0012815147429249285,-6.365430584698989e-05,-0.0014317883643884
1700843801.649186,0.24688849924039177,-0.581121457559431,9.842303080939365,-0.0025313296555322102,-0.00041496768062129855,0.0004882289238962
1700843801.659699,0.25468335752100574,-0.9503629543600134,9.725223191582147,6.33355925065037e-05,0.00028614559081748924,-0.0004222454037149
1700843801.6692815,0.2835224622336127,-0.9300985910284965,9.721249209274482,0.0027488905299370356,0.0009000891731011223,-6.199743362186747e-05
1700843801.6792238,0.2651253800825229,-0.6645310329678924,9.831107737159103,-0.0008359533083703672,0.0014745119738404245,-0.001076771458574
1700843801.6892142,0.23640503248207956,-0.8630711132440928,9.758164019685783,0.0003990036330917016,0.0013933043880640739,-0.0009068821556497
1700843801.6993914,0.12777703707599605,-0.7542380338874438,9.865235654741664,-0.0009227349911799523,-0.0012244634059940655,-0.0016802711644773
1700843801.7091668,0.3673945503857285,-0.8532930886050887,9.699741947615303,0.000844155351094199,0.0007071136155930133,-0.0001566369202551
1700843801.7191682,0.2284856340806458,-0.7350575763811046,9.817439813449093,-0.0004623047201549147,0.00023809225850035144,0.0003235641750875
1700843801.7292025,0.22312429046117152,-0.8090283820780532,9.796287936103534,8.829672137673668e-05,-0.0006116429020355748,0.0011624982697326
1700843801.7394176,0.31788468106307366,-0.751850645814762,9.759111990335784,-0.0017505068333050807,0.0013411464826115556,-0.0002691308501739
1700843801.7493722,0.17100199308705208,-0.7991741275171955,9.829066938057004,-0.0013548782988083738,-0.0006433108842598899,0.0008309531666241
1700843801.763176,0.2358361197195592,-0.8272686915941202,9.783183569272659,-0.000321480525905391,-0.0012065789327832903,0.0007847600616882
1700843801.769636,0.18519480342796657,-0.8176669523920885,9.80533994514618,-0.0007443041883446648,-0.0016379704830607642,-0.000417391350456
1700843801.7791889,0.43090933765203193,-0.9261961109203498,9.646742667837742,0.0018421466335890406,0.0019863891014213985,-0.0001767127425041
1700843801.7894044,0.0137789198572167,-0.8361195847472243,9.897180257483852,0.0014938516325133516,-0.002520117732202328,-0.0019205463351313
1700843801.7992206,0.20153918304277196,-0.8346190787646632,9.799972770338664,0.002524648752051153,-0.0039167217895903295,-0.0008558434666697
1700843801.8092003,0.3445826425131828,-0.718600278367413,9.754843130055452,0.0010393624121757161,-0.0018324216761902632,-0.0003313446533498
1700843801.819209,0.3658695847686983,-0.8350434798802091,9.718698973996256,0.0013422281344495314,0.0008110409905449335,-0.0011400972026963
1700843801.8292134,0.24265706416373714,-0.6282560773111578,9.843590348725408,-0.0017203383307008069,0.00026788449049430774,0.0001205466222386
1700843801.839248,0.21606509346998237,-0.9283941412043782,9.752557326161687,0.00046791584380426947,6.039255892080469e-05,-0.0009363267337535
1700843801.8511045,0.19219284055384925,-0.8116948515534848,9.810850634983078,0.0013984819798228468,-0.0019024740505974903,0.0004312229219435
1700843801.861657,0.2658751184015385,-0.882059427519571,9.755520435777596,0.002394628147983147,-0.0010877276597623174,-0.0006945493397866
1700843801.8701062,0.2857512877747407,-0.6676702305932525,9.807623899557148,0.00032187109528540364,-0.0005390030795256445,-0.0003324560122196
1700843801.8822107,0.25313975633350216,-0.713131680718489,9.812629746556194,-0.0021081337809063724,-0.0004536893204711814,-0.0007250952068348
1700843801.8925722,0.3550493389609004,-0.8521380113375802,9.709070279686308,-0.0007308849845913247,0.001582919131656838,-0.000247508508582
1700843801.9016087,0.027717700806264,-0.7913738544699064,9.903774742702842,-0.0008880949916820137,-0.0027086132646354424,-9.255028558938104e-05
1700843801.909857,0.43440207087637106,-0.7527967172034986,9.707143421411951,-0.0019047405563494164,0.00040199491757281604,-0.0002110096858446
1700843801.9192524,0.28064304535948636,-0.8941493296918568,9.73863969081213,-0.0001732340538752439,0.001177606931483729,-0.0005287792766098
1700843801.9292517,0.1733763256256891,-0.5809807834061628,9.919159957379312,-0.003320342749538124,-0.0016051970342825822,0.0022711393656577
1700843801.9392614,0.2780369760375483,-1.16217682983584,9.652350819293256,0.0018756932642789478,0.00034722350771642404,-0.0023117060074214
1700843801.9491985,0.24994537177448,-0.6762619427276432,9.817989664435098,0.0007219751642499789,-0.0005952625160543689,0.0010824109311583
1700843801.9592168,0.21511564395535823,-0.7372080137123184,9.832452730972506,-0.0006601100714445442,-0.0015373833552344608,0.0014605273725833
1700843801.969228,0.21911500380891105,-0.94251079283819,9.750028213912007,0.001383588715182943,-0.0015440876665034436,0.0001387885830267
1700843801.9792292,0.4324080618224126,-0.6524216130360971,9.733924953659855,-0.0024799338099734895,0.0027019861081251668,-0.0007605259772021
1700843801.9943328,0.17063796199827874,-0.8180925734490648,9.82072602061717,-0.002139416505281799,0.00022877679427850333,-0.0011039628181238
1700843801.9991949,0.30607571026125224,-0.9876592693836727,9.690526856705503,0.0004440591899584241,0.00030589925441751114,0.0001816473494186
1700843802.0092387,0.20467512833647533,-0.7880652521278324,9.809268270905308,-0.0002372911052154377,-0.00021639395780361672,-0.0002907308982316
1700843802.019477,0.23149049438287572,-0.8133183335998041,9.781067792217282,9.760843650842177e-05,-0.0006675309047446994,2.443132726044487e-06
1700843802.030454,0.1819518748556813,-0.8000029770927242,9.813282107178075,-0.0013765008981869243,-0.0011384214054558422,-0.0026167968054865
1700843802.0399115,0.25095276299783964,-0.7817443540546999,9.791556549540125,-0.000708907818729896,-0.001637961003148019,-0.0004021077649299
1700843802.0517392,0.24294733629486492,-0.8014530529997083,9.788078138550052,-0.0002030110355485079,-0.0020619098402451714,3.262738468082352e-05
1700843802.068153,0.3325745218273063,-0.8869938743023202,9.71600097196781,0.002753745431127167,0.001194740323650076,-0.0007206399924684
1700843802.0692947,-0.1260593656041504,1.2123405696271639,10.682018755999076,-0.0016532728416070713,-2.566052105839289e-06,0.0001119629131066
1700843802.0792952,0.1285292151106845,-0.7965794057709188,9.841878732081216,-0.0029858090979358754,-0.0017888438706112452,-0.0022640167036656
1700843802.090833,0.26554711302292544,-0.87996263047119,9.750733111761855,-8.789912159510526e-05,-0.0018968840057987904,-0.0004896619240385
1700843802.0996826,0.4563524373953973,-0.8704943469229178,9.651475450342344,0.00045224554540555524,0.0022687773189796513,-0.0016318011795733
1700843802.1092718,0.1261765635574047,-0.8345204545034984,9.846461091300927,0.0015635155538195093,-0.0007006800030091516,-0.0006219103699181
1700843802.1192825,0.21761211769024252,-0.7730272253905863,9.81508367329478,0.00030138768506657066,-0.0008832140202779246,-0.0019265065667782
1700843802.1412044,0.2598649201716447,-0.831812136396544,9.75809772709214,0.0013683059571510624,-0.00018883372486974275,-0.002212993730754
1700843802.1421254,0.199214750884215,1.0917056755526287,10.462306950531223,-0.0017851391193028253,-0.0006299068016871644,-0.0012023171176765
1700843802.149266,0.41376888543883983,-0.8449613007417035,9.680500297225205,0.00041538236824675194,0.0008114150182272695,0.001688509667329
1700843802.1593802,0.13949850569064748,-0.8163824131489507,9.834227649972581,-0.0007245599709154093,-0.00038924231782181394,-0.0010074747725953
1700843802.16931,0.25945164485634586,-0.7927594925717953,9.77269096786328,-0.0009339230389944814,-0.0001672217416084328,-0.0006040266481791
1700843802.1793654,0.11810441449702132,-0.9057136579510527,9.826057544768519,0.0008069087111094196,-0.002881470036466725,-0.0011460598790649
1700843802.1892984,0.3628992289076597,-0.820168285503505,9.716680513422451,0.0020016094016194487,-0.0010296127188250469,0.0004494719704239
1700843802.1992838,0.3692960134453448,-0.651290259232273,9.767050237230626,-0.001293048465079532,0.0016279915570413224,0.0004226474455576
1700843802.2092354,0.10124674653958826,-0.8626314853543462,9.829884021155312,-0.00055246264499737,-0.0008947703903224863,-0.0006077534518767
1700843802.2193232,0.24916128738407486,-0.7996528561961856,9.780720462280561,-0.001100801256910168,-0.0004972746393918306,-0.0015662712277476
1700843802.2292335,0.2940651074746847,-0.7732505944584724,9.765367544913465,-0.0007666568622228555,-0.00018994324026689336,0.0004740680877516
1700843802.239253,0.17460271745658085,-0.9671385604839654,9.763867805075604,0.00232496225279666,-0.0014613784633407414,-0.000244167156015
1700843802.2583673,0.28661723148237084,-0.7148158998479894,9.789997032030488,-0.0009402580830828475,-7.446307772497441e-05,0.0002405020903465
1700843802.2748337,0.3054149451127516,-0.8983536534927722,9.729420950373978,0.001797082997718119,0.0023235196047804814,-0.0003760173450787
1700843802.279867,0.019922458690061432,-0.5010882654214756,10.005131393225062,-0.0024009323218815055,0.0005253157273394456,-0.0022729601943497
1700843802.2861297,0.25032377087198676,-0.6119629005882014,9.847759810194116,-0.0025577758084394933,-0.0009096696550449817,0.0021448598243664
1700843802.2898445,0.5562095268817985,-1.3672348188964474,9.424251464017207,0.00029949669680429423,0.0024713942888276792,-0.0005608225939427
1700843802.2998111,-0.003537078577856116,-0.7728699100168986,9.927427997645934,-0.0011887212817654634,-0.0021747729194758177,-0.0021969668333981
1700843802.309947,0.3847623932722574,-0.7803182154058033,9.715343719793896,-0.0002231321746749419,-6.105199233762246e-05,0.0004111091774034
1700843802.3195612,0.16039358375949045,-0.8486717927946713,9.804073752749677,0.0008255383600015719,-0.0019367306047795528,0.00074974451567
1700843802.3296132,0.424885159073475,-0.7598751908193844,9.694964309817513,-0.0002179225226950112,0.0018638073813537802,0.000887199695026
1700843802.3393483,0.16562721446632508,-0.8547506427598983,9.812186045768705,0.0005528340003504581,0.0003494840425694912,0.0001682239352162
1700843802.3492246,0.23695393872040513,-0.7790490348600663,9.798745918719044,0.0001408172203513575,0.00017141151184184216,0.0002267245698389
1700843802.3592105,0.20780356836036842,-0.8164774068059202,9.795403921463416,0.0008512336964847801,-0.0009390940111650576,0.0011371778208199
1700843802.3692677,0.20979020518218933,-0.8945035275111184,9.77622399034289,0.0015668617724453782,-0.0011305763117864735,-0.0010272266110037
1700843802.3793569,0.3661764738432366,-0.6032491010159683,9.78138541875972,-0.0018812592875312984,0.0006843793186721655,0.0006554703985243
1700843802.38924,0.19622474194854125,-1.01444227443172,9.73165155731752,0.001632064592086426,0.00040683798338047607,-0.0013874560128529
1700843802.399244,0.30272120567083793,-0.7550885734378792,9.76992552526117,0.0008754491492843531,0.0014231044822831378,-0.0006666224682335
1700843802.409327,0.2683112620214255,-0.7760034714886733,9.792591321103057,0.0014498750238452992,0.0009541066263263241,0.0017376963049541
1700843802.4193983,0.154488341403615,-0.8626141542927175,9.809146830916466,0.0002108507939831261,0.0005633215503074981,-0.0031487682601068
1700843802.429242,0.1918129921094649,-0.7886432568018275,9.819387910409088,0.0006806140364368523,-0.0011268650729657072,-0.0018561062635485
1700843802.4392264,0.2422302385441694,-0.7924094687367684,9.792614403924171,0.0009928013180262834,-0.0016677622514257274,-0.0006114806048203
1700843802.4492545,0.34245239880073963,-0.7860789288234709,9.736086734739107,0.0016745258134882735,-0.0002562500728959948,0.0014091156307044
1700843802.4592357,0.21557407079312352,-0.6960190571626546,9.857795264319268,-0.0011905967894421117,-0.0007494839575907272,-6.459710417358475e-05
1700843802.4693325,0.2450150474579048,-0.8802847158564441,9.75050186276923,-0.0003244364533606773,-0.00020967900404259945,-0.0011952275409926
1700843802.4793828,0.21196978463934196,-0.7326405326281055,9.820491660137884,-0.00221580075977581,-0.0007912229679204661,-0.001682870485783
1700843802.4893262,0.3862172819479834,-0.781431525130995,9.722996652569611,-0.0015504616875156093,0.0013973988969563109,0.0006558611320001
1700843802.4992735,0.11258708497966896,-0.8453436812676971,9.845780823088106,-0.0012665875095170048,-0.0010866299161702135,-0.0005488970083747
1700843802.509524,0.326485053930212,-0.7580989575981628,9.763649255303376,-0.0016055894223536511,0.00010919464602578098,3.5966001487837266e-05
1700843802.5193553,0.32086586792231303,-0.7926633990352857,9.757013881645264,-0.0011216830992114542,0.0011548820065135426,0.0011259960709507
1700843802.5292535,0.29708192275796835,-1.0309930489532284,9.685795024084921,0.002029188693544247,0.0030804866364891517,-0.002061350666881
1700843802.5392854,0.07403312392713438,-0.5574666428692208,9.959294211375543,-0.001798930639606935,-0.0014960348463432514,0.0005411164573529
1700843802.5493245,0.2658965224537922,-0.9634253583465606,9.714327009460956,0.00012071375998463295,-0.0001396495829351903,-0.0018151161959026
1700843802.559291,0.18643577744715653,-0.7685727431503567,9.813687953271009,-5.69836714390101e-05,-0.0016394594228736612,-0.000528402440213
1700843802.569307,0.33845984347212815,-0.775247816817982,9.733301580677539,-0.0006318056543298052,0.0003669778890618563,-0.0004669511573952
1700843802.5793908,0.26938500785418495,-0.8476286286779646,9.747829413393658,0.0008039174717501217,0.0006523489474628946,0.000713239086363
1700843802.5892427,0.26009618862435113,-0.7821164021310868,9.789775329860479,0.00013932697674622844,0.0008665497462601944,0.000623836048217
1700843802.59941,0.16324241964824096,-0.8237108390253565,9.835549534113209,-0.00020226946452300568,-0.000811320804684143,-0.0007023703539375
1700843802.6104689,0.24571133822260058,-0.8177516384997334,9.77736416182406,0.0010281920979931434,-0.0013380758141913543,0.0008745406638267
1700843802.6197338,0.34923634609145904,-0.871485743808551,9.712720377261292,0.0015564134539780097,0.0009038143258530378,-0.000297438458037
1700843802.6325762,0.2771980053156734,-0.7646048128010204,9.78313686274165,0.0002637585859102362,0.0017490611036110495,-0.0002751111052562
1700843802.6418474,0.22169781964139684,-0.7740699161016291,9.8068804601738,-0.0008758063558091388,0.0015434239178424272,-0.0009896123548601
1700843802.6493046,0.23054491432027246,-0.9340688912945498,9.752767048270346,0.0026680519339033005,0.0002969714441849255,0.0016464255284886
1700843802.65931,0.16535963405466242,-0.7727444311181295,9.850658972181098,0.000510739256943596,-0.0007870994616448919,-0.0009195564081524
1700843802.669372,0.27223262119203046,-0.827142570770985,9.769158688212451,0.001520299197117165,-0.0007148337761000845,0.0001305968151796
1700843802.6792438,0.13942701350149136,-0.7776500083080924,9.851110956199616,-0.00046490981232187465,-0.002204580480707195,-0.0023347955895219
1700843802.6892726,0.3227095818974585,-0.7812902102671299,9.751256003581888,0.0005055335111488572,-0.0015541432544399064,0.0002870609576716
1700843802.6994152,0.20233236347990732,-0.6903426542683054,9.839872650263615,-0.001957998818086802,-0.0023625371588618972,-0.0001108046737131
1700843802.7092607,0.4471309903415102,-0.9254080639234326,9.640987022908043,0.0016309529114859468,0.0009887257639152806,0.0021422663238267
1700843802.7192342,0.0897136901887749,-0.8600001528843462,9.853864968753987,0.0016190208811389527,-0.0015399817118274366,6.353981447363002e-05
1700843802.7293715,0.29550963580515094,-0.6991154737740963,9.793231668670686,-0.0006906734729564283,-0.0002927710625937092,8.032006448091669e-05
1700843802.7393494,0.317754404472869,-0.9386733174773815,9.697644185446494,0.0018827759935369087,0.0013921814250719613,-0.0001547615276281
1700843802.749306,0.22435525577240736,-0.6283230202051111,9.863675574759563,-0.0013340219749410347,0.00047724578265588346,0.0010492686531874
1700843802.7651744,0.16853292749688592,-0.8372302649763571,9.815073280405612,-0.001362315442764018,-0.0016707612041696367,-0.0015111448475722
1700843802.7697873,0.7212285829238726,-0.8198019386851951,9.517497948954492,-0.0011943088211805184,0.0029843595393516096,-0.0013524606357891
1700843802.7799654,0.22865014450712248,-0.7509751651287976,9.817026186417463,-0.00012181257582292528,0.0011347520268335874,0.0026232088683541
1700843802.7895954,0.13067086783031787,-0.9474587229252428,9.804975907840905,0.0009559220224685494,-0.0001877061726224388,-0.0009724563452978
1700843802.799372,0.32949774755709577,-0.6091353184296491,9.803298215223583,-0.0028915576516977954,0.0012927177076488801,0.0002311625983934
1700843802.8093448,0.042345745828337875,-0.8301247488742138,9.88325632694143,-0.0030491352570259406,-0.002422140042453124,-0.0010317041771118
1700843802.8193443,0.32728616653636033,-0.8211278404489057,9.729177540866072,-0.002337234975051071,-0.0007926951872785654,-0.0005030752392117
1700843802.82972,0.22288287909013985,-0.8557892389099907,9.785027325895285,-0.0018503424652244937,-0.0009599630385421597,-0.0016504611586783
1700843802.8393724,0.42045489018242904,-0.9087045558873018,9.646122496374234,0.0016201260796739705,0.0018563647049822647,0.0006044599693636
1700843802.8493347,0.04607516662781789,-0.786056762064309,9.88879839321166,0.0002622748666914152,-0.0017035314587984884,-0.0017838265513633
1700843802.8593698,0.3309263313613892,-0.8211100886332897,9.738897461554929,0.0014863976168931758,-0.0006991855513316166,0.0001633752079583
1700843802.869596,0.3202009258870288,-0.600815794275105,9.810645390152947,-0.0026263273181528594,0.0006251363782570356,0.0011859798222217
1700843802.879476,0.28000471116900105,-0.8441522644059333,9.754612676688433,-0.0013734954068706224,0.0009246583978611626,0.0019042103784527
1700843802.889456,0.2066462475421107,-0.854498245285662,9.792619330147994,-0.0020332630449204805,0.0011377281181894424,-0.001046237582304
1700843802.8994696,0.2901671422714415,-0.759471623957907,9.764171586290152,-0.0014055471855881887,0.001217836098161822,0.0018949008779968
1700843802.9094183,0.16827729786318207,-0.8506681514508938,9.815709877911374,-0.0014841464747635633,6.635669099017906e-05,-2.5114673152997066e-05
1700843802.91934,0.21677943740822392,-0.8087308152394012,9.792940432220352,-0.0013764877282820608,-0.000617613539877561,0.0003425660441648
1700843802.9293516,0.28622780087079336,-0.8036580812493248,9.757397331335529,-0.0005893297039869958,-0.000187338442548747,0.0013837901759329
1700843802.9394014,0.2539103810091105,-0.8842823182282734,9.764675855076403,4.47122493621679e-05,0.00044186500418152427,-0.0005246708634872
1700843802.9505632,0.3161336802100135,-0.7575768917688195,9.75845536526689,-0.0014469098076458427,0.0035964287217045646,0.0032579901861395
1700843802.959442,-0.29480201295221,-0.893236459765296,9.887053807263463,0.0009023204178163929,-0.0032026014485439245,0.0045074201887841
1700843802.969466,0.6878302550266387,-0.8590358398902278,9.748022401961485,0.0019196081640391557,0.002623396020052168,0.0045916718198354
1700843802.9793968,0.15914147796756442,-0.7370853694623164,9.79025558211634,0.0006322112043713081,0.005219562779658476,0.0080807274906332
1700843802.9893806,-0.4253441466613729,-0.82478666272824,9.870280998486251,0.0001490638252236528,0.00035582457937029797,0.0120246969862277
1700843802.999508,0.05947866879716707,-0.8711388302449901,9.75843357320666,0.0021598814245503547,0.003255488083000365,0.0203697579680378
1700843803.009344,-0.20452748204274993,-0.874012107187454,9.699896087282639,0.0035405828761869893,0.003906505784248137,0.0235294821439679
1700843803.0194194,-1.5461338019466206,-0.53007561168118,9.770932596599462,-6.483969074246098e-05,-0.014726495488219691,0.0122049209429319
1700843803.029379,0.1935257211354654,-0.8839893243479228,10.189002896279403,-0.002754729294283698,-0.022337916112411985,0.0018137862906228
1700843803.0393553,2.562426939887856,-1.3932346130179531,9.671657466060516,0.005173442993501368,0.0094515409308728,-0.0072710150153939
1700843803.0493343,0.231339342484442,-0.4490445427931078,9.670481705646669,0.003722811947937573,0.01532139784238133,0.0022250000154967
1700843803.0593414,-2.231900771822793,-0.3050356337274986,9.40163397790205,-0.001233591860426072,-0.0132155031494181,0.0113447802840168
1700843803.0694509,0.6843816929034412,-0.8603783125530832,10.355303218625238,-0.002438574406359463,-0.02583917220132673,0.017197405057996
1700843803.0794234,3.398313676173529,-1.195301454513196,9.450520805091402,0.004233498570678136,0.017748057023251086,0.0185451741097863
1700843803.089399,-0.7888966296380417,-0.5762485671648319,9.950082999985455,-0.00047686728490072005,0.008715203683322126,0.0256064506946499
1700843803.0993955,-1.7983606716493983,-1.5808598704607366,9.600475879192166,0.005487821601837639,-0.02721059630221011,0.0239952067612107
1700843803.109662,4.476982052096931,-2.6324979348510054,9.16750942302722,0.03686746933834687,0.011151169523207303,0.0270564081846173
1700843803.1193366,3.548921581182508,1.3938662917689533,9.054321941941668,0.015499772524381531,0.06721872577578664,0.0235367278335984
1700843803.12949,-3.7778963200305764,-0.15063514674149334,10.391532231938397,-0.00020387173159113064,0.03113126426691626,0.0285868356703217
1700843803.1395068,-4.967822265125194,-1.2405791137557383,11.902286588551222,-0.00260311220345819,-0.062211862168324014,0.0211841511307652
1700843803.1494598,5.928652606773375,-1.125640663230536,8.453474814095093,0.006421901350628283,0.0036768818794746232,0.0153873256175215
1700843803.1594229,2.341290715881867,-0.6192659178553033,8.282979032178405,0.0032378006232925667,0.05557534683843336,0.0126477285055811
1700843803.1695063,-2.2490403010559734,-0.8148021531087621,10.0662597234754,0.002466540556381823,0.023879870852533524,0.0149009563727672
1700843803.1793537,-2.1089402085822186,-1.2942556914017695,11.109749678242252,0.01867663453316082,-0.007750604978851616,0.0342898267088826
1700843803.1904182,1.1749297137146453,0.3083704003776471,10.309763597290663,0.0069545599438630866,-0.010645896314146098,0.0320718410192425
1700843803.1994925,1.0018604573435868,-0.45304805370947043,8.624915079072217,-0.0044244593353631595,0.019683329809220766,0.018693228322118
1700843803.2094042,-0.9792993148987815,-0.9068563580689151,10.084999628180869,0.0026613306676459485,-0.011230649760960745,0.0179947103141243
1700843803.2194493,4.059722146725331,-0.4436662244846064,8.279437453809209,-0.006480653680889301,0.04332694652786668,0.0434139157412941
1700843803.229377,0.3755258207512834,-1.257772804156078,9.38591135192529,0.02592811633331331,0.05356517334894095,0.0951851057587559
1700843803.2393446,-3.6155573666727956,-0.20920399241890064,11.917628440803988,0.02941146026343377,-0.010333689060699919,0.0944974618731434
1700843803.2493498,2.943745451601134,1.795511117449665,9.776023463857836,-0.016626595104554425,0.007756578442191342,0.1020427989540989
1700843803.2593396,4.129365513049389,-1.3696070618878813,7.2362603492625395,0.017584724138415747,0.07713389691158876,0.1480737226782734
1700843803.2694366,-3.5598145507270917,-1.563695656795532,11.45005946710374,0.01912051228728305,0.020288383157679783,0.1346847611246998
1700843803.279508,1.994589928691422,0.7870606740387752,9.293290097118563,0.008903958313569769,0.03723963203660941,0.1376396017847951
1700843803.289534,0.4503838620710218,0.10277117052640392,10.03717741824118,-0.004240780746135783,0.04043129922372724,0.1406850117026265
1700843803.2993753,-0.26775012322213837,-1.7947116367155596,9.853434414358007,0.00014557366838700625,0.035736327500144424,0.1255045580445225
1700843803.3093522,-0.29565288655919053,-1.2631221430647102,9.956121590793877,0.008821476870286466,0.023824041889063265,0.1234598430572445
1700843803.319395,0.8766622480927039,0.47938664945702847,9.466366633541067,-0.003044119249724212,0.028762394920683193,0.1206729161320622
1700843803.3294046,0.5287908152094302,-1.996364227023485,10.066078365350664,-0.006708653086333695,0.037535102985359996,0.1117279129801686
1700843803.3393867,-0.5072429031052482,-1.5524419910255673,9.898795485613636,0.009700620322249462,0.022036333287065665,0.1085083531914647
1700843803.3493218,-1.310485961754784,-0.5017507057801558,8.422147352784169,-0.0013848573843119564,0.011087043315508815,0.0976005690871174
1700843803.3593612,-1.2830998595689467,-5.529871457560542,8.956614262876386,0.03968100182039405,-0.012538806423538326,0.0999137806473668
1700843803.3693783,1.2980626561789188,-2.9967741591907826,8.977564103015231,0.08222046007192665,-0.012361501970864271,0.1102864342509205
1700843803.3793564,4.771465337160755,5.121018263008403,10.139471111309312,0.02998756954637278,0.04068558896053492,0.1120587709127362
1700843803.3893888,1.3961599945347245,2.8400649478153297,12.45510822612127,-0.0457791991915007,0.09559891244508266,0.0991622703848774
1700843803.3996055,-8.574217139396312,-7.5428812950064525,13.05392288446014,0.022275036181939274,-0.028229472669171134,0.0481201085029538
1700843803.4093642,-0.10518266391724138,-0.42388900270693075,6.815459887726746,0.03307022554310522,-0.03395551509779199,0.0097911060555274
1700843803.419398,4.099970339339991,4.430184556080983,7.904009640560103,-0.036361045377080896,0.02201678553203823,0.0356628010748322
1700843803.4293993,3.7236017577051297,-2.647714879654942,9.791449338755484,-0.02339629122129827,0.0701782762967601,0.0667584436713154
1700843803.439364,-3.2183569100972367,-5.827568094602822,11.053599478939153,0.05595846501212412,0.043258805292761916,0.0638285475550587
1700843803.4493372,-4.656084870420887,4.432200681621443,11.940896903356958,0.003945220877236331,-0.04145433725882609,0.0606855499325688
1700843803.4593463,2.9010167415463823,1.9995897189334408,9.038599237128606,-0.050608784603619,-0.011147871743886328,0.0539999167202408
1700843803.4694085,4.4780603885457,-5.121006297834969,7.535462174253526,0.009072841171086391,0.04264892163620439,0.0799776139436657
1700843803.4793508,-1.5097381103293368,-3.067950986523729,7.166430155577501,0.04714936775485353,0.04752543512697106,0.1076328131137784
1700843803.4903462,-5.749830838563224,-3.2638753408741215,11.17947085962209,0.07611567711842639,-0.06543347804616487,0.0999493273673947
1700843803.4993553,7.279648088373501,0.1580995600541033,8.251445865965168,0.07046744994493828,0.005373283605080456,0.1233841898618634
1700843803.5093455,4.064709874220821,8.729064153367148,12.222031417828077,-0.02812322496265928,0.07525233265735794,0.1355029540835316
1700843803.519462,-4.1987453052188535,-3.650552161856513,12.826225218685414,-0.035410360390972354,0.038080185805081254,0.0915058749495442
1700843803.5293472,-5.222193255263405,-8.169979901562094,10.213768474376836,0.0646115181290715,-0.04274108153425744,0.0303149140207465
1700843803.5393832,3.381473545635416,4.949749829945367,6.2975343574387255,0.006008612046383401,0.001399589402897326,0.0066015087766941
1700843803.549368,2.2610616986365635,3.4465224767520026,8.896864648076122,-0.057029357407724156,0.038532840615363335,0.0430999147473271
1700843803.5593867,1.5025482208281868,-6.545006016147257,11.382861971717947,0.002409251226768965,0.049219436871769655,0.0657005878864224
1700843803.569384,-3.2030063237502184,-1.9848376003610602,11.247858845148997,0.05289563087503552,0.0113604476415999,0.0579182962654526
1700843803.5794082,-2.8991491838483974,4.434787444429497,10.304628282815308,-0.03475145748550624,-0.033379355406640714,0.0478566559730465
1700843803.5893695,2.171182978775165,-1.6240154695571238,8.556368637030623,-0.031244003280081107,-0.01873564716850417,0.054669470596164
1700843803.5993297,4.824009925949452,-3.350449910160854,8.583156798827687,0.013374414970253457,0.02275008257996536,0.0689524533925946
1700843803.6093416,3.5328131988016938,2.0695989831344876,8.303178050517895,0.004487102257520264,0.09201784976149713,0.1077351468382771
1700843803.619809,-7.536633981655283,0.14000425136240355,12.841927204273398,-0.02134208888834003,-0.011582953623749325,0.089874287205785
1700843803.629854,-1.635784749455728,-3.2364380587692323,10.433542120518855,-0.004414635154701771,-0.054242144823578566,0.0679019066272671
1700843803.6394372,3.539122541983436,-3.8417897443422735,6.754288330687199,0.0362964363376024,-0.01481485322447826,0.0874303403078015
1700843803.649404,1.8198602253538991,2.779089819068364,7.386408345387184,0.020943819587479595,0.007195129741713323,0.1059218096314366
1700843803.659345,1.0271122581687462,6.747364496281941,13.1152020968382,-0.08399939884964588,0.023613618427185106,0.0932251709280903
1700843803.6693869,-0.621376996961724,-7.247066803311927,12.591914033698705,-0.02841069046282855,0.026724290203783557,0.0656013461528714
1700843803.679386,-4.443997806528626,-6.352607382455622,10.596813730923735,0.0459619752374262,-0.03916080667069391,0.0143881850643451
1700843803.6895905,0.9710539208347104,4.849888836962734,6.032095898634718,-0.020234770418570247,-0.01514648887909558,0.0055413773050899
1700843803.699362,-1.710787303858295,2.063424882623035,9.779092804387737,-0.08190642983355176,-0.03407445206822609,0.021041895332783
1700843803.7093892,3.8265256999376924,-7.872326087830853,11.677571983669132,0.0027251166905903255,-0.020345482209073396,0.0213752343086894
1700843803.719422,3.759809084751943,0.10509431264773184,8.891750331118685,0.021832209812840505,0.05220981246253285,0.0477865236578877
1700843803.7293904,-6.77867906302308,3.718094504095842,10.665288633467934,-0.03625138170157782,-0.025179494388335628,0.0453076186357434
1700843803.7393842,-2.9447189527340143,0.4953936305760862,10.944727980410427,-0.07337844757430205,-0.08293820919207805,0.0297753448365624
1700843803.7494814,5.320344967438119,-5.038027178556106,9.743564363301818,-0.010575920707714235,-0.045296748239245024,0.0448421100853379
1700843803.7593763,6.446927003274676,3.194824406529366,6.1100506789901186,-0.02280282866714509,0.0436573215638233,0.0571425380884106
1700843803.7694554,1.1298161747205415,0.45248604088348776,8.094740284844473,-0.04413212130181422,0.06316340278279683,0.0617119158385689
1700843803.7794805,-5.29578035249002,-4.92480063389366,7.988781332545477,0.005222746196545168,0.02562720322913063,0.0792041915236409
1700843803.7894258,-8.768246589754051,-9.141825296630788,13.721237308566982,0.07175641988563092,-0.10866826259421078,0.064576749759763
1700843803.7993338,2.877089779218878,-1.2352271552046936,8.957774335724945,0.09518490534283644,-0.10330137585728401,0.057139896857589
1700843803.809396,9.417561685925397,8.32898358998305,10.175852106312108,-0.02768213600777918,0.059227543123520264,0.0428835461615021
1700843803.8193536,-3.2732138440940783,-2.823633346155245,12.659008550793036,-0.03490537989594027,0.05398677811351875,0.0122940643458064
1700843803.8293445,-7.860226301678633,-7.028408731768584,10.203038873220128,0.055707420334616016,-0.05740909671090871,-0.0132991046877209
1700843803.839344,0.6253306885841214,6.70841759141678,7.58909473141717,-0.013102655639134307,-0.05864261488903044,0.0105856154812868
1700843803.8493772,4.246176882146164,1.7149447116715573,9.157730390679838,-0.05600178649477856,-0.0070459693727115595,0.0320760431466992
1700843803.8594103,4.399274391925592,-5.989122978736685,11.066712070210134,0.01210877098752822,0.0399048398802668,0.0311029656557734
1700843803.8693943,-1.9965430619548548,-1.1506868067344007,10.296027046360098,0.023789716935741997,0.02579300370214986,0.0363663035212452
1700843803.8793757,-3.3630882703847518,1.5271908235813072,9.767145689439236,-5.985933805249836e-05,-0.029643860750379798,0.0534977587638791
1700843803.889393,-1.493271696698148,2.077630548894231,9.251730260166333,-0.04467359678295977,-0.05866751654932611,0.0402640039800103
1700843803.900585,4.1532207796670315,-1.7822191499466316,10.350273592151868,-0.03272290619541739,-0.03069877082330127,0.0473144958494599
1700843803.9100766,7.191099227688957,-2.506272607791175,8.665907539424053,0.010765621177433626,0.0652190369857143,0.0662868815241749
1700843803.9293108,-3.1361151922947355,0.13547740583683643,8.897709178521433,-3.099911794335159e-05,0.0376473562512268,0.0576257976470883
1700843803.9303792,-53.334092125982544,22.390110245837864,42.163455616811504,-0.05404171922171302,-0.07380303826331559,0.0478324713884289
1700843803.9393492,1.7049722648733088,-2.145122864685898,12.60047714272297,-0.05576524148808266,-0.0899678821046243,0.0284775300650294
1700843803.9493608,7.745549560642825,-4.486579177038609,8.1323498606679,-0.012962501543295717,0.01670491893267682,0.0384211214958127
1700843803.9594295,2.594247712520059,-1.5258906901548492,6.567725818742782,0.017120728417718143,0.06366078726945174,0.0602945769904549
1700843803.9694486,-7.884173765555581,2.306867785871719,6.937723831026478,-0.022163014883427107,-0.0036597564725970697,0.0553269247291977
1700843803.97947,-5.594980892599017,-3.043067097744985,13.193554207390832,-0.017091964334051142,-0.11774737354546737,0.0694742771564419
1700843803.9894302,5.144818905097327,-1.263384700365819,11.793496832851503,0.016760843427579632,-0.0677532993126002,0.0905759903369839
1700843803.999444,4.7309649174291915,0.6406019445116787,11.033331347223275,-0.025376155002617334,0.015619682850954886,0.0331866788445408
1700843804.009444,-1.1282871016988494,-4.766355015192156,8.325516782300989,0.002504400976526508,0.031139068486155705,0.0057623391738529
1700843804.0194452,-4.62918528628472,-1.9820751284921503,8.904780209314236,0.021079207337821006,-0.03263611987383136,-0.0048693799646203
1700843804.0293934,-1.985196300401416,3.6855870927902004,8.463303778616115,-0.01857733710845991,-0.059882696600565076,0.0161537295906241
1700843804.0395107,5.203510525026918,-0.04871021101564127,12.605527127797995,-0.03484250962372628,-0.0240825994104778,0.0314366883365805
1700843804.0493925,3.9345418564376913,-3.340408107157616,9.234331100982708,0.004266023419657485,0.04186276831977529,0.042422236013263
1700843804.059538,-0.759218924579361,-1.622650329995481,8.930030104723375,0.031666424958622465,0.03041187979697544,0.0755887376843388
1700843804.069433,-6.076607781421025,4.722906919292836,9.147032348711054,-0.02290867028570566,-0.04528735598084831,0.0673510852037365
1700843804.0794368,1.108993811818774,-0.2106297114408755,11.994087993739194,-0.05740668820078839,-0.06540464843555245,0.0567705380497868
1700843804.0894766,5.531831080381604,-3.4872354989483347,9.436767638654155,-0.011368996682699238,0.005538704492923343,0.0732754441677029
1700843804.0994704,1.610080125866505,-2.6540460562344332,9.302363608447793,0.01377551368738728,0.028903188471146382,0.067489561694711
1700843804.109999,-2.486675149082253,2.821344609595943,7.968595109138384,-0.02448121949497675,0.005201460145935032,0.0610121051548417
1700843804.119558,-3.0772982196839522,-1.5999810514772017,10.123554366023514,-0.03630864440191532,-0.04154989346409969,0.058383216219991
1700843804.1293771,2.148047086466778,-5.817389935335125,10.314596928133943,0.026531979414239053,-0.03664948730282826,0.068438951927274
1700843804.1394029,3.6744631964098247,2.542720980229076,9.49276874161561,0.020139332281763393,0.01269373804386968,0.0867524417816098
1700843804.1493826,-1.6445898703242092,3.1427234211379136,10.519500374518087,-0.06039045817669739,0.0169379478222458,0.0519237938104565
1700843804.15936,-3.6097089541361522,-7.260383022732141,11.502356782563838,-0.01131491211514043,-0.03547608403603071,0.0069166916190083
1700843804.1694489,2.0752805117966093,-3.4653609568999704,9.017125072704298,0.032631306526872024,-0.026337748362247688,0.0125129670603569
1700843804.1794798,3.5427669191794022,2.9470266584123253,6.8732271549545825,-0.001524484866927737,0.03775803438818626,0.0357433083234723
1700843804.1893933,-4.873459094670028,2.9286612791683098,10.106949060968645,-0.04778326314813309,-0.02819130671153634,0.0409846576629574
1700843804.1994555,3.459562905783335,-2.1060439130319577,12.056231657715395,-0.03891262300768975,-0.01882905495772254,0.0450361567316945
1700843804.2172296,1.9789012226340306,-2.2420029273894317,10.818090314991334,0.009517108654507715,0.03402285666679658,0.0655816319166119
1700843804.2195272,-11.201668493441808,3.223240450615686,14.780280563247864,-0.01643740501824684,-0.008847094864110835,0.0401662858901913
1700843804.2293766,-3.170243237762582,0.7218112346095433,9.12873230681861,-0.04399487436915292,-0.05187370283094632,0.0324659506557877
1700843804.243416,2.143164028267048,-3.9789251014058147,10.456358950875552,-0.019823974440241098,-0.05053206107197405,0.0267178090988095
1700843804.2493734,8.43412527013332,-5.987077874618891,6.57601129826672,0.032306552162740435,0.022216188822256094,0.0457423376618321
1700843804.2594552,2.68992137645335,3.0661984374312508,8.660470268741378,0.020508250809008206,0.06840893206369328,0.0785418349085743
1700843804.269445,-7.541446531572289,5.093671903541282,10.726073067357245,-0.07134274590542701,0.0005838582603117913,0.0542209419189389
1700843804.2793722,-4.394166736659049,-4.991147578200465,13.4444478758012,-0.04112346692418411,-0.08917005743278114,0.0259209527401621
1700843804.289414,5.908102007497508,-4.075137396796071,9.424679151660708,0.005139053635094269,-0.02185737928317558,0.0229817862389977
1700843804.3005073,4.193103327973552,-0.48758009532570407,6.720665621609291,0.016476315783618852,0.05832508579255184,0.0404782677768166
1700843804.3106606,-4.536430947188726,3.2087081653205165,8.331627930571253,-0.0328764577838847,0.010983015768488851,0.0438174466370041
1700843804.319403,-3.626633939000097,-2.775590556312429,11.667427798959583,-0.031074844398825685,-0.0527674141178647,0.0428406196413929
1700843804.329486,4.574970741986794,-5.798624269720858,9.718814380815285,0.04199040100156696,-0.009200803749149378,0.0679051923333104
1700843804.3394375,0.9481052716054416,3.5990487924632686,10.419925379414112,0.014221782340948242,0.01194513922547962,0.0718222307740147
1700843804.3494258,-2.613892739205973,1.7947881922608169,10.879255060543446,-0.060682444891361105,-0.010315490739957417,0.0313010505168135
1700843804.3593946,-0.9724233053282068,-6.738344334685454,10.168107381192605,0.0014331277607487185,-0.031339485997890444,0.0065093152923877
1700843804.3694675,3.520562664903063,-1.8329139140848258,8.043045962774336,0.027902054220235745,0.008758207372093029,0.009135871264189
1700843804.379434,-0.3815213101008554,3.1584019385030873,8.284268031869487,-0.013501662666339898,0.025425637688824672,0.0224717641948159
1700843804.3894608,-3.5132998577483865,0.815426053294921,11.755375375058133,-0.04203600167642198,-0.04188450306089467,0.0279262131778891
1700843804.3994744,4.754089347346472,-3.792255289935101,11.011584408107082,-0.0016332051144906867,-0.0017777284097828814,0.0445699552772934
1700843804.4094374,2.598952567156174,-0.5051012180905948,8.786419663405754,0.019899148202604532,0.03925887286323489,0.0744894194184239
1700843804.419414,-4.81958448968409,3.0853981856919654,8.857895926388096,-0.031915000435717496,-0.004798819661447507,0.0596198933897908
1700843804.4294088,-4.949998154685343,-3.4483293497305425,10.704364073652815,-0.027994425111316206,-0.0945410716402251,0.0430957610486443
1700843804.4395468,6.766600858477803,-7.067053221669887,7.939578419945985,0.057117210713558124,-0.024731585941804704,0.056470607477277
1700843804.4494429,5.039239922438233,1.1382072213045706,8.88362467317227,0.05442295173463105,0.043549176421034876,0.0920067402301724
1700843804.4593914,-1.7141007164980198,6.294996199019326,10.29454385938318,-0.029575613896429383,0.05515697671979813,0.0772946002660687
1700843804.4694393,-8.035075343841651,-3.2726843843189886,13.947893724743501,-0.04493460078469814,-0.046414240238115426,0.0162786981789763
1700843804.4793942,0.9435578791556604,-6.154607265495921,10.237268205856273,0.02632199543125242,-0.0659254379045363,-0.0111460480140153
1700843804.489415,7.740506067675614,0.3112670079705492,5.858427192861265,0.029427719990288002,0.052577585825586026,0.0231856378494198
1700843804.4994302,-3.1170872810222594,2.5632361426546404,8.725913070704856,-0.017552949382888948,0.030686127995299614,0.0468720952747757
1700843804.5094104,-4.936960204118506,-1.157384263277437,12.656882170391661,-0.026129722921070304,-0.05759510900146293,0.0445854785619671
1700843804.519391,5.271019141330976,-2.7722722431198226,10.940496088187713,0.016725718402266197,-0.016789813792162878,0.0551552410005028
1700843804.5294676,3.421288003564345,0.3120371367647679,8.362759129850465,0.013796158079403719,0.044785451486060446,0.0666424232302601
1700843804.539435,-3.5894636949561463,1.5812782341258924,8.632888615919729,-0.01915289399545716,0.008731943076860824,0.0750243413029606
1700843804.5494363,-4.41940723964051,-1.5948790855285602,10.339359482126767,-0.017312290391012036,-0.05902978802981421,0.0799276950536664
1700843804.55943,1.8550004113512224,-4.842592372798752,10.037539598105319,0.02305881223812184,-0.06302159767718579,0.0664967122255261
1700843804.569451,7.164324847258539,-3.2453636420154255,8.22398972932384,0.062240838900038176,0.029361410438306812,0.0964435460744793
1700843804.5794656,0.6175685471603805,5.83051943348952,9.551625132519671,0.012915871920956347,0.055688386651849366,0.1124800937949116
1700843804.584554,-11.729707186301374,5.022879185067864,14.702928159747758,-0.06800641185127534,-0.016758394158038474,0.0612208182691033
1700843804.599432,-1.7808719517502527,-5.975288291787384,12.35699607000177,-0.0056449803841985705,-0.09666322826062136,0.0096055689035351
1700843804.604546,12.6569851258988,-4.9899167556846,4.526191579338866,0.040083907502373506,0.002664430782247007,0.0111560384510453
1700843804.6183977,2.1751340953555633,1.4109081430706831,7.355234189278522,0.00631335394450783,0.06312713310759835,0.042620469885915
1700843804.6284266,-3.7860699654038816,1.0789823796832245,9.393416657068453,-0.016427749010613356,0.015699804063061176,0.0746186124859746
1700843804.6384194,-5.067357561396367,0.12767969168894358,13.145545349653256,-0.024668389920613553,-0.0731644902648737,0.0770130204735692
1700843804.6485183,5.0869719293898,-1.7506228852979497,11.127227446882774,-0.018610986878942016,-0.03420386460582685,0.0730486857472355
1700843804.6584656,4.412612226098416,-2.5145688187358295,8.243404930375315,0.012861636821843473,0.03129415745339478,0.0700123953400548
1700843804.6684608,0.5298592115828815,0.4515967697311304,6.84518007007436,0.007638170437177073,0.04790313059608107,0.0842359262286122
1700843804.6784148,-6.7798925919009845,1.6770819510246626,8.638410840731982,-0.030811126371182076,-0.014538687403435748,0.1027800413547452
1700843804.688444,-3.5360687306874645,-5.544509938387102,12.773423182477917,0.025347614999289583,-0.10838463038210686,0.1072858246742184
1700843804.698446,6.344044755647925,-0.06892461019559132,11.085164832724534,0.03208415827733014,-0.03758292228500229,0.1054022061406071
1700843804.7084413,7.3324503225692785,0.8207444338451357,9.357136165900553,-0.008586314449817927,0.07633004392842765,0.0817612680374081
1700843804.7184489,-4.191391478019655,-3.8425385289832446,7.589423735744641,0.015731789770043948,0.06629899692025529,0.0681573646841939
1700843804.7284975,-8.235589320107827,-0.03937119667008308,10.872065791328872,0.010437910604769032,-0.06269159279917846,0.058927477407306
1700843804.738536,1.9944066554200508,1.8013831373368108,10.21138352676416,-0.02104508563133233,-0.055390278720478546,0.0673844563542302
1700843804.7485192,6.426126045191772,-2.5026447371949554,10.656106723936842,-0.003937766847072103,0.02351585388041958,0.0692568766652043
1700843804.7584145,1.5112610458493827,-3.0028805184672445,8.732078951886773,0.03361541588078526,0.04969130161939943,0.0799732851563389
1700843804.76847,-2.202934092417515,2.221346172618041,8.85532766671442,0.009324971508681536,0.021630005564167373,0.096570854145139
1700843804.7784245,-3.1922437094959335,1.4703505992290633,9.95422201320673,-0.024637572350767724,-0.023367059548422595,0.1014614748536046
1700843804.7884216,0.3507968813421327,-3.6256389012123074,10.861358818602321,0.00016015570323424033,-0.04524824627273846,0.104761135834306
1700843804.798466,4.985588965492936,-2.241643370489733,9.474808721629593,0.03527476440232978,0.009011353892764808,0.111050215619653
1700843804.8084602,2.9331612107029907,2.4132005333252944,9.638603977687275,-0.0008019308495431201,0.05889289711924033,0.1050255420385296
1700843804.8184414,-2.348390650255446,-0.4208953830142892,9.155962691712233,-0.02196197749221065,0.04608801983549785,0.0985318469582493
1700843804.8284688,-7.039510131630735,-1.0887135264239747,10.449686583399057,-0.01978318893856955,-0.050917758894798625,0.0722735496936734
1700843804.8385355,3.2359337439107727,-3.169191574747779,10.104955578932566,0.0006295979353166556,-0.04089705752963864,0.0698031532345707
1700843804.848662,4.9388232725493335,-1.7886151848326612,9.358945451905388,0.027506869858498897,0.030510227598973125,0.0845893519698079
1700843804.8592398,1.2581634889998645,0.6095757598646265,9.873915709560391,0.0038489453086833795,0.054220888786989586,0.0879866379080708
1700843804.868611,-4.150757201777679,0.8208843801328568,9.14083353779967,-0.01729756098961209,0.017630426001541084,0.0908317762194569
1700843804.8784575,-4.876968871815728,-1.2689321126812045,11.048372156579594,-0.020172946608597628,-0.0680760000089958,0.0721647190628941
1700843804.8884733,5.2507288779453285,-3.396431931243079,9.43315882963975,0.012262475608866707,-0.019436834382650117,0.0770188021241124
1700843804.8990204,4.327052994362501,-0.1837863324596082,9.827419840433967,0.022599527253094578,0.04349604384087019,0.0939995097695286
1700843804.908528,0.00622282874674875,2.205731152082744,9.24736279630674,-0.01960658542921857,0.0576804812940846,0.0907181474147732
1700843804.9185011,-6.519853514035852,-0.6171731146854509,9.96326697223003,-0.03296668631746582,-0.017743558504540503,0.0766669037519391
1700843804.928471,-0.7038725559666644,-4.224237332997973,10.659941511264776,0.003864834300647742,-0.06271263205458094,0.0602058890043194
1700843804.938515,5.732850429791572,-2.3147723224650947,8.686829068816445,0.031066625112949827,0.011522947415159884,0.0762888612924511
1700843804.948565,3.6331166833158246,1.802804671996085,9.911583585891458,0.01147367109312952,0.06353160156866867,0.0971963601885731
1700843804.958477,-3.9692827369025405,1.8595319792633007,9.116401168923929,-0.0341591181708523,0.04120249648554804,0.0843098359881337
1700843804.9684868,-6.9372179896418835,-2.9608307054348626,11.893000942555116,-0.027079409741662768,-0.06936690593014343,0.0643374222098286
1700843804.9786026,5.114980531282857,-3.406955344648167,9.733705094735713,0.011810975365557305,-0.028669097730232157,0.0416759523330624
1700843804.9884894,5.355461354075742,-0.3144030085165796,8.60494566113292,0.006409497327867778,0.056573941671063374,0.0490711676655705
1700843804.998548,-0.5638751278263819,-0.32740849464863697,8.68437725823066,-0.0022896907361863277,0.061595993614231806,0.0743290829239781
1700843805.0085864,-8.430349518453607,-0.25690487221261826,10.119710530847152,-0.008585416241951159,-0.03578404654204329,0.047101249056905
1700843805.018447,0.16466370530813815,-3.1202762379891964,10.92874559062901,0.010161592051281625,-0.08101641571990278,0.0452921177028115
1700843805.0284426,8.628301588375702,-1.0462641930386372,8.652701566390853,0.033661915214276514,0.03695851282234226,0.0645794170676167
1700843805.0385249,0.9570566258859261,2.3153509220884296,10.339131460919516,-0.009723406372814008,0.07041816166956481,0.06317639823541
1700843805.0484838,-6.0230407650983,-0.9461745427116263,9.35216144535233,-0.024966313559859975,0.010039905013901907,0.0610103691695626
1700843805.0585563,-4.846745971901414,-3.6802602060505776,11.594349384675176,0.009781523458074808,-0.08679174917933596,0.0445576543687279
1700843805.0686097,7.747136397392229,0.13538764277563461,9.265087849089863,0.004422784032541656,-0.005491955056936169,0.0377379628597195
1700843805.078458,5.198328631735014,-0.18083463187104887,8.421086077814357,-0.006118790080409459,0.08576503361052806,0.0639815899311001
1700843805.088549,-3.8929627543386194,-2.101278007933831,9.880269768768704,0.013922199909311627,0.035525415769217764,0.0808806764660771
1700843805.098436,-6.6658994197654815,2.013473534554736,10.274383075577536,-0.0184862711094473,-0.05053710529061256,0.0675362842856343
1700843805.1084478,1.9336146213495211,-3.362122730687206,10.158347034400977,0.0036341028328700617,-0.061650232027786675,0.0687788921175892
1700843805.118453,6.106879831904968,-3.0548599240356906,8.53871694841499,0.04636046966367392,0.022563033878569755,0.07677513088569
1700843805.1284733,1.6529072662278423,4.028738561045058,10.51562295130969,-0.004726904312556573,0.056998662268873145,0.0807591127930577
1700843805.138488,-5.912361200969518,0.6011992106945513,9.532136729902616,-0.04003598146323199,0.003968731020421695,0.0634337785421307
1700843805.1484802,-4.151192766949364,-5.282665138740789,12.168171087058756,-0.002877185181939856,-0.08910652915021645,0.0356371226488049
1700843805.1584704,8.140996256315296,-1.198997002928464,8.235696542293786,0.017536878330513962,0.006254363363127865,0.0350593450246747
1700843805.168481,4.252127334333842,0.9374623245285736,8.525315520574416,-0.004912758538475429,0.08383203582902654,0.0627711835084851
1700843805.1804848,-4.86105202162295,0.09513655506638237,9.59155348727314,-0.0184511924473176,0.022665264537374347,0.0799820991931851
1700843805.188444,-8.021781471210007,-2.1743695314661218,12.135899402221577,-0.016493173497752686,-0.07730360136893541,0.0626662830589707
1700843805.1984906,4.83773679092804,-4.769942793182222,9.108111953300282,0.04138982260907328,-0.05477787275915984,0.0561319711385663
1700843805.208548,7.551305665949902,2.2858022034807846,8.463494098893218,0.02836661613074024,0.06296396430819182,0.0765978964744504
1700843805.2241,-2.850352352846828,3.5381771416018184,9.628922521463855,-0.0553135516335163,0.04119260185868109,0.0749181258259709
1700843805.2285929,-12.529647248094241,-4.498929562189968,13.401429790660828,-0.04623582884360672,-0.04817279305346812,0.0557131889043744
1700843805.2384453,1.6635485973204682,-6.056228594749786,11.475562269632238,0.023675748281056487,-0.07566765275180881,0.0296947630821164
1700843805.2485838,8.892388676818328,1.591586678360574,7.262598453642263,0.0009617280529588142,0.05801043268162309,0.0363535891054566
1700843805.258554,-0.7149544494716311,0.04074145942588497,9.236586890177577,-0.020050471698146412,0.07075472169481746,0.0656921836315091
1700843805.2685628,-8.578282376821056,-1.473707251375779,10.62148855989346,-0.013666816283492743,-0.03727598663646964,0.0562856989680226
1700843805.2785149,-1.2736292028561458,-3.669736529516849,11.05760767710185,0.015321358964024248,-0.09594524957939633,0.0504142540274556
1700843805.2884922,9.484037063117116,-1.1643752624652548,7.7780653943145275,0.03677995977592519,0.020513977719730587,0.0627115416108067
1700843805.2985182,1.856952782110742,4.686375337952949,9.7159573626061,-0.019231174897608953,0.07663657727057681,0.0698315697489674
1700843805.3084824,-7.980050802006604,1.387848168317702,10.340733092724845,-0.0690204750126777,-0.013238696008818138,0.0608255053637917
1700843805.3185515,-2.334786157603598,-7.223852035546991,12.064310673967588,0.0002771654265391788,-0.08307020194124622,0.0361378128407891
1700843805.3284864,7.174083589635008,-1.290458180262521,8.510025881841305,0.02410400226197758,6.731307317668419e-05,0.0203416059492524
1700843805.3385398,4.26904611899886,1.5835241850863568,8.110200343553025,-0.02119630429730681,0.08703433411613148,0.0398502024589474
1700843805.3485727,-5.702803088550066,-1.9266092229023735,9.895487131598575,-0.0039106681065896355,0.019812788735774182,0.0655759173212941
1700843805.3584793,-6.366368667863216,-1.7568297957581376,11.539614305557217,-0.002584905659159745,-0.08164774468843913,0.0485663945554192
1700843805.368565,5.750380366394864,-2.356421473664715,8.834619266248549,0.021620972301965042,-0.03884850939549406,0.0514243888436253
1700843805.3785207,6.604358660965887,1.2843367345997592,8.64855408514866,0.020342739151913133,0.0665798960443286,0.0732753845630581
1700843805.3904593,-4.723087924396552,3.6451118769968716,10.248798421589276,-0.054546694900015444,0.02078464966262783,0.0649683373747761
1700843805.398478,-6.0582693317431,-4.5256069942484825,11.674648131415328,-0.03501922373732198,-0.060114751310376635,0.0501608113525803
1700843805.4084857,4.007067916449637,-5.082461374593637,9.722219752995352,0.03659162254646006,-0.037900875026886834,0.0224457430420811
1700843805.4184668,6.471682337093978,3.004238409914973,8.168357532549239,-0.016458982379795227,0.06714272700465854,0.0304849604843552
1700843805.428492,-2.675511897456622,-1.2608498328659756,9.453852817659557,-0.02198948041906889,0.047857894007450996,0.0597339617787297
1700843805.438507,-7.436273077653848,-3.484421018390133,10.785125933423846,0.00757400326793278,-0.05423763521171119,0.0357871065615113
1700843805.4484851,1.39974588500582,-1.572134563949304,10.06943936228468,0.025411196611506613,-0.07547665251303808,0.0417601252673562
1700843805.458504,8.010030061150706,0.46526346541934804,8.097466230703333,0.015374528818436683,0.03612489333793354,0.0704992535291607
1700843805.468556,-1.23136299343536,3.226218079723725,10.548025157214596,-0.025759209423487157,0.04003033755659353,0.0605758289574082
1700843805.478515,-6.102385990878838,-0.26382192022879386,10.808368893041482,-0.05161586460562991,-0.03223457933358989,0.0510202097474034
1700843805.489572,1.0370015763307883,-5.186000270302331,11.140757844978646,0.00570552678212768,-0.05815093096855921,0.0195397949545081
1700843805.4996977,6.823765218337694,-0.665945828406432,7.65892454019791,0.01010333646906893,0.04198177703232345,0.0198694179533417
1700843805.5100386,-1.4202090401235838,0.5542820754356901,8.937337462695329,-0.021657701640407295,0.05040206699603813,0.0340362238465245
1700843805.5184677,-7.738646682644789,-2.103144857479295,11.530305215102917,-0.017193742478025357,-0.04704507806491639,0.0233154455898697
1700843805.5285344,1.5904154319257127,-4.245620810473535,10.26557312154476,0.02411534603991673,-0.06110231786122351,0.019989344361275
1700843805.5385094,7.164452460127837,0.6538416182954215,7.371466880562394,0.03000462389311299,0.03929387270434407,0.0526388670085366
1700843805.5484726,-2.2676007878313795,4.57535350738456,10.898085610880486,-0.03179088313208529,0.025405407396543848,0.0563258873997624
1700843805.5585103,-4.121877339872385,-0.9905820980475166,11.375253079321412,-0.046368090202914776,-0.04306510375555082,0.050050132977813
1700843805.5685165,3.6594075058500453,-5.004576066152875,9.812676065896005,0.014605677544297571,-0.01695203718392873,0.0315346597461398
1700843805.578616,2.6253739014741764,1.353837219119442,8.587079032391657,-0.009663064882871166,0.035959699680660255,0.0188961728243525
1700843805.588516,-1.942675857734473,-1.2935590836855526,9.548763110247465,-0.027932684347261365,0.023509989930756686,0.0198097276268895
1700843805.598515,-5.0291992792325635,-3.5067337899522624,10.102453989038594,-0.0037625454140772703,-0.047758908628054764,0.0055192826083298
1700843805.6085298,2.8734725141103206,-3.165007466256187,9.12414693733977,0.03354744368638002,-0.03152668416148984,0.0123617742909486
1700843805.6185338,3.958180378423026,1.2073308791011028,9.278436087610684,0.017188535589781232,0.027371984005943675,0.0565910721896584
1700843805.6285143,-0.6592002355608038,1.9332278157987968,10.855031390948634,-0.012779276672892236,0.03172401026511424,0.0623594830511506
1700843805.638527,-5.275340061818661,-1.0067328079615654,10.635347728972643,-0.014083460256256895,-0.0326926122136009,0.0490307408152516
1700843805.6484938,1.3729234964160852,-1.8709255326878818,10.256784575655022,0.0002120650217671487,-0.041811002732976124,0.018510534497946
1700843805.6585286,5.464342648507958,-1.9772654377267944,8.134639808199989,0.00537657718898542,0.04255420004728757,0.0115117682842905
1700843805.6685607,-1.5785100285299338,-0.32253048149087676,9.022282802203232,0.0013827034274001837,0.0387102598305744,0.0301325182197983
1700843805.6785078,-5.234233592595294,0.2091772618281235,11.048512439160596,-0.016423161716042425,-0.03890015346558946,0.0320694046793873
1700843805.688555,2.967864731328407,-2.8594356576380418,10.654805544245589,0.008144921388791812,-0.03692248066412643,0.0380622195778782
1700843805.6986065,6.087994148121581,0.6970000875322757,8.414910414007277,0.011538121571341441,0.053643444491162005,0.0543789016781743
1700843805.7085216,-4.229705035203154,1.7525147481063332,10.12684233039175,-0.029520021556318717,0.016613540190917892,0.0568420747993882
1700843805.7190664,-4.520208217210173,-3.824032316526933,10.215174750150181,-0.007686526286157131,-0.06184008796054163,0.0400996627984936
1700843805.7285974,3.453530870454583,-5.22176273836289,8.438781092331254,0.04448724608061063,-0.03551961498874293,0.0257322854129965
1700843805.7386372,5.208720964459109,0.7564894585211343,8.632988110207425,0.030327134075025665,0.03976031343313563,0.0433837818680699
1700843805.748501,-0.5624380697219593,2.271672560539972,10.888689160641304,-0.004971624049100569,0.04921290920380294,0.0663647847948964
1700843805.7585409,-7.51319123139621,-0.4498882879062704,11.69567191372658,-0.019957158559861743,-0.03601622935880296,0.0375551405130322
1700843805.768829,0.9483521856944968,-3.4874314084995723,10.576609089914683,0.006853347517478221,-0.056441720030289896,0.0079568555346127
1700843805.7784958,7.314443944252425,-1.5462734067804544,6.643509666266864,0.02806768823610812,0.053622213220956824,0.0061541810399289
1700843805.788504,-2.484933034826037,1.8062076692867446,9.288319496562343,-0.004334397148907151,0.04529116368708633,0.0258191722212727
1700843805.7985146,-6.781664131015286,0.9615045873178563,11.678681677175724,-0.02825830140214844,-0.05628221431523584,0.0421746234177048
1700843805.8085434,3.5853203570039756,-3.9885238292744525,11.885173645763158,0.00464924155931556,-0.054072061269642424,0.0355730215786393
1700843805.8185167,7.145702898369595,-0.969811933210656,7.481133670167679,0.02662939837585304,0.05431642097673667,0.0503612207947667
1700843805.8286698,-2.1075053702977065,1.4923348231796538,9.100448034189414,-0.01660653438055977,0.04143594740126596,0.0478623631177838
1700843805.8385406,-6.036053211209618,-2.068724219976771,9.885929288780304,-0.016330006417649718,-0.03635213661062314,0.0357818427263195
1700843805.8485708,0.5584018831170068,-3.723409347439112,10.72379368358445,0.02325217779176637,-0.06396298547307815,0.0399947996018822
1700843805.8585372,5.648738294214805,0.557183358047301,8.63721747646735,0.02553250971756899,0.010525794520243244,0.0718280720292027
1700843805.8686285,-0.5160207522767611,3.909989548963889,10.627776374941353,-0.03382048294542041,0.020564011013630052,0.0750631439267094
1700843805.8785176,-3.863020052621809,-2.593736703554427,10.548607156472196,-0.030948294068132133,-0.025526371898129833,0.0663016932784016
1700843805.888546,1.4642105226783693,-4.7241957268442,9.742471570452814,0.03237027380287459,-0.027126305466786637,0.0272956426022942
1700843805.8985057,2.8521551256988884,1.3761667146951047,8.40006368605015,-0.005246363529949042,0.031233320115099352,0.0097528799204524
1700843805.9084992,-1.5089841152070234,-1.6432423882324496,9.476567956212339,-0.012078138674272834,0.019723214809172634,0.0211301716743405
1700843805.9185674,-4.206740685261066,-1.7237542921301872,10.706195847499323,0.0055008295950040266,-0.045715793286142385,0.0165542094735796
1700843805.928516,3.697173264573547,-0.11428190150242842,10.949279525853273,0.0006544484080767632,-0.03111102532340622,0.0248647696106131
1700843805.938501,4.817911876859681,0.17829343403052592,8.480463425381405,-0.008060067459341012,0.04495238707681313,0.0458051982103283
1700843805.9485614,-3.1953535172211716,0.019339948729825984,9.517958864020091,-0.004181772821341585,0.00804518362803545,0.0608692737995083
1700843805.9585946,-4.939715823006621,0.5758217000819741,9.522063816439493,-0.02908269828881649,-0.060698507173495855,0.0704204338370259
1700843805.9697094,1.9164979728218698,-4.735854495224941,11.141083721910059,0.014939222771316043,-0.06835482677092891,0.0644611316500599
1700843805.978572,6.497181123251896,-1.1814775857969115,8.937313926306356,0.033805061517616274,0.005310815179657205,0.0743574845372136
1700843805.9889598,2.3915878440448437,2.8337094073219715,9.018352767025219,-0.020792650829119994,0.06821857189249916,0.0585490065394337
1700843805.998902,-8.02706019613375,-1.3560097305320822,9.998288191663399,-0.04037887286964859,-0.01258141546716901,0.0235555349616702
1700843806.0085845,-3.3491997414080723,-4.536742222990035,11.780848086885204,0.001334423317737123,-0.09167469585320076,0.0051129046595092
1700843806.0186005,8.503040145907772,-0.6940942082308641,8.778762175354036,0.013495239592123464,0.011361247403343742,0.0153667014791067
1700843806.0312717,1.278647673348907,1.5317370863905904,8.104963684987606,-0.011963362199863286,0.061733624871385125,0.0328324558912213
1700843806.0385654,-8.71562006797276,1.6750165415372946,11.36787906437378,-0.03965158667358111,-0.02999174401168778,0.0479596453486378
1700843806.048535,-0.7321170138104975,-2.316180734869348,12.951988501165527,-0.022000347265749547,-0.08825141715548737,0.0417034971295292
1700843806.0585248,7.710535800408077,-1.5953975815069428,9.051051831479207,-0.003827474653830058,0.004356301531809462,0.0339129316388066
1700843806.0686235,3.3636615927136244,-0.3000436747287491,7.50518433401739,-0.01691110920849978,0.07047190598593753,0.0414653840242321
1700843806.0785675,-5.062531581867814,0.058293688139579185,8.90770385699112,-0.02990215973123556,0.022138096260744485,0.048826971161216
1700843806.088544,-7.382988842294071,-2.316632854476258,12.248202364430798,-0.02824981311540978,-0.09567071444686849,0.0440545315621788
1700843806.0985918,7.278769003858694,-3.1518528505472334,10.379200506745182,0.006709806033328103,-0.041176404640033464,0.0528622987447674
1700843806.1085498,6.325441579269137,-0.32685565332300287,7.474483473011185,0.009742682893950586,0.08122957201488057,0.0438422011910374
1700843806.1185422,-6.365466877446893,2.3920753796343357,8.839166599088514,-0.03758900855284423,0.028832616244456075,0.0270133345155413
1700843806.1285715,-7.539185079261125,-2.7937242268372757,12.300939838824569,-0.028578726674990677,-0.09698845480636908,0.0213003857760127
1700843806.1385214,5.379825884526304,-3.0271025226914245,11.102521834906677,-0.0008858970536883762,-0.06224769862950104,0.0013258025399777
1700843806.1485574,8.06333785190687,-0.10590423997600847,7.840122211404853,-0.0029257437252612,0.06350758739016751,0.0143093886552746
1700843806.158584,-2.4244672070672446,1.0560451202189285,7.975080060174572,-0.022939140335271533,0.050514924990508095,0.0437173890648777
1700843806.1685596,-7.737505441131077,-0.21798631355693662,11.25472615847993,-0.0365605654134573,-0.05905387095455574,0.0435995357809956
1700843806.178559,1.958294368758543,-3.4362726186301455,11.705290343431392,-0.009726787169704928,-0.07835570970213943,0.0401344495593007
1700843806.1886775,8.125661487111214,-1.2575393169347502,8.75084432025357,0.011004814160142658,0.03450607174446223,0.0592985871015484
1700843806.1985538,-0.34063442665937776,2.153123577118152,7.902937744913201,-0.01920983800686287,0.05336325459585771,0.0596318739233906
1700843806.2086017,-7.464642849119034,0.42588859638411064,10.584573319428811,-0.05888465314183349,-0.032844873816024,0.0457353862701352
1700843806.2186036,-0.7440585452050206,-5.188135957042168,12.190784328463415,-0.010872195496627553,-0.08999863073230877,0.0207623774884636
1700843806.2286031,8.418065147213838,-1.646837025423759,8.077302676906122,0.010684410783384416,0.02239987580199927,0.040320941316932
1700843806.2386224,1.0635905073179273,2.1264303580375294,8.040955357107157,-0.013666764444013012,0.058305600768017045,0.0503349090693886
1700843806.248612,-6.246206523970741,1.891565176861778,10.413854681063878,-0.06156833722859892,-0.014648512347359338,0.0426792437909539
1700843806.2585366,-1.4530155721958793,-4.505966695148758,12.392509905715654,-0.02142792438940484,-0.07224147393933492,0.0413806895492966
1700843806.268581,6.013207021861599,-1.923693523751948,8.96738758116262,0.0019594976196339207,0.007194107064342412,0.0543534206925328
1700843806.2785726,1.4117895583225728,1.200568634797427,8.31086358036491,-0.021435221206523192,0.0396811179663637,0.049783811974376
1700843806.2885473,-5.0804716163135115,0.22786371815806386,9.39045177177889,-0.05317535834234757,-0.00638607605625224,0.0270449976204331
1700843806.30927,-0.665860774993393,-4.1749626142478755,11.149703328538132,-0.010735808925757668,-0.06436588385264631,0.0196191138355429
1700843806.3108592,27.905474736989756,-8.96286141655663,-5.7733615951047685,0.027451449478375637,0.015481832693155957,0.0411921302555497
1700843806.320366,1.215817917969134,2.012035123632201,8.931540221267152,9.935591856765816e-05,0.057592709866782825,0.0567007857142384
1700843806.329356,-7.7090745959668014,0.9417058577657488,10.960997931867624,-0.038953892609816354,-0.02132167102033171,0.0307625821559126
1700843806.3388093,-1.9958100076892606,-4.3287077743346085,12.07819547474207,-0.0063300034252956675,-0.08073296489011822,0.0052675433224435
1700843806.3485794,6.612115309429945,-1.3668808674296522,8.372638451228294,0.004728595861187455,0.005931780236980899,0.0048401780194039
1700843806.3585863,2.112554867873015,-0.5269325646564111,8.153613707574149,0.004075463227125679,0.04921507525298301,0.0275237812428172
1700843806.368609,-3.8653348366378526,1.1817824241155643,9.09674086635409,-0.0155040021267599,0.009149362224241514,0.032417201506942
1700843806.378634,-3.991289957031657,-2.575912201521432,11.845469005520904,-0.00929968040078377,-0.06270296633186556,0.0308115958003695
1700843806.388564,3.5322856507694924,-2.569448154400698,10.249527493984706,0.021668559928974967,-0.039840140568476796,0.0291865086881812
1700843806.3987143,4.850908580934739,0.2220539307382088,9.320672592629867,0.008181301474293069,0.035440128640296165,0.0355692702113087
1700843806.4085608,-0.19414847991513837,-0.14539966408630647,8.042976127432476,-0.003557635840064135,0.04551768947547151,0.0498075569747384
1700843806.4185429,-6.023040346872718,-0.6630306267515869,10.447873909914634,-0.017803643689919615,-0.024428860907753588,0.0304098288296158
1700843806.4289303,0.026354369766584125,-2.2507445356319815,11.159057815276933,0.008639295162569154,-0.06527977280915398,0.0220038509695227
1700843806.4475117,4.197358092226705,-1.0812841355872886,10.252515440320959,0.008707535626501986,0.02048245991426808,0.0310762366978819
1700843806.4494352,4.885818444780616,3.6337289852856087,7.951094443426564,0.0007096536333436116,0.036087135859098396,0.0482173423050339
1700843806.4585814,-4.418374937886906,1.246229611478768,9.332661144647128,-0.02367017872639573,-0.006869767685059063,0.0420981208561356
1700843806.4685743,-2.8636729984656144,-3.085637471728049,11.785488372673772,-0.008804175994085988,-0.0756204650063167,0.0171421943931277
1700843806.478551,5.811927307751425,-3.319725542331427,8.623076721059459,0.015191684399275662,-0.0015338225920427343,0.006909436616152
1700843806.488568,3.128178464943052,-0.6001627848760169,8.975639318739145,0.025544338421477988,0.0487902889410621,0.0308455313323433
1700843806.498568,-1.8546633931498968,1.1029386876350609,8.85180871912582,-0.004716741788880829,0.042810219916554156,0.0448043095646794
1700843806.5089674,-7.045294266907303,-1.08749800700052,11.796487258118823,-0.009731966185206633,-0.05416511247964084,0.0336483428953583
1700843806.5190616,2.2209194980875058,-1.3622118235982,11.252449222794949,-0.005221521589531155,-0.0631172971982625,0.0080371471820767
1700843806.5286422,6.896553063940547,-2.0766409242441295,8.190168616339777,0.007761432980720719,0.035567223255250566,0.0163767589955027
1700843806.5385735,0.2949118680289803,0.4969563207353365,7.993705017126376,0.00048021240423624527,0.04888211044165525,0.0346802259562905
1700843806.5486069,-6.101299594378664,-1.2713187552082466,9.364354254380954,-0.0027113844575095396,-0.008620052754270972,0.0196255492745335
1700843806.5586522,-2.591436230302509,-3.1887459635022983,11.708969997588017,0.027212323512776124,-0.08435057979719686,0.0093059642939265
1700843806.5686214,6.86580031644573,-1.1265926675031521,9.534977474283718,0.026755904856623495,0.002619182032503961,0.0100139585091169
1700843806.578608,2.362422766210765,0.9958474969084674,9.59825514588423,-0.0012998191847767141,0.05431864536816412,0.0169578260509665
1700843806.5886445,-2.834269607976415,-2.069575829265863,8.931384876341877,0.0005376394138628729,0.032002503601977234,0.0326253260253365
1700843806.5985937,-6.646416071340898,-1.032513615156467,10.980508617732335,0.011235745745894815,-0.06969678302149625,0.0225873841671641
1700843806.608879,5.089864431871518,0.43035132038882706,10.576233150683576,-0.003811792829328077,-0.03643689472490293,0.0117302761180694
1700843806.618742,5.267848919784119,-1.1804979770178943,8.53536359116542,0.0013724192019123303,0.05076704264500913,0.0101675224258001
1700843806.6286154,-1.2634610266420725,-1.1534482085599809,9.385772925459245,0.003228704605603239,0.03294661478859319,0.0302847633837159
1700843806.6386073,-4.70657436779471,0.022571974286721176,9.286345346458502,0.0021020436711465572,-0.020587515973145554,0.0120241102530057
1700843806.6486084,-1.8900396712701013,-1.8113137947811564,11.08562540496828,-0.0026625114494837343,-0.0760031924847043,-0.0053114406065647
1700843806.6586394,5.726215615486379,-3.696301880697625,9.339067471518241,0.0245680244804326,-0.007676149663452722,-0.0080445808590952
1700843806.6686184,4.372537477035265,0.1784033638859475,9.33908066750145,0.016203279970289843,0.061123072380115155,0.0103841536445911
1700843806.6787138,-2.8568994326183392,0.18718700188417478,8.71384163817244,0.0021804781891825663,0.04963310740060372,0.0245867325691874
1700843806.6889937,-8.995561249566931,-0.7242381627805732,12.204444395477847,-0.006077493106849626,-0.0857833477282826,0.0159288459224994
1700843806.698558,4.616050593175537,-0.4838220746652249,10.741992910780251,-0.005117991126566296,-0.06662280627027109,-0.0156539296032492
1700843806.7086096,8.78605288823802,-1.4260394594007753,7.6597682719387254,0.0026718441525618256,0.06501045885608035,0.0032342114253337
1700843806.7186651,-2.0799917589541517,0.8283367982671785,8.059573932142236,-0.006770294763197791,0.055345469869637676,0.0138620315818484
1700843806.728558,-7.886351198849279,-1.342555507160652,10.85939748989145,-0.018152234393425053,-0.04183057571074789,-0.0031440052436296
1700843806.7385745,0.445552998683183,-4.0982310851440085,10.820115203462787,0.020041401704834365,-0.07780090518181201,-0.0233595584751669
1700843806.7561822,5.404135708569033,-2.2552684480245246,10.170398542651425,0.028500164927186798,0.027541460714239126,-0.009981857542843
1700843806.7586052,8.569629621324891,5.774991355229241,7.238772229855952,0.009541156226540289,0.06705452151944827,0.0183231710223849
1700843806.7686644,-3.810447236997983,-1.3412031806633444,9.997685629166371,0.008060072683982079,0.03242968397550408,0.0299933898030217
1700843806.778602,-6.158667378068832,-1.2516245264432009,10.868288761391785,0.024111927952120863,-0.06315764248434895,0.01479080978319
1700843806.7886238,3.8956135020596263,1.9142186488587294,9.852595537194532,-0.0057344704441538484,-0.037623479292770906,0.0030180358561124
1700843806.8000677,4.629477581398726,-1.5073350773375096,9.7417661508652,-0.0003794434934312574,0.03505982456463206,-0.0038338586920504
1700843806.808586,0.27184941035730203,-0.5561082130620442,8.135664255635572,0.007796933919480161,0.04720432988731536,0.0057919878280158
1700843806.8186052,-6.17188858745295,-0.18211565991847953,9.928234569077352,-0.010881100398942667,-0.02206332417682494,-0.0099627998889987
1700843806.828609,-0.7867403695476619,-3.3607412078555905,11.15634199394445,0.01171345071199766,-0.0706800646775651,-0.0319319953443114
1700843806.838676,7.9630182114131705,-4.407734465735283,8.517275510093999,0.04352101624754756,0.032351569329775814,-0.022324345004708
1700843806.8487167,2.4466510354755044,0.7742617962611659,8.941225416054287,0.02933405917030343,0.09383014276546638,0.0003809580128658
1700843806.858697,-6.9980128423959105,-0.18974373764581046,11.146500983570078,0.008938564655687613,0.018190226076737582,0.0133375460980828
1700843806.868665,-5.962569918414996,-0.8246351800138468,11.472382724559814,0.017862440751753587,-0.0892044641517678,0.0196332233725483
1700843806.878723,6.72361070405166,0.13325927202728746,9.334563749728739,0.01609252665278416,-0.03347337347456708,0.0085473005427415
1700843806.889154,6.921339793905189,0.7016611588937062,7.879719664066338,0.0066162874832056085,0.08175983644095569,0.0088843992678816
1700843806.898657,-3.9021714405436083,0.5873122284836194,9.841772515222448,-0.014185424981340598,0.04409543111939781,0.0262399344472582
1700843806.9091527,-7.0467500560412315,-1.0038406723907758,11.603321056142411,-0.012013635741474451,-0.07556318600869642,0.019776870566457
1700843806.9186008,6.1895004595410175,-1.4189849549766393,10.575290046109366,-0.008134617843761694,-0.0417835918438906,0.0097687263740594
1700843806.928617,7.302419019098554,-1.3792458246412997,7.504438810172208,-0.0003494907041692554,0.07763648784035128,0.0223818468628819
1700843806.938605,-4.29567242587148,-1.156368337760157,9.798042025402014,-0.0066871645540960666,0.04099711217430233,0.0206414638786013
1700843806.948595,-6.105901896102729,-2.9326825826049103,10.24015934617988,0.004734236107260081,-0.04764969409714345,0.0026482330402727
1700843806.9586177,4.497639896810226,-4.819483106806454,8.363586573505211,0.05519676278843144,-0.022886195845375212,0.0115629565669591
1700843806.9686265,5.74154144994815,3.6313058683840285,8.862979257396281,0.031080708405179312,0.07826990039627006,0.0353682386456425
1700843806.9786415,-4.930854209758636,2.599420714359121,12.509095479843978,-0.031063710517549144,0.04167290828134955,0.0350332977949078
1700843806.9886284,-8.036535734510176,-3.773001382316309,11.567960416428276,-0.0008878332361887235,-0.07759456473571952,0.0227501160232718
1700843806.998593,3.7206417983017945,-1.317098368389565,9.116273447220237,0.016370378992110336,-0.058629859516800824,0.0041009980021412
1700843807.0086102,8.802506212850549,0.19235197939850654,7.267833152074725,0.012076888086485138,0.06271921421280957,0.0305385431973631
1700843807.0185993,-1.9093218675014005,0.3730535617482577,8.738359685875489,-0.00708085673217647,0.06986674376124673,0.0416423502145703
1700843807.0288072,-9.070746921840838,-0.8186968604986735,12.904140810702485,-0.0194591401656282,-0.06942092477014354,0.0387382368324692
1700843807.038828,3.9287877072867037,-2.001177694841191,11.061773604314615,-0.0036579242466252414,-0.06763177492145266,0.0266253418056662
1700843807.048593,8.57886805204259,-2.4820265225850062,7.404853399871548,0.017410408343202507,0.05332425857457743,0.0294384444831307
1700843807.0586371,-0.6082015530444623,1.6814395065677796,8.23819902673604,-0.0019064290269946113,0.05984056333680378,0.0485434579430516
1700843807.0687456,-6.871122781510285,1.9008266922397457,11.005167512788748,-0.04287692186400338,-0.030942737227218374,0.0501440512715275
1700843807.078714,-1.1402658215803472,-4.075812695658516,12.105117581681565,-0.016332907737420747,-0.0941675058371135,0.0468482049880917
1700843807.0886848,8.598469419620853,-2.305385314949993,8.485749725921934,0.018657688906240588,0.006537967565448068,0.0725227790652211
1700843807.0986853,1.8140949599551819,3.905960438465948,8.600375143499859,-0.02629096865076474,0.0506023859123389,0.0653570416150982
1700843807.1087344,-4.771178180055504,-0.36654546326703646,10.689868456299934,-0.06320477781445939,-0.0010662549448668536,0.0492103780387337
1700843807.118592,-2.9676600741238013,-5.351761792974216,10.620680628752414,-0.012783887136847959,-0.06147599906365407,0.0320397215662892
1700843807.1286974,4.010466250123936,-1.3170162896720259,8.575442215559615,0.004217826674262231,-0.015393535535947385,0.0442588488338883
1700843807.1386285,1.1395509711200063,2.7589884163742244,9.453315690343553,-0.036412338852261625,0.005152678405470011,0.0534188720165188
1700843807.1486242,-0.707306557082443,-1.27763779248506,10.920329943987053,-0.04458547847705698,-0.004025635056145592,0.0458398583112652
1700843807.1586227,0.390618887868927,-3.6644102917217523,9.77748248398476,-0.006021732018798973,-0.0003272207448174754,0.0464288900373871
1700843807.1687047,-1.2996680255297635,1.5303623929832786,9.018835434771102,-0.020049843522793404,-0.012248335470741754,0.0429440299747879
1700843807.1786225,-1.7854063044974544,-0.5339828956968574,10.855316914207336,-0.04708699714166541,-0.042907976643735586,0.0373252118705208
1700843807.18863,2.8588109314479646,-3.5105056225949642,9.377500719147795,-0.013206458375552534,-0.013599666366976534,0.0415200750111039
1700843807.198643,2.8325588681989466,-0.6782037861568453,9.235329716616123,-0.0017116950821393505,0.02128467725697074,0.0644201013027127
1700843807.208654,-1.6169696542410108,1.531168975782416,8.936207792838385,-0.0323832993238492,0.014891245206291369,0.0726661207853253
1700843807.2186732,-2.9664406408235298,-1.7680378949891908,11.414708156040493,-0.036229367747520155,-0.03546394609775813,0.0754806223092968
1700843807.2286928,1.1374125696192072,-3.0285974478337216,9.907488931141105,-0.0037574663673979516,-0.03234613654018109,0.0829971777974064
1700843807.2388036,2.636743346623791,0.6033792766740497,9.136708287540525,-0.013504461832195573,0.006326520424628592,0.0938540446339543
1700843807.248657,-0.5063078787931031,-0.23172187002270606,9.868730829963075,-0.03368475628388249,0.003930586000150373,0.0869490253506596
1700843807.258671,-0.8783091432338461,-2.5914814747284973,9.409460718893431,-0.015033219411191196,-0.0045705435570057825,0.0659785168944294
1700843807.268788,0.04668080009810971,-1.2298856172121257,9.802815995428299,-0.007179912920868684,-0.005319970566202275,0.0630087229190762
1700843807.2786603,-1.0008162984770115,0.6721641769135301,9.907212811382948,-0.031509681297796875,-0.01185692541440263,0.0551152537344391
1700843807.2887137,0.2649975244782329,-1.8161808647050612,10.445821246502376,-0.024244553369679338,-0.025092981775504612,0.0531152645824845
1700843807.2987416,1.800418060065639,-2.4324937718408894,8.963200944692911,-0.00468996894585064,0.0015290164809385574,0.0594803253887589
1700843807.30874,-0.2835000500462666,0.10281326455125929,9.139388137766845,-0.012558641280260454,0.00033038600831264355,0.0647868933854992
1700843807.318671,-0.1992777015265863,-2.0240297561502927,10.493221864733489,-0.015215893197949167,-0.011068702019827757,0.0766906114993985
1700843807.3287325,1.485304705545179,-1.7781312576578827,9.230258751390194,0.016691631075087116,0.008124936946810062,0.0702453824459012
1700843807.3387685,0.8664167055917421,0.755829902084134,10.019060857945439,-0.013809324511639355,0.03152928660788853,0.055677224951833
1700843807.348683,-4.249163594183847,-0.34687258951293143,9.934954809338844,-0.027356665785788183,-0.011313259497682141,0.0417649048148091
1700843807.3586605,-2.205914120722005,-2.830440513300405,10.881590559380582,-0.019898309035031887,-0.06170565973757061,0.0354695143876965
1700843807.3686757,3.960377288356732,-2.8022822709258324,8.58525178805438,0.0140217633902772,-0.01939168105844966,0.051563830184787
1700843807.3787043,3.244501909683379,1.5140602279822584,9.059489300295299,-0.0012615611474891492,0.022115755326773477,0.0690978142200406
1700843807.3886106,-2.3286216353837,0.8681371181104458,10.38013459836606,-0.03113072606661617,0.004259080959776545,0.067778137582391
1700843807.4004304,-1.6564578468500153,-2.3743491164631205,10.961263277530753,-0.01548936434979153,-0.036193243298093376,0.0538760247407849
1700843807.4092746,1.8769530618057682,-0.8493756448375269,9.533037005878846,-0.009539234642780229,-0.023251200208248148,0.0443489114521439
1700843807.4186218,2.629952780535198,0.04376166677003365,8.27658033072956,-0.02560084369878729,0.015497004719904122,0.0498499954818184
1700843807.4286256,-2.559204927202351,-1.3114071289253668,9.843694538012954,-0.02908860361649139,-0.016898764132714655,0.0548846880672867
1700843807.4386415,0.8106389030846816,-3.2913012112163242,10.614399102123803,0.004128149093458785,-0.02940793631574664,0.0637647333322461
1700843807.4486518,3.1162627624393444,0.6610425403735569,9.568258421587059,-0.004082279452380644,0.01455861835432227,0.0790103050647671
1700843807.4588037,-1.4365401594716165,1.0880736144454082,9.596487911045385,-0.036138378902076905,0.009976154277267921,0.0613816427765782
1700843807.4687254,-3.0258843718996653,-2.5971038666652833,10.339890549049278,-0.02852596824198241,-0.039056461509494385,0.0509984838543828
1700843807.478704,1.8049588853399037,-2.7686922751835343,9.651316317960497,-0.004099490838856825,-0.02656225731829677,0.0514226565836365
1700843807.4887316,3.0616458300475284,0.08539704299838179,9.050820666165563,-0.0022576116102550167,0.015373917879224703,0.0560590485809739
1700843807.4986825,-1.5457597864200463,1.3382561165131166,9.660446140714239,-0.03966058635517809,0.006275272047560444,0.0494081574259694
1700843807.50867,-1.706343476652659,-3.038567403814368,10.601121110318855,-0.023685210203014336,-0.027252136196491597,0.0445514927385743
1700843807.518669,1.6208847252754257,-2.271305282821581,9.710789982483432,-1.0070916384762681e-07,-0.012927452048457256,0.0592569234548504
1700843807.5286863,1.2632609413690894,0.8442059516818756,9.062365454182258,-0.008983671541944838,0.006111673043358007,0.0664946186123784
1700843807.5386426,-0.9206335645622713,0.029641860957966507,10.418418103765672,-0.03738887989142731,-0.005742531710207183,0.058394861477464
1700843807.548661,-0.2783502213955143,-3.243646021780932,9.40702344409525,-0.01032920688046734,-0.01018420548419341,0.0485608177958424
1700843807.5586622,0.9279034891763469,-1.743376425408771,9.36850052675948,0.005124660133618533,-0.0006573803516175895,0.0574083673535283
1700843807.5687034,-1.0071844036314659,0.5194112107234823,9.872384372474984,-0.013575417218806353,-0.009198071082975458,0.0631889822660382
1700843807.578662,1.4794839298431186,-1.1565458977321246,10.488471456254238,-0.007021058683824791,0.0013700814948077618,0.0644017877756054
1700843807.5888016,0.24477824780367294,-0.9392800354486546,9.100142611949614,-0.00818126882269509,0.022481005403763608,0.0554541247664387
1700843807.5998282,-1.7247246613119667,-1.4205398021104862,9.52449773000479,-0.009873804910463422,0.00731433641634952,0.0456394563196595
1700843807.609003,-2.8243581011854064,-2.3395449810955227,10.147038900503036,-0.0041623817642438676,-0.02827605120996482,0.0381907160161431
1700843807.6189494,1.728220285897221,-2.5717910175478416,9.613681636079392,0.02320019751520989,-0.02065471824099359,0.0569093013881142
1700843807.6286728,3.0419668453667703,0.5724170982862662,9.638554172700617,0.01561574515493532,0.022061949178311634,0.0753402384696896
1700843807.638668,-1.0851504689095939,0.7210554221738957,9.31016014070504,-0.006760008332352693,0.022715706189300165,0.0738187181530888
1700843807.6486351,-3.4490055930626027,-1.2511848918471529,11.060781705708713,-0.01578275447371395,-0.03084211788261137,0.0709250244079525
1700843807.6587446,1.0590237245829508,-3.374522692377826,10.1027148403289,0.013090970395068461,-0.03154621798754935,0.0507751303492482
1700843807.6687765,3.4244710514745034,-2.0363131299885877,8.288241912035751,0.03932451960947335,0.01619113712050147,0.0594198564766343
1700843807.6786652,0.5337792995686058,1.3381339640551146,8.63021358476281,0.014015489832403217,0.03226416650432546,0.0729115727125103
1700843807.6903665,-2.4966054007309024,0.06608340504498697,10.531423238485434,-0.007167738711809557,-0.0040766490760147395,0.0775457369862492
1700843807.6986918,-0.14331919123471615,-1.328014503160723,11.418879399187686,-0.0028127316435625767,-0.025391922291532282,0.0709569128929074
1700843807.7089071,2.076320869682836,-1.9420301983810975,9.534922986753715,0.002175129435121051,0.008019275270136803,0.0554450387834008
1700843807.7186587,0.15481811911470147,-1.7266071264594978,9.360387525123585,0.014469268819877269,0.007177848634345729,0.0534839491127427
1700843807.7287333,0.44978354750819466,-0.015567531348123862,8.423685181499257,0.00479949151299501,0.01904865236326446,0.0550580183742936
1700843807.7386663,-3.120554249200394,-0.1189723090686788,10.442497174536689,-0.010809949224246999,-0.029430858550990247,0.0602124343393738
1700843807.7487073,2.5929483656164716,-1.9898120079643618,10.614021497436463,0.0010433118794956505,-0.021866759256694734,0.0731794136343892
1700843807.758639,3.2598383033519633,-1.3716818337656644,9.634758787992759,0.015541894051253892,0.02803497700143273,0.0802898752270634
1700843807.7687018,-0.12251919226207288,0.2830083821894057,9.119520567599054,-0.0012048703647013028,0.03518418374032178,0.0739179151831563
1700843807.7787244,-3.7244529243948747,-0.4882092962930988,9.54031597017422,-0.015057817169938571,-0.004696069141530386,0.0540593984304364
1700843807.7887332,-1.091594571586828,-2.5979875592666315,10.546631647599547,-0.00022652529717297643,-0.04432072452031696,0.0509296889184411
1700843807.7995534,3.3786460095095676,-2.5877403978172433,9.67011029517954,0.022527384162055953,-0.0010577625993114408,0.0543354163645203
1700843807.8100324,2.657398685832886,-0.08128095200153754,9.482031432994967,0.020183730294532607,0.042875776595639854,0.06876192714557
1700843807.8203056,-1.9952506267385468,1.3278265170959702,9.165866588705981,-0.010021877179788717,0.03201839747208754,0.0655226307688649
1700843807.828671,-5.824566569361043,-1.6913427223839568,11.59405041398971,-0.02150527801383173,-0.041418921403917265,0.0519849668024476
1700843807.8386812,1.8950328003493102,-3.684505366644383,9.787599913141124,0.019757462391398563,-0.040768156431289095,0.050965835410207
1700843807.8487177,3.9506708948129083,-0.5396939921063905,9.21460222759057,0.023238624227095012,0.01150519612368107,0.0630288618384297
1700843807.8588164,1.820988774721659,1.4472112321660153,8.809498664046648,0.0005159551223662895,0.04446822267809541,0.0818581404863293
1700843807.8687758,-4.611278590634826,0.7261925020524793,10.430736847350897,-0.028944277106508674,-0.00405690787540099,0.0696007358609135
1700843807.8787093,-1.786362334556045,-4.260878293316212,10.855243309072753,0.0022392452298263654,-0.05359662376515091,0.0485738898394997
1700843807.888705,4.1736996711970225,-3.1801647275546836,8.978350701605324,0.028571760631043622,-0.003098541435961321,0.0480717654107506
1700843807.8986871,3.0327163023927666,0.81784631137089,9.010899259810408,0.025722110371798623,0.04135744119766656,0.0683544548927243
1700843807.9088323,-1.6071866959291672,1.7530808230144808,9.178250551099069,-0.01442058806250595,0.040387712391234405,0.0690169307170804
1700843807.9187791,-5.3612101479336225,-2.1204707482298986,11.921014166365246,-0.019359863355088276,-0.04122550608915055,0.0620163167594368
1700843807.929244,2.1311742672039,-3.5679283889767457,9.727158599664584,0.01898990262054991,-0.03198402080182154,0.0447417135117943
1700843807.9388013,3.6189107491882346,-1.3032102174235813,8.582666685901017,0.03299791647769018,0.019836428648058804,0.052606982248872
1700843807.948915,0.7264818969283372,1.2091308077228597,8.761201110305135,0.007768167970000818,0.038150455050084256,0.0671766745625432
1700843807.9587245,-3.562693714989071,-0.2175113100947725,10.275092718838359,-0.0029145724904640967,-0.003183882447205722,0.0693540843902524
1700843807.9688437,1.5481950680411949,-4.055521195729958,10.066131509833326,0.03232763404687594,-0.015863990254456402,0.0546200024662907
1700843807.9786696,3.058276294070264,1.4199677309100358,9.35768530702887,0.003869203337701389,0.051801662969174565,0.0382307517109807
1700843807.990369,-2.7291827924205636,-2.1456102250982423,11.200456511471494,-0.01104166046950822,0.005334226971023758,0.0324810455320771
1700843807.9988675,1.7376640664332392,-6.362567632003356,7.894778978499145,0.048904526319778784,0.021147136018098443,0.0266341558425124
1700843808.0089316,-2.7808533011319367,1.555581619727648,8.576552733834012,0.03692197001358336,-0.004170099497948604,0.0277195601491625
1700843808.0187285,-0.9132530773511484,2.1305051644026296,11.292886729942266,-0.013981156305971586,-0.04253028219388991,0.0430451976834233
1700843808.0287364,6.578090732748038,-2.896806819932379,10.083739398275345,0.011892668533555334,0.03261985158892698,0.0301799989072974
1700843808.0387323,1.4905086734377018,-0.5156807287795809,8.94229558832895,0.01999003339900815,0.08445059695791574,0.0421602586983139
1700843808.0487268,-7.491751673747339,1.5746998397246184,10.848511675156804,-0.011530818223258243,-0.02093961070882607,0.0392627577064927
1700843808.0587342,-2.4789671229389847,-1.8519663395879897,11.091804997216917,-0.023864664216694788,-0.07593829458487625,0.0257008886663611
1700843808.0686994,6.846172827370517,-5.135961209503524,8.118127341094034,0.03687436333424334,-0.010739251856559832,0.0306777125923331
1700843808.0787048,3.447818797040006,0.4857090406320995,7.439154870115948,0.0370552851344491,0.06671785809000012,0.0494418750284607
1700843808.0887227,-4.359601985042612,2.111543691368792,12.016830288831057,-0.006823522463132142,0.003861276541004932,0.0706865238724644
1700843808.0987923,-2.132397067948248,-1.5618684598389896,11.12058350630693,-0.013252444283651117,-0.03430923512370648,0.0627072053728993
1700843808.1087255,2.4080820534940215,-3.020163890330589,9.619673386134007,0.025186280396563027,-0.01793670019078366,0.0394283952890332
1700843808.1187484,3.104812674216929,1.5157291744594035,8.264171398642599,-0.002363659899372035,0.03835642926729436,0.0418321016012127
1700843808.1287324,-2.687980913004356,-0.23150711109959632,10.023806630502154,-0.02199549592774517,0.011042594338841884,0.0450040372787411
1700843808.138793,-1.5394751222075367,-3.77270755221603,9.955151965320745,0.016798549239541466,-0.027148977926319182,0.0452696393011506
1700843808.148689,0.7242829138042803,-0.747171975510397,9.456719988157513,0.01740218427643763,-0.01738702073542904,0.0508204596815999
1700843808.158685,2.1995643049787246,-0.05508922091696436,10.683778343296652,-0.0055888792432718356,0.0019088898635767047,0.0620439323364193
1700843808.169109,1.9275308568753775,-2.0926659181846685,9.165061533364756,0.01796794761806304,0.03253369429504116,0.066521761077493
1700843808.1787238,-3.53532158591512,1.4395318665601022,9.88711846963381,-0.01680620227801401,0.0034516283057182224,0.0512139583705361
1700843808.1887584,-2.571097999318611,-1.9862001898389468,10.869329016054113,-0.012141763961827805,-0.04972182357423309,0.0406504953978951
1700843808.1987152,3.6872675818611285,-3.5572774951498274,9.023983100518233,0.02350939501746165,-0.0137371727798853,0.0450511920033391
1700843808.2087088,1.9036682394168147,1.1634256665240406,8.112581119872042,0.025120345086907574,0.0225998727911081,0.0579180578468735
1700843808.2186854,-3.90302782982079,3.322415135502396,11.327384424885167,-0.048229449261520355,-0.029352575876468546,0.0557122128783162
1700843808.2287154,1.8789234863979825,-5.212616309828186,11.067237432539816,-0.009829737320732343,-0.0327710760287477,0.0435019518016274
1700843808.2386963,4.427389284751508,-1.4245182170132042,8.578577661289469,0.025757797652841804,0.03050334979705225,0.0409666011808808
1700843808.2487085,-0.8012266740818886,2.1055796452756783,8.897784529945236,-0.027222253957438082,0.041471573984947566,0.0405667359708245
1700843808.2587526,-5.997560527549323,-1.5508717877047307,10.310831020877226,-0.037263468642858906,-0.033575196858188466,0.0305890693096812
1700843808.268726,0.1725636407039505,-7.398591682773887,10.072293730320979,0.03734029865604611,-0.06487321532283621,0.0327185514150555
1700843808.278716,5.860289045624193,0.37790669170397523,7.959110264365301,0.06147061005205854,0.017754271817026733,0.0715107294498379
1700843808.288851,-0.6167052552872504,6.603345134255605,11.4836143686337,-0.04224573822633716,0.02792483073540875,0.0613363804994519
1700843808.2987337,-4.384065131581769,-2.9972403293705203,10.633101709178632,-0.04765220055785012,-0.02235990084329036,0.0444135154364998
1700843808.3088822,0.5930081851759098,-6.686983279097486,9.897479632511722,0.03450145573429304,-0.039471328852718486,0.0256528603611882
1700843808.3186946,4.468651231290246,2.382098762710666,8.113888051342851,0.018526193502550563,0.02763621308318419,0.0376102561829979
1700843808.3287125,-0.32994282502573613,1.4729769105065798,9.63341677107584,-0.03103934590993458,0.03560180274657845,0.054623463260978
1700843808.3386776,-5.589461262166339,-2.7476839685797656,10.932985909429389,-0.02151058385142241,-0.042436819739152074,0.0491767498432095
1700843808.3486807,2.1266608020682396,-4.606092696463716,10.15344013622763,0.0337272815883364,-0.04818950113271008,0.0587455156026776
1700843808.3587186,4.284623207311373,1.213199036017265,8.333454269461459,0.022938323427456483,0.016253201678114747,0.0823144736467297
1700843808.3686953,-0.18015966226319072,2.4728734966407586,10.637027571611346,-0.026846581457965674,0.015754530732560723,0.0827207314549382
1700843808.3788674,-1.9394494368804092,-2.1411639489747434,9.730761681101864,-0.01657462841661686,-0.010074756264204668,0.0818994316039975
1700843808.3887086,-0.6096911256354054,-2.4001328707144096,10.155831555269039,0.0025653645380612107,-0.030675269321115847,0.0594343404053147
1700843808.3987324,2.9333548179792674,-0.5612866815359617,9.88094398080608,-0.00814339069446496,0.006220528255640071,0.0500027882634099
1700843808.4087238,0.9441474056576524,-0.6001893897807675,8.670416967672999,-0.0033326442220924443,0.03177372697989308,0.047024686890691
1700843808.4186888,-4.2576344632545595,-0.009279228733402095,9.923412223403888,-0.036389847311329875,-0.0194529840968862,0.0342455255566533
1700843808.4287806,0.21622525257811506,-5.453267265307697,10.037794414875247,0.015849787367506817,-0.04283614622585483,0.0446058670757706
1700843808.438711,5.9882997558194475,-4.2100184332156845,7.69235286100265,0.07858702050486702,0.0297644110153729,0.0723204958020146
1700843808.4487133,-0.9204787224035068,7.5728175778828435,10.459879916577282,-0.005215264294385514,0.044552548042147554,0.0801612782059605
1700843808.4586997,-4.583370931105754,0.6961011457489846,12.58471075268318,-0.0660708592654216,-0.020887161787288423,0.0645457255421574
1700843808.468752,-0.6891167504042934,-8.761234934663213,9.785679310647822,0.018417157102894665,-0.042226357820022264,0.0164483087836201
1700843808.478737,4.989395237429173,0.3723094155384093,7.735901237813952,0.041320851071719976,0.02160109280842341,0.0287908921717102
1700843808.488725,-0.397753519276895,3.6978602551085342,9.050873120174682,-0.029779197899654074,0.041349567667882385,0.0483697700081761
1700843808.4987087,-4.323947460351296,-1.5954011607712686,11.70807266322532,-0.0367287481010229,-0.030700748406440072,0.0612769136904175
1700843808.5087929,2.4447188320490283,-5.97673503442523,9.504050585321835,0.036262899648154316,-0.022625239211253974,0.0777849751292164
1700843808.5186892,2.8387345864851685,2.313659876590752,8.955071037183993,0.01930161456386078,0.018502388199549743,0.1117957356153424
1700843808.5287728,0.75683269237429,1.6661612916689479,10.581012562507148,-0.03715477460291508,0.027725863451380256,0.1028237762628491
1700843808.5387423,-2.7839998418561493,-4.015122103241922,9.338985347481879,-0.0024442011848645616,2.97017106440344e-05,0.0919586392818387
1700843808.5487535,-0.5081062827625336,-2.361949142796013,9.44040684851912,0.012439237606705025,-0.019349082837970575,0.0844410481630261
1700843808.5587106,2.034407566923257,-1.2524329278683084,9.674753514451814,0.02309482238090844,0.0038037922806661417,0.0957636209903653
1700843808.5687757,0.6135420500201259,2.9671490624943164,10.133437376682732,-0.013405922332056164,0.020020336714695518,0.0848606872139866
1700843808.5787585,-1.605236438770889,-1.416448641441496,10.874851351795762,-0.03974480086699274,0.0050972591289220265,0.0681252899347241
1700843808.5888016,-0.7036665370713223,-6.494595753075365,8.752001415720645,0.03784815060891335,-0.01499454779763784,0.0642717304407055
1700843808.5987267,2.0305860923117236,2.409349665167136,8.81864838049337,0.021205871181079625,0.01289620574513573,0.0700820508180554
1700843808.6088634,-0.8378477694427408,2.5085164734461745,10.825695001800565,-0.04438408448748595,0.0039940658918693785,0.0691702040611203
1700843808.6187136,0.28801564149143494,-4.592069351191304,10.078511865022161,-0.006879011305045976,-0.0018628809002854464,0.0738050463376935
1700843808.628736,0.2640153294567689,-1.99713992506554,9.298588045723,0.025422244590199816,-0.0013091706997990407,0.0854954468785222
1700843808.6388314,0.8424146407493742,2.1688575075892222,9.56437569689304,-0.01587071154084442,0.0071260918287856315,0.0886976766167576
1700843808.6487827,-0.5622396791014193,-1.2511333515968566,10.677235893524804,-0.03185084437631539,-0.005867248581290003,0.0820104825077946
1700843808.6587856,0.6831915574921067,-3.432470539100128,8.940615038487168,0.0030428974901866033,0.0012265706697431407,0.0709845768986638
1700843808.668833,0.4957390737056974,-1.140200145643161,9.494169058200868,0.013987049998251896,0.005955464589467182,0.0783144729910786
1700843808.6788363,-1.2283591477967184,3.026383780061731,10.556792755869402,-0.036950961139710255,-0.008437688672129942,0.0833886685548718
1700843808.688773,0.7357058812269595,-3.4119369018189794,10.664671907944857,-0.02240027927090688,-0.013242496891272068,0.0724799307762082
1700843808.6988225,1.183098307393558,-2.7128025346924205,8.304378497419606,0.01643881270673064,0.010811933220191881,0.0687349262414868
1700843808.708736,-0.6686834585968916,3.106716165116347,10.066618456054798,-0.03066191343762133,0.0029508971554069465,0.0751396539388592
1700843808.7187262,-0.08951405900844873,-1.7734998645159732,10.397163288781831,-0.03929775302051715,-0.005421254236055604,0.0836656811414654
