time,ax,ay,az,wx,wy,wz
1681944549.204666,0.2379515680201581,1.1847507633291108,9.632963306502944,0.00030690228315283095,0.0007105220461424677,-0.0003559572237781
1681944549.2146518,0.18357906940435123,1.2300719981602377,9.681013513758229,0.0025726162299806866,0.0009471016875000046,0.000848087799991
1681944549.2246313,0.09657080306070627,1.5893450040818178,9.840972351121026,-0.0032228237959434987,-0.00033592974704731344,0.0013513413118426
1681944549.2346294,0.195728277557826,1.2097848406671767,9.670979562193684,-0.0015486639459454307,0.0004490087281972406,0.0009191951516778
1681944549.24474,0.1393255590426331,1.2533360128401607,9.719983402801057,-0.001028617608180309,0.0006617300049959434,-0.0004058633080921
1681944549.2546706,0.06682150200424375,1.2754744263317483,9.758400779168198,-0.0007711996030900065,-0.0010690429680916592,-0.0005586078937402
1681944549.264674,0.24988973242892165,1.1963027132095414,9.62280372843082,0.002005620286624024,0.0009500562007771669,1.4420717443092149e-07
1681944549.2746515,0.13013872350828043,1.2951901648378237,9.74469830402084,0.0020414044670732357,0.00043371848751028495,-0.000238993120124
1681944549.2846377,0.08939971785755098,1.4102960374265219,9.812379879834912,-0.00042921493265462164,-0.0010120326043908275,-0.0015033433760753
1681944549.29466,0.21078212466869342,1.2514644223489753,9.671815026416464,0.0008865730263124178,1.873880573858111e-05,-0.001078656789591
1681944549.304819,0.04733059750690334,1.3857414589738806,9.792157822123329,-0.0001829675942065837,-0.0026146672623855462,0.0003358273220011
1681944549.3146892,0.18632091801154677,1.1720571856479605,9.66349712353091,0.0016569578107127828,-0.001337250790574774,-0.0016568227752349
1681944549.324735,0.20093511490010676,1.4574051756915947,9.741790777037762,-0.001420865308453507,-0.00040370953275250165,-0.0013424136291495
1681944549.3348005,0.12389476302930272,1.3394109345064096,9.744565914123452,-0.0025604649014402923,-0.0008000920592738457,-0.0019094032782367
1681944549.3455102,0.23424652526112785,1.2666368260150493,9.656578208826796,-0.0004311057996463259,0.0003007500293023091,0.0003212962451153
1681944549.3546915,0.034662106271256723,1.0964472261087428,9.716577014678249,0.0029425467943950713,-0.001568976268197884,-0.0009732429485074
1681944549.364697,0.19335049524398112,1.4116164330379835,9.732907691839845,0.0016584422682685296,-0.0013983764557985473,0.0005220845027589
1681944549.3747213,0.26566377973742145,1.4120640282216255,9.696798641889348,-0.0012211990046028186,0.0014105028322396517,-0.0006934745784155
1681944549.3848104,0.145863268069731,1.289152999363572,9.716177160272151,-1.8312721986040462e-05,0.0006062177114107822,0.0006640295882471
1681944549.394695,0.1627034653409054,1.3490476368329403,9.7263346767389,-0.0007089763078144546,0.0006512872346716989,0.0013073834101897
1681944549.406677,0.10320602166620399,1.2889021043485727,9.73648577360777,-6.040713205993207e-05,-0.000875336056344631,0.0020081064116903
1681944549.416496,0.13223388214445067,1.1637632020735162,9.691666723013784,0.0011275716297981205,-0.00025504610862352986,-0.0012433239340088
1681944549.424674,0.0871760140509856,1.330981644581743,9.765061670211082,0.001530657584699331,-0.0018338513564156128,0.0002031924354606
1681944549.4346602,0.2093978187364406,1.4010197487656213,9.735266695928575,-0.0006639123493622079,-0.0006190187095674134,-5.160263620828526e-05
1681944549.4446647,0.3089620236237761,1.2575991391389343,9.623671206136915,0.0016528479515834622,0.0019715394105622955,0.0024871680338629
1681944549.454736,0.0010408013119088389,1.3861564450956232,9.832928570078195,-0.00162168988656813,-0.00042606332084853103,-4.377708185975687e-05
1681944549.4651551,0.17959097428824433,1.1234676535579882,9.65416747518253,0.0011618801449409055,0.0006267136650905002,-0.0022178433451107
1681944549.4811096,0.10079104558363798,1.485343446734953,9.808272855480327,-0.0036903329381152736,-0.001785756913731706,0.0002292757539772
1681944549.4846523,0.3659165786614764,0.9066278306969853,9.46535820391534,-0.0010431568850961747,0.00011335373030173594,-0.0005776252678832
1681944549.4946694,0.05627833154340516,1.0720803024020742,9.713363628180579,0.001706111344484114,-0.000882751099265958,-0.0045592055271617
1681944549.5115435,0.2448435713866823,1.3964308297487826,9.696305514819251,0.0011011174342137756,0.0007895086898945644,-2.0693204110015795e-05
1681944549.517675,-0.036658599147205984,1.4259357945146158,9.862859631126014,-0.0002697743070936606,-0.0018036770043425982,0.000351094958628
1681944549.5248072,0.1437359670565153,1.2448490179053757,9.705545669355367,0.00041344865858905283,-0.0018513622977658776,0.0001905484509416
1681944549.5346706,0.1342189529135811,1.1836473960958314,9.68878827909737,0.0018082057806275453,-0.0016956204346587661,-0.0013919525395384
1681944549.5446696,0.18690529705673992,1.2267591835677667,9.675691360576629,0.002836362792838341,-0.0007956165867592439,-0.002543096112763
1681944549.5547135,0.28377441286247956,1.6494430889419793,9.78541730424346,-0.00297621501466937,0.001054735512779828,-0.0004267326171747
1681944549.5646937,0.03772769020982374,1.1891144973138263,9.74942725512447,-9.506053391704262e-05,-0.0018643900705437267,0.0001592440216564
1681944549.5746806,0.18816683678712026,1.2829590245162368,9.691749095858619,-0.0007104588389795172,-0.00041934921026580017,-0.0007035212206891
1681944549.5847094,0.12660504647461576,1.3474111912355475,9.74432382123049,-0.0013862446243200319,-0.0013156638819944184,0.0001540295465611
1681944549.5970266,0.22008491112971887,1.2819503530629153,9.67377747160073,0.0008060983273404818,-0.0004901424654226318,0.0027028731105611
1681944549.6046834,-0.004493124906524925,1.1270672836307094,9.752440705648656,0.001257617387612383,-0.0015954589385977535,-0.0018389876081845
1681944549.614699,0.3466917554589982,1.413768470737367,9.657681775433915,0.00026184122512584685,0.001611678031673177,0.0005586145830103
1681944549.6247067,0.1706950704111555,1.3864920683345938,9.744067578851547,-0.0012528633344673966,0.0017528573923067147,0.0010737783427112
1681944549.634694,-0.09382826845036024,1.2173760115152872,9.821267790310817,-0.0005320211972404492,-0.002784923443119624,-0.0006808002094975
1681944549.6464443,0.3246353789267281,1.4178720355608394,9.672923744340075,-0.0016891088631086684,0.00025826720580477027,0.0019388226623642
1681944549.6547794,0.1762315618889363,1.1892567798499145,9.68077300674797,0.0007107353214456107,0.0002549224425525923,0.0028813053772547
1681944549.6647444,0.08853817047947468,1.2804289337012658,9.745834201199258,-8.314008391778333e-05,-0.000280028324129564,0.0004527982941591
1681944549.674781,0.11836453771850966,1.345068263724237,9.769712201597814,-0.0006251655008485892,-0.0012724481456943722,0.0009888688486763
1681944549.684736,0.25715926814004736,1.2713520432690255,9.648247347608514,0.0005546314885338261,0.0006810959369545551,0.0018192164584116
1681944549.694811,0.1162428403872404,1.151110711087099,9.691186526500863,0.0020432423590637403,0.000812237090542829,-0.0012545156373879
1681944549.7048256,0.09754575496772454,1.4127819223271414,9.79499701143211,-0.00010661144563005045,-0.0007423443630342576,-0.0008700549683771
1681944549.7147117,0.09406198949135047,1.2838425478020057,9.74862716393305,0.0023543248101398884,-0.003307565630914259,0.0029558338842117
1681944549.7247057,0.4106987117291614,1.308408302848846,9.58089215621276,0.0009911920141932743,0.002990421780899441,0.0003686111571961
1681944549.7350297,-0.03880643720904221,1.4145402432237273,9.8538002170941,-0.0024401369351590044,-0.000333303319517539,-0.0016765679779699
1681944549.7447293,0.11735237991838898,1.1202827853358708,9.681675403719327,0.0015228229099001104,-0.0011606932829163557,-0.0015078358433446
1681944549.7547214,0.19078353401938467,1.42919074213882,9.751222885754885,-0.0008404881370323948,-0.0006972574921449968,-0.0008409890893152
1681944549.764727,0.20783674404486466,1.253332839867988,9.679283781569225,0.00025771727519781085,0.00035960934839629716,-0.000911772864615
1681944549.774801,0.23091361278111108,1.3037235477738796,9.681212311604213,0.0008083244757304252,0.0016828234461213035,-0.000291152772238
1681944549.7868752,0.15734873495031734,1.417664851667219,9.756531904962127,-0.0021819560828260434,0.0017446655746463518,-0.0003510978154144
1681944549.7948446,0.19323949312135863,1.29549445159276,9.700058495592618,-0.0012360865485397537,0.0019149040723493932,0.001176638031634
1681944549.8052003,0.02466592034513341,1.3655370000008793,9.807922225130374,-0.002414792755786798,-0.0009844829486999763,0.001542068768199
1681944549.8147724,0.25235099076865397,1.2509983008760834,9.644399084564865,-0.002011728700195467,0.0016094310036060206,0.0004665758146666
1681944549.824711,0.06483346087992534,1.1719537329713454,9.719986527945625,0.00045964559515783004,-3.7892560454604535e-05,-0.0002963479223898
1681944549.834797,0.28312531556013315,1.289791294199465,9.643719713029663,0.0005061892465582723,0.0028171716776188367,-0.0005813566117784
1681944549.8449156,0.023198919371779637,1.2638654962965972,9.780766618069137,0.00032889336640323644,0.0003171437890028968,-0.0022256743709794
1681944549.856928,0.18421222350388583,1.3515825491535745,9.715962438887919,0.00047044899722542793,0.0003342583810953342,0.0003976464190282
1681944549.8647006,0.10637615708081635,1.4347360948990595,9.79631823590564,-0.0017036382133154453,-0.0005240410014621195,0.0002199655550294
1681944549.875578,0.16160907144477088,1.2865409439694087,9.708648179293288,-0.0013553179750118206,-0.00016491778502322586,-2.6642841962624952e-05
1681944549.8848054,0.17440830615447814,1.2911612391167915,9.709724742092886,-0.0014935466796255873,0.0003409733603242755,-0.0007508368312618
1681944549.89474,0.23158595462335013,1.1633813766715155,9.619958136709279,0.0012765925143228835,0.002217038302433272,-0.0010939314111373
1681944549.9047413,0.05166004705703371,1.451127810894549,9.822641714105153,-0.0008818347348582917,-0.0005296301322248165,0.0007336815737881
1681944549.9151988,0.1080256700374967,1.1204693548173978,9.677826733607587,0.003177613827176323,-0.0016758597528174813,0.0007202865940281
1681944549.924744,0.09338235674621359,1.5469462248845742,9.846893522350385,-0.0028517674762921752,-0.002376616303434936,-0.0014679626642963
1681944549.934743,0.314244439163617,1.2107943555420984,9.604011021990058,-0.0004910551699454133,0.0006810973530827112,-0.0004859649657509
1681944549.9482186,0.11641106212335046,1.3074977565170574,9.749456301572287,0.00012101327907728292,-0.0008518790517342971,0.0007403856993415
1681944549.9548256,0.41067557336649113,1.3040762628765081,9.585682388399169,-0.000736562178823124,0.003111462122494275,-0.0007329840759984
1681944549.9660342,0.005036536722455972,1.286139595235267,9.796298986812301,0.000696202261375818,-0.0010157791808883614,0.0010581696091913
1681944549.986694,0.15216834619224817,1.2979062251067153,9.720339613489543,-0.00016772132490494238,-0.000528873283898758,-0.0013174725777706
1681944549.991089,0.3278527536914799,1.6729436796907877,9.76102081470327,-0.0020530808279397945,3.326266406553758e-05,0.0016303675051541
1681944549.9971492,-0.04080964894946308,1.0207779077739223,9.719286757235446,0.0006358352455116749,-0.0018178360303614826,-9.78057819656028e-05
1681944550.0058331,0.3197746693705277,1.4133566133710211,9.680690576983194,-0.0008993402282122286,0.0007883788094916254,0.0006226644304343
1681944550.0147,0.11538716234688372,1.3927499692965617,9.76892252633297,-0.0018317816954598397,-0.00027704760979418617,0.0021500332490769
1681944550.0247393,0.25076038366315534,1.223524405148918,9.642878169404144,-0.001183592182165401,0.0026510364757877996,-3.779729243879454e-05
1681944550.03475,0.08957982856229584,1.2454772364705373,9.73423692894885,0.000987511992630709,0.0005838635163920001,0.0017182996175189
1681944550.044736,0.10798114969107901,1.4303398246207875,9.792920078084778,-0.0009142481641376596,-0.001089536169615833,0.0030258617748268
1681944550.055318,0.160083511879278,1.1402539270943288,9.670540135872299,0.0011260988742089744,-0.00021669506381598403,0.0003250279382565
1681944550.0647297,0.2953688216289412,1.3064317717664815,9.659125300906638,0.0008522727143182567,0.0025385292635597134,8.288080922747715e-05
1681944550.0747235,-0.19290112224610315,1.2264667978578223,9.88080810298205,0.0003166068232172033,-0.0035609399057440023,-0.0036938131402484
1681944550.0893404,0.3015783303768245,1.4668248055376858,9.691389722382903,-0.003400511665195882,0.0003297961544163142,-0.0014035053632459
1681944550.0947373,0.10132853409731385,0.5246336047915895,9.476242482645004,0.005575951063356736,-0.0002714771537501259,-0.0013655327807418
1681944550.104727,0.3296944664064512,1.6330676554659695,9.743404902608827,0.00028416773080203737,0.002479293777651219,0.0018292901781615
1681944550.1147168,-0.039415470935509164,1.3893191699956324,9.843775359734948,-0.0019487634832976186,-0.0012243963444526999,0.0010264956776746
1681944550.1247275,0.031016495617733193,1.121425438454914,9.730200340662195,0.00015979905346952375,-0.0027938292420774994,-0.00200774512135
1681944550.134755,0.2907981592544893,1.5296129187358116,9.718839685864962,-0.0007168204938531459,-0.0021873781291596476,0.0048106488224812
1681944550.1450152,0.21198672129095525,1.1455953058554444,9.642033158077705,0.0010553283609753491,5.002750110161922e-05,0.0017052472735168
1681944550.1547318,0.12610669785235315,1.225083602678148,9.70314649711947,0.0011525586450522002,0.0005861042508113202,-0.0010652378282747
1681944550.1647203,0.22218238525567888,1.3381385979433829,9.704814232122652,5.283108609231699e-05,0.0021567016503822242,-0.0014787350396863
1681944550.1748106,0.09083726402751231,1.4112066890834,9.786283675386267,-0.0007101021669956097,-5.912597748101436e-05,0.001305132723669
1681944550.1868808,0.17674627062226303,1.252106230023229,9.688838052521007,-0.0001472094037330015,0.0007406963910259366,0.0001234917121701
1681944550.1947105,0.11215312729785788,1.2549874049026668,9.726343920214827,0.00016274578820620644,0.0003096562131074527,-0.0008644647046229
1681944550.2047167,0.1810796060395861,1.446827844204565,9.749641858098153,-0.0023119672800679626,0.0006777490730860092,0.0001551455038362
1681944550.214725,0.07756231679982607,1.0614937366216783,9.674420809123458,0.0016193127585850365,-0.0001731155419478011,-0.0018233588512292
1681944550.2247064,0.1555707836635738,1.3144617501315257,9.728776540026983,0.002026504262456427,-0.0006286997698031864,-0.0007288462097993
1681944550.2347586,0.1683840908029344,1.389917139939935,9.732989197376707,0.0002714959001136612,-0.000275939109799222,-0.0003991980652562
1681944550.244779,0.27744996652525267,1.3227016034327215,9.669673313853604,0.0006682381271179544,0.0015762965356596232,0.0013420112640825
1681944550.2547395,0.06996787638476952,1.2521223210942873,9.76558202485383,0.0010691164904190827,0.0001759339678749263,-0.0004505709826252
1681944550.2647502,-0.019124089822163598,1.4162222486657328,9.854232963172123,0.00033745474681399075,-0.004407651187060247,0.0024350311409444
1681944550.2747364,0.3358298942780684,1.2263208753026316,9.594515648446828,0.0006056814780183404,0.0002392901471985306,-0.0002274170133522
1681944550.2847602,0.23322451967858393,1.3369067841401996,9.68722052909743,0.0012147381941253047,0.0008379452158582238,0.0028477956925281
1681944550.2947514,0.12054003110813762,1.4259217149324246,9.767809445692608,-0.0020467340238611246,0.0008610226508897161,0.0011833246948891
1681944550.3047693,-0.00687052530045498,1.0614764003464947,9.717510815355741,0.0020078782089823725,-0.001831593306294627,-0.0004695785778812
1681944550.31476,0.28468378721902465,1.2817839260793762,9.640378281217805,0.0023852504740641224,0.0008412894416540746,-0.00037494526126
1681944550.3247693,0.12833485586872556,1.4630702717564152,9.800754599281573,-0.0003565782697645546,-0.00018652321549271389,0.0007269800093718
1681944550.3351748,0.21659971869724928,1.0882904150461192,9.606747105158275,0.0021490346256699123,0.002538535032940286,-0.0030907016794434
1681944550.3447323,0.11034203849761498,1.4484845628191283,9.789743440335682,-0.00024332487307991135,0.001337119536543008,-0.0022022092330506
1681944550.354773,0.10420701755917475,1.3213038408620752,9.753853374441114,-0.0001222538506302089,-3.0064941353502055e-05,-0.001096548427572
1681944550.3647406,0.17960543937833565,1.3462703884254539,9.728827438123076,-0.0010282377095880554,0.0004564555675178158,-0.001273124626582
1681944550.3747847,0.08490134213463739,1.2838552840071602,9.753043658589226,0.0010392989308691109,-0.002154214063563749,0.0018468072134647
1681944550.384754,0.15960022280897496,1.3250436170686635,9.723138350741387,-0.0013411948201668975,-0.0007561371503979478,-0.0016884935635379
1681944550.39608,0.22672878844708458,1.3408537465536547,9.690975584017664,-0.00044075292764316604,-0.0001731215905936797,0.001383380932989
1681944550.4067972,0.19890682183638733,1.362296260958056,9.71246082383769,-0.0001923013991026037,5.152198993465259e-05,0.0042045468848892
1681944550.4147563,0.07015637444495343,1.1639832636998702,9.714314772204519,0.000910037374165326,-0.0003854567591956695,0.0015521148574999
1681944550.4268644,0.07277581528188926,1.2397669884508178,9.75077185436943,0.0008224968368210472,-0.0015484767319848408,-0.0016609182662567
1681944550.4298537,0.35622412008236853,1.8642956690906023,9.802501706757116,-0.0016250357734561294,-0.0009766639133941808,0.0003078861313634
1681944550.4437776,0.17943116057364303,1.2014698929847516,9.67572730393974,0.00035831900812546895,0.0003461985702775816,-0.0015495313878408
1681944550.453775,0.15126704645697087,1.4167537313659757,9.772335304584983,-0.00020122796346316768,-0.0010187525395207568,0.0017160490292236
1681944550.463789,0.14216790486046452,1.1470905386393897,9.672357271981273,0.0025424488749744185,-0.0010004883096670376,0.0008480515366182
1681944550.4737597,0.29722989399265975,1.4820305239686407,9.717273493763749,-0.0011415118465144657,0.0018653540042211825,0.0010309416370228
1681944550.483779,0.09976410438072106,1.1576399478026513,9.691637695546481,0.0005639578770337408,0.00181879100412347,-0.0015987191896191
1681944550.4937663,0.1499535867471098,1.2184744048723686,9.695393205299732,0.002472798323435169,0.001705556091893797,-0.0014291961292973
1681944550.5038042,0.10774927124861419,1.4111146066608335,9.776797120059054,0.0008433314884110077,0.000368926223598229,-0.0002546328201196
1681944550.5137625,-0.002604157332053078,1.2920681114974113,9.805496840076925,0.0005598576517435317,-0.0027145163425779067,-0.0012269303283891
1681944550.5239463,0.3376600971531556,1.309663415759866,9.623854336008662,0.0006473934783765739,0.0010134016237871946,-0.0005012323695472
1681944550.5338151,0.09548844088708469,1.3773568078911553,9.772659207597355,0.00014373100197248383,-0.0006655922412006236,0.0012228215614096
1681944550.5437577,0.05216521701388762,1.266920920486763,9.756309075448716,0.00037470195648283083,-0.0023937491120442408,0.0003347025171616
1681944550.5537772,0.16525949648954075,1.3193739622206464,9.714417117711372,0.0007505889847705845,-0.002480918888944566,0.0015029430773803
1681944550.56399,0.15630638902086802,1.3313215600470154,9.728185575077166,-0.000703392490260611,-0.001789142872598032,-0.0003224319393983
1681944550.5745034,0.3642469951914089,1.295223634536632,9.602688618979444,-0.00022472955967680873,0.0026301764632217944,0.0002747354714893
1681944550.5847938,0.07689239325686871,1.2693583185564092,9.763697712442493,0.0002297970897274381,0.000910934077691719,-2.330556393181221e-05
1681944550.5952775,0.12480932242784631,1.2742321485234962,9.735604903864079,0.0009301300206629622,0.00011821627948364554,0.0002166115131923
1681944550.604016,0.21891191222078207,1.3465135946648963,9.692876172756987,-0.00037408881987098524,0.001611309170250699,-0.0006956890306672
1681944550.615236,0.0863168422401634,1.253380218181958,9.734245039222486,0.0007431281328992809,0.0003368891596246147,-0.0009788415941647
1681944550.6240544,0.22992592727421424,1.20219051788916,9.637851126849071,0.0014412464097553616,0.0024718369542406655,-0.003173777050083
1681944550.63388,0.1313091858005093,1.534776725320388,9.799681376157473,-0.0007682137295088714,0.00040244071234010514,0.0013960354530946
1681944550.6437962,0.13406354149236233,1.094733084921095,9.660247441672144,0.0025227015495713225,0.0004136271786198399,-0.0002922596491179
1681944550.6537874,0.17927624659983035,1.416242073034336,9.740766565068302,0.0005904046801146513,0.0006207372486515186,0.0004349165514805
1681944550.6638086,0.017026466184337587,1.2690857946055887,9.791844221514854,0.0012404713827430204,-0.0023386166800777337,-5.047957759862082e-05
1681944550.673987,0.3330701801911054,1.341400085817805,9.634985317259524,0.0015164900820895226,0.0007071829720026934,0.0020550595631585
1681944550.6843536,0.017071215077970606,1.2737301727003167,9.791431558200713,0.001234862209445689,-0.0017932253331490585,0.0005723660264858
1681944550.6954222,0.33877169158269166,1.3452519607815419,9.638593070667955,0.0015019454710069994,0.0019030095011208722,0.0021947588515696
1681944550.7038033,-0.04894080557564308,1.2175329381614048,9.809862647335615,0.0020913160259281548,-0.0012783841722766396,0.0006483785959654
1681944550.713812,0.2371849337745806,1.437359177531041,9.707558523598122,-0.0015475474627947323,0.0009966385122292568,-0.0006111319258115
1681944550.7237868,0.17899833235814142,1.266407812646104,9.68652295642078,0.00021933466857564673,0.001196681278120051,0.0012835379725084
1681944550.734078,0.061537865743830494,1.2786500709818471,9.759955964942758,-0.00029101923933884166,-0.00026475681534631536,-0.0005917846306464
1681944550.7438123,0.18612796153089944,1.3654217936403874,9.732931739500458,-0.0022084021016154807,0.0007168418458058474,-0.0019913773599318
1681944550.7542088,0.1836090461793393,1.235673598618179,9.678147675043494,0.0004205205887203889,0.0007187137953438725,0.000167426621797
1681944550.7681692,0.15789051206525437,1.305644627243418,9.712642428569943,-1.0867547514315376e-05,0.0009325408212895701,-0.0002568828954598
1681944550.7758272,0.012921273119721386,1.2908680427754966,9.795876862762983,0.0006302597389166723,-0.0016319565157021357,0.0004628537839972
1681944550.783835,0.29252604887263706,1.274654007548507,9.64233145549764,0.0013503468753235117,0.00032458590424762866,0.0010704348364607
1681944550.793816,0.2180367462093617,1.3127620323606135,9.67976995310855,0.0015839587186105045,0.0015330644105554863,0.0017682118800304
1681944550.803806,0.13121757747597543,1.396612382899415,9.766538235914293,-0.0013773157906713086,0.001772976656471018,-0.0003857593133351
1681944550.8138287,0.2052959125515708,1.3381207220458222,9.703251841185613,-0.00047054818113995725,0.001857165268301088,0.0020181645790808
1681944550.8242154,-0.09223456246873571,1.288618608980899,9.854926380001395,-0.001920436467000823,-0.002462308663860777,-0.001215387050738
1681944550.8354254,0.18331207895407547,1.2142549785214993,9.676230182763225,0.001456902990605899,-0.0021348441961738106,0.0009147264331341
1681944550.8438177,0.24254598859005483,1.2999676166437681,9.676492899386323,0.0010284798644032574,-0.0003522927465076695,0.0002050606685453
1681944550.8538442,0.16388543429151156,1.1965547160560297,9.678125671938357,0.0018052403891622693,0.0007839058590939311,-0.0026361981022409
1681944550.8639266,0.08267755202483293,1.4486956831617874,9.808409699267493,-0.0013594549279707729,-0.0007229410205876667,-0.0024290798778883
1681944550.8737705,0.2770007188276043,1.4176758137559078,9.694270737284862,-0.0013285048869080428,0.00027168433004844827,0.0019011955859833
1681944550.883824,0.13016597294274665,1.187643873647817,9.70318020106911,0.0006384367155217076,4.855280969851337e-05,0.0009337191854366
1681944550.893788,0.1350562593079116,1.1479944773384134,9.676969220161892,0.0025644139394263633,0.0004706361052369126,-0.0015063319902173
1681944550.9038153,0.1979012461624705,1.5192495633751661,9.777882240351573,-0.0004150514462683904,0.0003514019127697557,0.0014903029054631
1681944550.9137788,0.13179740690521138,1.1909230695019155,9.690930880183693,0.0016711041404185551,6.456032841907536e-05,0.000742269415664
1681944550.924328,0.1616290201191937,1.366856323298663,9.744941449225093,-0.00010624694475457482,0.0002649890358017248,0.0002531322802179
1681944550.933804,0.16774861332019372,1.2226981169179005,9.687896274199632,0.0022425491160315125,0.00011003576498113281,0.0013364400924411
1681944550.9437945,0.23333442256971454,1.6076211494948676,9.785990045694673,-0.004063250280217344,0.0016176086255112237,0.0015688718826505
1681944550.9538116,-0.008727057066657195,1.0190069390164502,9.715140603196202,0.0009390822177106459,-0.0007937318514444066,-0.0010387999086878
1681944550.9638069,0.16117140894811513,1.322540909064927,9.734445977410537,0.000509198520911178,-0.0008008537681696218,-0.0006066899827918
1681944550.9738135,0.29261351986688344,1.3397130229612608,9.659955764508199,0.0009193270870999697,0.0014559582181125012,0.0012712495203823
1681944550.9837835,0.09404318399921605,1.2219334397317487,9.720367595298509,0.001474031247132619,0.0009973946151176842,-0.0005000982514819
1681944550.994258,0.11109233796214438,1.4638911601017874,9.796171814938086,-0.0012543744335758308,-0.0002573062299617999,0.0007992471487023
1681944551.0039756,0.1967457936338429,1.160361693300788,9.655693434528574,0.0015772181391341816,0.000617778028631731,0.0007243710255944
1681944551.013885,0.23289449783294056,1.4510492171429306,9.72959129603041,-0.0014327868014836034,0.0022546625984633055,0.0006014672958054
1681944551.023795,0.008333405418068832,1.162024399807709,9.76823647915602,0.0004607709351946638,-0.0005028058763350196,-0.0010775417636386
1681944551.034019,0.21774532769279722,1.4651223005903224,9.749267510293437,-0.002617834621495302,0.00047842963081805214,-0.0001901885575852
1681944551.0438366,0.24896341995571947,1.0195565373315727,9.578030545757436,0.0032968049750810233,0.0021775635023264994,2.066683142865761e-05
1681944551.0538557,0.16633202450023568,1.5461632347816496,9.790629678744125,-0.0021592163728405517,0.0028141755249224795,-0.0006305546581051
1681944551.0638494,-0.015878010212000603,1.2559403549987818,9.809682641045676,-0.001276350944755344,-0.0009792633571713875,-0.0004647350020012
1681944551.0738285,0.17114331280419634,1.254754383313356,9.697159640526385,-0.00016434924174097256,-0.0008786916545700641,-0.0004785302176377
1681944551.0838263,0.059593166689151655,1.2708599576591213,9.76806132823013,0.0012341321637787583,-0.003414494446729908,0.0008037237834879
1681944551.093817,0.2919239648854309,1.3785266619380123,9.66582789274684,-0.0013534673022264465,0.000129755127218738,-0.0013669991481355
1681944551.104638,0.2846445073225473,1.4303468597760869,9.689486891323726,-0.002148438135801059,0.0017897384165717924,0.0026753091055662
1681944551.1138828,-0.02633680603703955,1.028893528042477,9.723506692462445,0.002526804913242584,-0.0014125220473743456,0.0017484425511293
1681944551.1239676,0.03986456210212941,1.444583362875881,9.827170433866426,-0.0020180471812940395,-0.002675027422704721,-0.0012682831461778
1681944551.1339922,0.2998329029279955,1.2117302952496536,9.608645609790031,0.0013678560869624101,-0.0004204616316061292,0.001113677191338
1681944551.144076,0.22991276003131236,1.2223596866679571,9.661676379434805,0.0018875479143378143,0.001825502134401507,-0.0007996427907845
1681944551.1545515,0.04192757902552012,1.4047652361900897,9.823661833368538,1.1871219181503537e-05,-0.0009766593368838925,-0.0003388215868971
1681944551.163829,0.17560129634369612,1.250589307215524,9.691754103764218,0.0015332662482701466,-0.0007918935901912212,0.0006431459600799
1681944551.1738074,0.2934296127674952,1.2572287616426174,9.61873951155913,0.001540703510315622,0.0029110494100104585,-0.0014009335159561
1681944551.1840909,0.06590981422351218,1.2922056673211368,9.772038943645462,0.001988507847708457,0.0008066420249328687,-0.0011159082955918
1681944551.1938195,0.09123959761363193,1.3631942461946702,9.765215228210058,0.0006846545877925821,-0.0003243403610476158,-0.0012362305156192
1681944551.2039752,0.17410047464447925,1.2733035742969958,9.698892818305689,0.0021065969238034474,-0.0006603862944723293,0.0007418798899971
1681944551.2138376,0.18626404898473345,1.4684559857709132,9.76094602460972,-0.0008594960246391482,-0.000258054081881787,0.0013938065071352
1681944551.2238438,0.1877497511080262,1.221668052268607,9.682775201227672,0.00030464724504721766,0.0009575076227941912,0.0005105242284708
1681944551.2357996,0.15592716462121584,1.349439462676437,9.735889104077994,-0.0008259663067071876,0.0008789070509085333,0.0003797815565713
1681944551.244375,0.16388769334248784,1.2749486748484942,9.707685527763994,0.00020333470869739192,0.0006091987646416524,0.0018624496637722
1681944551.2538664,0.10309733685942743,1.4888842090960208,9.806654613868556,-0.004148186543116952,0.00016735987184821752,0.0003343494294905
1681944551.2638638,0.13033244678899006,1.085090841764359,9.667190615259585,-7.97853785737341e-05,-3.6189928307238253e-06,-0.000762766840612
1681944551.274599,0.05655009199128586,1.282595202392289,9.76668877587558,0.0008109385617984766,-0.002565121232587341,-0.0002155161078325
1681944551.283877,0.3008094950759361,1.3265587697381667,9.660160365348434,0.0008169104378257199,-0.00010942521880818536,0.0006722112570651
1681944551.2938132,0.1837187767069204,1.3830808027719654,9.733383300968237,-0.0008896525995359902,0.0005209120721632762,0.0006562028697454
1681944551.3038568,0.16924487645981556,1.2373202885534746,9.687536786657384,-0.00016437132033550074,0.0013874009205344267,-0.0007638979318789
1681944551.338689,0.1650116137663625,1.2758818198863036,9.70726890818014,0.0019016691259241296,0.0017253060655136575,-0.0002751391462287
1681944551.3480022,-0.07149435234624432,1.4351879318329877,9.893848950390279,-0.0007968938961288729,-0.002745060163745174,-0.0001529336755401
1681944551.3643775,0.20691453138994895,1.2545693730408232,9.684409766117394,0.000620938185302179,-0.001038127106070624,-0.0008521740406057
1681944551.3723698,0.198367427302186,1.4433532536404305,9.746222681087762,-0.002116770476558676,-0.0001459138401642452,-0.0013737014110437
1681944551.3770163,0.20970184300403683,1.1481776845527312,9.629542688414446,-0.00010289108579638145,0.00010666118022324044,-0.0004546832374534
1681944551.3821952,0.2093607487065193,1.1727165381727611,9.64417806846087,0.0016915826856350891,0.00044343148651071045,0.0002382190118306
1681944551.3864355,0.032162480184991946,1.2166836671826988,9.758474222163127,0.0017806509789585973,-0.00029420765403477257,-0.0010946694842777
1681944551.3935056,0.18394960742799998,1.5385650761783325,9.79150915476726,-0.0005718979174588721,-0.0006607647669755031,0.0010939135949821
1681944551.3955617,0.09311398612855362,0.44500036246120045,9.463540909318048,0.0015340400510554446,0.00013311019564259073,-0.0020438727538338
1681944551.4040751,0.15491099755887472,1.4706023651994238,9.783191957498891,-0.00018595628572874024,-0.0008526068799904037,0.0003835097572528
1681944551.4147844,0.25069763946125717,1.3076690154662653,9.672575714616935,0.00022010971506376928,0.001082676686833705,0.001588277298165
1681944551.4323988,0.07442556548385065,1.2483998832576588,9.731121295712692,0.001300805915995693,-0.0008335944081548332,-0.0003030620596609
1681944551.435728,0.4668608686017381,1.469374271509766,9.600912685704097,0.0006540855714267226,0.0010729965074338739,0.0005422022345238
1681944551.4440095,0.12474696858319329,1.3503112659927454,9.751146301378936,-1.2376465276572055e-05,0.00047211076887780027,0.0006394283531927
1681944551.4548929,0.16353997064335857,1.3257744192766339,9.717910331517706,-0.00015910869820866608,0.0007477699872349153,0.0008875446778484
1681944551.4639063,0.023830957110274494,1.1311558185198924,9.728497918453128,0.0024634787267211987,-0.001158063176572672,-0.0004416246979734
1681944551.4739046,0.12791340213897595,1.3462297531513998,9.744309928458678,0.0011339322250075996,-0.0014438072971617048,-0.0012138859915784
1681944551.4851046,0.2552447209262596,1.330092554691616,9.678755850247901,0.0004000675829466256,0.0010688826472235182,-0.0017462360288253
1681944551.4938962,0.08976516670827685,1.37064598941507,9.780084327249673,0.0002487920979410062,-0.0007069418698173172,0.000152921854774
1681944551.5038736,0.20886642786664666,1.4552521271971102,9.744202900470198,-0.0025757226347481593,0.00029365883622123985,0.0005593264627032
1681944551.5140543,0.258718759908616,0.9682604487953644,9.536588561534561,0.004345867621745487,0.0027251718527907588,4.902641873295172e-05
1681944551.5240395,-0.014679616420383667,1.5515106439748936,9.904231338980022,-7.791075448934796e-05,-0.0013152824096630137,0.0015267909597833
1681944551.534402,0.17250457899034224,1.3069774429208163,9.713852493503737,0.0003139807036014871,-0.0011394545943675214,0.0022375898238034
1681944551.5439372,0.0769961660567301,1.2207914678684182,9.726734287628696,-0.0004217777897191551,-0.001080969838328644,-0.002148199042981
1681944551.5538533,0.22821763775470555,1.3820475249654118,9.706221797939985,0.000579595141618579,-0.001255679512596169,0.0024882967968233
1681944551.563841,0.12951463193283463,1.3010401929817235,9.737791847979016,-0.00021911492232708975,-0.0013562648193497966,0.0008521481917933
1681944551.5739367,0.3139500646164719,1.2743831018402731,9.637422173611528,-0.00010213199764606128,0.002145886721437229,-0.0005392331245592
1681944551.5838597,0.02559261239043483,1.2356595502747425,9.758412644881773,0.0021352725780644493,-0.0009233695945400318,0.00092815063314
1681944551.594008,0.08083083330541278,1.2817777541868018,9.750846435077378,0.001891654012358554,-0.0019962406047217486,-0.0003160817164233
1681944551.6038506,0.29878147593342386,1.3336441993999104,9.659833246017925,0.0012002192291595867,0.0008800349041068947,-0.0001529435708424
1681944551.6140738,-0.07656515563637475,1.4851713837944116,9.897875054123826,-0.0019841327535971474,-0.004439323013630053,0.0013315929949977
1681944551.6240757,0.374405080601628,1.14399225355983,9.533821302475948,-3.6596058069799376e-05,0.0011616705535904637,-0.0009907452936521
1681944551.6338358,0.08358503816427348,1.2943863810440785,9.75257592159768,-0.0004094695214388167,5.004480171748168e-05,-0.0019470219581625
1681944551.643843,0.2528889634977038,1.2857332709292268,9.661576050982186,0.0019997002699989955,0.001062172289060066,0.0017577864341229
1681944551.6538508,0.03417101164089141,1.3223665147910595,9.789392271819212,0.0007699607123584234,-0.000983733514147276,0.0001726707827993
1681944551.6638875,0.31128221989391996,1.1393739439849622,9.58291622029406,0.004207274120189727,0.0024230434568947943,-0.0002781123935482
1681944551.6741724,0.1571095078239826,1.4116268948541733,9.75959125895063,0.0017728074754975616,0.0023898875010980366,-0.0003730842459252
1681944551.6839502,0.06385693222196015,1.4217922185283287,9.810299360665281,0.00045926875995749524,-8.221431919599908e-05,0.001558488931064
1681944551.69399,0.18067737673943612,1.3084363418230223,9.70646999923518,-0.00023549821074821893,0.0007660302262490487,0.0005202170845815
1681944551.7038674,0.21554810157452767,1.28533346403427,9.688619659191279,0.0010545701442697707,0.0014991663565189495,0.0021690513217118
1681944551.7138548,0.00807754550128859,1.3047326936071049,9.788547155412253,-0.0009008436720262452,-0.00021038456203501422,-0.0017302284564129
1681944551.7238395,0.13883322839626663,1.2895829609917273,9.725905760897883,6.17531782977819e-05,-0.0008786574105589899,-0.000720664773812
1681944551.7352104,0.17373107452176959,1.1951771409477077,9.668430550452227,0.0022921151257410165,-0.0002752115072480661,-0.0014437580562434
1681944551.743861,0.1651615050192482,1.4421691274500852,9.760812587686502,0.0008019782950640297,-0.0006301883622839004,0.0005507671425812
1681944551.7538874,0.24617987463343521,1.204559378881697,9.636187762856553,0.0028039667644764996,0.0012998614484735637,0.0002110175241478
1681944551.7638693,0.20122104251840853,1.4152186829754005,9.735518475650775,0.0005546547108066478,0.002107873273767701,0.0007444691995852
1681944551.7738929,0.026575093001478655,1.2877683106759594,9.78289515303088,0.000502846434598447,-0.0004934966134739711,2.6987601327251032e-05
1681944551.7838676,0.17938670034505053,1.4025004700449917,9.742744474381562,-0.0018061065822314677,7.202100686856577e-05,-0.0001983576535484
1681944551.793874,0.2206373187778671,1.3434076091115201,9.713964157706414,-0.001279713388995836,0.0006434588852524781,0.0018806883940352
1681944551.803866,0.03828872390023751,1.2484576451585903,9.764973078673384,-0.0011526889065496075,-0.001141695697754237,-1.9945002836634085e-05
1681944551.8140736,0.24751095651840097,1.160549449310463,9.63554504634563,0.0016085159289203439,0.0009701868486286672,-0.0011907931498489
1681944551.8239422,0.06771455418613484,1.4223583908352353,9.799003213111328,-0.0007320883746145837,-0.0008011855860740596,-0.0005407285957834
1681944551.8348095,0.19959232474898794,1.2931560640740491,9.687697658740207,-0.00034280461454325064,0.0003488137262177018,-0.0001134283689088
1681944551.843869,0.12361206219701475,1.1809289976873818,9.705001952296827,0.0002688781571434385,0.0009191428585694696,-0.0035291706758788
1681944551.853865,0.16326125729170116,1.2747262787328246,9.696987873935491,0.003439124101119961,-0.00045398130327488557,0.0010011829121732
1681944551.8638666,0.21299563002304528,1.4488474206225497,9.725739556285182,0.0003191924536485501,0.0009403755169698479,0.0007165453548305
1681944551.873913,0.1735479137462355,1.382799474797634,9.73785429521241,-0.0011936655846725727,0.0012160432173829695,0.0009329831495643
1681944551.8839128,0.07072302289521139,1.313365170882948,9.771043920499654,-0.0015665535863845334,-0.0003366641236178929,0.0002885071712308
1681944551.8938687,0.15783891568968303,1.2205510459421922,9.68085798034182,0.0003199355401304037,-0.0002908289665832401,0.0007511854323321
1681944551.9038832,-0.047529758387973554,1.201436987066128,9.794228428162306,0.0004000340746379922,-0.003325480149910071,-0.003032203911548
1681944551.9139397,0.39829882392542937,1.4458833512880391,9.65205920430126,-0.0008546447147054707,0.00042479548440760377,0.0003384368878551
1681944551.9247532,0.037239919792248555,1.16506303628075,9.738631179222983,0.0011696921838055222,-0.001343215109192489,-0.0018497963051549
1681944551.9338973,0.2694492408444428,1.3774612096565126,9.699752797845095,0.0009282832302149331,2.21019222373008e-05,0.0004386694322102
1681944551.943883,0.0879998079321954,1.2416333585685855,9.738770974475697,0.002094300772475506,-0.0012247570971105582,0.0002639360877447
1681944551.9539895,0.23773232530375665,1.459201793307463,9.723253909782263,-0.0004061218417035666,0.00018823980932748875,0.0020427496324055
1681944551.9640234,0.14732969650281352,1.332433509814053,9.73993579422022,-0.001576223231668297,0.0002608798651787389,0.0010719434626163
1681944551.9738662,0.12577415507322642,1.2096145608244029,9.697993124401188,0.0006820353382571191,-0.00022860576243209258,0.0013945499353804
1681944551.9838612,0.15315244225971997,1.2439676658864465,9.690829507094493,0.001451693559058113,0.00026385136846024035,0.0004747667967104
1681944551.9938743,0.21226513648798798,1.4669385864197868,9.748097284942562,-0.001734560382828004,0.001117324615958806,0.0010454978014105
1681944552.004832,0.00869025785596916,1.1721228607220682,9.755907701575255,0.0006511086724676365,-0.0018502367458587867,-0.0005016295786253
1681944552.013944,0.2976398956631595,1.277302024138798,9.629554775859932,0.000349368682108533,0.0013427283696996965,-0.0016292472451231
1681944552.0239005,0.08269592398985204,1.3786415729065808,9.771161868379304,-0.00032751315976899565,-0.0006425070528023401,0.000282542632217
1681944552.033904,0.06392572307444784,1.2685513456579678,9.75549770938762,0.0003318831299102329,-0.0024850196819915633,-0.0003578147466531
1681944552.0438972,0.32549382645392116,1.4781966471486454,9.675619059891105,-0.0022806873022165252,0.0005477253488025814,0.0016381949658035
1681944552.0539086,0.0975476400854042,1.1690428535476955,9.711549650260524,-0.0003871237133974656,-3.8990275611394355e-05,-0.0002996995195052
1681944552.0638793,0.15240430749285147,1.259785652206298,9.705918205331969,0.00015603137495472813,6.269180024306197e-05,-0.0010172013740292
1681944552.073877,0.09036063553316587,1.3142964575635827,9.755864885997857,0.0002044464945692802,-0.0015917120539728727,-0.0004312164697102
1681944552.0839305,0.16774612182557944,1.2319613395213063,9.681713232059673,0.0018435934113041166,-0.0013197732123004873,-0.0002363772678426
1681944552.0940366,0.22826793980760204,1.3138023265977492,9.69363823838899,0.0023703361774943983,-0.0004383355918396559,0.0013867428328604
1681944552.103923,0.11438438155240462,1.3563570891827323,9.761803736433361,0.0007546792010275985,-0.0010634557566157191,0.0005239461001702
1681944552.113955,0.27881738617074364,1.4024996000524448,9.693438008643735,-0.0012428337320077043,0.0014291292263223256,0.0009027821046994
1681944552.1290488,0.0491060931882589,1.188088398307805,9.736362797437364,0.0017809991803309092,-0.0016553900491828814,-0.0008529184001735
1681944552.1338923,0.5356593867623375,1.6150918908834904,9.6174020830576,-0.001393333017057709,0.00223041851389498,-0.0008052696089497
1681944552.1439283,0.09956666440601067,1.3855064449587464,9.781767392221038,-0.001218599913934007,-0.00043015890638820834,0.0027680650504999
1681944552.153916,0.1219850396722919,1.0997292070961904,9.673269377351707,0.0018342754976487278,-0.0002550781101799593,0.0002214603277617
1681944552.163922,0.08040006137589352,1.3689162850553511,9.78556407260951,0.0006257899758758235,-0.002071886594496602,0.0008096836076811
1681944552.1739175,0.25925699619929293,1.2521265130120458,9.649056068175696,0.001970977926384194,-3.227546884132876e-05,0.0012526173063316
1681944552.1839106,0.12030788763952904,1.5155598124048295,9.814257355582459,-0.002357055448293759,-0.0007956136041545812,0.0012891287019238
1681944552.19391,0.21650552820810376,1.3074431075260995,9.69889541120882,-0.00226207585328116,0.00032271087924254014,0.0013282451813803
1681944552.2038882,0.10801807547201753,1.0792944765882535,9.677135675737349,0.0017754042896009528,-0.00035043231027893186,-5.421674225990908e-05
1681944552.2138846,0.1234733675713496,1.4131311061233933,9.784260161335313,-0.0009567117748948137,-0.0008805377758730012,-0.0004289747762731
1681944552.223904,0.15773540613447518,1.2845730859860807,9.708085497350465,-0.0008304531630021626,-0.0005884818991839092,-0.0007102295371941
1681944552.2339206,0.278160568541231,1.2043471851684624,9.624136788495969,0.0009956739646866599,0.002040109085216153,-0.0009881196624836
1681944552.2442043,-0.023842522811855685,1.3283996575576091,9.826260841687331,0.0009539881373647046,-0.002323722740143197,-0.0001946570432982
1681944552.254836,0.4813311913176264,1.3301161156085382,9.557171196697936,0.001607363919980517,0.004027173103016371,0.0024007277947613
1681944552.2639165,-0.040084132704477304,1.2257767413796592,9.796204519262817,0.0009882778263317973,0.0016165226038953443,-0.0014623467891714
1681944552.2738848,0.12457894165890938,1.4774232903762274,9.814630602080193,-0.001323663245691453,-0.00019472316662606418,0.0014120657264948
1681944552.2838895,0.06347703673033582,1.1491075681945004,9.704424564441045,0.0004305763310125419,-0.0009557747140603079,-0.0014899327966622
1681944552.2939055,0.08285128476070819,1.375800522053587,9.790351361565488,-0.00040500539286816075,-0.003221513508460419,0.0005895103945159
1681944552.303911,0.25292523547110735,1.4015522439962729,9.696332603493406,-0.0020489666032510174,-0.0012135904745173383,0.0009728502750159
1681944552.3139858,0.3060657105612485,1.1972896862188462,9.591612153439037,0.0005821921097440122,0.0019562684671926276,0.0013647527643707
1681944552.3241217,-0.08827613853077379,1.1773935126782575,9.806295393473933,0.0018528894877745277,-0.002315152711010218,-0.0015707899897596
1681944552.3345003,0.2498459098479204,1.511691060891628,9.748013896061815,-0.0017300861366967683,-0.0008999293820181824,0.0003868608887069
1681944552.343896,0.2952746427583269,1.3009094232886333,9.644513291233359,-0.0012446779745811582,0.0016012380988793683,0.0011013827438228
1681944552.3538914,0.0963069621304926,1.253221792169273,9.7403612790444,-7.86764420074634e-05,0.00022922259680680356,0.001179973214189
1681944552.3638873,0.05551052200224704,1.3996418898902487,9.804088690707388,-0.0023514623132236206,-0.0016144379848528779,0.0006278862396949
1681944552.3748171,0.21227498232209754,1.1880634604475284,9.658400346167834,-0.0007939224398534931,0.00032085422544604657,-0.0011859621468237
1681944552.3839278,0.22279627666521507,1.252695594863071,9.663661539249429,0.0010068585914730054,0.0012849801985399059,3.594110372896059e-05
1681944552.3939748,0.13600370785105872,1.2665817884309587,9.73199813063224,0.002007502724165391,0.0004229320523204281,0.0007810139481672
1681944552.4039035,0.06212411674203626,1.3613231157869432,9.783424546433501,-8.349913226600683e-05,-0.0010608498701346802,-0.0006107603281042
1681944552.413909,0.0910393413518679,1.4097999085865167,9.789246825689485,-0.0026111126057796414,-0.0022711920157607564,-0.0007016697514108
1681944552.4239397,0.2484457439440937,1.2293217941623624,9.647026729206468,0.0007244979888443938,-0.0015618921407481304,0.0024830856977724
1681944552.4352982,0.21393092662017382,1.2984629455169268,9.686131916058555,-0.00012224703381879493,0.000603607636927044,0.0005485409323819
1681944552.4443834,0.1839230315589516,1.359426063414559,9.71625870882641,-0.000781262593493092,0.0009239831821454091,0.0009717468905956
1681944552.4539251,0.15118598854387436,1.2006413686717383,9.688965873793233,0.00048759033348474116,0.0012574207528013594,-0.0003961605566791
1681944552.4639187,0.13562258104609723,1.364768137088868,9.750326239129679,-0.0003163263290841597,0.0006673074905483312,0.000502353851939
1681944552.473919,-0.01774742272539038,1.1496852590888598,9.759579727524972,0.001728848697553658,-0.0020398746198586237,-0.0016747113864174
1681944552.483944,0.20647953868796975,1.5174257173720431,9.756864311495265,-0.001833289334332668,-0.0013510372235206226,-0.0004535556386462
1681944552.4939172,0.21553864593137764,1.1220535697850906,9.639591247894943,0.0016889975871580282,-2.8743634207646847e-06,-0.0012600819195858
1681944552.503914,0.21891223715948138,1.3662927416199289,9.72096795029501,0.001135397827378558,0.0006870670229429051,0.0002430671279081
1681944552.513931,0.08423835590619448,1.3163924428528317,9.761444156006988,0.001259457020614977,-0.001171103141367228,0.0012094112730347
1681944552.523923,0.1668959503194859,1.4074579377989977,9.740856131618399,-0.0012484029372155547,-0.0005430438962508041,0.0006189422833495
1681944552.533941,0.15311585081879123,1.1069991417212701,9.667772927613829,0.0016297692358139282,7.01283635761963e-05,-0.0013059008947811
1681944552.5470245,0.1665214680270838,1.337563462335043,9.714723419125527,0.000219334703359266,0.000964218739713025,-0.0024231291922978
1681944552.5539474,0.02238716111492968,1.2762115109552132,9.791482713606463,0.0014408795088236997,-0.001403935806530485,-0.0012124049558541
1681944552.563933,0.09247985086283585,1.486989201649741,9.809190896330186,-0.0016544565633465173,-0.0030315407557770235,-0.0001428688724762
1681944552.5739102,0.34750121770672937,1.3660371044667772,9.636380170145353,-0.0028398551228483765,0.0008550479746006419,9.47668135860072e-05
1681944552.5839243,0.06402642577234337,1.1684242004359573,9.716479205680365,1.372249903733972e-05,-0.0011685011303408308,-8.661733821545975e-05
1681944552.593922,0.14799225240612865,1.2072297736266664,9.69573063890509,0.00229062030949253,-0.0015749389282822713,0.0002389634878137
1681944552.6039307,0.2234883973192847,1.496003897320371,9.743062723595923,-0.0007819962574679971,-0.0007814728792334386,0.0023415340378643
1681944552.6139326,0.14226149296959986,1.2123559829139292,9.690551585683266,-0.0007760417969898125,0.0003733824959169229,-0.0010067670687339
1681944552.6239357,0.06677214991260115,1.232999122859353,9.748042579483746,0.0010523433824541318,-0.0018464994623596423,-0.0003287595778009
1681944552.6339574,0.1524244211528595,1.217804781537437,9.688640700157928,0.001763478441760295,-0.0013044965332476989,-0.0018494410055926
1681944552.643953,0.1342506272385269,1.3593332575831247,9.755831755315008,0.001608876678446039,-0.0023997474252408163,-6.875887860124247e-05
1681944552.6542616,0.1830398176844985,1.4656383618063464,9.7455498324107,-0.0014875655428004384,-0.0017571126519385278,0.0007981315406733
1681944552.666586,0.23571443077902188,1.242077967945222,9.657607542428309,-0.0008859203332212526,0.0009958791445421522,-0.0014564105390808
1681944552.6744354,0.2912381974506433,1.3901515330539054,9.675753881331216,-0.00016769955263863556,0.0019707867275486177,0.0023907011177153
1681944552.6852813,-0.039956618001705316,1.2621364991442632,9.813253712418883,-0.001812050683952646,-0.0007639389249105897,-0.0026186966884187
1681944552.698387,0.20396304515194383,1.3326889648630433,9.70118229319661,-0.0015136470235940693,-0.0002122399857484398,-0.0003496291197142
1681944552.7039726,0.09677066807122249,1.37781756073963,9.79201309439682,-0.0023086237319458456,-0.0010709299491998424,-0.0001138210377893
1681944552.7163537,0.2475979641900466,1.1373329636335705,9.618513918391086,0.002222400685586384,0.001325244033329542,-0.0001253601244888
1681944552.7239382,0.16925041817949654,1.5497925709843314,9.816577285682527,-0.001235760666927184,0.0010763456508095968,0.0007400005974569
1681944552.738353,0.15922775054986807,1.2447677181312344,9.690344101911487,-0.000255626297165475,0.0019920364814121805,-0.001020902915602
1681944552.7450566,0.046182752838121004,1.3808245614030543,9.800716526519784,-0.000516754517235084,-5.539493542770712e-05,0.0004874495475315
1681944552.7546997,0.20177010955870753,1.3148163447949701,9.699957750673931,0.00023462966275497572,0.000275410974297048,0.002347475235606
1681944552.7639625,0.2959141241370181,1.2057695984915457,9.6099415849154,0.0016826451803756486,0.0034523419176145315,0.0015909149492154
1681944552.7740092,-0.045462349718638974,1.4299792466484167,9.879593972496197,-0.0015173757386396935,-0.0005229180306649138,0.0004569040297293
1681944552.7840984,0.1887252971947015,1.3312051338977433,9.712636492262352,-0.0015728790947333864,2.3207749993865877e-05,0.0013029096275796
1681944552.7939615,0.04477814262735199,1.1416728109709036,9.727395597815207,0.0006894869194416062,-0.0015708345310801784,-0.0006860244634798
1681944552.8040674,0.15541548219369272,1.1990502780062595,9.68739670251943,0.0028092024327335797,-0.0014222334208536045,-0.0009762187569639
1681944552.813965,0.33183822355783055,1.5537619248724672,9.700665559510668,-0.0006833047578239381,0.0012354151499007185,0.0016847463243403
1681944552.8240275,-0.08083027400899075,1.266805819033076,9.848620074630036,0.0005009937635617047,-0.004208350050432779,0.0018609587909532
1681944552.833992,0.31377407846208455,1.4025045139699326,9.66513083518422,-0.0025403392730138164,-0.000266262679125404,0.0004527877003648
1681944552.8439846,0.185351067913145,1.1323991150293435,9.653788259607692,0.00044623662351483625,0.0005846071381289078,-0.000750466863369
1681944552.8548248,0.15025717574581618,1.278013819549633,9.728536221430842,0.0025975860347091867,-0.0006756555385986898,0.0016668564762449
1681944552.863975,0.18315057194415804,1.3486567210627243,9.711226939769595,-0.00029697850979388667,0.001369145016372278,-0.0019459285854599
1681944552.874012,0.09479171802848857,1.3946714600300434,9.780593273517638,-0.001430967531887884,-0.0003735029267591523,-0.0005604523780993
1681944552.8839328,0.1386104385964378,1.2155551268457538,9.684506564166822,0.0015291743186988573,-0.0013443432674807687,0.0020379055326567
1681944552.895683,0.10212102639859341,1.2085845305815124,9.712950408985057,0.0014635902558007233,-0.0010455575226550168,-0.0020528360351226
1681944552.9039652,0.31722619175416084,1.5033251437411632,9.70851203905937,-0.0010543336037469907,0.001082666087234022,-0.0001905729609779
1681944552.9139442,0.15489354583721868,1.182498775331072,9.676876118986781,0.0011168001675725158,0.0013311484786101128,-0.0010522102552703
1681944552.923962,0.1519425079007347,1.4553776105187488,9.787220888103729,-0.0015482786174851884,0.0006926557532560021,0.0002021056984313
1681944552.9339707,0.19211808950363554,1.4312116387555371,9.742469122292732,-0.002713199751739598,0.0005324414304731061,0.0028261892416277
1681944552.9439735,0.05273155155754823,1.190199875013978,9.745220909811891,-0.002258710072847507,-0.0005035434824511684,-0.0005615895229629
1681944552.9542267,0.1939740414051227,1.1158026184757883,9.63404118226662,0.002271620422879167,-5.095651533725755e-06,0.0001305710443058
1681944552.9659142,0.11189282215785357,1.3324666451305667,9.753415023245783,0.0007874570398496903,-0.0006901824548444665,-0.0012258185620657
1681944552.97731,0.31322298992641995,1.4136985179123682,9.669964785815594,-0.0002779695961936238,0.0020568434347996586,0.0019112677814201
1681944552.9839623,0.13985309941515386,1.2962622762517884,9.723518722660067,-0.0014376214345001458,0.0027013290833728457,-0.0002974545664391
1681944552.9939628,-0.04330096202523414,1.3887113263597504,9.85355334928405,-0.002237838894783936,-0.00226076632421411,0.0014120626705926
1681944553.004301,0.19760834866441848,1.047093664142481,9.61624749076479,0.001995571346164463,-0.0004651628674123817,-0.0011434859211794
1681944553.0139923,0.0723663096601805,1.4022542961415583,9.801760932101216,0.00041828156401550374,-0.002480536647927944,-0.0004677287384173
1681944553.023965,0.19197297598232616,1.3100046235785638,9.70103614629527,-0.00024926896282311255,-0.0013898021745242686,-0.0009728659956953
1681944553.0340033,0.153198175229644,1.3403047985285719,9.742055688509016,0.00014970030428891636,-0.002372891546790755,0.001070080642844
1681944553.044794,0.17875128536161283,1.3428183409220211,9.737532254960877,-0.0007261192995664,-0.0022473557787496745,0.0013483582856361
1681944553.0540423,0.2895974051012928,1.2237763000637794,9.61055314310557,0.00015565519652169064,0.0008237697713764411,-0.0002006193704209
1681944553.082693,0.1107124805410595,1.2966864339923596,9.736828983022743,-0.00012151963750231851,-0.001602517774218012,-0.0009121507487497
1681944553.0848172,0.3384578496328434,1.5063376922958924,9.68567170493226,-0.00044968788031693414,-0.0011532387397435297,0.0001711792696961
1681944553.086143,2.0232322904877322,1.3526896386781535,8.729186281414048,-0.0010875069265898376,0.004405267550407329,-0.0007553095079264
1681944553.0939507,-0.1124669612064925,1.2079976593817787,9.834833254371626,0.0007945425469779779,-0.00034109235067640787,-0.0003551914437911
1681944553.1041112,0.19211172584542918,1.265780294634043,9.691104696171552,0.001793277636520693,0.0004005941775639433,-1.6938743418945523e-06
1681944553.114225,0.06486938591308206,1.4695478543253475,9.821097366020195,-0.0020042724583505464,-0.001247868498183532,-0.0006942149798623
1681944553.1241636,0.18681628842782494,1.1963961468198976,9.66635973223888,3.424678356025712e-05,-0.0005657853689572766,-0.0006793235975555
1681944553.1340344,0.25589905058180423,1.3721727918887365,9.68907282612037,-3.583346319883005e-05,0.0006948816694974343,0.0018009905211011
1681944553.1440115,0.12961629160808483,1.2381094448761558,9.711649737379775,0.0008474424684147015,0.0004106324892130304,0.0011523887200974
1681944553.1539855,0.06701131062903447,1.4880126291796856,9.833793276993374,-0.0030488408287101644,-0.0015339843333796056,0.0012235588778504
1681944553.1639695,0.3756454053570025,1.1725718766581097,9.56305638851738,-0.0011247219969727543,0.0036877779371513727,-3.534284164656565e-06
1681944553.173965,0.0019156276803336484,1.2480970169448546,9.77356003630973,0.00015341880915541674,0.0005790228494450246,9.96451976471649e-05
1681944553.1839745,0.13562395285942397,1.2198290810750367,9.701714832886356,0.00019069216589439323,0.001294275658862142,-0.0030381671699932
1681944553.1940217,0.07434125206762146,1.3442823385976075,9.778438383044593,3.980192922239293e-05,-0.0009315757995750867,-0.0017447428859076
1681944553.2039628,0.260230017895605,1.3485319965191325,9.676823181012256,0.0007185453688393736,0.0002638601331952858,0.0012771878659487
1681944553.2139597,0.061672967970224916,1.3148801535066872,9.772517252535888,0.00046635461895152777,-0.0017083010709555578,0.0010689799941838
1681944553.223985,0.22041659551955678,1.4549281556738427,9.73602144928991,-0.0028756232525589003,-0.00015860232995967095,0.0012388261652314
1681944553.23397,0.16544499499730708,1.1311409613859509,9.662037199851454,-0.00088257322467016,0.0010312598652031301,-0.0019567277363738
1681944553.2439797,0.18425776007465028,1.3525737641991786,9.72099861056045,-0.0009436889835205655,0.001080441916869949,-9.7802289505948e-05
1681944553.2540517,0.13174054877128571,1.3706018573245975,9.753323870503747,-0.0014979957367455927,4.96556471776038e-05,0.0017082185999834
1681944553.2643569,0.16154963233529354,1.137822649786292,9.669100726555351,0.00032104197389202897,0.0012361565866572575,-0.0013126283033988
1681944553.2780085,0.12683403310758828,1.3571144274353537,9.758304497792475,-0.0005100712912708487,-0.00022973326497228126,6.537671785290106e-05
1681944553.2843328,0.17254275634526473,1.1294623313461571,9.643985466778963,0.0013834944262996762,0.0003555249937977405,-0.0006767091422579
1681944553.2939892,0.11944169830987174,1.344234231118915,9.76164511049192,0.0005177664721597828,-0.0003683225124866709,-0.0011881786945513
1681944553.303982,0.12845679388911707,1.311030772633624,9.716232352186429,-0.0009354650852818995,0.00024150074271014796,-0.0036073994438401
1681944553.31557,0.14802650528073436,1.310135365743861,9.733397205865442,0.0004160546929424865,-0.001003103052437645,-0.0007880908983997
1681944553.3240025,0.3062930817373457,1.4695809216129334,9.690420574367431,-0.001823594315287944,0.0013874067621855223,0.0005679061555066
1681944553.3356712,0.0914446322988659,1.2559440328667604,9.744400541585554,-0.0009246798467971111,-0.00021335880392845478,0.0001301834976994
1681944553.3440566,0.1949976180255322,1.31186895302324,9.693367039381663,-0.001276713435919769,0.0006807183154558541,-0.0002762383396974
1681944553.3543413,0.09671162545265721,1.3355095364122116,9.773439791274598,-0.0006214472590768466,-0.0015555739820096806,0.0024205018684961
1681944553.3651862,0.11121462673579934,1.1219907292172722,9.679056426004104,0.0016308656525788577,-0.0013402457021743689,-0.0009065665385923
1681944553.3748062,0.2208075548584073,1.3921054130717354,9.73540703606969,0.0012035889395368743,-0.0009446311344264005,0.0006863753928565
1681944553.3843625,0.15111290727206902,1.2304547143764633,9.70516501562039,0.001174869360331066,-0.00018536279826720953,-0.0020964047021469
1681944553.394823,0.13583239295130217,1.3436380324684754,9.736341305291324,-5.222542882505056e-05,-0.0004934680512540024,-0.0022625617298535
1681944553.4057896,0.2641422190515007,1.3446986136940529,9.663574194879118,0.00038961213654131543,0.0012268507606181085,0.0002594721422293
1681944553.4144938,0.04175831118532901,1.3516975894506098,9.79343647032634,-0.0018530394090296156,2.4307597015871072e-05,-0.0020740694913319
1681944553.4264326,0.11158953557473829,1.2396750879114795,9.722678684703249,0.0006403373381171336,-0.0017160998246588172,-0.0005004896397939
1681944553.4351058,0.3240493608849104,1.2484139959279958,9.61440586978629,0.0015425737052942494,0.001294296010007497,-0.0006051719269952
1681944553.4440317,0.20312147287090002,1.4317651709123418,9.736990350160994,-0.00021727099811648905,0.0017722395661378368,0.0006569412921317
1681944553.4542437,0.006822297814354631,1.1895456422481716,9.767021180971792,0.0014371521751416433,-0.000984857829102824,-0.0009665395214459
1681944553.4666908,0.20076565409249292,1.43471118695837,9.733287344429527,-0.0003971743659813863,-0.000611579761181397,0.0016728358072806
1681944553.4742596,0.16868506184213727,1.113980829904876,9.656701749616897,0.001822727917379242,-3.7513154734408105e-05,0.0004658384400182
1681944553.483975,0.16965470742615682,1.347780759298434,9.723042562586864,-9.174546799552609e-05,0.0010223387293174621,-0.0014590159139833
1681944553.4942083,0.21489304508092355,1.3042341675005251,9.685228807429398,0.0004097453466426596,0.0019745028399394213,-0.0005083306773803
1681944553.5042174,0.1598516829171686,1.1975085967632861,9.680209867866838,0.0008917861519638612,0.0031595268792647545,-0.0036353302735141
1681944553.5144296,-0.025165785652598718,1.4547590147376686,9.874913033994922,-0.00044262964169807493,-0.0021538488721126823,0.0002587112516858
1681944553.524011,0.27654061372385286,1.3611748716043848,9.675263992599582,-0.001198869006734339,0.00011894940162585897,0.0010626295965858
1681944553.5340276,0.11180664927111882,1.1153783103489685,9.674748424692424,0.0019013275236245042,-0.0004532600000858853,-0.0005269543349048
1681944553.544012,0.2676295036962874,1.433397402538092,9.710551029127894,0.00032253225708074194,0.0013486803810611539,0.0016970737392194
1681944553.554005,0.16329777163539674,1.1387139417027017,9.662353958952965,0.002489129163891285,0.0025456242315271063,-0.001061929537659
1681944553.5640934,-0.026999213504863413,1.3851405773808925,9.840027261458319,0.0004749028100386017,-0.001418854956060446,-0.0011233709833822
1681944553.5761874,0.2082047412808217,1.345090438346975,9.703810736558136,9.79079414626262e-05,-0.00031056346620237925,6.947022981430157e-05
1681944553.58399,0.05787112350178257,1.2507438050519994,9.750863718410908,0.001181982326074305,-0.0019362711057560808,0.0005127936287545
1681944553.6067765,0.1668365433080281,1.2921595467823075,9.710761788853917,0.0002860419927715396,-0.0003191299705050111,-0.0016095073974928
1681944553.6076035,1.3199998593717444,2.458229120316372,9.478803552498487,-0.0005096702478118879,0.000979476292787481,0.0006476060638898
1681944553.623442,0.056473496623280585,1.2368756465616544,9.745956418844104,0.0006485122510616318,-0.001363706461946811,-0.0004796417511305
1681944553.6242645,1.4871022755234935,2.408645812752998,9.34335343208307,2.079961507386107e-05,0.00019308195694482606,0.0018952392906295
1681944553.6445813,0.12442203014918478,1.2372619214485765,9.714451938942759,0.002371826101744796,-0.0007169971975142892,0.0004293223296054
1681944553.645509,1.7583351509217386,3.04477290397332,9.441697951464494,-0.001055468816220916,0.002438315754812407,0.0004118309275009
1681944553.6571171,0.10967412206327731,1.2698881253005483,9.738489774583746,0.0005971054234391566,0.0006669387823755054,0.0017283421816183
1681944553.6640184,0.15729046438469715,1.309932033499788,9.726544110413839,0.00037208967425517836,0.0004724878105827254,0.0015640626929462
1681944553.674071,0.14195495240304323,1.3968829054879446,9.774748338717544,-0.0017241285397534387,-0.0002360782112387267,0.0015964582248353
1681944553.6846168,0.18303605891167798,1.268243386820508,9.71592431700465,-0.0005003639936113884,-0.0002539482082297805,0.001917574246786
1681944553.6940346,0.1652701300114148,1.2256301830236767,9.690058788509285,0.000833651137004723,-0.00017571287354097029,0.0020923035312672
1681944553.7040374,0.15816973052299726,1.2505100821643769,9.712149027159153,0.0007997659806327268,0.00014352997962104863,1.6652897694216515e-06
1681944553.7140973,0.24878642025198627,1.336808399010529,9.682003293866641,0.0008172777798539193,0.001494318891333336,0.0013487187074725
1681944553.724035,0.17015375948185157,1.3112496625950236,9.722907305598142,0.0014658000225219888,0.001246625827469168,0.0021410815511127
1681944553.7341385,-0.03178651534950812,1.3061871367248383,9.824040232573237,0.000717811113964303,-0.0024034301728514166,0.0007429889787682
1681944553.7440212,0.35581377780661144,1.323883714090839,9.610433623566351,-6.303762148201942e-05,0.0021838717477061,-2.9293269594658777e-05
1681944553.756894,0.007707861375405471,1.2196503583065357,9.773974269889964,0.0012259621609752686,-0.001142434734888045,-0.0018732584162852
1681944553.7662482,0.20913572379311068,1.407876823760875,9.718784558018475,-0.0006698822099248259,-0.00023682629252722883,-0.0016672652296028
1681944553.7742772,0.12565133033906672,1.2086923928618745,9.69649290846509,0.0014449785706452496,-0.0009070075065845067,-0.0008715471799722
1681944553.7854376,0.2494578537991833,1.4023875511229729,9.702591145689443,6.141835361822331e-05,0.000706050813540002,0.0005448027199828
1681944553.7940657,0.041231169813232056,1.311921852339879,9.787814027121302,9.343944052615372e-05,-0.0015332112046000524,0.0010697028751247
1681944553.804572,0.2702668979867792,1.3091378452142377,9.660533295039794,-0.00016024998350773446,0.0010797001018891807,0.0005537548254006
1681944553.8150418,-0.007596113271843749,1.436907353746942,9.856065632318833,-0.0035904910488684777,-0.002369159272100342,9.181521951640707e-05
1681944553.8240485,0.32387037295753934,1.1312889088704956,9.567083892362824,0.0012426972671965419,-6.618685634132164e-05,0.0027032303891838
1681944553.8376148,0.09159522407521102,1.302706277958186,9.751337285175943,0.0001642253881202234,-0.0011234512028420417,0.0005798224278488
1681944553.8440568,0.1311263745920737,1.195140413446222,9.698856590851756,0.0011078476896573743,-0.000985246016717547,-0.0006994313176027
1681944553.9067883,0.16356001836726788,1.3151661894061388,9.728377534889168,0.0015768441991960392,-0.0010440680373287033,0.0006778086221539
1681944553.908905,0.08115728919460502,2.018539102520072,9.99857553385591,-0.0016376983507047824,-0.0013842098325337017,0.0007221378304758
1681944553.910926,-0.17377787391627875,0.7953082551281642,9.721829101415487,-0.000698173854538089,-0.002019005040846323,-0.0015178782946667
1681944553.9173765,0.36235790893486797,1.1843840065011442,9.57572896720033,0.0027298308357568677,-0.0005962987044911562,0.0016817904592836
1681944553.9222915,0.3848209910973762,1.4569865504189152,9.648388714459243,0.0007565134922739706,0.0020758642525283903,0.0010879837477342
1681944553.9235168,-0.9723074179678248,1.9034145408480236,10.525983208033288,-0.0009082865968885526,-0.000770276155872155,0.0008949958987296
1681944553.9269218,0.39687290702679223,1.2117446771747777,9.560568173830072,-0.0003238163389118586,0.0010268079961934832,0.000711322847078
1681944553.9287603,-0.330295346474626,1.0915822728106979,9.91403519874879,0.00040003149327817294,-0.0008172190253046897,0.0005231953377598
1681944553.9340332,0.13490239955705474,1.1541413430839191,9.686821926117213,0.0005788424020703034,-0.00011576117235691748,-0.0024562842759541
1681944553.9441755,0.22459914362338051,1.4291407284074311,9.726716560343553,-0.0015203630408979893,0.0009239877401340057,-0.0009851561940512
1681944553.9545424,0.12549486967571064,1.243875896200184,9.702010603979927,0.0002223675634430758,0.0001714830258423005,0.0003239144257032
1681944553.9641366,0.10212537526770188,1.3360800783441544,9.76225341237019,0.00035943121430269767,-0.0014866529265622325,0.0018188648222941
1681944553.9740665,0.18631965871014672,1.2645375813793285,9.693912818494107,3.532453046996204e-05,-0.00011722583881039921,7.72929901951061e-05
1681944553.9840925,0.21789358834373693,1.307202249631145,9.694179628927733,-0.00012411838549390526,0.0011646498550889194,-0.0001000159268504
1681944553.9941075,0.18040174085187094,1.1764703577106088,9.660669854964386,0.0017295894815051434,0.0022908090999756606,-0.0016136038198373
1681944554.004059,0.09028060816886356,1.5412042348914718,9.841100963152394,-0.001112435215671349,-0.0006153072987347003,0.0022927180084162
1681944554.0140562,0.25074491791385994,1.1287267775439813,9.609267829514934,0.002171038766862498,0.0016552564215377406,0.0014113382471487
1681944554.0241363,0.02408722215492805,1.3496624704099305,9.810160403722103,-2.2784258530930412e-05,-0.0004376264536316167,-0.0006197170901349
1681944554.0341892,0.28697286702708313,1.3583230340765469,9.66854877467792,-0.0002947292392078885,0.0018698340501736822,0.0009385778371007
1681944554.0440662,0.08110559156997887,1.400862681061128,9.796792440225818,-0.0022493868936775733,0.00026422944316322795,0.0010659742669896
1681944554.0541005,0.14964960833582944,1.0698807536546198,9.656984381447128,0.002232122052368041,0.00045200295121208714,-8.886776280169623e-05
1681944554.0645397,0.09610776505204938,1.356320346239187,9.774523387543844,0.0015444450924243487,-0.001122684379662919,0.000724755778233
1681944554.074079,0.18942409469443394,1.4527100589052095,9.760327980634926,-0.002330998103458221,-1.014469449176889e-06,-0.0007333275011978
1681944554.0840633,0.1988541492657452,1.3434138654839496,9.715045279349516,-0.003209415266202213,0.0008751938295350882,-0.0006319798144749
1681944554.0941184,0.07349160701172511,1.0207735931422584,9.657917406078923,0.004103721428567671,-0.0014881396261293418,0.0016094748547994
1681944554.1040685,0.29119762313389475,1.4343186806486332,9.686224773681925,0.0002275370841764367,0.0022840865530914262,-0.0006361186119965
1681944554.114067,0.04611727474120847,1.3491820128787457,9.795865953575683,0.00029684016162021405,-0.0006071038459030143,0.0010909436654993
1681944554.1240785,0.1656444802845747,1.3810219419404814,9.75126209514823,-0.0007302099692538432,-0.0010262074924096345,0.0030198952567526
1681944554.134142,0.09659059617947305,1.0522625947746773,9.670953394455513,0.0018186202423299696,-0.0006227508000047795,-0.0022439427289417
1681944554.1441495,0.2189268787523714,1.417890398493882,9.727314981926627,0.0007338277789477635,-0.0002144745511561508,0.0002337523887627
1681944554.154193,0.16561052566451656,1.3536375927489719,9.730472240766234,0.00010982837711030264,-0.00030014507817409625,0.0010484658100404
1681944554.1641262,0.207445499038851,1.2911462472540265,9.692962219651083,-9.840945103637294e-05,0.0008546836515655943,0.0003887120087393
1681944554.174273,0.10064979707621013,1.246377041950325,9.737311207733594,0.0013358306644561133,-0.0004957173536458285,0.0006431763444789
1681944554.1840606,0.19800881868663825,1.348378907657796,9.717406110780496,-0.0004359067489882572,0.0009079592966979969,-0.000779147174885
1681944554.194108,-0.0003143733477816226,1.1959979421608413,9.767475558665303,0.0015764955637914669,-0.002327057871529556,-0.0014009004540047
1681944554.2042382,0.3494169973039607,1.3594781098092497,9.629360499419104,0.00059339580316298,0.001912675848341781,-0.0009173500898531
1681944554.2141776,0.10491429809333837,1.382738440646594,9.773675011838938,-0.0003167069403186175,0.0003350122934063752,0.0003607857192629
1681944554.224105,0.10366682503533863,1.2169257190997662,9.72662444166225,0.0014487023156347762,-0.0008511114948351182,0.0004747800680571
1681944554.2342093,0.07230685799326726,1.3060756351685237,9.764193002803712,0.0006675142893395478,-0.00198956496999,-0.0009449295780858
1681944554.2441115,0.28253311084883304,1.2886708763845975,9.655794906592838,0.001152542782854237,0.0004218184829452501,-0.0004859647329202
1681944554.254097,0.18407335823547094,1.317592960742646,9.704340529249869,0.0016360730005049225,0.0005559379001924727,0.0011628393817455
1681944554.264137,0.13246956243941715,1.3184432935823636,9.742103952675688,0.0005282008217888715,0.000580129789520152,6.090380835766657e-05
1681944554.274096,0.08765603330450693,1.1487017294256734,9.704561090613623,0.003855968236159236,-0.0007985885254479568,8.991858109320267e-05
1681944554.284062,0.1565482818004377,1.380603792234685,9.751526336996465,0.0007673335748412154,0.00011038156199103093,-0.0025281828443757
1681944554.2941203,0.2030108499373559,1.2806149436565648,9.691629725674042,0.0022049333241658175,0.0004255442375500623,-0.001065261809831
1681944554.30407,0.01857656936744396,1.3342346614478509,9.798651511249222,0.002929901386838627,-0.003182380612533389,0.0010913412238233
1681944554.3140907,0.35678674063318006,1.3237360031859673,9.628176504789222,0.0018186274315571667,0.001230574953493523,-0.0001495800993642
1681944554.3248093,0.053255524342847776,1.4086327568903652,9.81407402735002,0.00020557571380722242,-0.0015004340567605669,0.0012924768938911
1681944554.3354373,0.12849070111192612,1.2536770784060682,9.72347950044275,0.00040934781818626685,-0.0016341649475940614,-0.0006305134470811
1681944554.3441308,0.2618123684826197,1.4260754334963486,9.71434480676512,-0.0024416115072253856,0.00047732531703780564,-0.001298829362472
1681944554.3541005,0.2104939440326845,1.4184383655534185,9.724240477777434,-0.0027210118516596575,0.00041957652240080014,0.0026548177388259
1681944554.3642282,0.1794994159048603,1.1644604332822424,9.656965218171493,-0.000846826337593573,0.001626945054657702,0.000772432509134
1681944554.374516,0.06084642815619514,1.2925048919820412,9.76701346970756,-0.0009049376878671335,-0.0003604979394435814,0.0002490284072929
1681944554.389036,0.09937136190175644,1.1740609609338442,9.706682985390996,0.0023032902931924134,-0.001589471746880783,-0.0005522758315554
1681944554.394154,0.35527182514843375,1.509168798040289,9.697829633355415,-5.519947186546e-05,0.000552202766845789,-0.0008182599290511
1681944554.404117,0.005552841177812297,1.3226205710493957,9.802619449397756,0.00010425814480523198,-0.002935417894818286,0.000204328416171
1681944554.414055,0.33252517355700584,1.3153856584866597,9.638389625803342,0.0002089160996304579,0.0005309749009342991,0.0004621186212399
1681944554.4240608,0.08170402802724265,1.3730374736135431,9.788703283205013,-0.002798861593507215,-5.464696916427637e-05,-0.0022554864722541
1681944554.434188,0.132515929522749,1.1778446018448443,9.689281933494208,-4.252033402950669e-05,-0.0007185038484517541,-0.0023232872213474
1681944554.444159,0.15463834953333416,1.4199877399530998,9.757358894890174,-0.001284160458374041,-0.0013949978589624969,-0.0001618676201677
1681944554.4544113,0.2518492330633992,1.1759374115065195,9.624338593640807,0.00167333151419085,0.0005473586555038541,2.5493294256280497e-05
1681944554.4640975,0.1852330948720448,1.3469045962365893,9.731082251001315,0.0011480712947066118,0.000851345839477767,0.0003876228269883
1681944554.475181,0.1059433109358095,1.3431878460102635,9.767428093629933,-0.0007194125725984059,0.0001174610234485537,-0.0011498196131787
1681944554.4844463,0.20703406753447387,1.218884556304186,9.655713137738301,0.0012136309431518442,0.001066663368915839,-0.0003447899676165
1681944554.495195,0.16038298285229013,1.4457905908631339,9.76401755501542,-0.0013553345248708275,0.0006099387553099856,0.000736296843993
1681944554.5055015,0.12115135849346709,1.1399429671445382,9.685513474157982,0.0012352197050387254,0.0002746830068927689,-0.0007653798989257
1681944554.515632,0.19536153414031202,1.6113347160737062,9.808496945517344,-0.004464823874996772,0.00025379531260362974,0.0012302520021558
1681944554.524081,-0.07096903081520416,0.9034860592584405,9.710329673988557,0.0009588526075303796,-0.0026519009537181444,-0.002185444495385
1681944554.5341115,0.21699575828693787,1.3132336706883907,9.710762692319994,0.001588032091545963,-0.001976916886263511,-0.0009568553964844
1681944554.5441058,0.13287380155755169,1.198983523986532,9.701432104666363,0.003548283221125861,-0.0024589229972326178,-0.0015778508118591
1681944554.554122,0.2313566466210989,1.3952663232031801,9.695327302235224,0.002780119107101,-0.0016036438723821592,0.001054038669704
1681944554.5642462,0.2538521367471356,1.4056933052114968,9.702560443460776,0.00130118671748817,-9.041785188074417e-05,0.0024815915653244
1681944554.575715,0.16640923826675888,1.3023748881263038,9.709001283680347,-0.00031709560239888895,0.0011940851899612502,-0.000642045781692
1681944554.5848691,-0.0533342370290743,1.301649220485486,9.819893542828673,-0.000860969215122733,-0.002315164278052473,-0.0017931753850779
1681944554.5941343,0.4310305400685639,1.303010781146702,9.571249803583841,0.00018101945054080717,0.002434576981840238,0.000509375442075
1681944554.6042194,0.048404898482258554,1.258600599528316,9.751547000646564,0.0005285611180350678,0.0006274582067344973,-0.0007508270523748
1681944554.614176,0.19451236600591243,1.3452373362942032,9.714914612550078,-0.0003617955293075976,0.001564724447689585,-0.0008879382244548
1681944554.6241624,0.06706334836495295,1.2485051756990309,9.740599518157032,0.0008593698995430826,-0.0002848632289626088,-0.0003887332591465
1681944554.63438,0.13796315303310233,1.3491984381323179,9.755630820528891,-0.00018820336311869135,-0.0006223811515398146,-0.0003630427259257
1681944554.64411,0.20109919719848957,1.3250781796220445,9.709998077160668,-0.0016905769159964515,0.0008934422363151964,-0.0022476442705145
1681944554.656241,0.1978910395082657,1.384666376197007,9.736238215700135,-0.0027400293420128397,0.000945949746562335,-0.0001465953269279
1681944554.66776,0.11363277795709145,0.9856130133504984,9.57598974683872,0.0016844940475837624,-0.0007438370604597072,-0.001196039057081
1681944554.6740954,-0.3011810588875498,0.5089791277862727,10.139011733761544,0.00892405304234018,-0.015231742020371159,-0.007992040513759
1681944554.6842444,2.441859779962819,0.7190717320916896,9.730688628068092,0.013660103522498735,-0.007328351461638418,-0.0133979033294371
1681944554.694166,2.812158014932753,0.37639243692152075,9.641315613706759,0.02054758414466231,0.0074101655362333535,-0.0119309175375155
1681944554.7042186,2.275507238460839,-0.06580749883461703,9.796645149527947,0.034747667201819696,0.007030177040855682,-0.0043269937473586
1681944554.7141027,1.0735261353251575,0.03421908164158161,10.479137762531886,0.0469150047924728,-0.012363477808560957,-0.0108426205429485
1681944554.7241774,5.582724537850491,-4.054752449704132,11.334363279146164,0.09656749959586111,-0.016693060975319876,-0.0239691800984791
1681944554.7341387,8.209560920397898,-1.535737563995029,7.184594462929354,0.14994406863628862,0.06522260265872044,-0.0453140299382857
1681944554.744151,-1.1528030423578592,6.9750936458294515,9.584321274336654,0.07883993703011805,0.03151729865910547,-0.0374981510999849
1681944554.7542837,2.9321871304897362,6.69279891545362,10.119387825118327,0.006146350070686388,0.018410310732246936,-0.0078510997432521
1681944554.7643545,5.031378321289448,-6.277749556206237,8.819906542625564,0.080352181468483,0.05675127548973013,0.0437237088021584
1681944554.7741537,1.6360329410091259,-5.13795979109023,7.236652672805245,0.20546784635090407,0.06158712743505947,0.0518767562147923
1681944554.7841787,-1.8920756641099215,0.6179093729680147,8.743958655004048,0.20202835242956013,0.014022924701509447,0.0355980795261212
1681944554.7942483,7.056623539172604,0.15277720723106422,7.230533253766215,0.21760301954230218,0.08580489188760697,0.0551036697265454
1681944554.8041434,3.0356930919252134,6.982632410049411,11.142535557402278,0.16495736984263676,0.1293016365934143,0.0755738903221436
1681944554.814268,-0.5390452529020582,4.700230711033168,11.132169781608896,0.10261559835963173,0.11786829446758502,0.045906527751381
1681944554.824154,-2.1553700845212767,7.142292124988049,11.147666460923528,0.04249578334501119,0.08552040364189595,0.0544880655047246
1681944554.8341768,-2.193209551819671,-0.5458681170064589,11.61505535683146,0.05516940005751334,0.043290114315288314,0.064373119586403
1681944554.8441372,-1.324197823277425,-2.275064985476005,9.781590219453458,0.10917977267231306,0.020826071683442426,0.0715338651475259
1681944554.8541238,-4.562456136558928,-0.7038642973507125,7.185062239094876,0.14216185412953372,-0.055089177404796734,0.0529081177350827
1681944554.8643088,2.101715177872518,3.4061616602319744,7.574621687070686,0.10568254261949024,-0.04018047616691344,0.0674497995909997
1681944554.8745646,0.8348009397998067,-0.9604538625588053,9.336139253262607,0.12344539389301819,-0.04450642984127733,0.0671596367296525
1681944554.8842394,6.016517361631059,1.6866239671599534,8.36175165016153,0.14745991089168783,0.009091664353900082,0.0506550658878632
1681944554.8942275,4.205209610366283,5.580082437528907,10.309613406614108,0.08385874428257468,0.07670306419012157,0.0229607828345843
1681944554.904177,0.3455114499056815,2.5008724328559095,10.739405735722256,0.07252983565459312,0.09179959424848101,0.0139151195448585
1681944554.9141796,-1.671966873356649,1.7223662805530404,11.846320145075431,0.07808910859033921,0.04411646687473645,0.0004040152684548
1681944554.9241965,1.4690702817606713,2.0217593753633762,10.079353307238947,0.06249828946026644,0.07309592812151287,-0.0264144643756798
1681944554.9341967,-3.359891893216059,2.108959019056386,11.918562885898437,0.07467077465595051,-0.0007673966506607132,-0.0335763442876986
1681944554.9441807,2.8877120781946006,2.8554644289687885,9.197553684326037,0.05148808224889977,0.03377839160800026,-0.0339246179524115
1681944554.954941,0.8122428074144644,2.3638813812079142,10.378545003588092,0.052497574074645274,0.020584036310413615,-0.0454706970217875
1681944554.965396,3.5938793020724726,-1.3559928401609038,9.075417842427601,0.06547100721116673,0.07752510500909704,-0.0826971243682554
1681944554.974411,1.295973696895298,1.9368154670013702,9.649552823365765,0.09162422755262763,0.08647026696790781,-0.0854704688850096
1681944554.988594,2.054374794041281,7.498548115298181,9.845807662373039,-0.007241327061771411,0.11505374729754729,-0.1025377150240591
1681944554.9970837,0.24724989817770932,5.676371379769992,10.304269386327704,-0.05207398645142564,0.13645138288011535,-0.1163516576948813
1681944555.0042334,-5.74941921563809,8.674100670876307,12.865443946263433,-0.13457980948116047,0.06657744353577356,-0.1367973994079283
1681944555.014356,2.8554315992487362,-3.065980677744611,10.287613619333792,-0.10784297049263118,0.10368749298153558,-0.1227056245866469
1681944555.0242426,-7.647086029310294,-4.989255067439482,7.481373593919386,0.002783956597081866,0.010864989874561365,-0.1201498966279677
1681944555.0342596,0.49033336881398765,-3.7258835480424777,9.68057374732,0.0459109843334296,-0.008587415398898705,-0.1372565190854719
1681944555.0442505,1.2311885017493718,2.467747136748867,8.462174876482585,0.05236388542933044,0.010437532618895464,-0.1259308021131209
1681944555.054207,2.0064561520345316,6.475097064396205,12.263185585995465,-0.007111305225076891,0.029282984185448436,-0.1431850503745726
1681944555.0644238,3.1025991385763914,4.383750616301652,10.054587502214446,-0.053063720885227504,0.08986269116478074,-0.1588300775352171
1681944555.0742068,2.7277320786172163,1.9697029743912557,10.970680974632579,-0.07788419856045041,0.119684870541731,-0.1668583016458205
1681944555.0842116,2.829079406585285,0.47822346223646106,7.411503598183181,-0.04491172679541067,0.1611078764762029,-0.1624591808381728
1681944555.0941775,-1.62197424795459,0.19073045254921997,8.577808417794138,-0.053606412764228555,0.14846296643350837,-0.1645175676408461
1681944555.1042342,-3.316616697385763,-5.296868935906003,7.289998787327184,0.03387207826550219,0.09563586267124548,-0.1431907575193098
1681944555.1142,-2.8722219504641857,-5.641912196322455,8.941752036318121,0.1141101847857683,0.058135358844280546,-0.1469391446176222
1681944555.1242175,-3.109352788991519,-0.46460333233383844,8.939006323914562,0.16060110707823383,0.004893103809428571,-0.127459691053932
1681944555.1342626,4.1893949929033285,9.808580773262623,10.997254350614492,0.0621337823950341,0.05150481513655303,-0.1297037016215971
1681944555.1441731,0.7282162602541228,2.833404061212169,10.030851636952098,0.020828930836924123,0.0791090395868951,-0.1158486764493635
1681944555.1541927,0.7020456494928813,2.897351312985384,11.590037679965494,0.0013110046192815466,0.06145453904662824,-0.1059965278568915
1681944555.1644368,3.6313883553184922,1.25554193706814,8.941700973249802,0.013763469566374475,0.11816184998458189,-0.0902510147157362
1681944555.1746037,-1.0371992049028285,2.9811363014617696,10.657629321626608,-0.0018358391665566107,0.09472145501796433,-0.0619206662836722
1681944555.184229,-1.40361819822142,-0.13706346696580254,9.516904414677398,0.01727085803356659,0.07264485426525137,-0.048140985107725
1681944555.1941862,-3.4969906104133743,-2.1353534919573676,9.810296469156794,0.060591229550804815,0.027465177471064302,-0.0331328074994734
1681944555.204172,-2.5931721178462643,-2.013962201414381,9.226875884944812,0.11181846034143672,-0.025961626587163635,-0.0280452549073151
1681944555.214249,0.5522223352822248,0.7198373349262305,8.676944044801884,0.11718909861480527,-0.011549400150080387,-0.0145971636834791
1681944555.224185,-0.6504060328338449,3.8151268742062574,11.83935674371187,0.10275981985370901,-0.03678537355388018,-0.0290775067719868
1681944555.2343433,5.438132475612885,5.269559401761002,9.302148115860426,0.04443045782034929,0.034665282543640534,-0.0424427587154558
1681944555.244244,-0.8645076077061811,1.324356382974695,8.62558267869643,0.03518912440326573,0.03964880982120105,-0.0411785628262213
1681944555.2586775,-0.47113763479400245,-2.094866107172534,9.6139491768483,0.07953837472817978,0.004223340879860628,-0.0377040031912974
1681944555.2641852,1.9348693126828544,-1.2987306957045806,7.382269599015931,0.10798157950756888,0.0285874314440296,-0.0455607670906237
1681944555.2741926,-2.3702813510834733,1.1037064700459156,10.497242248775022,0.10754437378981335,-0.008592317312648931,-0.0452581803861311
1681944555.2841876,1.6330441623028933,3.633342565896564,9.557640975585935,0.0867775527686973,-0.004281804555972457,-0.03783846381933
1681944555.294582,0.8502062505621509,1.072444359012422,8.931246612014217,0.08700214433703513,0.01770268660603434,-0.0301920037332228
1681944555.3042,-1.7763158155141543,0.6839655638250812,10.012887074416492,0.1107443334507284,-0.02913197069074765,-0.0145801074418476
1681944555.3141944,2.9696588819319834,3.101321503958866,9.231760549089007,0.09561317317543432,0.007239858192553038,-0.0237083538982323
1681944555.324146,0.1425269930890208,3.778627090177054,9.798507083806175,0.07345366982446942,0.02182145640515966,-0.0237417548510483
1681944555.3342056,1.2631699141099297,7.567473382722628,11.27004780941921,0.0022968879783073965,0.01611094144907102,-0.0398107964161089
1681944555.3442762,2.9718576560804033,3.3244865827484102,8.865260272937899,-0.02241953573616991,0.08170031126063085,-0.0525532301130942
1681944555.354191,-1.5936036004268401,4.877917193560024,11.241464956162524,-0.058156550219807035,0.05752424095743385,-0.0710648979607275
1681944555.3642063,2.476685108540036,5.581548504985051,8.562657406311729,-0.10094449399522962,0.10413072397523315,-0.0720285411539725
1681944555.3743613,-1.9049129728362222,3.1236331447451073,9.727090146674472,-0.13880506822896152,0.09080635534650239,-0.081771106607025
1681944555.3843205,0.10656382148907094,-1.420955584468048,8.186244335159135,-0.08775615295872127,0.08399924549523775,-0.0868418451014212
1681944555.3941724,-1.1995811631385167,2.8183913985260824,8.00299790101063,-0.10828214574632719,0.08432743380645194,-0.0942870687308958
1681944555.404169,-2.0955434054512083,-0.8369451286325688,10.135270958404124,-0.07688799153421004,0.05329965244875689,-0.0950989435973814
1681944555.4141717,-0.47479293891839414,4.206977064648251,9.500715904439803,-0.09873933164744472,0.04831239187950274,-0.0996832709375075
1681944555.4242194,2.212850550237812,2.1625997658672755,11.299047215247692,-0.11211586199877482,0.08905902660014378,-0.1193978797259978
1681944555.43421,-1.4179084210810717,-0.027674415969174304,10.939017675897825,-0.08093531949926758,0.07060636813475583,-0.1277160804334334
1681944555.4442391,0.5411388152537676,4.546809369160737,9.469435405438704,-0.10888003969269174,0.08142722666729856,-0.1283118288579634
1681944555.4541986,-2.86670128623602,1.0290990794019097,9.955458033925352,-0.10421160191012957,0.05303404125062805,-0.1236268143716505
1681944555.4642012,-2.758898288114143,2.307154607852986,9.945439403057422,-0.11154662331387227,0.005043195362109848,-0.1038269262376478
1681944555.4741914,-0.6559294967961671,2.2378222816549065,9.126194672920315,-0.11168596711277937,-0.002234176165801857,-0.0906642686191252
1681944555.484231,-0.6669404502684758,1.5994398737816806,10.204997016904082,-0.12038398861970577,-0.014350258645802708,-0.0747304867568663
1681944555.4941878,0.42648958534470277,1.7358807206762497,9.262323728327466,-0.1051148077837408,-0.01367701160459712,-0.0687823455396345
1681944555.504299,1.0030458600988206,0.571436251374571,8.545183358393327,-0.11305013137479326,0.0034595360075992273,-0.0585321347776106
1681944555.5141888,0.7777758267510626,2.7615329750546396,9.364988953421905,-0.10563309141154008,0.005558741405748961,-0.0559360917273214
1681944555.5242782,1.2186151404014158,4.0892511085692,9.664755840325093,-0.14656683040768864,0.023659063042079084,-0.0611481975379637
1681944555.534215,0.04462681180391954,-0.9633958964260914,8.946933772643757,-0.13193869480532672,0.03734560421155551,-0.0522466275456598
1681944555.5442526,-1.9171414681068386,0.5267942247976359,9.654217289489353,-0.08606135355373741,-0.006200835200696125,-0.0611561622086218
1681944555.5549457,2.60757214522625,2.3786287704148235,9.419914277054207,-0.11854427709709331,0.04489090233002179,-0.0639708052936247
1681944555.564325,0.3086183456690737,-2.149071230096366,10.267447431527755,-0.06956939995847257,0.04281710357544999,-0.0613502051296881
1681944555.5815678,1.7296814784028307,2.1113908896946945,9.346590355951855,-0.061483365292207014,0.07875210971658607,-0.0541323247912577
1681944555.5843854,-1.145639426723483,6.977075313060395,11.373995385036876,-0.09819796706192283,0.07997049514307994,-0.0655226941767386
1681944555.5941825,0.16474731406438411,2.5429032215627165,10.568823584057307,-0.10205046590913239,0.06773548419052446,-0.0670206855598143
1681944555.6041746,1.14208374032881,3.1131573346196655,9.053975386795972,-0.12908631240731647,0.09270055714241741,-0.0729405443731001
1681944555.6141946,-1.2100639655063832,0.1622320745537832,9.279479014746052,-0.11961020739158718,0.07505254103972933,-0.0845486979547194
1681944555.6244392,-1.097252339546251,-2.705542879289948,7.402246904312777,-0.07580300297729817,0.06537568674456856,-0.085522198266094
1681944555.6342044,-2.990176976844153,0.49090842229373016,9.46398161760239,-0.05509732683243874,0.028007924674352088,-0.0831845562520674
1681944555.64424,-1.5108917862226316,1.729123329411142,9.867735837889231,-0.06203007166080599,-0.003551975825885346,-0.0893502544227293
1681944555.6543567,2.4771322569930274,2.478651972541552,8.050637573028242,-0.08827046537388276,0.03302154839697529,-0.0780195306602171
1681944555.664184,-0.3096020546094166,-0.684999540121877,9.150072097123493,-0.053174812219704166,0.026482293013531267,-0.0715568895998648
1681944555.6742132,1.2686721570401374,1.549726939720418,7.635448756929176,-0.07453898131385531,0.04258863323537543,-0.0659066151443175
1681944555.684272,2.0258557628737517,-4.442302226521609,8.19481739722312,-0.013150204485373716,0.0839308981273292,-0.0630382980766943
1681944555.6941822,-4.120573565603203,-1.4496960175568305,10.758037587529095,0.031183112763814618,0.037628887186411435,-0.0606106232467344
1681944555.7043557,0.6732364611353217,1.6790078837737263,10.977616628974785,0.015008515648266793,0.03671962011309742,-0.0595860194030455
1681944555.7142196,-0.5323437006529812,1.5247127396364415,10.076742014848548,0.017905927471378095,0.052774321411172484,-0.0586126159492186
1681944555.7246168,-0.7971485773173265,0.1944551617007925,11.486674533582395,0.011071899720534737,0.03572519557581987,-0.0522502448025396
1681944555.7348502,0.1164686632266737,0.13152967127686868,9.403925849855845,0.041692442164751355,0.05359088993315457,-0.0612103055778196
1681944555.7442727,-5.267160814277729,5.492404286461145,9.295272442770443,-0.005181005304949347,0.005326992227977458,-0.0613149042788199
1681944555.7542946,-2.869322357666642,6.439138435888736,10.848582254923418,-0.07419715224909391,-0.037489233812801795,-0.0687098588410071
1681944555.7643056,-0.6764733536554911,3.407171860953717,8.691390316783286,-0.10773622892315536,-0.02437599734996187,-0.0615632246795347
1681944555.7742715,-1.2036014106714454,1.2667890129138326,10.429332043921548,-0.09918929236747752,-0.04236196121564358,-0.0668025847140005
1681944555.784296,1.3886423909854346,-2.4777115584271536,8.810233943482242,-0.06928919287976879,-0.0042334630249919215,-0.0626139875116995
1681944555.7942903,-1.9098867806665332,-0.011178579891223384,10.515442302341956,-0.034122633496419974,-0.014627684942722268,-0.0461499739053896
1681944555.8041997,1.4595238600236669,0.9422124561073411,10.92494223962678,-0.037460129731001345,0.013904005642405542,-0.0282785717013529
1681944555.8142266,-2.4609113883850053,3.156566713832558,11.437603508249842,-0.043260566228650064,0.017857635256262473,-0.0142336144658974
1681944555.8242047,-5.92361295105176,1.1732043160211563,11.697704537232019,-0.04499347402193086,-0.04406180520110836,-0.0037131627637199
1681944555.8354533,-3.516182041148347,1.010814886602531,11.215549745680121,-0.03832010223843573,-0.07297833643037803,-0.0090456243220022
1681944555.8442092,-3.76145425534674,-0.5592304484064808,10.969456262132649,-0.02097747219874367,-0.09375969568032473,-0.0116414494428089
1681944555.854241,-2.110501316039612,0.5359558964349913,11.268773107514772,-0.010210323288189929,-0.11415455115869258,-0.0077637826639464
1681944555.864231,-0.17727564810315544,-2.609287020372024,9.232021841406315,0.024054128791592307,-0.09564959476727872,-0.0043786383780888
1681944555.8749275,0.3421069714051994,-0.9703215247533179,10.246590003923274,0.07298394893158018,-0.08804235508289603,0.0016627631534584
1681944555.8842144,0.4110908265844877,0.18103751904733303,10.074822415275413,0.07135939723240782,-0.07221211079944999,0.0112392155837961
1681944555.8942037,0.7682310294001594,0.012185914294581301,9.653713406753138,0.10251400956293621,-0.058970010650091366,0.0331380654510804
1681944555.90426,-4.547074331731121,4.974408057994271,8.479593940994034,0.05298731532170976,-0.10564474008218024,0.0238480966922589
1681944555.9142065,1.4873556080435113,-0.2892905732234932,10.498729842463304,0.05151305701195959,-0.1067655348334562,0.0432088029023953
1681944555.924267,-1.9272901247240375,0.38341993048313755,6.910624927640315,0.10911691187656586,-0.11104436217199232,0.0537298422691174
1681944555.9343166,-1.44283758080855,4.952515749514084,11.199124566919807,0.03388151868566538,-0.14883864517285417,0.0393889200326749
1681944555.9442184,2.867750040446372,-1.4488141646570836,8.92468120557228,0.07302597579337067,-0.10137883463526982,0.0473355975386449
1681944555.9543085,-0.2134194785070128,-0.5538928071428901,10.204549785837898,0.11316500379599567,-0.11862569716702401,0.0415885400411435
1681944555.9642675,2.5025861456409584,4.0073600178521565,9.343428857861056,0.07640757479965643,-0.06918990349495549,0.0288912140217372
1681944555.9743,-3.2820283806101918,-0.35056767065361316,10.435122767869965,0.10297442017759957,-0.11025793988731514,0.0262659274426051
1681944555.984319,-0.2516145461271038,1.431116974318763,8.183150823415625,0.09750104962382174,-0.12328519772761475,0.0249432798859425
1681944555.9944026,-1.7976516620208374,2.6995352878178798,9.39627968225239,0.08806900274521362,-0.14040556173284155,0.0221355975058623
1681944556.004347,-0.670223591159871,1.1465616277722896,10.340389535461227,0.078354995036384,-0.1655503880537069,0.0191826939967223
1681944556.01429,1.5321874248775134,0.2002471907455849,8.920957806225175,0.0950150092635398,-0.1381974445317939,0.0161785835784622
1681944556.0242002,-1.0961987784426825,0.4240642579114139,10.526668676910376,0.11017538822865859,-0.15117005721455254,-0.000435200900515
1681944556.0342638,0.6853108310661915,0.9231776651497878,9.48999005253132,0.10455570166118726,-0.1383579196219294,-0.0084447862196019
1681944556.044281,-3.729723518811432,2.139398627579233,10.3429404583878,0.10085332597979252,-0.17078121707671104,-0.0177104185882261
1681944556.0542924,-1.8810263667358145,2.4265856973716193,10.562958944377305,0.08272554710889371,-0.2008416011742727,-0.042954919076269
1681944556.064259,-0.2928895116914892,0.029149999379250967,9.89162130061714,0.07456366607972262,-0.1948669128448954,-0.0579971197608164
1681944556.0743227,0.9487415015974455,-0.5524695282460179,8.02454794574039,0.13003421306999755,-0.18304051867192409,-0.0624957691493681
1681944556.084403,-0.3729520924996274,4.861956190199244,8.947717276637352,0.06809792977623012,-0.17679492091563476,-0.0672341223421744
1681944556.0942862,1.3563778785432492,0.5031471069375918,9.32769764258538,0.08056015366222877,-0.16100365049167056,-0.058467497265642
1681944556.1043923,-0.9820546047500078,2.5445264820283726,9.437487560961985,0.06793025195351494,-0.1730426599603469,-0.0572589534881762
1681944556.1143367,4.148928413536485,0.220728873538208,9.62487918970606,0.0917584070671741,-0.12767462566737778,-0.0479410413268259
1681944556.1243677,-0.44827622342886053,3.0175358795061538,10.21148484627765,0.07564551159221194,-0.13266637861041503,-0.0409908677998236
1681944556.1343443,2.6780618816031625,1.6543838210570216,9.465615247596695,0.07690611592810398,-0.10585213057763652,-0.0334095593157461
1681944556.1443202,0.949535795409955,2.9842769651866092,10.190678639442641,0.05310844076580018,-0.09492454637464735,-0.0316034193697622
1681944556.1630802,1.5048589658500613,1.6366955234962164,9.581767852859945,0.05723182861069193,-0.08017888275718693,-0.0327289152506045
1681944556.1652627,2.9694836031038876,6.85921034034115,9.96152000019274,0.03371303821771463,-0.06723004470516658,-0.0348948623600653
1681944556.1742325,0.7034367854163613,1.2283100464616798,9.511852379541505,0.03750134543444337,-0.06859907883724274,-0.0337141390505484
1681944556.184204,0.6173352783812295,2.665375122036194,9.494419420154768,0.02657888172075699,-0.06083903383132395,-0.0265794071915796
1681944556.1942632,-0.1106854265440861,2.026386938297101,9.649748141803377,0.03178757595565642,-0.06956001027999299,-0.0214006296905926
1681944556.2042031,0.5787826429665719,2.530482034801068,9.67538730887292,0.01044375426913941,-0.06990089372714776,-0.0150259352836064
1681944556.2142365,1.4783220261080392,-0.892053107068013,9.463265268209495,0.04887248764457169,-0.0527977083212722,-0.0004551502957246
1681944556.2242684,0.4136456031145333,2.7919461396750833,10.044084576011022,0.041259901171432446,-0.05403135840429401,0.0005819038173877
1681944556.2345948,0.5403619346891814,2.7673680909990117,8.856348818995444,0.020724946058445205,-0.04063891231623695,0.0038184121635505
1681944556.244305,-1.1836640942100214,2.091893197771331,10.191523702940902,0.013909246284790067,-0.0698018961173425,0.0002998571994477
1681944556.254234,2.86060768549139,0.08545714087101323,9.149466303283267,0.02943445999136316,-0.032698792424074016,-0.0011023000429621
1681944556.2642064,-0.36679071640811073,1.0267210917179197,9.705654871882613,0.03406408032089675,-0.03655137292016043,-0.0100313342723301
1681944556.2742736,0.7332238059064444,2.0302660703836315,9.829007938855034,0.035675340226519255,-0.0299356423672821,-0.0149680927011421
1681944556.2842317,-2.3813161129225096,4.534858521390783,10.756834049746331,-0.010414538591020964,-0.049397007153048726,-0.0235158923628977
1681944556.294556,-0.5529427271783827,1.311604307586612,10.9039276373453,-0.004008052915252322,-0.06847729748759242,-0.0356546502175978
1681944556.3046255,0.6636550475993268,2.084501935906155,9.040568328222191,-0.014560396562907241,-0.05462614854177983,-0.0399246375623396
1681944556.3142269,-0.04873053003728268,2.758295085573267,8.452597784148017,-0.024681799288262248,-0.05412646868448365,-0.045469680017536
1681944556.3242676,1.7029745062177006,2.7760774763220546,9.030598648491987,-0.05781864326064173,-0.03261626663403756,-0.0397221605840376
1681944556.334335,0.6020380062803881,-2.365838602257338,7.915979739655935,-0.01968435556850852,-0.030378271800278082,-0.03996333587796
1681944556.3443377,3.2104008238279267,-0.7007954746135864,10.32408104642274,0.021279785597007227,0.009753581830548006,-0.0397257368627241
1681944556.354239,-0.5560127427884817,1.2413793143218483,10.12036514544286,0.029530771226423835,0.00892547634854114,-0.045014874226158
1681944556.3643289,1.4702396866551046,3.936646705961011,9.363866756214728,0.0013989955670641145,0.02080877600196952,-0.0547832894685915
1681944556.374343,-3.6315380140009283,3.310733920384146,10.043175217494358,-0.017497333644402077,-0.018062806447348666,-0.060290963536804
1681944556.385501,-0.07774965389269373,1.5005042042609429,10.870297856383218,-0.023320960824044144,-0.04541361828756211,-0.0592901121440581
1681944556.3942215,-0.06453901809226618,2.9642241694224234,8.78912051491542,-0.031180264218492054,-0.03742487330713925,-0.0597084808710268
1681944556.4042673,0.6224262542127849,-2.1740209426396633,10.575614386702917,0.013966670891931958,-0.03793493573735943,-0.0657891418400458
1681944556.414261,2.212792345707632,2.1733676908610073,9.21146436557465,0.006217366270035172,-0.009162861548094283,-0.0570083941879919
1681944556.4242556,1.3464495023309253,2.144027547924146,10.48235174010666,0.010621435056203209,0.008262138233276244,-0.0507547828915766
1681944556.4343524,1.3495705005994685,1.0685510077642895,10.220450491643858,0.010481439620221657,0.01702044436511252,-0.0460990752640417
1681944556.4444556,1.662320689058508,1.5496505266730445,9.177341809687407,0.0013626443296665465,0.04549718368433517,-0.0280112802597931
1681944556.454306,-1.669815002377024,-1.5248607850826086,9.574983222074433,0.05374498107670826,0.010381543307925581,-0.0213008720043352
1681944556.464277,0.09219597171053974,3.7395789717491508,8.298430845671906,0.02030407807835112,0.009743322585906256,-0.0218319512519291
1681944556.474302,-1.6561518157488806,4.688536634220223,9.703082503198415,-0.015881742360110678,-0.021548761183481598,-0.015654130986636
1681944556.4842472,0.8411407989616937,0.8779676903517052,9.543071087915216,-0.021509313018072827,-0.021554745894448977,-0.0108206757891229
1681944556.4942508,0.2418388989862657,-1.0290735198527954,9.416413196028644,0.017855752794745175,-0.022104917104215856,0.0003985539928772
1681944556.5042746,1.3418960349335816,2.3625485833162685,9.62919847391748,0.02017327524868051,-0.01816946771702417,0.0099080315244146
1681944556.5142398,1.9041534764125005,1.9872867744819676,8.3470026255939,0.01760371780319139,0.010363585568179574,0.0148154877510615
1681944556.5242915,-0.013196446549385397,1.1389387522654344,10.030681678565445,0.008956068832554683,0.008741770527941521,0.021478560605342
1681944556.5343134,-3.6115204058262402,-4.051376909972241,7.783039441690627,0.08150618292407485,-0.02594632529987125,0.029446919300849
1681944556.5443485,-5.0605295481210035,-1.883708367781195,8.821964869486715,0.12816141932732414,-0.10408373337285123,0.0314469289419003
1681944556.5542712,-0.5835613479004392,0.2375610244778132,9.33768299203883,0.13446952613852323,-0.10903707868141313,0.0445219044026681
1681944556.5643616,-3.1470057276397894,0.6190248602359932,9.958710397986874,0.15647186334870386,-0.14753403613022592,0.0392951656517335
1681944556.5745103,-0.05201285797637054,3.793939881289904,10.318631372062764,0.12102398805967358,-0.14954520581023584,0.0254616447177478
1681944556.5843203,-2.63277023711172,5.086056982408962,7.367967919304307,0.10336524177012667,-0.16132000123311274,0.015115657673473
1681944556.594279,-4.405584753057908,9.701157092408506,11.501577160584311,-0.01273202710029089,-0.21949703541067428,0.0039608868223377
1681944556.6042645,-1.1937012660504123,4.869785212127093,9.567450218821927,-0.03416220675686771,-0.21276091805174935,-0.0029989687341502
1681944556.614323,-1.5953196870851334,3.158083249056318,11.189590693160927,-0.059938690937832016,-0.24043794131751772,-0.0272824495646408
1681944556.6243503,1.671724985888814,3.250872527983353,10.115735445152115,-0.06116740701105355,-0.1955711442696407,-0.0468404043081453
1681944556.6343172,0.5893821502868668,4.756821697826106,12.49392737967505,-0.08623964720394033,-0.1910379199380283,-0.0697397004428557
1681944556.6443126,3.392672708882502,3.165254843154151,9.090122026036413,-0.10060272665369807,-0.13238199570355852,-0.0696949224534682
1681944556.654298,0.533510925601627,4.117541788734266,9.509849525853761,-0.12149587798542585,-0.1287249336593987,-0.0829951848450354
1681944556.6642668,3.207895535927295,3.5389485646122743,9.716981227972116,-0.14973463805210824,-0.09442092619971719,-0.069598325676029
1681944556.6742692,0.7594178271942237,0.8344324698738496,9.657201728347102,-0.14030751959824198,-0.09560146803134033,-0.0630950565996817
1681944556.6844826,3.2411720473363044,1.0243662603829005,9.511048642087063,-0.13224023666741058,-0.07422365963002502,-0.0545065190258673
1681944556.694256,1.5075226074182952,3.4617254135013193,9.045691655511815,-0.15876259554588457,-0.06088731367552507,-0.0552184220019034
1681944556.704258,3.798202158719765,0.4372531894189949,10.423624765050647,-0.14887136518320487,-0.03973494755248457,-0.0565315272274664
1681944556.714286,3.116162029035603,0.037553370743030993,9.156463946926351,-0.1404378528827069,-0.002841372713030514,-0.0600109148386171
1681944556.724316,2.8873921690997286,0.6211627010047192,10.359024775461652,-0.11933249179358969,0.012281120850596,-0.0645888682070425
1681944556.734335,2.53112531894246,1.6396321673183532,8.998692397554871,-0.1309823407787384,0.038287285630975304,-0.0668251003685644
1681944556.744391,1.2668781780380622,1.6398772718859076,9.677482669877355,-0.128605932770897,0.04366799693597638,-0.0705756183329275
1681944556.754299,1.7499225099140299,0.5188499605932878,9.18040258067603,-0.12484987834059032,0.04621776322134376,-0.0734609003725699
1681944556.7643075,0.01187832242660168,3.4805729520182487,8.329221577733403,-0.130697625349615,0.05553233690625878,-0.0715204190078429
1681944556.7742653,-4.060633661510333,6.1522384135041674,10.43511450661734,-0.19562095502680332,-0.012405234634565002,-0.0756988089147261
1681944556.784359,1.6902805793150542,2.9075892034942386,9.329637493775458,-0.2147321248973431,-0.0017374175347062495,-0.07680934775502
1681944556.7942667,-1.2835014946260253,3.43947479087853,8.90760606957622,-0.23559542131283032,-0.023515716345765752,-0.091720261758869
1681944556.8043969,1.0863065717125404,2.7847034230507894,9.124355035854535,-0.2498299529948536,-0.010876695364481135,-0.1087091799441031
1681944556.81442,-1.0327741826276462,3.649886601857551,9.683774173241126,-0.27503789619858926,-0.025296256452845303,-0.1126519601407698
1681944556.8244658,1.4987186754955708,2.643378905636515,9.57847388382955,-0.2808752592823677,-0.009543134063683336,-0.1220237698021582
1681944556.8343532,-0.4478900249802233,1.278140798133081,9.414183066727281,-0.28574636674696535,-0.006800706084172731,-0.1358340095344237
1681944556.8443832,-1.9711849190307627,-4.170347335040406,8.939651348914989,-0.2243288332792571,-0.03432037128159297,-0.1248713295522383
1681944556.8544438,-2.6494368993171578,-0.9085791071775557,10.079043689990133,-0.18385482344937543,-0.07262462632637816,-0.1049581106367758
1681944556.864573,-2.9340867801860524,-0.27928376181858405,10.55750780643088,-0.1738451036654256,-0.10588875992105502,-0.0790811713400534
1681944556.8749936,-2.760336015988709,1.5577655373771808,11.86050673704921,-0.17458498746165976,-0.14653884649929994,-0.0532097454729727
1681944556.8844686,0.20976191770180685,0.12392224358495438,12.013876904904395,-0.17124311437005296,-0.13703077920254184,-0.0487583439412764
1681944556.8942854,1.0395859654084654,0.6851703603443333,11.67331709970152,-0.16886691311254146,-0.11550682041287175,-0.0449779752257517
1681944556.9043198,3.7356820036441305,-0.19885426706758175,11.12655584824744,-0.17139588523147994,-0.051232180781699346,-0.0344519290688685
1681944556.9143224,-0.20251209044541243,-1.6352070747080159,10.879144039354223,-0.1256542206183085,-0.03522610749081765,-0.0304962370160273
1681944556.9243317,4.164018217379834,-0.2737683510402825,10.150145429708534,-0.13257472330408326,0.015726163398659652,-0.0195660285267285
1681944556.9345124,-0.5464346111625432,-4.325682007997864,9.297749962852546,-0.06856338406765883,0.03673218726915206,-0.007994761838322
1681944556.944278,-6.164129700824661,1.635642711103482,9.310960899800023,-0.047642071197936536,-0.05053265637901108,-0.0292093317571333
1681944556.9543414,1.032752711186145,1.8938133169418774,9.200054434402318,-0.10464630428901685,-0.043086987968913575,-0.040315841472452
1681944556.9649687,-1.7205795680034142,-5.574615316621481,7.826694809486143,-0.008511725094732029,-0.06130680361676088,-0.0333774584892443
1681944556.974314,0.3253058595952063,-1.7556147577398744,10.10084425166154,0.02591066955604005,-0.07510634982997037,-0.0461448330047777
1681944556.9889948,-0.0026648417604707144,2.3356585769195632,10.701236135312636,0.015682781218991894,-0.06054870989395151,-0.0463858145836046
1681944556.9944222,3.708121752419115,1.1798244119556527,10.486201810413077,0.008550070124171487,-0.03730732437717984,-0.0394291255238703
1681944557.004392,-2.2545363470520403,1.6896239732532228,7.412702778069442,-0.011780018802370364,-0.051779102954349364,-0.0416147719684294
1681944557.0143702,3.3242542470377745,-3.127658587055458,11.556866642847396,0.03705251297760288,-0.03414082649549055,-0.0453742380800894
1681944557.024492,-0.7067960347550052,-0.5857013748912145,7.065652639056958,0.05998544172490592,-0.03720922765511399,-0.0264272626105002
1681944557.0343328,3.8857213155594974,0.9470060475889885,10.304649333301166,0.06945687932104645,-0.003053236156905006,-0.007249409480696
1681944557.0443218,-4.316688672703913,6.203766074822599,9.347311995756872,0.016961202082478435,-0.05210788041332723,-0.0144615072372606
1681944557.055155,4.585852378849011,2.4403042560865766,11.215289551505114,-0.024221061231928583,-0.023845380078139324,-0.0009899937163344
1681944557.0645063,2.2150296904503826,-0.761882382414845,9.378709637799211,0.007686833535278558,0.01682214719736704,-0.0020143570459685
1681944557.0744147,5.1006282971787575,1.1758934881214833,11.739223272925706,0.022210213151859625,0.044506393742223226,-0.0093943487468413
1681944557.084389,1.130878883076919,4.963710089177604,7.171064230252578,-0.0073934212118888015,0.09464507181930255,-0.0229078150901249
1681944557.0943508,-7.632890535696679,2.1044391369496993,8.168630623465642,-0.05435405106026556,-0.009294027235409143,-0.0168945073697022
1681944557.1043642,1.8722483322864367,-4.7166221636536445,8.397187181270752,0.01732439003922146,-0.014940163609402817,0.0247643392917462
1681944557.1143246,-2.662250355414501,-0.4620858575211362,8.569021622079768,0.05418317413414987,-0.045145921878788894,0.0151468178641744
1681944557.1243005,3.05457152089177,8.1591083920343,11.661287144960971,-0.005884532831830306,-0.021546573986615324,0.0062165473040887
1681944557.1344736,3.562949597811206,3.340277259652577,11.714726246904577,-0.060147424082166105,0.03805691165592435,0.0030299835757114
1681944557.144374,5.28228371274287,-2.181262807692454,9.40624201025992,0.007443366442849289,0.0827337264286755,-0.0014659642788818
1681944557.1543145,2.2866554916632422,3.1456345281562488,8.074414946116814,-0.011477969543141285,0.13390965052883605,-0.0141644060227326
1681944557.1657844,-3.385890681473332,3.6418837795812107,10.906717154624783,-0.03523629877553503,0.06573959879192927,0.0159906417515822
1681944557.1744246,1.208547086237642,-0.6778352408723116,9.879336691736551,-0.020242979126321146,0.057882181774699795,0.0494133931037732
1681944557.184451,0.5423483158064295,-5.1616092580692845,7.7926036587797185,0.06311551296212371,0.06092133833724699,0.0663055841264077
1681944557.1944213,-3.347281451678004,-4.481946714667491,8.683938764918317,0.12633082650622265,0.008251947410475257,0.0732906300958939
1681944557.2044995,1.7238845496464914,-0.05952701335077582,8.657713118382276,0.15093747975686528,0.010798638849605637,0.0974564988550492
1681944557.214301,1.115438239225143,6.016085460010931,11.133892530084077,0.10752138893877243,0.019413407399268206,0.1147832487162896
1681944557.2242894,0.20806738494081517,4.702625344806435,11.183241095342497,0.03605340129432663,0.024822050555933183,0.1021912832197495
1681944557.2343967,-0.9911918969430361,0.4827356108576941,10.89692063434487,0.037720384529615354,0.008811063681704312,0.0928264174994775
1681944557.244391,1.3727151969537328,-2.860849133196715,9.99311443384056,0.07686554365210971,0.007913707871093358,0.09165629636615
1681944557.254408,3.120849210759029,-1.8863463122178405,8.861090346427163,0.1260945457201036,0.04494985601956648,0.097390218490059
1681944557.2643256,0.5042978227232596,1.215347479854703,8.820092130243898,0.12740648995693557,0.05569020670755863,0.0847104180988618
1681944557.2743063,1.0277266404030896,4.919595694822552,9.826257571084271,0.07771308983657212,0.059229994694882236,0.0837432209786721
1681944557.2843904,-0.013532798320130235,2.504610778816537,9.188984468790245,0.05823008528850156,0.05952493755784556,0.0828166369733163
1681944557.2942991,0.6288753816286473,0.82867559368889,10.125687768329609,0.0582325390614239,0.06137853025816909,0.0820763100323029
1681944557.304376,-2.4910817613232066,0.6308101615956779,10.21510416811889,0.07732974151005176,0.025934222570438203,0.0878524620470353
1681944557.31453,-1.4455914756780919,-4.291609045199711,8.854344527746228,0.11674174790729987,0.0035999671017572796,0.1043416474398919
1681944557.3244584,-3.692433826966072,-1.5672320951275183,10.285439064802977,0.1778250119425066,-0.060746614090473876,0.1202381913003274
1681944557.334453,1.8706510038542836,-1.029950593588803,10.463505830864475,0.19288797996604792,-0.042061266765734885,0.1070187379059144
1681944557.3444338,1.871247937668465,0.5314023402564145,10.89595764319194,0.20412474707865846,-0.029010667726541026,0.0959563691553422
1681944557.3543496,2.5662099150162043,3.8295208640426845,9.529766607401012,0.17820718177358666,0.012348766321178433,0.0837632704910584
1681944557.36432,-1.9516554044545715,6.439619555838468,9.21888840748494,0.11554439670371915,-0.016733204638094742,0.0789018486079522
1681944557.3743532,1.7453367436801632,4.550734248972418,9.808666293755547,0.05562373984288796,-0.005715366126580307,0.0859288711485215
1681944557.3843377,-2.23081708528099,-2.941613096055356,7.462607402617989,0.10849809416852636,-0.02875854051331007,0.1122768510517426
1681944557.3943987,-1.3264851320423867,0.2733568365105775,9.580957271486346,0.12218710976525171,-0.07248045014478134,0.1163770396646806
1681944557.4043164,-0.6744616458256728,2.3362652975095326,8.13545077554693,0.126849522265165,-0.07644703747550019,0.1159098510083505
1681944557.41539,0.28641084893521845,3.551650877488972,11.260263829091848,0.07613501147659234,-0.09212922859727479,0.0963170145091363
1681944557.4243677,1.9275901072663677,-3.281562854395802,9.864314862399159,0.14297146728132867,-0.056318383219171264,0.071910350435669
1681944557.4344263,-1.3019032367581758,2.295828924428631,11.254795725999388,0.13120323781092616,-0.09837239333755353,0.0144454723608442
1681944557.4443889,3.847087463523174,3.0930409776579273,9.294093598763736,0.12144469472822891,-0.03525126432813613,-0.0024166057433239
1681944557.454384,-2.677119103932292,7.793974111640243,10.74928336857721,0.04467904560531667,-0.08575209191467373,-0.0181318923446587
1681944557.464365,6.973533654663644,2.9860062843096906,9.952940827477928,0.00677086942015303,-0.0074017072046393744,-0.0107454249250939
1681944557.4743311,1.3757329704616021,-2.4142997325762536,9.571046428579946,0.056693855107614266,0.015512442821213676,-0.0179814893367937
1681944557.48434,3.568891792405026,-0.12601978705494823,9.04696401678162,0.09558457283895802,0.03720453144963498,-0.0259425464633158
1681944557.4943604,2.2569193146236284,3.924438060517768,7.7222028951663235,0.05336020227410358,0.08236254858907341,-0.0088853036600402
1681944557.504344,-4.025495407323519,4.697080332055516,9.67102344006605,0.017765951116530065,0.00941815854366891,0.0111594934400864
1681944557.5144851,0.7665294682140127,-0.6396419740692783,8.280181442620398,0.014961488257673978,0.009090143947607038,0.046994975620205
1681944557.5244682,0.06781697213702934,-3.010679584267929,10.427864801703773,0.07380272264478692,-0.003662948359491065,0.0738527093467065
1681944557.5343552,0.7707343251865695,1.38550862596937,9.813701474463889,0.09738253475858397,-0.014356407725735359,0.0774439189967461
1681944557.54435,6.681738064957614,4.44195194531152,11.200050948635937,0.04188547659946168,0.07284282935474876,0.0623927329119988
1681944557.5545044,-2.2722846254936147,0.9342507947608377,9.187313084872603,0.05901108810925188,0.058334001574787187,0.0555663619574853
1681944557.5643966,0.5850406699597508,2.3246035528932216,9.809643528568863,0.0492539771860738,0.04081358150711084,0.0427601326641389
1681944557.5744357,-1.9674209696727345,1.3615136078363772,9.17799144538496,0.047118151313249076,0.03294083789535118,0.0198936339852162
1681944557.5843587,-0.10649270816490028,0.047496048776341664,10.974352349660844,0.0643137514902729,-0.006051175426124478,0.0046187828679331
1681944557.594339,5.4936486902623995,1.312260867890253,7.328258174170557,0.07175445187294616,0.07003823440658262,-0.0063754852476767
1681944557.605172,-0.2050584608806204,2.1703773489883678,10.410017463059154,0.04682982305997352,0.0673723132763503,-0.0198566849890402
1681944557.6143732,1.2228950138227823,-0.33525668012251614,9.334232912552855,0.07953807231605318,0.06483975401062786,-0.0129102442029169
1681944557.624368,-2.9601952563583946,-2.0478266024541094,8.309608421493845,0.10165087095362198,0.035097836278669324,-0.0145045306149176
1681944557.6344306,-1.841262412592012,-0.6104883122769225,8.739474622874027,0.1453038008086189,-0.01843351207384094,-0.0109521738800457
1681944557.6444354,1.6506214205692913,2.57904472224519,8.243975832717886,0.10939347144401261,0.000712532601266892,-0.0059690551447919
1681944557.6544597,-0.40124735448396537,1.5111248161806663,9.621337290897353,0.13103162862725198,-0.028193762099562033,0.0021002858388465
1681944557.6644666,5.201011566519247,2.234487863389869,9.393338257674147,0.1110317220687965,0.02801284889957485,0.0019392635708437
1681944557.6743765,-0.10788957974575843,4.205111135099163,9.276778081834417,0.08937805368311007,0.031307957857589434,-0.0047233534592441
1681944557.6844237,0.8350413480746656,7.548796882547131,10.537634965519004,0.029417325998851877,0.03450591203888131,-0.0221985552075556
1681944557.6944492,2.5497135228477044,4.36143683850025,9.547572758233066,-0.0440853036903129,0.0779103445845778,-0.0367261219385317
1681944557.7044349,-2.496283416688851,-3.6292602451150824,7.137084175052525,0.05515523943164419,0.04920610251439835,-0.0194767761591128
1681944557.714442,-2.214507467913694,5.156110812579939,10.942799974804803,-0.002783272885696409,0.020170686005750994,-0.0725393306079558
1681944557.7244158,-0.3087398344206867,3.1100544501173104,9.716178866719538,-0.018092859473622054,0.01527558971380515,-0.0833196501794508
1681944557.734492,0.012474100060774755,4.343686643459914,11.345956871548227,-0.048990187167743234,0.02685571045352241,-0.1068566452327421
1681944557.7444,-2.6508227108740376,3.491729191151574,11.351307421434052,-0.07951106208375874,-0.0012559487928161261,-0.1268501441541365
1681944557.7544389,-4.512146292322691,8.426010172299408,9.84959369547561,-0.14106215533874006,-0.04086589143704941,-0.1645566384854964
1681944557.7644231,-3.2689792956680135,1.1676418972893206,11.117423997350542,-0.18692630146120998,-0.08722387579319076,-0.1693542461457899
1681944557.7745216,2.6617522486173137,2.3000870350113063,9.969459555367655,-0.14767149052980674,-0.06345993619679617,-0.1561748992267302
1681944557.7843397,-1.8380469283919743,1.8456396829241013,9.327118579600942,-0.17044720346459885,-0.06782968019792024,-0.14719548929364
1681944557.794394,3.003009741579721,3.697777046019347,9.300094970564352,-0.1789170687367048,-0.06200844484378168,-0.1393126409116438
1681944557.8043602,3.32293298511736,5.8109710919675654,9.239889930497922,-0.23506138672553614,-0.0036060009292187226,-0.1190769832196882
1681944557.8144217,-1.1105253299796956,-0.38467494782507544,9.83971928062131,-0.21760014227651073,-0.0220191151726512,-0.1114062230649641
1681944557.825035,0.7945751766867535,2.7079103907091007,9.403367616718159,-0.23131191195816067,-0.009177865885979266,-0.1213927577796629
1681944557.83447,-4.302360588130204,-1.8639960917516922,8.998331201949208,-0.1875154492124657,-0.05894258727232405,-0.1055933173361471
1681944557.8443804,0.0063294361258778055,2.4067751043995553,11.037367034063326,-0.1956713134196181,-0.08824480735458173,-0.0874122839036635
1681944557.8543718,3.2370431244414775,4.974724806262861,9.681082905102354,-0.22797631067551366,-0.045188963835076534,-0.0762983645859411
1681944557.864402,-1.1828422991751975,-1.843760449717347,9.465369900900457,-0.20039378662414026,-0.055607540405277815,-0.0935309987130812
1681944557.8744786,-1.3690148840610648,1.9460539711331988,9.683080924498762,-0.19591655934958166,-0.0760268840064881,-0.0724063153925589
