time,ax,ay,az,wx,wy,wz
1700843643.0134716,1.1936729434975917,0.084832494696036,9.732369596581048,-0.000387048118409748,-0.0004764154270792139,0.0004334716548696
1700843643.023473,1.1365843411887333,-0.03247192752519638,9.716997825465075,9.698643697011469e-06,0.0006758061570947012,-0.0021161298965667
1700843643.0334754,1.1328937106437413,0.06715750417341387,9.74921224180305,0.0013098257417931134,-9.122766535730616e-05,0.0008536797075434
1700843643.0435195,1.1678975243466347,0.0012261676406440782,9.715778333719072,0.0012736815660017008,0.0014927712615778594,-0.0009217913495008
1700843643.0535996,1.1008883718907811,0.16449336926324118,9.80833352594631,-0.0001225609227890123,0.0004109479104587331,0.0009944911697316
1700843643.0634704,1.1860614374818743,0.11777477840509121,9.741753958687124,-0.0020581967401469784,0.0020068599319097036,-0.0001596211106148
1700843643.0735345,1.049477982926136,-0.17601325766656717,9.71246138710328,0.0024035860535897508,0.0007626038572024042,-0.0010380101622645
1700843643.0834782,1.0447326978176206,0.22245745998698618,9.835784887013581,-0.00017246949104466846,-0.0014401556142395516,0.0015041135019059
1700843643.0934744,1.1182955630318476,-0.003801946785711982,9.734371408329679,3.0183601576696513e-05,-0.0009890194454693852,-0.0002013249788065
1700843643.1035469,1.1034681555714232,0.1830804240492071,9.817847745809239,-0.0028129539313803504,-0.0013753431155054839,-0.0002877589314807
1700843643.1135488,1.3291987455592134,-0.02064606400345524,9.617499206011377,-0.0014524954451599751,0.002993682324524752,-0.0003447524387952
1700843643.1234913,0.824219969385432,-0.029768452516072186,9.883798179606083,0.00011699063553737166,-0.0030945517202103394,-0.0003130941069316
1700843643.1335397,1.2715377678987003,0.04377756046160485,9.672290483929318,0.0009305853937501735,-0.0003639147992797786,0.0007646453858255
1700843643.1436975,1.2144980275279236,0.07323536143644221,9.706648387661062,0.0005111277562530667,0.0017054835469464018,0.0010701022809739
1700843643.1534758,1.0423956704869728,0.07818773994974938,9.808221603615152,-0.00018551608236389976,0.00010658710223399261,0.0007009351073433
1700843643.1644757,1.1196105193150947,0.02964550136161928,9.73837161141238,0.0006049782524388396,9.877132894439034e-05,0.0015734097222234
1700843643.1736012,1.0678554335109531,0.021283752372097703,9.775776256467978,0.0017121461619810294,-0.0012360131959287715,0.0027804075042154
1700843643.183508,1.086447088767694,0.07632847739208297,9.786414498914148,-0.000397851599367552,-0.0010381911536100985,-2.8467841875239183e-05
1700843643.1934738,1.1618652947876655,0.06425988084825965,9.749454128695087,-5.549426390638019e-05,-0.0005717863444868255,0.0006662980711921
1700843643.2035322,1.1304347395981662,-0.03694692083709477,9.73354133411128,0.0019028857985530047,-0.00035869425163843,8.180415610739691e-05
1700843643.2135024,1.1954054270902899,0.10584349317280407,9.733777523209723,0.0007733830610505315,0.0011608437744289842,0.0001156967599313
1700843643.2235088,1.0062126503305249,0.02249466181222717,9.805985097828026,0.0011123769885741307,-0.0009741108141729064,-0.0002173420972753
1700843643.2342072,1.095085350286046,0.1553630412546571,9.804936736704164,-0.0015236365502665748,-0.0015057298604914998,-0.0007213757373024
1700843643.243472,1.245780647681175,0.03541936305448197,9.659801600466272,-0.0020284247555876793,0.0015944720046856859,-0.0018568310653422
1700843643.253548,1.1103075533573252,0.032784507233616714,9.760592469157245,-0.0006701736628701483,0.0005834273981385626,-2.1388393324299623e-05
1700843643.2634714,1.0916160525440153,0.042880648106383513,9.778320073246167,-6.964884767099299e-05,-0.000299843275264627,0.0005180334709079
1700843643.27351,1.075709361423195,-0.1310208856587359,9.720807855899599,0.002664711945892933,-0.0006559678347455876,-0.0017219839384411
1700843643.2834756,1.063867589828623,0.2258559332725656,9.840216713463533,-0.0002875766920425073,-0.0023319898277891853,0.0001019090239792
1700843643.2935016,1.2341573465032576,0.046084438819169765,9.693602756110396,-3.799502995397919e-05,-0.00010127380965818025,0.000361180148357
1700843643.3035307,1.1836926342330338,0.07511863827440532,9.743017606186994,-8.903689873832467e-05,0.0006884814281622183,0.0008693157695602
1700843643.3135204,1.221775007931125,0.00356241311016081,9.693778331383374,0.00046864423685872,0.0028308959616883305,-2.3830972709347497e-06
1700843643.3235233,0.9892368501052914,0.07628700317736083,9.822433286554165,0.000575565715244496,-0.00028419150217069326,0.0012314193998831
1700843643.3334968,1.254709948768857,0.03477109820414355,9.684226495667513,0.0009559024438467202,0.002452403103733803,0.0011498623178708
1700843643.3434951,1.0158881605692942,0.13175701464485903,9.830439759164761,-0.001882008660346654,0.0007749055007510562,4.976712520191176e-05
1700843643.3535817,1.083157994978451,-0.03215391791421398,9.730888061140172,-0.0005714462740876643,0.00033941416065119467,-0.0006662561092157
1700843643.3635228,1.1463477119373966,-0.017022275311829458,9.719730218549381,0.0018790480516575189,2.2396829043199464e-05,0.0012660740292999
1700843643.3735983,1.0289509244129662,0.1023448262689237,9.826666826495364,-0.00012589858004796224,-0.0014751689921337807,-0.000482955586594
1700843643.3835034,1.2419157469133617,-0.001238163115579794,9.667569161167357,0.001298278356111091,0.0010181667816848796,-1.3567146342678834e-05
1700843643.393498,0.9500402146042005,0.14646748420218095,9.886356208689207,-0.0011380585938589682,-0.002489562725642034,-0.0008875328814242
1700843643.403566,1.2837874429837417,-0.1713484109449781,9.596718962409735,0.0027600704679385394,0.0013854689172886007,-0.0022323747863624
1700843643.4135256,1.0661753129292966,0.17921522269671392,9.823151321870887,0.0013288198984455954,-0.0005546477909034331,0.0003477730541276
1700843643.423552,1.1531519751459665,0.08610246614007104,9.734015300958486,0.001081457401438911,-0.00017429630782769126,0.001646421337537
1700843643.4334986,1.145445632712508,-0.07414706505467973,9.68887703946889,0.003513314587206386,0.000520497624331762,0.001387863664459
1700843643.4434946,1.073759367110623,0.1424035207407067,9.815326096586535,0.001183903699778057,-0.00021825155111619436,0.0007083919889196
1700843643.4534853,1.0653347619958247,0.07120667123248964,9.798131591660322,0.00022501938718536165,-0.0013138637622689766,-8.13701655347486e-05
1700843643.4635313,1.2755992149600857,0.07678507388271588,9.683637587951518,0.001561257164078628,0.000721620867586816,0.0033343658550079
1700843643.474501,1.001998963759555,-0.02320316096597064,9.790350440915413,0.0003308159211933699,-5.508470280424509e-05,-0.0024223413085196
1700843643.4835284,1.1519473771823012,0.10019497936572383,9.753180172138144,0.000333428308417127,-0.00019702372776403765,-0.0002940801670406
1700843643.4935029,1.133741922604481,0.09846412763185396,9.766889339828408,-0.0007595723341375475,0.00024293655895316215,-0.0006192976608504
1700843643.503517,1.070168316331565,0.13734736150409663,9.816624879727406,-0.00323542056544392,-0.0006403349437169442,-0.0014928625197712
1700843643.5134938,1.2205704368079395,-0.11554664961041558,9.640883512610138,0.0007290477336499906,0.0012293913265796533,-0.000468059605882
1700843643.5235505,1.1260294337583414,0.16659607415242747,9.791774978431805,-0.001090033631293761,0.0008978300749841428,0.000782145897429
1700843643.533552,1.1262351501005727,-0.0732694697381089,9.729781257495821,0.001579524185763303,0.0006110021459370089,0.0006614493002784
1700843643.5435016,1.0362289011139798,0.006320017681595545,9.776291997159035,0.0022173008017941235,-0.0008988577748287882,0.0004852423215565
1700843643.5534933,1.0621755338200343,-0.0036172207382034385,9.759624582103813,0.0017605968775575348,-0.0011253592562256577,-0.0021932257106159
1700843643.563491,1.2057520120632335,0.24804768712545078,9.780010062112215,-0.001230456761216794,-0.00019888761243970298,0.0002483185060923
1700843643.573614,1.1014234393546534,-0.055889518996599045,9.732299553980669,-0.0005118492125497342,0.0003345671340423318,-0.0024584833765034
1700843643.5935297,1.139460031029603,0.09190010839742647,9.757937448003675,0.00037887304259099025,-0.0005170224349363815,0.0021977598779271
1700843643.603596,1.1690949222293598,-0.04270476765641743,9.695555381493797,0.0012479847121687046,0.0012424284257023688,5.535054955588384e-05
1700843643.6135602,0.9672311804811383,0.10828579750090811,9.8614813836189,-0.0005479870682531883,-0.0016476602570891922,-0.0009922016644482
1700843643.623578,1.1898988027831656,-0.012669946599880251,9.703508882735996,0.0012226498194790568,-0.0005531585385924658,-0.000161457154863
1700843643.633592,1.1214654654811447,0.06421829261581719,9.760595730087417,0.0003568887882232047,-0.00028419650623175477,-0.0009445248171318
1700843643.643625,1.1587819322434318,0.16931895610465003,9.7889515489647,-0.0012546585749976917,-6.738970215342854e-05,0.0006529066420994
1700843643.6549823,1.0892425524025566,-0.049668419998822363,9.741801492993556,0.0005193111548317677,-0.0002186288705004897,-0.0008476642425735
1700843643.6635509,1.1964109392066145,0.05649067811508786,9.720483069172992,0.0011760809755617368,0.0007771501868295091,0.0002252384409443
1700843643.6740022,1.1349689716770734,0.13233558422928512,9.769509700822509,-0.001185745230860093,0.0014190146975678539,-0.0008081630104784
1700843643.6835258,1.2029913971460278,0.06530105356445744,9.69727359726231,-0.00023917388114934795,0.00240284565527989,0.0018356901826705
1700843643.693625,0.9483243324504042,0.03662854910862608,9.833817519361752,-0.0012207703888404626,-0.00038775817505420907,-0.0001663009053659
1700843643.7035198,1.1522763503010964,-0.07142642521817452,9.699695800937953,0.0014342513590820175,0.0003073797744919498,-2.3249495970516373e-05
1700843643.7135177,1.0454676905793632,0.1461439461459091,9.82798477692794,-0.0004243003675309165,-0.0014576598791049568,0.0003936031833659
1700843643.7236094,1.1850070325894397,-0.11897335154724885,9.670370528957326,0.0027753494049814944,2.240793860845947e-05,-0.0006863476475332
1700843643.7335608,1.1721777428075322,0.07947167060704667,9.734266233720591,0.0022269833890529727,0.0009090070644707915,-0.0002490365760963
1700843643.7436273,0.996289908608654,0.11605074248325391,9.83564569785838,0.001162674844760496,-0.0018644596895476635,0.0008749107772386
1700843643.7536092,1.165870199785556,0.1876238147967957,9.775548343786241,-0.0006198758018620863,-0.0016029294757028446,0.0030951863853629
1700843643.763604,0.9832829232638952,-0.026686302743493213,9.811478723487546,-0.0018503392456624302,-0.0026996991028769416,-0.002303120144606
1700843643.773599,1.2487405389038213,0.020305332755905913,9.676571923937002,-0.0005122167023927893,-0.0003799265495432511,-0.0011684039374445
1700843643.7835648,1.1540885504246607,0.019249092501780113,9.727101433698444,0.000770031959807779,-7.892597729189728e-05,-1.764421463987129e-05
1700843643.7935336,1.04893604930915,0.06121317042525218,9.80381004027507,-0.0005326957898328259,-0.000839622595482267,-0.0022614052751664
1700843643.8035667,1.2590278461510198,0.03865748400584076,9.665976313935623,0.0016283175149092563,0.0008520336800000377,0.0013368423213619
1700843643.813612,1.0068713798438025,0.16678469369369714,9.84731161784608,-0.0006750101598469704,-0.0015139216001469008,0.0017145954305674
1700843643.8235552,1.0789683891930104,0.0166009325920224,9.767865732534071,-0.00031999331798956786,-0.002202720885261058,0.0008868260600506
1700843643.83353,1.2148196749539288,-0.04529311474238829,9.671209021015382,0.0008039253738333176,0.000350588442529301,-0.0009467615047101
1700843643.84353,1.0511510006257716,0.08777211724023769,9.799927798252638,0.00030883471599491995,-0.0012564928614519737,-0.000282910175119
1700843643.853611,1.2209254849439053,0.10003585664545049,9.716919143820236,7.450729727248482e-05,0.0002548559759232009,0.0011021540384176
1700843643.8636985,1.082663213487504,-0.012715906345588055,9.758882775867537,0.0012721869707787315,-0.0005483123865394695,0.0003500296923816
1700843643.87356,1.1647795023933858,0.07781338894867364,9.743231290973302,0.0015161851314276862,-0.0002517687360074968,0.0018367929850141
1700843643.883559,1.0244491544104886,0.05319129285913397,9.812709692154337,-0.0001940771521200244,-0.0014461188645390414,-0.0012261523399133
1700843643.893589,1.3092264996373422,0.2006301492620305,9.69983182831335,-0.0024866166538422994,0.0018768503545938354,0.0007787869079406
1700843643.9035814,1.082628302642496,-0.07286734245990191,9.734891481789347,-0.00055135214727411,0.0014149083171101512,-0.0004278306034025
1700843643.9135473,1.123223414370031,0.08090433650549193,9.766334166480341,-0.0009037550087914718,0.0011530192411640925,0.000107873912239
1700843643.9235704,0.9893518779586716,-0.04307399442602787,9.780513849137941,0.0010412304384632076,-0.001535136158516841,-6.87079151204126e-06
1700843643.9335585,1.1080842697014013,0.1604987092263923,9.804207609681853,-0.0008288636329828545,-0.002269773677468668,0.0011278658756423
1700843643.9445748,1.2042832716263785,0.011489388981011482,9.693530812511126,-0.0014841687889652704,0.0006225312402070417,-0.0012868700315807
1700843643.9535575,1.0291185173293722,0.0006065934272513376,9.779087756671784,-0.0013466886034768965,-0.0005971247134073355,-0.0025057896738503
1700843643.9635673,1.1344786729137168,0.05262548178199645,9.735024513613139,-8.976758541473372e-05,-0.0009681594768753571,-0.0001014841138017
1700843643.9735906,1.2475549701431605,-0.004287461694830017,9.661726159003473,0.001236048750430916,0.0016868676338307872,0.0001481198240439
1700843643.9835837,0.9916249506069752,0.06854822417422499,9.82786289740647,0.0006724253653351978,-0.0008351606325514542,-0.0004635857650641
1700843644.0078335,1.1418358780268627,0.08114976058985048,9.77179687931853,-0.0008281116407882516,-0.00012289795685713043,-0.0010048841824386
1700843644.0091777,0.9457490938282229,0.3243465823470982,9.946452629370578,-0.0006027427279261762,-0.0012512810963475564,0.0008629833872332
1700843644.0146494,1.2821385530075364,0.15852863752084773,9.708718546154781,-0.0018015435471805275,0.0005968321813925322,0.0008130748290936
1700843644.0250092,1.098454578459275,0.038417537568336775,9.748452843782205,-0.000890343399962096,-4.6525479924432754e-05,0.0022882886231313
1700843644.0341926,1.1089170083807767,-0.1698705434599202,9.679957091760345,0.00228695725159701,0.0004020140732765361,0.000419680059022
1700843644.043876,1.1156143286398457,0.16337904331440728,9.788628929602636,-0.0002693210080347825,0.0003904590064526967,0.0002483165415837
1700843644.0535707,1.1433721080007133,0.05293905504463875,9.742594529347128,0.0003538964628374787,0.00041244418034409375,0.0016955891158799
1700843644.0638895,1.0852728122841069,0.025063307784918342,9.773424420669905,0.00011437944250908821,-4.652048549571626e-05,-1.9162910720764567e-05
1700843644.0736089,1.1201487688324676,-0.0364452256153202,9.720241549170263,0.0020518957357834803,-7.855074521334832e-05,4.565571438478036e-05
1700843644.083645,1.006936549325422,0.0564304358455549,9.823969156357718,0.0009115928279047038,-0.0018599843904188247,-0.0020501880673323
1700843644.0937972,1.30075484559792,0.1186588428398889,9.710304665995722,0.0014562293286241197,0.0005126590443268882,0.0014728015056248
1700843644.1036236,1.1198120495625885,0.23823903174322114,9.82854161856213,-0.003819532642173322,0.0014011300404339984,-0.00108979600478
1700843644.1135783,1.0578994047268084,-0.13114342071822746,9.725085372927337,0.00048466961993164434,-0.00017392629375045576,-0.0004527844022591
1700843644.123581,1.106937029072429,0.028912387681591382,9.746705392453093,0.0008855079579733166,-0.0002663066087259584,-0.0007385082309697
1700843644.1336734,1.095661288987753,0.13998444695142268,9.793400451411717,-0.0002246198125649487,-0.0012348866619676898,0.0010541025665956
1700843644.1435766,1.1481614378017104,0.07299619327377176,9.744719999863515,-0.0017523597410612313,4.065694772284134e-05,-0.0010290841338787
1700843644.15367,1.1150589523600614,0.003118057606176827,9.741396508573443,-0.00030174295123182386,-0.0005501806052369527,0.0001786542823906
1700843644.1635835,1.1607254158769227,0.040559918141439735,9.720982269353504,0.0006441112100942434,8.982972614178445e-06,0.0014657591935615
1700843644.173577,1.179970630213558,-0.06880695582914749,9.67651886629251,0.0021964397862027025,0.002205421744297963,-0.0004594759549577
1700843644.183573,0.9295283804740593,0.2754807073767509,9.917574018433617,-0.001953902708294494,-0.002025398084942215,0.000591787957856
1700843644.193585,1.2381116497217062,-0.09121676449543428,9.635285731102446,0.0008892219283617272,0.0006653918808221758,0.0003462949433382
1700843644.2035725,1.0814279009239345,0.010740697446172372,9.772126195306848,0.0010106749102654303,8.758815269830412e-05,-0.0006677381926779
1700843644.2135875,1.0756170892898134,0.11875369986564126,9.797940089318075,-0.0005233932950942489,-0.0006343659438552392,-0.0012835214612637
1700843644.2235854,1.1242983968647051,-0.014701968062389659,9.733770345136795,0.0010937511231596728,-0.0008001352082543003,-0.0009281309786815
1700843644.2345934,1.1385235606733437,0.14289064577874336,9.783357375626212,-0.0011988003291817648,-0.0006235838938093133,-0.0007623509037871
1700843644.246938,1.1457323312732772,0.0354696874053122,9.736292766037726,-0.0004075357299845289,-0.00043283528930357747,5.056773116381e-06
1700843644.255381,1.2343636073593254,0.03613839515783464,9.693784147805193,-0.0002868361922984665,0.0016067656603500648,-0.0002333601470668
1700843644.264717,1.0962242260264745,0.002786533187722882,9.751492006628553,-0.00038519797789097896,0.0015981928078695046,-0.0018207057611648
1700843644.2736368,1.0804538777868382,0.09344908397189539,9.788959453471115,-0.00029801165330867565,0.00026230358894714195,-0.0001845608232174
1700843644.2836592,1.1290515337720346,0.036167679115700894,9.744851044734718,0.0008262746371437048,1.2343318604448187e-05,0.0009710217826436
1700843644.293602,1.0797055515214022,-0.0023190256385569132,9.753480365870942,0.0010404882593199954,-0.00025102249553045873,-0.000656530656815
1700843644.3045988,1.0533530577659656,0.029115660616407635,9.784929700270473,0.0013485696226521581,-0.0018637173396207755,-0.0011259378399331
1700843644.3136487,1.256207856452183,0.05587732718600711,9.690164931856023,0.0014409517260557685,0.0006270209921673006,-0.0011955968103934
1700843644.3247085,1.110807496894126,0.14414312900715645,9.799734592730251,0.0004273002874911828,-0.0005550217226662726,0.0008771473775054
1700843644.333573,1.0972162566822765,-0.032960842075576174,9.733847895803926,0.00011249027047285244,4.6232369419236535e-05,-0.0020192704861615
1700843644.343659,1.1275954309228406,0.04634798719672293,9.735885124109945,0.00043809294047866284,7.30673143623268e-05,-0.0014593543484438
1700843644.353619,1.2404467529485195,0.1437231635915431,9.725712693202514,-0.0010765902946687168,0.002175248917810641,-0.0006613877368722
1700843644.363632,1.1367049438916637,0.02618027521353151,9.727799438114504,0.0007811907051793647,0.0017244799844759536,0.0017902280204366
1700843644.3736036,1.137027164819843,-0.042531741673727926,9.717674007664954,0.0013254613042187593,0.00287187549729,-0.0007791154086221
1700843644.3836155,1.0213237312846344,0.08065782104170958,9.811050039802673,0.0010043545872016385,0.0006650042904847228,-0.0001111908815432
1700843644.393615,1.1002698464968474,0.10773282802915374,9.78887295292142,-0.000940254873861918,0.0006903380892377941,-0.0013654807582129
1700843644.4044902,1.0793076389453455,0.06120022141025067,9.785805857030404,-0.0005371797727832259,-0.0008891854993262929,-5.4176826924516727e-05
1700843644.41381,1.096589865346515,-0.032250694771772885,9.73134217305497,0.0004582191381096358,-0.0008798624144497698,-0.0011661734198783
1700843644.4237108,1.2024688883079278,0.10473242824395283,9.719781512066236,-0.00022014696036028045,0.0005525061217104182,-5.2681588530971576e-05
1700843644.433605,1.0427518331861183,-0.10743287111759137,9.741618728963152,0.002507124511003207,-0.0007543167317049428,-0.0009091306011755
1700843644.4436164,1.1842951235067898,0.13481986351006206,9.747716911237275,0.001432749406824849,0.00016136212781407052,0.0005139399771364
1700843644.453581,1.095739253377553,0.22554986614610434,9.819781425068674,-0.0015862159058264095,-0.0006910008018908705,0.0020066587720434
1700843644.4636426,1.0637412423238466,-0.13890630815006955,9.727480219560679,0.001107165000264956,-0.0009022209325230322,-0.000484078063127
1700843644.473655,1.2185056248848174,0.05880387624444629,9.699347219346059,1.6404407283310624e-05,0.0018627067142168259,-0.0023895429214094
1700843644.483593,0.9532924459415695,0.1389198429444881,9.874477234482628,-0.0010687780530757073,-0.0023059115508511515,-0.0007854452589158
1700843644.4945755,1.210399474078435,-0.002235537445458895,9.68477299207069,0.0005621604939691567,-0.00048275346877225066,-0.0001707826624256
1700843644.5037968,1.0710233962311118,-0.04561666448699165,9.753440852217976,0.002174089844094089,-0.0011927795105446794,-0.0006971614667777
1700843644.5140605,1.2047579152368861,0.2426251308488626,9.772185264498187,-0.0009249892346776903,6.113764607209878e-05,0.0011475978652383
1700843644.523889,1.1891673046231808,0.12454711844805522,9.742287326722817,-0.0002909510650059613,-3.346080970548232e-05,0.0055631823605294
1700843644.5336118,1.0783368411481125,-0.08027869530998094,9.733940263068744,-0.000712636127719564,0.0007499468304798855,3.5969319324509333e-05
1700843644.5436294,1.0937707930098537,-0.03198292096980222,9.74197389985983,0.001162671576933101,0.0002444321251652902,3.2032083622525443e-06
1700843644.553578,1.1337852831782973,0.08137548753179659,9.754082051106543,0.0006467179828501366,0.0004034932012004591,0.0007408029167349
1700843644.56362,0.9744684373314444,0.06626919764246271,9.841848349378116,-0.0007934871648056645,-0.002206061631641409,-0.0013867106055472
1700843644.5736492,1.173887844338079,-0.0740250797148102,9.690204875031327,0.0018600506822242882,-0.0012866729243564247,-0.0012708468595151
1700843644.5841684,1.1824897043616656,0.13449415033147216,9.742876605954166,0.0004034489902962839,-0.0002223559816487601,-0.0002274098689299
1700843644.5936067,1.1429866605924706,0.10331934831021453,9.77026513382795,-0.0007085289709778899,0.0002801875019102408,-0.0004036170313697
1700843644.6035852,1.0261448910628908,0.07500808560574439,9.80949556403409,-0.00046453078787163404,-0.0021736618507926108,0.0011125829886081
1700843644.6136093,1.2745614128835643,-0.013251904415182444,9.648103614529223,0.0003349192669705428,0.001503567222909842,0.0001313384680911
1700843644.623597,1.0064059025837615,0.06391559918442952,9.818370997332051,-0.00012293237182587773,-0.0007912050160745728,-2.024043314590026e-06
1700843644.6336975,1.0954167208591907,0.0031332735567759507,9.754099045389616,-0.0009912961552967204,-0.00010947127949294532,-0.0034538674400751
1700843644.643612,1.1962941250985533,0.18963904157851935,9.770766567514356,-0.0018067568526105283,0.00011217527577125178,0.000724408321585
1700843644.6536088,1.0809202225810357,-0.13834448870916238,9.712438793174119,0.0010512899141740873,-5.398441240036994e-05,-0.0013170548947159
1700843644.663611,1.1931765818271833,0.10189913328003322,9.731959674242399,0.0013336697154106819,0.0005592113436575134,0.0013692476903456
1700843644.6736772,1.017984129296208,0.08561193098883793,9.820124726462584,-0.0010754888773594443,-0.0006369905953372506,-0.0014239623443786
1700843644.6836095,1.1505897817940696,0.11525627714202619,9.762999324047748,-0.00048054899470213356,-0.0013906125082323035,0.0024380430812384
1700843644.6936631,1.225716160844015,-0.06522660786568861,9.664529248392498,0.0010348828772673037,0.0014540278416305598,0.0008346871880716
1700843644.7036006,0.9391904137528989,-0.19473993074207668,9.764174224493239,0.004148851819157289,-0.0011138339428240801,-0.0027423614402864
1700843644.713668,1.3129005973295937,0.29622350856712787,9.729323707954741,0.0002585410918261628,0.0019435370758301455,0.0001626521232906
1700843644.7236686,1.0526893458240272,0.11254428504524386,9.808461891932243,-0.0008039242967440744,0.0004385048687054355,0.0004606639525631
1700843644.7336004,1.0521694521469942,-0.10226520947783617,9.74347800949178,0.0018119883236349759,-0.0007375578549741756,-0.0005682727088783
1700843644.7435963,0.9971719947923797,0.08691193036081642,9.834412707601066,0.0008169768546499362,-0.0034383878708559626,-0.0009165873517845
1700843644.7535963,1.3352972320237992,0.1523066086619375,9.672365098075707,-0.00014304690670882982,0.0003360678912834717,0.0013316314551416
1700843644.763935,1.0995200666093392,-0.032265176559885346,9.732114752335535,0.0005263847289939436,0.000591254614263126,-0.0011576017597322
1700843644.773631,1.1068172701953494,0.11945426529699896,9.786954845051964,0.0005915747937809124,-0.0005885459890523374,0.00129326463215
1700843644.783625,1.1025242908802622,-0.1115618078608955,9.703095929786947,0.003317749244136868,-0.00046635930303901083,-8.808977432592111e-05
1700843644.7936077,1.1533542304339575,0.05428865345539432,9.747349212879246,0.004304210622984724,-0.0006735091358330937,0.0021474780049543
1700843644.803627,1.1136602860050175,0.22467033163480274,9.821028478026863,-0.0006556480244632162,-6.515189070816406e-05,0.0001793962845481
1700843644.813634,1.0599481773467188,-0.07850199632873,9.73573926091536,0.00018777205534282318,-0.0001888277771273553,-0.003067934815735
1700843644.8236122,1.2176496833923847,0.09413883708351686,9.713815223783122,0.00024104244592618702,0.0012733535794099576,-0.0012525967787583
1700843644.833603,1.051231852039889,0.16464781155299385,9.821850900143291,-0.000920510245065348,-0.0008482095456057773,0.0012414849014389
1700843644.843653,1.0987791800208344,0.018816155150681416,9.75240367974324,-0.0024679947285816974,-1.486050787527232e-05,-0.0024245799751584
1700843644.853604,1.102923438440478,0.059705566982709506,9.77810301020073,-0.0015087363309398555,-0.001194659990164835,-0.0004799656336758
1700843644.8636756,1.1861250354896966,0.020048425498370093,9.717865198154087,-0.0015325712306218935,0.00030700845312700575,-0.0018151208525155
1700843644.873672,1.0721539158926328,0.044845243611626076,9.778065511151025,-0.001548206859358104,-0.0007446578034292418,-0.0020766455446933
1700843644.8836272,1.1743284354700463,0.059725425023396776,9.727846501455003,-0.00037214816940605216,-0.0004857321057466941,0.0004409195288103
1700843644.893633,1.0935643036179061,0.12067290189365164,9.790762580348588,-0.0026360083055150555,-0.0005572616495654966,-0.0009296163217727
1700843644.9036975,1.1124399949817647,0.07107518299993447,9.770501196230931,-0.0018983970821579849,-0.0015295693438667063,0.0010708615999105
1700843644.913622,1.200112525329951,-0.06924386955376471,9.675928373811516,-0.00022201992095869768,0.0006080152704940445,-0.000662512658127
1700843644.9236405,1.0370574480448684,-0.05432233085821942,9.762724980833406,0.0019870795138002867,-0.0012583556807370141,-0.0006293646758054
1700843644.9347005,1.202923723330236,0.14496784282436173,9.755601758277432,0.00010356952026905926,0.0001300591772893798,0.0003723727976107
1700843644.9436226,0.9473983538311418,-0.11327105766736505,9.778192461518486,0.0030227121278354084,-0.0027682103257008956,-0.0001406073453467
1700843644.9536257,1.3368371215260961,0.19576094118674356,9.687415629122883,-0.0006854514257443848,0.002096262159872973,-0.0011542601743344
1700843644.9636188,1.0709924147643985,0.018246902773585347,9.76935606855337,0.0007372475743069378,0.000260068251538354,0.0004707138244525
1700843644.9736612,1.0805112296601957,0.20195758636625336,9.815859982455938,-0.002018728786130707,-0.0005878165888167719,0.0012508066837112
1700843644.9837527,1.1622978794866314,0.06294975267507455,9.74850745834002,-0.002164388252578516,-4.795015579643314e-06,0.0017555561615522
1700843644.9936476,1.0509721931106804,-0.0004055185127581549,9.768043045777846,-0.002150601434649861,-0.0007446440351148383,-7.354199184147911e-05
1700843645.0036385,1.3032583121214771,0.07981640627537046,9.665120986685324,-0.0017750697194957939,0.002288133139263666,0.0022405845346297
1700843645.0136242,0.9097904408513438,-0.11872572389726015,9.818453999723737,0.00011102211280882452,-0.0011436202917429813,-0.0005108991055381
1700843645.0236464,1.1106804111817772,0.06463791643506987,9.759701706081435,0.0001400816032124592,-0.0015876744689632774,0.0002710452070827
1700843645.0336354,1.1219233667265747,0.03904251258206219,9.754288763578462,1.4913670826962883e-05,-0.0014844812002997618,-0.0003935482119773
1700843645.0436218,1.145857352297451,0.05797459852374517,9.760814475233653,-0.000769639181323915,-0.0006977043321915326,-0.0016932999016348
1700843645.0536845,1.1589760835256957,0.07669961410670462,9.734836362355933,-0.0009387628743954841,-0.00023875186837962246,-0.000254604604524
1700843645.0636144,1.0426855132571982,-0.060345861291898124,9.753996363606394,0.0004071853493379478,-0.0012348862368806608,-0.0017547697526965
1700843645.0736885,1.1866074542517504,0.045872556784174776,9.70861210348261,0.0015027861201288193,-0.0003557140333621424,0.0002177825780022
1700843645.083629,1.1642397829279845,0.057255821696566477,9.729516358293633,0.0010739950903915863,0.000780500814558858,-0.0002959467703108
1700843645.0936255,1.059353506647574,0.15714414292566686,9.82069782802061,-0.0006753881710478541,-0.000807973722660702,0.0005575215589856
1700843645.1036315,1.189765852683304,0.06042881527594781,9.714969963334154,-0.0009838377383829106,0.0006445178342380883,0.000592532608462
1700843645.113629,1.032208695514118,-0.05957241495620848,9.763194872120046,0.0007804585001055659,-0.0008817270566833944,-0.0005719932261486
1700843645.1236162,1.1046554834595934,-0.025564135398129195,9.729706319603595,0.002178933022583673,-0.0010430237590167432,-0.0005764577537406
1700843645.1336706,1.181780552676113,0.1284954674058438,9.756178929878608,-8.976521335310542e-05,0.0005316387884219178,-0.0016839971532676
1700843645.1436322,1.1534421933189607,0.06792190302114952,9.748062416013596,0.0005833865255345769,0.0005823089465319799,-0.0001089505268823
1700843645.1536682,1.2093497671234672,-0.010369086439422434,9.690918239732337,0.0016305450055496933,0.0025630460158231083,-0.0004632422816571
1700843645.1636214,1.0312547875127116,0.15106909472393498,9.835711835420888,-0.0009507039949710512,0.000965271237626281,-0.0013852072180811
1700843645.1736796,1.1078924578060618,0.06088069327101762,9.74770551165002,-0.00013969755882739,0.0002719954681746414,0.0006469339394611
1700843645.1836765,1.170018878247079,-0.10572960985390155,9.674998938884032,0.0020380822291226255,0.0021640717659221205,-0.0016784252831344
1700843645.193656,1.2003140706433806,0.2149963052753778,9.77162812304124,-0.0001907319518307064,0.0029918267528685734,0.0007579358469597
1700843645.203653,0.9669774772855383,-0.033603849577606655,9.807894439856057,0.0007007335990887169,0.00039864837167193,-0.000987737835348
1700843645.2136414,1.2212942375299642,0.10818930328855778,9.708690675813173,0.0015638594184371108,0.0014588828329149275,0.0026597006479646
1700843645.2236538,1.0361599097049763,0.13341285287835908,9.822823254211059,-0.0016905302168669343,0.0005860298326027344,-0.0002657723845545
1700843645.233711,1.159359684743629,-0.0026239995918735113,9.722612832015646,0.0007238281877914799,0.0004422391024758483,0.0022584881633888
1700843645.243647,1.051735453747367,0.07826575273574153,9.811197880495529,-0.0020135154660491784,0.0001106733187131002,-0.001643760292754
1700843645.2536533,1.0339707643184142,-0.040798219964533464,9.776691433507237,0.0007294213883182395,-0.0023096357947562807,-0.0001290580723066
1700843645.2636354,1.2413561098684074,0.0016968225291661846,9.662756828512263,0.00130310457807432,0.0006702272417511678,-0.0006953110452373
1700843645.2737632,1.0954780395438932,0.03288114612669082,9.75385791160096,0.0018842543810700084,-6.662234486773178e-05,0.0002565351722664
1700843645.283661,1.0968545444059785,0.14921516898718915,9.795866570169785,-0.0007338799642733994,-0.0002517798290314692,-0.0005242929793526
1700843645.2936914,1.1101917584872636,0.027569515802478364,9.764194935518866,0.0009410168928996027,-0.001236743070781632,0.0016117747407774
1700843645.3036911,1.1827792339208845,0.13067452565033016,9.749905564969382,-0.001283369032507691,0.0003692184355936342,0.000780299346698
1700843645.3136785,0.9690087181017297,-0.08371529621397406,9.798080761913834,0.0004090492191197087,-0.002222837148107493,-0.0015096412272755
1700843645.323696,1.2576292359387637,0.17492709056638384,9.719779251017808,-0.0009804917589777012,-6.81311223038132e-05,0.0006573548860983
1700843645.3336985,1.1110033955801628,-0.10437952786503235,9.711144471313732,0.001494969408090426,8.497486610432018e-05,-0.0005179797764499
1700843645.3436494,1.0062418568084672,0.09907062791816082,9.842463358435422,0.0006970158545764447,-0.0026862559196267,0.0001503257488734
1700843645.3537154,1.2654548400785406,-0.036913521054213694,9.647803388744903,0.0028319703004089786,0.0002071806250162137,0.0009136730921822
1700843645.3638308,1.0675086121571307,0.04606743110123594,9.789604232455078,0.0015933129387186414,-0.00019999456318905236,-0.0011468016774956
1700843645.3736713,1.1263335991783516,0.23483267975760938,9.817099183915557,-0.0019434756315529955,-0.0003542331786231467,-0.000367100920957
1700843645.3836915,1.0480786438752565,-0.05054469955970058,9.756832547048038,4.5085566120227105e-05,-0.0016975657935418787,-0.0002411871566068
1700843645.3937087,1.1628502516926966,0.1505034257061894,9.7612180812657,-0.001900633886229359,-0.0009592185795965585,0.0005262211533049
1700843645.403664,1.1727606572598495,-0.05552589378251668,9.68177251611786,-5.25103941047918e-05,0.0005361101669616417,-0.0001566194579568
1700843645.4138608,1.0600765636956773,0.037084498725056016,9.785955447728282,0.0003319340355790913,-0.0008899230124250643,1.660555139140887e-05
1700843645.423731,1.1680304888332735,-0.06740847852702334,9.697616969696826,0.0027436858744464723,-8.041458143370226e-05,9.484773621851308e-05
1700843645.4336424,1.1649103744131821,0.3076939900898831,9.822389334195458,-0.002773467435896131,0.0007123196551546279,0.0001201674575354
1700843645.443679,1.0089815448208936,-0.12792226627439568,9.746031867416539,0.00025593631706485615,-0.001189070806251788,-0.0010234971297536
1700843645.4536474,1.0755731582008448,0.18224758504347796,9.825791202414951,-0.002425903033129735,-0.002160620273937436,-0.0010931604075808
1700843645.4636483,1.1479114814363873,-0.08276024961180918,9.685216538775812,0.001440211516731702,-0.0021215038381547885,0.000525479907847
1700843645.4836984,1.1465708999226678,0.04817818071635471,9.748246720607005,0.0009887085498427233,-0.0008951522756858352,-0.0010503210825477
1700843645.5026114,1.0920794687619249,0.048266707548284916,9.76113581277093,0.001746805847116756,-0.0020883495707372853,3.5236077419982385e-05
1700843645.507206,1.251015343624192,0.18593429178058524,9.7251936125642,0.00028201517332075894,-0.0007248937159893666,-0.0002516121486764
1700843645.5169342,1.2582859819563592,0.03871567910213674,9.672524524479703,0.0009234962169643019,0.00181054108724921,0.0006364856643271
1700843645.525071,0.9891798144893581,0.1430590189751637,9.854285232478583,-0.002060817533511978,0.0005785812962134641,-0.0017432253108922
1700843645.5339465,1.091604141283254,-0.10521943286555219,9.711756491975557,0.0009138170549869616,2.799221488146816e-05,-0.0016918118809912
1700843645.5437157,1.1900016769520354,0.08702806674185097,9.735671052321441,0.0008083960100586987,0.0009440403538709251,-0.0004665568587001
1700843645.553768,1.0579752274407423,0.14277306372725873,9.821595449414389,-0.0005513344379908132,-0.0007949374967731362,0.000800408638352
1700843645.5637553,1.1739565310422475,-0.04516148388021594,9.69627187893592,0.0006996073718570728,0.000912738546288195,-0.0007042484823246
1700843645.5737104,1.1798084407839735,-0.08195008416535315,9.665882493743133,0.003729026715359134,0.002140582244066468,-0.0004729403764572
1700843645.5837593,1.0096742639107685,0.08151034548292146,9.819481315094292,0.002581253781672738,0.0001412458138940864,-0.0016642512520406
1700843645.593862,1.1173350595176386,0.1199384782491272,9.799455545460807,0.0033214775064869502,-0.0014986292403947664,0.0020986765856291
1700843645.6037655,1.166942060946168,0.1079381940220328,9.7530956303446,0.001563144959038929,-0.000245084160031354,0.0008391410927656
1700843645.6137085,1.1780984390253624,0.17581453130235308,9.767084052846618,-0.002363694909385164,0.0017125618861553436,-0.0018434265395258
1700843645.623896,1.0818474365070199,0.027805590792270386,9.761982648812813,-0.00011361082553117665,-0.0002663104241306647,0.0016866474878411
1700843645.6337416,1.0982347778500867,-0.016842691343586267,9.729345583135368,-0.00010056286168856937,0.00017103985568741882,-0.0003533126320321
1700843645.6437016,1.0553013818728563,0.05849005148070804,9.794646726778803,-0.0010803219151342626,-0.0007476168870733398,-0.0016608938341592
1700843645.653679,1.1874435593498645,0.03191589286732492,9.708640593886138,0.0010386187221709908,-0.0004615225899437846,0.0016818166012312
1700843645.663677,1.135222279900658,0.027619122731687155,9.73191392454225,0.0014703830506255077,-0.00012549665042098636,0.0018494455842669
1700843645.6737328,1.0984197084805005,0.06939959207775538,9.777163373418198,0.0015728287195439943,-0.001116769729822195,0.0030676150462027
1700843645.6838036,1.0940121358736545,-0.055587920028522635,9.741263748742053,0.0015374341509402107,-0.0002819412027325218,-0.0010801128111411
1700843645.6937222,1.1100373106357826,0.065812037475077,9.759455563722248,0.000987207174435601,-0.0004250080129399143,-0.0016076249768589
1700843645.703802,1.2021952520871504,0.16963409383147038,9.74047797988231,0.00015162849980567081,0.0004265922961615414,0.0014668526826794
1700843645.71371,1.003006978465761,0.04950276674954329,9.820484477307483,-0.0006452078350948319,-0.0017780378684173859,6.316923540042443e-05
1700843645.723804,1.209343684385481,-0.07064465011113683,9.6619074227616,0.0011429191118474396,0.0006560776984697997,-0.0012965581146631
1700843645.7336657,1.1001348530016024,0.039118842989771974,9.765351201757003,0.000374024887895527,0.0008136570675798897,-0.0030086982762072
1700843645.7436695,1.0978732528706225,0.033282276922634975,9.761338705468548,0.0026565106356573496,-0.0008876722401321165,0.0002717697905977
1700843645.7536876,1.1045935559456648,-0.035729164919799654,9.727083814588799,0.003544252317567848,-0.0004920523784273574,-0.0015476391883198
1700843645.763685,1.2311888966901336,0.2850730010212281,9.7706810264262,0.0002618982937204254,0.0007197727024316733,0.0015365270199622
1700843645.773847,0.9885940472547647,-0.08934191352667938,9.776842731066747,0.0015422863114108903,-0.0011041285912140732,-0.0014939933782075
1700843645.7836888,1.1586517228543889,0.058520031885984536,9.721387762395398,0.001333297326266537,-0.00015156752702155714,-0.0016333231934909
1700843645.7936938,1.1885686076998239,0.09521757161617678,9.737881663789063,0.0017620667691259904,0.000529782454258959,0.0007687290024846
1700843645.803712,1.091038815312129,0.07821373353308247,9.787361204112997,0.0015091179773882464,-0.0004101009266112821,0.0010008363286401
1700843645.813694,1.1072777136738783,0.07369264367422074,9.759290701367485,0.0005245324613329707,-0.0002923903030469437,0.000303820412992
1700843645.8237529,1.0596146816409273,-0.01167679076157965,9.77323354199117,0.00043737093311375523,-0.0007606531802212341,-0.0024867883650217
1700843645.8336785,1.259134796656147,0.14794900595073557,9.709995149113093,-0.0007580797612343755,0.0015106465650575017,-0.0005433143116165
1700843645.8437474,1.1754653321679496,-0.008802761517054766,9.703227798285726,0.0013120683878428544,0.0022259059330435194,0.0009665337973642
1700843645.8536916,1.009278606774197,0.1290944954096066,9.837302765413138,-0.00015422070867181825,-0.00018586370280425284,0.0015339252539347
1700843645.8637364,1.0507706009434075,-0.014665150244371436,9.769825785388123,0.0013593703050427388,-0.0017389171319225555,0.0017671172507475
1700843645.87377,1.230127232722566,0.0618859601410462,9.705513877263881,5.067516839739993e-05,0.0010084798117575603,-2.8470111974014808e-05
1700843645.8837097,1.1186228374932938,-0.019802155617346492,9.730421998914483,0.0008847719581608035,0.001496875033818908,-0.0013226258335266
1700843645.8937986,0.9917614905206367,0.1269445634698587,9.847974506105304,-0.0003095607629929608,-0.0015019953495068693,-0.0004844475653585
1700843645.903703,1.1832031141014205,0.0030005684201964175,9.698878746746816,0.0003431071824259193,7.082292415022299e-05,-0.0008942316518728
1700843645.9136925,1.0823352677098708,0.10358613472391683,9.788623538883012,-0.0007074233263438515,-0.0008347947918723575,-0.000518346251883
1700843645.923712,1.2076405591552193,-0.014641324576499208,9.692804400982109,0.0021811645899948336,5.295420799448161e-05,0.0023613009369369
1700843645.9336958,0.9598552313931019,0.023218136664432173,9.835163592579267,0.001091523099963727,-0.002354325977444432,-0.0006193059263382
1700843645.94376,1.2788599236171527,0.1878552452055147,9.715045271035093,-0.0007673976372070994,0.000301790653383725,0.0011300959275472
1700843645.953748,1.1379460270672546,-0.035156012275390315,9.707319148596927,0.0013411036594824551,0.0005551165708542372,0.0017574410420279
1700843645.9636903,1.0247888834865035,0.026841858002964993,9.784158636848426,0.0008769497652100965,-0.0009543747926912138,0.0001924365759264
1700843645.9737291,1.1003743527574776,0.017115090864414137,9.753320756957269,0.001326967637265411,-0.0011775096689464674,-0.0002449042396251
1700843645.9837031,1.1673926523964915,0.04180610888958105,9.729883405768202,0.00046564626778031605,0.00045565155791718777,-0.0024625800316785
1700843645.9937642,1.2116704004312795,0.15643534280602145,9.740689661737273,0.0002779106405024352,0.0010263634379944525,0.0013688866864326
1700843646.003702,1.0011020446942898,-0.06756239794713852,9.783764869629435,0.0017259409555336353,-0.0009014681788890703,-0.0005846516461674
1700843646.0137105,1.236584963948631,0.21644862909717175,9.74956034924667,-3.20320651978819e-05,0.0005029497825415095,0.0025356552331145
1700843646.0237412,1.126413562692635,0.1565746112289753,9.782695635991395,-0.002712762736420256,0.0009142168134094095,0.001611772063225
1700843646.0337226,1.0931091929814634,-0.11051803739400598,9.715708056407603,-0.0003024796595298531,0.0010028965271171935,-3.368586763782697e-05
1700843646.043748,1.164971226041817,-0.021633521672112837,9.704978081964745,0.0014264040923736877,0.0017773943230232985,0.0006070694624581
1700843646.0537364,0.8990480590620086,0.03712801074943902,9.869471904736686,0.0007141450447006955,-0.002209062717913976,-0.001122954580896
1700843646.0637026,1.1759676162431474,0.12583897463333343,9.753859625030522,-0.00040940555172977385,-0.001501245210384379,-9.101076247601675e-06
1700843646.0737226,1.18504087299135,0.05379248219384015,9.719893738672626,-0.00037922101626616756,-0.00030841005253760405,0.0003496460165847
1700843646.0836976,1.0432248926637904,0.05470331630467898,9.799856744875946,-0.0007588256725150457,-0.0018749082614237607,0.0002233484090906
1700843646.0937307,1.2063311381767907,-0.065103493647931,9.653939713027205,0.0017039566003931052,0.00029062227177126634,7.881068162576957e-05
1700843646.103711,0.998288852674309,0.2284551637511279,9.879115423546029,-0.0028621451851956557,-0.0019170269399228998,-0.0012544414959479
1700843646.1137116,1.1391397777775851,-0.06615365183397448,9.709620414645187,-0.0006832114729225361,-0.0014922981989286454,-0.0017916477983449
1700843646.123719,1.2400230916658628,0.19193651371732484,9.733370479914422,-0.0024195714401693325,0.0003852335867852784,0.0006115320691974
1700843646.133716,1.0858170778743166,-0.14916834577700563,9.692806571443771,0.00019299161006073204,0.000693695254661609,-0.0023921645944569
1700843646.1437533,1.0960087172790662,0.12906757301751817,9.793734595838405,-0.00016799125567523444,-0.0007066415697358693,-0.0005470326169957
1700843646.153705,1.0934793796460913,0.04027292125982339,9.771017955710034,0.0005480027547802531,-0.0017307219582803767,0.0001112258877042
1700843646.1637385,1.2703813155892305,-0.05701653455079753,9.633128054895128,0.002200163113352467,0.0018045875029815348,-0.000791398738474
1700843646.1737804,1.0024378984724256,0.08798490918573319,9.825736209919883,0.0015489865212336249,-0.0007252653277187306,-0.0004531509941075
1700843646.183773,1.2052062937058374,0.218042798352733,9.745565958325667,-0.0024106441078090364,0.0015609268467703958,-0.0007783715147156
1700843646.1937926,1.0268400687522232,0.03925327217712355,9.809467539707153,-0.00013931781395513771,-0.0018577653053760699,0.0025725202402468
1700843646.2037566,1.162619478197406,0.048111087563537575,9.728429555387724,-0.0003110477104495594,-0.0007219099352219713,0.0016795744421328
1700843646.2137356,1.145245126038101,-0.168461862496329,9.662429745209584,0.002084319717357724,0.0012427992159014037,-0.0020308114355061
1700843646.223837,1.159779856246828,0.21922844502036307,9.794042393586892,0.0007830717846087816,0.0005685147264394968,0.0022972297855089
1700843646.2337716,1.085477652716377,0.012061248682212752,9.751057817106279,0.0014182207617638516,-9.261212267903341e-06,0.0018859593663732
1700843646.2437668,1.0641774592473312,-0.034662252580735915,9.756441041200045,0.0019308257817079457,-0.0005617199958345906,-0.0003391643287245
1700843646.2538283,1.1137999625215447,0.12999092513257396,9.779418305906123,0.0007599698359092971,-0.0011324349862914874,0.000731112854592
1700843646.2637331,1.1719798168311115,0.00789240297032575,9.710400108178662,0.0008206932232937154,0.00031855774254608237,-0.0009396847337116
1700843646.2737644,1.1083127527985221,0.14010076411064865,9.796416934463968,0.0001091476025956933,-0.0006645448793272755,0.000851445290064
1700843646.2837348,1.1250513005729263,0.02635324518982729,9.73578716472813,0.0007584761647111815,-0.0006701282977556502,0.0013457860448765
1700843646.2937615,1.0848649129263523,0.01175215057536577,9.763080451443638,0.00010766319871303998,-0.0005688071926942374,-0.0014511625514928
1700843646.3037353,1.0989049746469384,0.19138493143203822,9.81615638170702,-0.0019948821933686084,-0.0015824601549241986,6.550439903081488e-06
1700843646.3137252,1.1491362557079787,-0.13093733927854923,9.686210146495206,0.0011105286809620406,-0.0005423558434964366,-0.0011635601287339
1700843646.3237624,1.1711621772713632,0.04169245769685805,9.722364366747248,0.002130502329038513,-0.00014411832342917235,0.0002088281151741
1700843646.3337238,1.1168632072210904,0.20692229796102257,9.80418349518883,-0.0014599420622489472,-7.930942961688776e-05,-0.0001335164880943
1700843646.3437223,1.0832893883478272,-0.00919717008796358,9.763408926683715,0.0002238993674723605,-0.0009893913440417073,0.0004953019677854
1700843646.3537176,1.1345970731558948,0.13023158865051562,9.781078288852136,-0.0007536192485454482,-0.0011879498154080284,0.0016363602597634
1700843646.3637185,1.1628014595042486,-0.00627512135806932,9.725094676522783,-0.00020786449536127195,-0.00019367042380398519,0.0005288319706237
1700843646.3737864,1.0389147169018822,-0.03678393424508327,9.762917715891529,-0.00018215393859180313,-0.0007256475145516871,-0.0028541057137404
1700843646.3837175,1.1215423725199922,0.013494788908723694,9.733797616055575,0.0008665040683389899,-0.0008292160094213679,-0.0023310772841428
1700843646.3937526,1.1950159219424825,0.09728567359329947,9.728838806367133,0.0003937732703139218,0.00044894654315041167,-0.0015390773070607
1700843646.4037597,1.1713752310489725,0.25256725014862197,9.791218817106813,-0.0033367581028484754,0.0011503873866341057,-8.509272007314758e-05
1700843646.4137309,1.0662790426894142,-0.13462460069334586,9.725740910854567,0.00010580451057182248,0.00019935260957017125,-0.0008435621158782
1700843646.4237485,1.0527513663446217,0.12725777899294038,9.823044126805604,-0.0013574836949817575,-0.0014688417296596491,-0.0003898241440397
1700843646.4337552,1.0899902776402726,-0.07310762390998124,9.720914092597617,0.0006057480648481836,-0.0016401933945374926,-0.0015860131708536
1700843646.4437485,1.187431606525356,0.0335804394685539,9.71606746166897,0.0006992568160184559,-0.00026073185678246805,-0.0018397086998079
1700843646.4538028,1.1262004325893529,0.08584658789943583,9.760753830149195,0.0006910446210558293,-0.0005144114586303579,-0.0006397959543023
1700843646.4637463,0.9950391575623753,0.13517002690933247,9.855460917037869,-0.0011816539854652237,-0.003166823469764405,-0.0003793959505487
1700843646.4737823,1.2293880645944537,0.0053359308644886985,9.687412867593592,-0.0004488682893324871,-0.0008504282760411053,-0.0005969478981201
1700843646.4838493,1.1561557045310822,0.003183991397801454,9.710652158169788,0.0008776885783642014,-0.00022421725194533615,8.2537980088533e-05
1700843646.5032496,1.1091855791860783,0.0701587012134077,9.763702248151823,-0.0009573854051944875,-7.109930244966044e-05,-0.0012611645971987
1700843646.510566,1.0362091815404355,0.09314388652057334,9.807031323926791,-0.0014960681965832888,-0.0013019473421665806,-0.0012429149821032
1700843646.5137758,1.1251877177288274,-0.24305978524802496,9.656425579042397,-0.00029540532791090556,-0.000822500124145259,-0.0025527320569012
1700843646.523864,1.1387501990624034,0.10531837766757086,9.76666233470213,0.00038222192259916723,-0.0016208237732526138,0.0007355959795317
1700843646.5337887,1.1611092082419645,-0.0917080617657412,9.68212942589495,0.00211002130642701,5.964475700077345e-05,-0.0014220888726045
1700843646.5438,1.0989514038641868,0.14391876459614736,9.795376581463968,0.0004720120504136215,-0.0005602421909193132,-0.0009873639093343
1700843646.553842,1.1397649527109441,0.08523594229308822,9.756334563531995,-0.0007152573522483608,7.640828396325232e-05,-0.0017856915248189
1700843646.5638113,1.0546938028832136,0.10988457727354423,9.807868614898002,-0.0005874668684139744,-0.002057805357693631,0.0008853436564463
1700843646.573868,1.2246211308475508,0.018385404603575274,9.685014857399036,-0.00033489764442337725,0.00042138095380761254,0.0004498421875182
1700843646.5844471,1.1302548194577788,0.03455880146930386,9.735311317757176,3.742383939762136e-07,0.0008088078435715229,0.0001726734161279
1700843646.593766,1.0562127835156023,0.23109487840801482,9.847046606003083,-0.002520530326393127,-0.001096323800528208,0.0020699771820004
1700843646.6038156,1.0908832620149762,-0.0845357439028596,9.729155110876398,-0.0002257395460439806,-0.0012821917399252697,0.0010939536267328
1700843646.613827,1.2690566506166192,-0.0856854660706378,9.620185102837262,0.0021647597203683314,0.0025429373850560525,-0.0001402404042523
1700843646.6239004,0.6929245834273224,-0.2108656225218756,9.836980354001788,0.0023827410803171443,-0.006916687500476741,0.0037046422483767
1700843646.6337924,1.5189520059472559,-0.8965866081127393,10.070021719852987,0.014353647340590851,-0.01822582636447109,0.0164943235693867
1700843646.643761,2.3428314482307036,-0.5967691325528126,9.264098947850517,0.02486709033438335,-0.013823518612269768,0.0357274199603493
1700843646.6537566,2.8726466721094033,-1.3689678538662242,9.380847890719636,0.04073173847473643,-0.005481481446077517,0.0579131777165825
1700843646.6637533,3.648534482062736,-2.5319579144874647,6.882082753033544,0.10408797426694497,0.015512995080081344,0.0959331813035901
1700843646.6743946,2.385529669420949,0.5538467862901889,7.892019464996871,0.10398203356778596,0.013042029301753785,0.1502663689433034
1700843646.6837676,4.496101947008809,-0.20220538064195423,8.044002467387614,0.13833288282868617,0.032857201254048944,0.2123855846701558
1700843646.693905,2.165419120663082,0.9161973570153352,10.217090908122536,0.14070664687311693,0.018209660397374712,0.2627929645358022
1700843646.7037766,4.280504215258177,2.321846988790291,9.822391827675894,0.13601507629826814,0.034896895850084673,0.3097691732226308
1700843646.7138145,2.1430462182712824,3.5531910459942875,11.031775469784824,0.10194193758250768,0.027215608878429203,0.313527693110555
1700843646.7237856,-0.04145316235712188,3.861999055367403,8.312034168836805,0.06380736958680051,0.007770988030943936,0.2865893441019948
1700843646.7337408,-0.24890388915881254,2.124275882867411,8.843088763860043,0.047674336951704664,-0.02876882357977475,0.2491622167406972
1700843646.7437751,2.7917733712318533,-0.8311750713386329,9.59957943715683,0.04768296042090489,-0.027147197239384788,0.2026781189022954
1700843646.753787,6.837783895914203,2.161633126974427,10.995243549102605,0.0536763682376462,0.013339974914386266,0.168298234301656
1700843646.7638144,6.01155412351716,11.299328664958471,11.548963758496896,-0.07498481817232994,0.0726440580621441,0.1000348227797444
1700843646.7738,7.639522324575693,5.937430893787744,10.359073472534266,-0.1796032432174932,0.15214918676813424,0.0568874972639973
1700843646.7842736,1.8540139106822877,-8.217358694783725,6.618523222726614,-0.09921316635629035,0.16767591831614617,0.0201220485149319
1700843646.7937772,-1.002505864197965,-5.328023871588701,7.279893135314824,-0.006051879387143961,0.12970265728906027,-0.0012469251406942
1700843646.803831,-1.4111999882795991,2.0494552668897175,7.628248593941247,-0.019693019079212178,0.08485410450747063,0.0280453852145369
1700843646.8144553,3.0105318979873346,6.438860845996683,9.59740441863953,-0.07141923644522521,0.07186236005808404,0.0485279644607003
1700843646.823764,4.956089861776089,8.058992245103992,12.296391327390454,-0.17053419092567815,0.10275066938300441,0.0576413172064717
1700843646.833757,5.337215920601558,5.656821770640344,12.837282809998749,-0.24121485322540145,0.11933700905393414,0.0578114996431763
1700843646.843814,7.367924571278872,0.614085389103364,9.211001534804584,-0.2608904644849759,0.19188965271358788,0.0344599383650715
1700843646.8537705,1.2381680645626776,-5.740646311060247,6.950772176190981,-0.1871036643594147,0.19001069287764713,0.012476516026109
1700843646.8638413,2.786395587020586,-3.471489642310775,6.229551455651949,-0.1329510549999365,0.195082938527122,0.0073221922619636
1700843646.873795,1.0869512140821964,-1.8575224299141067,8.06845998419159,-0.10486052913983603,0.19070496250211968,0.0121153090848024
1700843646.8838117,1.010707503102784,2.575087027548658,10.503867995182468,-0.11220737062302137,0.15524843460843515,0.0263521960704024
1700843646.8941138,2.021200130702813,8.68305854788699,11.314775556488978,-0.20600531690255658,0.15873188347920067,0.0228741067229207
1700843646.9064982,5.323439393151806,5.390765953504748,12.755499717877214,-0.30068250485767545,0.19540294290813343,-0.0097058098064367
1700843646.9138772,4.409406577071378,1.715218220313357,10.65394349278417,-0.33166244659305644,0.23300774401338764,-0.0387222160817687
1700843646.92399,3.5043878777596422,-2.897784056372163,9.394767638511748,-0.29249916140677157,0.24660083618936915,-0.065298574906737
1700843646.9339468,2.2969898471598267,-4.411089234169475,7.774255005742022,-0.24473692687843127,0.2729863298474966,-0.0772460055769984
1700843646.9440434,-2.213971019127493,-3.73811512828189,8.537464283555684,-0.1835381135428053,0.22333944412813794,-0.0823816684307162
1700843646.9538734,0.8865747741937554,-0.8391212819328309,9.07900284386829,-0.17050270511921292,0.20957546983905465,-0.0851162699283663
1700843646.9637952,1.0887358975893795,4.527129048821369,10.665203579750365,-0.2014512671602594,0.20306714165005724,-0.065660516661555
1700843646.9737787,0.7721709414469092,8.950594960128113,13.863693022664032,-0.3229809645427049,0.197078638522712,-0.0711484206141535
1700843646.983803,4.5355825668256395,2.0918078182378026,12.385920318892227,-0.37916236042821516,0.22883861579275533,-0.0825029489816729
1700843646.9938157,8.02649052625498,-7.624490837184734,7.920135854936688,-0.31151243202247747,0.31955672192967133,-0.0970658091129366
1700843647.0043716,1.7836388247945805,-8.355393121825353,5.547156977875222,-0.19108029633579804,0.3542884295993207,-0.1042780754388873
1700843647.0138764,-3.9394816774062615,-4.271596770764405,6.6068674128311775,-0.1350370702022848,0.2911665740442777,-0.0847465050639216
1700843647.0237863,-1.3322933759433244,-0.46951476101915957,8.746306408559692,-0.12631368350621328,0.25988050658004597,-0.0655039799632136
1700843647.0338268,-4.899383267465416,3.86129613933146,11.767351956383566,-0.15510034406273696,0.17614423403144602,-0.0320040163816515
1700843647.043827,1.4264525792966907,10.837175340104109,17.442863403156284,-0.3103056672110285,0.14763559113626867,-0.0337683548451964
1700843647.053848,9.422054149480179,-1.9543790517299904,12.5793847201365,-0.3379260387217614,0.26980209184487514,-0.0613411654950682
1700843647.0638063,5.570863919959683,-5.415535157161497,8.590665451007228,-0.28339796074581003,0.3519617557358722,-0.0742147517623011
1700843647.0738263,-3.670636634205533,-4.312113702676359,6.626725679378459,-0.22650878771618643,0.31391185119242193,-0.0682953623355929
1700843647.083813,-1.014213570603566,-5.983881968688819,7.689635706820149,-0.16526301645605213,0.27946622127685444,-0.0614254874409739
1700843647.0938623,-1.9308232029608343,-5.906037027425172,6.55940673025364,-0.08344712674639038,0.2602863193449686,-0.0538942096056048
1700843647.103969,-1.7570643515776425,-1.1745617013061216,9.592527043835975,-0.07129898547527241,0.21277709855593002,-0.0372398969949786
1700843647.113975,3.9690233838568694,1.7619846365028615,11.012675162629098,-0.0956616114944002,0.2529625152175466,-0.0168677465291325
1700843647.1238892,2.9519634173618385,2.128432125791421,12.943624121067959,-0.15303843387135868,0.2915387572826664,-0.0155689333797995
1700843647.1338353,1.8007182012319152,-2.072410620559569,11.199178665649532,-0.15376879791421652,0.3190614384882925,-0.0008844518335167
1700843647.1438496,-0.9746038621271309,-9.306940464665589,9.44367186064798,-0.06435704985807636,0.31153512903367797,-0.0052410084055368
1700843647.1537952,-3.3134067635851943,-6.565147341634467,8.071789450126591,0.021669874660733415,0.2677184332185387,-0.0065476451301579
1700843647.163861,-2.242496495073023,-1.9478904253368978,7.906052939779775,0.04507431830541284,0.23121482272441055,0.0086834952934082
1700843647.173869,0.5254256460767912,3.81871053182523,9.114932174542322,0.002488976567944901,0.22788508995508897,0.0354872914730008
1700843647.183839,1.5800677800922776,4.417104509646913,10.841607814386798,-0.06499036184704814,0.24048893887917613,0.0717390748439724
1700843647.1940248,1.2515591115449116,1.6961930476724394,11.404553090505456,-0.11828436781804377,0.2612589449016367,0.0927655967651303
1700843647.2084515,-1.1290061707755805,-9.29738914351269,10.617403291388294,-0.021021980273307657,0.24953365806656985,0.105164242046922
1700843647.2143822,-4.593751916618341,-14.958776116750801,8.55210546172777,0.10559459274095809,0.20950358912952835,0.1051821010886128
1700843647.2239664,-0.9472398241993409,-4.318722751796688,8.154141174269627,0.16564318082466972,0.1896748626800931,0.1185247572837765
1700843647.233893,2.859014030770845,4.071997083856823,7.925951768852786,0.1231941790401237,0.21655997640685395,0.145619903760999
1700843647.243918,4.1887944702272994,7.62240327531153,9.330037747245122,0.021549482306655873,0.26782578086430764,0.1625306653557713
1700843647.2538896,4.317779514280296,6.207496477632285,10.881862007485392,-0.07593295790793449,0.3229850313680698,0.1780364560662205
1700843647.2638328,-0.4207750269885083,-5.179287173911613,11.03382971239711,-0.05173364732778101,0.3454884119856279,0.1755188899813588
1700843647.2738297,-13.159444059871017,-16.36375782534478,12.870348815335731,0.12140033720257574,0.1951533062022841,0.1575099724112446
1700843647.2838936,-6.953696628756775,-8.864362113219903,10.13370003726568,0.24723565858701754,0.06897837808322495,0.1442505615530903
1700843647.2938182,5.860205089725879,3.35856467204377,6.142090063429254,0.2247536988987906,0.14071697131053892,0.1575655984459813
1700843647.30382,7.245241649070035,9.271396208709268,8.644672498365162,0.11977469640787237,0.23113166385285275,0.1751851039706166
1700843647.3138227,7.5609353383714515,12.385643181616793,10.032476977920417,-0.03859442170477524,0.3398426352939533,0.1655672835884984
1700843647.3238325,0.9835763624256547,2.6151253232949987,10.409726507868953,-0.11906866436543144,0.3862050900243207,0.1676956909476216
1700843647.3338046,-12.753160544407416,-17.117537114039695,11.188253095845637,0.05594599504868752,0.2599884275946767,0.174300660449117
1700843647.3437984,-17.45266081876988,-15.478380949334937,12.191273912291754,0.25879403843810445,0.019890811697027614,0.1581587540684636
1700843647.3538182,-1.0291472561180923,-0.43286963915130444,8.118973725912264,0.28613388719906213,-0.026112675358677735,0.1724668490467961
1700843647.363911,6.440778922961711,11.530701937012454,8.592106903362561,0.16162633019119382,0.0621074341009343,0.1873430507956441
1700843647.3739774,6.646767347978213,13.815872121059362,11.457840411485217,-0.025969241891982516,0.1581819272277503,0.1683581220684941
1700843647.383885,1.6052933695506548,2.976349870963079,10.878363123733626,-0.09986390258821821,0.2191658062112751,0.1634404259501393
1700843647.394313,-7.4218897452266654,-14.19517270902112,10.217422475182925,0.061127593045939586,0.12996047663286517,0.1586717265425618
1700843647.404919,-7.379152769992276,-11.969237773065416,8.041985188744086,0.21708958004133766,0.0469951961238243,0.1334891962586339
1700843647.4160209,-5.586908359326694,-4.2444600443550184,8.366912814527405,0.2860325482340534,-0.04440327729839628,0.1465044068871434
1700843647.4244628,3.9350363801372343,6.248700688917822,9.085227755946088,0.24755480856638465,-0.01970431729345297,0.151900758105367
1700843647.4339013,9.794349155009176,17.77396854637722,11.307657454762893,0.043039077542805955,0.09332994715168398,0.1434679674683507
1700843647.4438536,6.266316779180993,10.8822487071464,9.71531714829921,-0.12552524942410492,0.2154307322610135,0.1435605036793645
1700843647.453869,-7.2198501467077785,-10.875503354718564,11.611016993267972,-0.03385079619464952,0.14150849041400276,0.1273984062252934
1700843647.4639077,-10.963041489231378,-17.46152686317072,8.460417723825834,0.16660793763111376,0.0002463428715332568,0.0881717475830014
1700843647.4738584,-5.0309571190721565,-8.83673948898773,6.3725031180149365,0.28346362311200035,-0.06884944371656732,0.0727343606530125
1700843647.4838684,-1.2724258028658868,5.5383146657450455,6.340596819492492,0.25639154093250355,-0.09871716463324265,0.0607130276738102
1700843647.493864,10.574077417885539,23.66343783733714,13.344254716353364,-0.02943284519214527,-0.001253587447791305,0.0369840013562138
1700843647.503847,11.077485390572786,19.62291924580897,9.754247358890789,-0.28071438672116583,0.1969508242120219,0.0138284592656786
1700843647.513852,-2.9142667001309026,-3.7035085011375983,12.979987693324677,-0.3089681809443012,0.18591079183386633,-0.0040996763156358
1700843647.523854,-15.124616670722496,-25.452838297221504,10.535314448379925,-0.021201792007549097,0.020485368230000956,-0.0230002337367837
1700843647.533877,-15.700086976955275,-15.1061243626857,10.7956942396489,0.2230381639007753,-0.22089213453853143,-0.0166754656703774
1700843647.54382,-1.5601404642360348,11.384756562897836,9.283908568453937,0.10102716766496896,-0.2750653616051882,-0.0715040144743029
1700843647.553832,14.461149108977327,18.80953788123398,11.093042252121712,-0.1202240745667621,-0.11488564078991488,-0.0565730137051646
1700843647.5638978,3.16658914739242,12.933203883917047,10.540849282700448,-0.3348407859914579,-0.04357432294072002,-0.1001474661053721
1700843647.5739222,0.9228838659972648,-4.881005767197279,11.486111651242137,-0.31864226986341304,-0.04366324361412087,-0.132594789308459
1700843647.5838895,-6.488911238449035,-18.968973413051028,8.562763664576725,-0.11172935464426495,-0.11490807429833197,-0.1318217170657221
1700843647.5939794,-2.962140797153524,-17.532930014156115,7.19763455030864,0.12827920615713864,-0.1815390302244533,-0.1043304306687419
1700843647.6039915,5.367289648913879,-0.5808294724812494,7.033532618686085,0.17036665871104015,-0.14295812837939642,-0.1053728339494769
1700843647.6141105,18.34053476057574,14.566499154858786,9.776621241229805,0.006044834551860606,0.06804152790622572,-0.0560812455834452
1700843647.6239042,12.45758336290206,10.855780858472414,8.764754114553899,-0.16116708676176794,0.2559440935501078,-0.0452576120616499
1700843647.6339133,-0.25463542028269304,-6.456428878533663,10.255880454510674,-0.13796240874123453,0.2863718792489128,-0.0325548266293112
1700843647.6438425,-11.81794244029554,-22.23042137965804,12.397104414251528,0.10400355043980729,0.15077363829403617,-0.0051130083622042
1700843647.6538603,-12.37240094784702,-10.930589799790067,10.615133250454326,0.2980384923710603,-0.029085835208854924,-0.000137286365461
1700843647.6638274,0.6902524022797015,6.596042752629358,10.100503286336135,0.21815344716683643,-0.05921719722815181,0.0128008854342992
1700843647.6738763,9.877292467636218,13.77214160055671,7.887039835852826,0.06820114688154531,0.058855402639024376,0.0655930313049252
1700843647.6839044,7.182038606408435,11.078983989561813,8.880503438614657,-0.09205718750333992,0.1614336024624747,0.0923123928485806
1700843647.693859,-1.7588969248847757,0.0006635607611118341,8.773297752187037,-0.1183109345734517,0.15661334987628028,0.099938933807462
1700843647.7038798,-8.363047802728962,-18.884659519703906,9.541775916469009,0.08545691846624304,0.07161101377409594,0.1197905662237103
1700843647.7139084,-14.204842045719626,-15.081855840792501,10.429113779508361,0.30127819225325503,-0.11095265719969573,0.1050177859841282
1700843647.7239027,1.4053794518944949,4.607104384731827,11.648024790124401,0.26798614211523386,-0.13529581146071779,0.0990073951660092
1700843647.7338722,10.554063848042432,17.72461925898531,11.168135839737165,0.0746977820652858,0.017823133517424827,0.0875316011486943
1700843647.743872,5.912660135798726,11.721569782643368,12.403735898718383,-0.11429432717845175,0.11472522784317779,0.0724181580124791
1700843647.753888,-0.3422415587841755,-2.835950263714614,9.507307317688902,-0.09434645795676737,0.13526279129097166,0.0597080635605748
1700843647.763896,-8.19303162951683,-14.387842042783275,9.167636875493512,0.05896496252839119,0.0523393909125306,0.0592823485611374
1700843647.7739515,-12.600677233028396,-10.718652492772092,7.528248700906554,0.22838711618315896,-0.10920745526032785,0.0557924295543129
1700843647.7839148,1.7770683311156963,4.867076447104711,8.482354951354907,0.19156312194382605,-0.13491882116276285,0.0544861639617379
1700843647.793944,13.52926426770404,19.500897668738283,9.810748260659874,-0.01615993454523386,0.05304531288736579,0.0523949648021157
1700843647.8038812,5.918494779411412,15.351143570680936,11.831198116979971,-0.24232374573471283,0.16716173162024658,-0.0026550534413759
1700843647.8138905,-1.5656397073994,-10.060046501039151,10.751719000020568,-0.1771217517313499,0.20788466221763183,-0.0122357615502182
1700843647.8239362,-19.48878711122454,-25.493224577119047,12.460422550349755,0.12545167618270295,-0.016868045084337112,-0.0376603407086436
1700843647.8338487,-11.487232258491849,-8.277810533017185,9.857688490595173,0.2862270135748364,-0.19236035589541564,-0.0757416215957705
1700843647.8440433,4.570522328479798,10.915686521709326,8.90210168143427,0.15440704296667382,-0.15035664196592494,-0.1129638505400721
1700843647.8538938,10.15802014001839,16.948588099095467,8.993269247797553,-0.028921788658015278,-0.01205464112375633,-0.1156101775588099
1700843647.863878,2.6423132503705546,5.267426908463437,8.538560538783349,-0.14669881619595884,0.04142341676514839,-0.1406943601788584
1700843647.8741355,-1.8715848486490794,-4.2802287135709465,7.047500814199235,-0.09150163064311635,0.022227285751471308,-0.1482576829613749
1700843647.8838584,-5.444850315923841,-12.602261082652815,9.02400303635833,0.05335683736229265,-0.03521107781112754,-0.149703855556399
1700843647.89395,-8.14730034843656,-3.380509352680047,9.987261458315444,0.13287841075066034,-0.1556829999535536,-0.1447396082104746
1700843647.9038954,2.7606380155459593,8.400625564939538,11.169612964482367,0.048733466084979034,-0.14221801244427001,-0.1521603864850108
1700843647.9140766,3.191494510952452,13.839257419695057,11.520476362911845,-0.12055347855979123,-0.08159841451012265,-0.1665579480351512
1700843647.923887,1.9168432062207905,5.254417451089738,12.97862685231522,-0.23194717804550033,-0.06683411805174867,-0.1740861636818949
1700843647.9338577,-4.0338496691865995,-5.860232411295452,9.867077688296032,-0.16438123765033444,-0.0977472693741345,-0.1905250800074641
1700843647.9443667,-6.944396484065517,-7.810569299031881,10.89186693887567,-0.06336129126183866,-0.21479308928931834,-0.1972702396334712
1700843647.9538624,-2.758987255736582,0.4804075667128033,6.253800926814609,-0.041535192700613704,-0.2551121313942639,-0.1940160197438304
1700843647.9639602,3.7131951370647323,6.060200665084487,8.04906816639602,-0.12140542473028844,-0.23523948421665744,-0.1831914288224284
1700843647.9739292,5.062591837069821,8.659364754867596,7.549209578977549,-0.21850954996849725,-0.16766048738291667,-0.1683377874316279
1700843647.9838812,1.270753990420938,0.7216782946614232,10.707885367157452,-0.28863010867137495,-0.1449875732209577,-0.1595359844388072
1700843647.9938965,-4.594317048137519,-5.605345723854967,11.62016513737711,-0.21090862592049475,-0.19224620599138303,-0.1181834143818919
1700843648.0038736,-6.588899101577503,-1.479347118547713,13.710342174962234,-0.19544985450533614,-0.3022449126769456,-0.0847010714234416
1700843648.013881,-0.7055713437425373,3.238128330740523,11.40243580577156,-0.22795529941684323,-0.32761663985379075,-0.0356213663937155
1700843648.0239046,1.1821543907581002,5.435475904608413,12.746872116112183,-0.3096142221319858,-0.3358216445126928,0.0065500899916882
1700843648.0338793,1.7434720238142876,0.47908449277183257,10.630199401734183,-0.3324163142526233,-0.32178838745412425,0.0359625342069561
1700843648.0438716,0.7409469342399282,-5.452938353691891,10.122496406832306,-0.2846268452822361,-0.3272564801591579,0.0566469589947159
1700843648.053887,1.928345645033665,-6.7692398449063855,7.8173777511812865,-0.19659302801921272,-0.3242807528839986,0.0616067322669919
1700843648.0639043,5.574295953131894,-5.255042119023892,6.320925422204825,-0.14203328018886055,-0.27204005758658883,0.0653543892084057
1700843648.073898,6.4370575398243925,-3.321671849811691,5.915110567359397,-0.09966503484934106,-0.2008044076294029,0.0742404433666165
1700843648.0838666,5.895635046530402,-0.66171809334593,7.570650691494522,-0.10230952036267453,-0.13668321301214995,0.070375089603513
1700843648.093924,4.468667672533577,-2.413919778461703,8.094176781206611,-0.09976267565795284,-0.07690604328454595,0.069086586195081
1700843648.1038764,-0.8539702715404355,-4.9429678616850135,10.255726541830178,-0.05997474512260871,-0.08992904594768764,0.0545172999380524
1700843648.11387,-1.2131591968143334,-5.385398472302092,10.847565984200013,-0.01536638002298001,-0.11916725591315766,0.0457136529265339
1700843648.12391,-0.8158724397577957,-1.5923619562144633,10.123770821520269,-0.003589622630328588,-0.1402124847939076,0.0487749139545853
1700843648.1339104,-0.20656777755598985,-0.23614084682288403,10.399197711238939,-0.026975252240960798,-0.1593074014431199,0.0482876087306435
1700843648.1440415,1.0682389598506494,-0.6271103816622089,8.897312107115878,-0.03093265100122419,-0.15630202654555747,0.0680469172774251
1700843648.1539,0.18813195317644632,-4.124545663307186,8.762315663285039,0.0007421843707089118,-0.16632899346555782,0.0805108519969876
1700843648.1638925,0.8083774313927914,-4.235505588695897,8.512681998495497,0.04180286426054655,-0.16571723654383072,0.0815481888829167
1700843648.1739278,1.6977612800082151,-3.4651528969915706,8.853726506534127,0.07905573183453121,-0.1565843650058722,0.0911286073504384
1700843648.1839652,1.0685265162088808,-3.1426206988468426,8.758371646056755,0.10068458203427524,-0.14853473013715351,0.0960294428049023
1700843648.1938748,1.0474272968044376,-3.330805620497528,8.758723626239435,0.12933177050021705,-0.14446203265452295,0.1051809313474591
1700843648.2039003,0.9502859393565198,-3.1477854339520235,8.476673794773356,0.15681513754483697,-0.14188595128586762,0.1162431734381611
1700843648.2138777,1.5942950111792606,-3.7297695996079785,8.468481228852024,0.1923740326258829,-0.13657357806035997,0.1255432712613041
1700843648.2238927,3.7165850013793484,-2.412602538625168,7.611374959488363,0.21434070973677366,-0.10145868754722445,0.1396553265629704
1700843648.2338748,3.651419417697422,-2.415243831395162,7.767012877650426,0.23853104086662594,-0.06575496429826576,0.1491290527163441
1700843648.2438724,3.2397012650619073,-2.5130761606499425,8.106024930773835,0.26153662228173735,-0.0345016138194462,0.1615719991503651
1700843648.2539845,1.2248389000123627,-2.827992983781289,8.655480384016673,0.29103069491807254,-0.0216385365620261,0.1677201735554631
1700843648.2638876,-1.0788387502226544,-2.9789824458214444,10.239053986987521,0.3163825225082257,-0.04606524247925956,0.1587712961016591
1700843648.2739863,-0.3716301615932742,0.23228959626406487,10.779678016400412,0.30647513682416294,-0.06067409153241463,0.1431973921833928
1700843648.2838745,0.5323281326459568,3.094035633010225,11.98240007949805,0.2593455923718544,-0.05961265042085872,0.1249952587066586
1700843648.2938762,-0.05433362594730822,3.6644853015873124,12.457448299221952,0.19339047737121504,-0.06049615137309191,0.0989249619422848
1700843648.3039012,-1.1110468729058,2.135782952168628,12.593642848593372,0.152996669490716,-0.07420079690707336,0.068682593363374
1700843648.3138747,-1.2008138863878133,0.2773521975854391,11.652637866931364,0.13873001742255392,-0.09209520710899569,0.0341044711647923
1700843648.3239567,0.8017448749952791,0.29464546431276284,10.316805203950617,0.13514157120292955,-0.0833950246565894,0.0158375548897679
1700843648.3338966,2.1787898434840227,0.08051473394289448,9.701892120596613,0.13355852648741087,-0.05906588062431825,0.0070181829622383
1700843648.3438838,1.3184415720159577,-0.24154689961214965,8.838853825822492,0.14279343348311638,-0.037264511068251654,-0.0020908810430769
1700843648.3539658,1.391690735587964,0.8919230901020591,8.92883915229703,0.1335791957826329,-0.020279372426385663,-0.0068692438536886
1700843648.3638935,1.537322746264703,1.9359783264297254,8.936503048908264,0.11396156826624948,0.00048100227999627927,-0.008649606187791
1700843648.373936,0.3258087528348713,2.446283559147317,9.814833231225213,0.08308737846335353,0.010614602637101218,-0.0115060386480395
1700843648.3839316,-2.9541714940162027,1.5548439113147632,10.38141091799987,0.06319356270072579,-0.01815654978749504,-0.0122006059856717
1700843648.3939164,-4.334998103579481,0.46344169787316397,10.658615781386912,0.056345694366425156,-0.07338621318154841,-0.0135416639269892
1700843648.4139132,-1.806130074356586,-0.03243587529903711,11.042764231741229,0.04466731173964331,-0.13941609829024193,-0.0071937501662973
1700843648.4239345,2.1817827403270864,-0.8840153746563493,9.945375493022015,0.05893649103466846,-0.1136562293547027,0.0008244454628224
1700843648.4339654,3.2612323803249486,-1.1335400383318244,9.84689423035435,0.07348296661957009,-0.06986510527252567,0.0004530157383128
1700843648.443905,2.707804467854904,0.46375194546136184,9.758720917225865,0.07332039171026648,-0.03495102565024197,0.0093159052310879
1700843648.453925,0.3614129054043434,1.9807049344689898,10.379518846116106,0.04631705539787214,-0.025269229870411008,0.0059145931853349
1700843648.4639325,-1.4801719678142815,1.4409202026427133,10.579229379271109,0.024264013667991947,-0.04729181323879539,0.0029800211312617
1700843648.473926,-1.8149985168316234,1.2159614691920542,10.02352685946641,0.009777332904277054,-0.0771145774832685,0.0034987033112342
1700843648.4839003,-1.0752683944519026,1.5267955832617293,9.806519326321258,-0.01099819139619521,-0.10506669271650265,0.0044687400339539
1700843648.4938903,0.7570294123435777,-0.9947702004279498,9.5034013224801,-0.0033218343647526713,-0.10738328137160963,0.0051897476194794
1700843648.503903,1.4776740423532941,-1.1798700247343175,9.301095450241595,0.013081390183216213,-0.09939722127263047,0.0001573629677663
1700843648.5139475,2.413010075234694,-0.3645757210762934,9.497189990171895,0.013531574599860652,-0.07687800413651731,-0.0033948288065944
1700843648.5239265,2.2679101256328145,-0.3922868493944354,9.899269476599011,0.015415147212634803,-0.05641412271199631,-0.0095869488315288
1700843648.5339012,2.2308219511506766,0.08159195825949721,10.015566409217083,0.014979540517163022,-0.03496029997357996,-0.0087395337642733
1700843648.5438998,1.2553841364815426,0.7721034991399202,10.266231986735876,0.0034185355971102943,-0.021970979125796087,-0.0033772682537887
1700843648.5539224,0.5219801764196418,0.7787951367728605,10.377763663171732,-0.005743535932109726,-0.023411569471305554,0.0118337395368512
1700843648.5639677,1.1468757713614508,0.09620790392938189,10.221436882450943,-0.00627903512608269,-0.019417113468599687,0.0345873134909565
1700843648.5739264,1.4897256343556209,-0.584000734703881,10.390527299993282,-0.0011367678329960273,-0.012582119722714417,0.0537685836432869
1700843648.5838945,1.751845544671185,-2.268172835150116,9.631221335777902,0.028990619393191447,0.001052954616275332,0.0612918148516114
1700843648.5938983,0.9718489678464094,-0.3201240966018469,9.712434048160214,0.03514893729652156,0.011056122562865884,0.0629164735554154
1700843648.6039128,0.3559941488404565,0.25949211842865816,10.09134779107311,0.029272531258694428,0.008577452472914275,0.0588545697508748
1700843648.6139288,1.4347983721779456,-0.4430481101056709,10.186563547301482,0.026623463056759403,0.020974674183573277,0.0476524914382393
1700843648.6239269,1.7226208466452977,-0.9725511927421514,9.890191474330525,0.035168620508149104,0.036786374881117745,0.0447436171351368
1700843648.643951,0.5568533478452723,1.8689299246170288,9.277411067430533,-0.006745917438372127,0.05308060146627092,0.0521686459659035
1700843648.6539805,0.8643183796794689,1.058652703704567,10.410225646960786,-0.03083428306547361,0.05085039250844771,0.0722853514133389
1700843648.6639235,1.2779124853660826,-1.7022987170827877,9.462372079215436,-0.009115014894738526,0.056247736408583444,0.0838870080886776
1700843648.6739457,1.0259126266378666,0.8552587005897542,9.667119862651496,-0.012989527949106608,0.06527253617320454,0.0831075730501111
1700843648.6839192,-0.6151675711345319,2.10096364367705,10.766371715765109,-0.03473521842335565,0.05205998764217051,0.0802436369238789
1700843648.6939218,-1.47125848318603,3.556120303969354,11.191131518886534,-0.08156186078629812,0.0241168352462841,0.0612867521820958
1700843648.7039263,1.1660699108846846,0.501366859847389,10.857115123488096,-0.09654207510598423,0.02223827502109587,0.0474303337512906
1700843648.7139618,1.8405978909332121,-1.6613007777447197,9.962910394545034,-0.07613484169222288,0.03486311820292641,0.0206022607861454
1700843648.723934,2.5134247726009917,-1.0492092277990988,9.129083397026582,-0.05265989132360912,0.05731552747646586,-0.0061322142602507
1700843648.733962,1.8085500110578592,1.8019606813319302,9.229605462333984,-0.07781344624079801,0.07554362280936304,-0.023090842110068
1700843648.7439177,1.679943224313622,0.32890265464211244,8.336905428988489,-0.08816895993825974,0.08542893625914369,-0.0395458926679198
1700843648.7539325,2.4956819842287623,-0.47232444241823107,7.080132083723783,-0.0868792335692267,0.11591255060971434,-0.037600583326966
1700843648.76393,0.9915066249570768,0.33928091977980035,7.885113898059009,-0.08438321991485799,0.12916016637164612,-0.0280817476333682
1700843648.7739394,-1.021348391658785,1.1819459199993638,10.2412340872919,-0.10927455520342748,0.11363143632731641,-0.0225715161533658
1700843648.7839751,-0.2386553001900353,-1.510631776750996,10.700285368989032,-0.09515523532524854,0.09668689401403817,-0.007591625605673
1700843648.8045883,-1.444905944139038,-1.0410625296897207,10.9408285295609,-0.07084516414891356,0.08118595853581494,-0.0021433356916163
1700843648.8078864,-12.518370122297137,0.5807327546478223,16.476777991428595,-0.0744147347859376,0.010040263673750247,-0.0061882645124201
1700843648.814311,-7.796385292616755,1.9182085585489477,14.291231037727611,-0.1042377263010784,-0.05969461048351167,-0.014374641631693
1700843648.8242855,-3.8024048255370357,-3.487709670646625,11.945701530237011,-0.07745796122810755,-0.11647954922258803,-0.0313553651095931
1700843648.834564,0.4286845375918618,-4.628781700173613,9.166056124360697,-0.026821371292493658,-0.1082102091643905,-0.0325826508225504
1700843648.84435,-0.8421852396028062,-3.6085913496277136,9.254123320770928,0.012452956616832956,-0.11434707367833663,-0.0394112271489207
1700843648.8541124,0.6918214999529888,-2.2425633668389238,9.0471962339339,0.025919605711196617,-0.10920951244448894,-0.0342675362946097
1700843648.8642735,0.15109763480609623,-0.3888524130331035,9.04463306434464,0.023550837087114605,-0.10010435789779204,-0.0168177400948111
1700843648.8752172,-0.33448697028290386,-0.7795075919436479,9.730267728835896,0.021641452230390778,-0.10979849964372285,-0.0025798980379108
1700843648.8841977,3.1760487604066165,-4.581483725925655,8.461467698114669,0.061033680826901464,-0.0857167179144123,0.0175709585426743
1700843648.8939524,1.6499054028132645,-0.650020353104758,7.498757734312845,0.08106095140040306,-0.04712271688269493,0.0231849542586501
1700843648.9039822,-2.692426825263354,1.9035280640959122,10.534423199475714,0.044776987023175376,-0.09271606743378238,0.0221159468172486
1700843648.913933,1.9194298992418175,-1.3277140465341837,8.011672476950872,0.05866313167109618,-0.07526687513572206,0.0124765132321413
1700843648.9240203,-0.3315213775553223,-1.382310642295781,9.6067886280588,0.06285056576350814,-0.08197745295605062,0.0005224055429066
1700843648.933997,2.2711983235079996,-1.6773774751303272,8.708897703032509,0.09291108269573105,-0.07154708934326197,-0.0043973856838051
1700843648.9539769,1.7146667864040224,0.4307515061418806,9.848825161781061,0.08674077407331177,-0.04121130313173665,-0.0220403102459017
1700843648.963967,2.3029032012501687,1.4882364939440136,9.713128715366711,0.0635588627298819,-0.011810929370586967,-0.0219753784359995
1700843648.9740367,-0.635580536326134,1.618800960756514,10.519253710680115,0.04619747470087393,-0.03692284162425635,-0.0141112775774304
1700843648.984517,2.1752520349029134,1.2871806645993569,9.523516522297506,0.028029109474652713,-0.015297293736966939,-0.003715197951496
1700843648.994059,-0.39039748666315793,1.9192809930201298,10.410235872440499,0.006604894633814302,-0.03038154553885728,0.0001948266115873
1700843649.0039546,1.2347974677027802,0.8981997527328515,10.153797784151802,-0.004917802389672027,-0.0320593947117375,0.0130188950105007
1700843649.0139654,2.471517962125768,-0.3249200362861532,9.496275448710342,-0.004042237179046489,-0.017489448617528994,0.0108911349205668
1700843649.023975,2.1613307610999484,-1.0733578241791908,8.360869513864948,0.011757106523846629,0.009315488447773069,0.0076052803313727
1700843649.0339756,1.8478879610080845,-1.3251165075801237,9.245698145618066,0.019822198667257464,0.009052697137919938,0.0007218380167982
1700843649.043998,5.301480961233853,-2.311385741503082,7.467207420224556,0.05004857470462941,0.07147598980026555,-0.0030779013642673
1700843649.053958,1.452243761001259,-0.1936168752484513,9.41319627460166,0.04960107793139483,0.0813036024433937,-0.0061055951984231
1700843649.0643122,5.479849277184643,3.6770113100444983,8.272386068289363,0.013021994288937482,0.13113754071465744,-0.0106922517763082
1700843649.073998,5.277105732730786,4.089796573920057,8.748869923940457,-0.053103890346796086,0.20202661468794236,-0.0081443133996431
1700843649.08417,1.3535245413720385,0.35738852915273495,9.667411556516004,-0.061139542333080506,0.19908577469719613,-0.0050603178562228
1700843649.093975,2.151181924312309,-2.427131462406756,8.997484736029667,-0.040043650563825056,0.21406955920511467,-0.0127544700400535
1700843649.1040156,3.0157105743403223,-1.8816739964139453,8.773086419881274,-0.022958695593380714,0.2341754582184436,-0.0110558289335672
1700843649.1148968,1.0448969928908372,-3.6895737369523713,9.117411617706725,0.017792744635829222,0.24057633034456688,-0.0164104392053191
1700843649.1239595,-2.2611680492329747,-4.77439337372963,10.450915310874418,0.06405675654062085,0.19827496220722704,-0.0207911254139248
1700843649.1340652,-2.6115952151704187,-1.5875092296076492,11.17757052616197,0.09292106474040254,0.1537250222786962,-0.0045671676518027
1700843649.143953,-1.7872207003684626,1.1802988835131625,12.42551928164049,0.07210752106912353,0.11032634089923567,0.0005510171657447
1700843649.1614432,-0.4511168913378945,0.840003816122306,11.427728065366544,0.06898973431847061,0.09700099158000526,0.0153303258819873
1700843649.1639974,4.995270197018825,21.51630827809693,14.783604153045285,-0.02923482260313405,0.11065719813169714,0.0071582231438155
1700843649.173977,3.652078211012363,0.7316824278942144,8.69640944488119,-0.06130189139073765,0.1924080274935987,-0.001621457678229
1700843649.1844437,-5.2974569484783975,-3.6392890812158845,10.710957297410733,-0.01980256395817017,0.11886917858919481,-0.0021470067323748
1700843649.195853,-2.7843632122382327,-1.324550023848398,9.169413098112992,0.01693007380697773,0.07763962568417511,-0.0109460986451808
1700843649.2041276,-1.844685751137278,4.314039669510466,10.115532398522403,-0.022446043372893774,0.04881912572634539,0.010567994858175
1700843649.213953,1.5278523150115233,3.271256283361352,8.917044566449297,-0.0675562783361676,0.07337641769305767,0.0227621896891291
1700843649.2239602,-2.181264039415269,-0.48027324775266805,9.62447205637733,-0.06630407992319953,0.039049051832455745,0.0210972196190054
1700843649.233947,1.616669827646027,-0.2330366475112089,9.186167623941529,-0.05356939030222452,0.05138145426723336,0.0346002737759049
1700843649.2439864,1.4462295328350434,0.573457535660953,10.481457303485746,-0.057510618170643596,0.07426458335959778,0.0273475787369902
1700843649.2539964,1.9520512542663493,-0.38522176480194503,10.465842170642006,-0.05233810962403002,0.10277662792533405,0.0162937781541045
1700843649.2640045,-0.4063242169164847,0.9840416134566502,10.267239575018976,-0.06051065616268638,0.09892550543631282,0.0028824299341435
1700843649.2740395,-0.5742077594452225,-0.5007526292501601,9.32420440535509,-0.05969746439279737,0.1080456440936272,0.006264706677794
1700843649.2839797,-5.874054419553656,0.776643201699446,11.47785629763022,-0.0651266399946015,0.026941889426531692,0.0149407042889292
1700843649.2940488,-2.3323661182122626,-0.7137797096287245,9.682814239625767,-0.06291617899964817,0.0015246475049810377,0.011949997465163
1700843649.304062,-5.540102643083537,-1.820020014313825,11.58826102983256,-0.05288929358281984,-0.06243434700926675,0.0248236945597823
1700843649.3139956,-2.8215191220789815,-0.3310194061404119,10.949879157024707,-0.05106998236099719,-0.11106073898678025,0.0226235306589301
1700843649.3239827,0.09399829773696974,1.524486585996681,9.747339957034718,-0.0757302694692034,-0.10486271858052791,0.0250711786328251
1700843649.3339727,1.2668322619095644,-0.16878776730350856,9.457692646694474,-0.08672837154040565,-0.09286721614634189,0.0239574006526167
1700843649.3439732,1.8299495124333087,-1.480128887555441,8.935335218402495,-0.07288342466294764,-0.06286421288425613,0.0208644131897385
1700843649.3540187,1.8711063006963564,-1.9065890674405563,8.910588961377131,-0.04760848217749403,-0.045612684070557484,0.0200515492586787
1700843649.3641276,2.9355824334836584,-0.8612444234509422,8.511559920346446,-0.03743785703762482,-0.001246541232036209,0.0159302121727164
1700843649.3740022,1.3683214056271,-0.15502953413159995,9.282472458907398,-0.03696251520223554,0.010542669093230742,0.0151384222088749
1700843649.3840263,2.2346533073275308,0.9884100216473991,8.968896444957391,-0.04871444279105114,0.042889436946900124,0.0159880771069224
1700843649.393978,0.20596069474430176,0.34703699281656447,10.4526317018961,-0.06505095256075455,0.039308819650254435,0.0080064517213399
1700843649.40406,1.603170542541213,1.8754514679263699,9.600915651607007,-0.08540859724727659,0.05564211467856509,0.0095222751377518
1700843649.4140348,0.2670682579750371,0.3989797516849255,10.42836553376949,-0.10668777826967026,0.05657011743266478,0.0062725200085337
1700843649.424019,-1.3904438263877208,-2.285503487128557,9.50196960015849,-0.08423462747089293,0.04004197665590598,0.0031946809729929
1700843649.433967,-2.9666883114540212,-4.103146025603931,10.230333648975476,-0.042144588743752695,-0.004515027648947432,0.0001346135221324
1700843649.4439783,-2.7119641032712494,-2.2748435063290176,9.977436630944084,-0.013043685556875474,-0.04447887847852137,0.0043771304889018
1700843649.4539795,-1.9665025322000045,-1.2263553726595273,10.296446776533806,-0.005879790356395117,-0.07673256815900065,0.0124212904600794
1700843649.464007,0.5093692758205395,0.6644769688790096,10.582926546085824,-0.013448519636103353,-0.08228412015421925,0.0229542880086596
1700843649.4740467,3.6808066715161223,3.8378317028395617,11.66037735521012,-0.06366091207715602,-0.039519883998805266,0.0223613763926918
1700843649.4839816,3.618120040410548,0.9367814138406929,10.533618168508388,-0.0886760797949144,0.010953682843660507,0.0259318957804139
1700843649.4939764,0.3121484682451229,-2.9479115300418157,9.418700088254282,-0.06525149823423736,0.02466550575484243,0.0249503488419945
1700843649.5040033,-2.0802534649874387,-2.8599486402543532,9.205097215808395,-0.027850416235565004,-0.005519305165142895,0.0348616997478898
1700843649.513977,-1.0735177121545207,0.49905384926899166,9.138982464916834,-0.030123685061048285,-0.02313254845557476,0.0492749075172837
1700843649.5239737,-0.7714400060950719,1.3858971896759975,9.967127358574468,-0.05133745534376259,-0.04194536545900159,0.0577313276706631
1700843649.534027,0.0031877862777086644,0.761813209644643,9.60445149779158,-0.068029207545122,-0.04318976101988386,0.0631805705605443
1700843649.5440848,-1.1516710326393298,-1.9458115229185213,9.359389689957014,-0.044847120136018215,-0.0589196446571867,0.0642305659829075
1700843649.554058,-0.9096635496827933,-2.2488917186461697,9.238438707828148,-0.020815073124751917,-0.07576333940951553,0.0671854736982281
1700843649.5640516,-0.04972875217396586,-1.750422595176771,9.69275714688218,0.004910554263368538,-0.0840374463709708,0.0719768601237233
1700843649.5740423,2.7456054041490927,2.4961942651548483,10.89963123269128,-0.021400142778086145,-0.05970423288351406,0.0721829357324536
1700843649.5840003,5.66872811721132,4.862158002232987,11.210730853642056,-0.08384899695133503,0.013502740440651048,0.074000951903909
1700843649.594011,2.6548669480072924,1.2049206215192374,10.68795827945492,-0.11607125349415212,0.06141450101510095,0.0710162642179425
1700843649.6040046,-0.968517111681811,-3.579623646131803,9.834444276395963,-0.08562755999932285,0.0603678050286262,0.0681923749624188
1700843649.6140382,-3.1745428672418283,-3.9024913063457403,9.340375206189314,-0.04328620172560535,0.019914185371377523,0.0832061740337307
1700843649.6240077,-1.0199596882951194,-0.9081645355420733,9.231105118475229,-0.032039552149353064,-0.00045238026063405986,0.0984282913385327
1700843649.6340003,-0.49827037549287234,1.5477737841115464,9.085359804713642,-0.055055293417660724,-0.007468191263536278,0.1222498613177235
1700843649.6440809,-0.6741407814131185,0.6061860667660952,10.003340877546558,-0.07626343332982374,-0.02051263510907421,0.1390957432566578
1700843649.6539996,-0.5195034705015472,-0.4818446140801948,10.20897060707566,-0.07949953328979527,-0.028980187566596552,0.1527399318991597
1700843649.6640294,-0.9768376727107296,-2.4625246315150617,9.918447239848964,-0.056972349163337474,-0.041535486720157076,0.1593733179150517
1700843649.674007,-0.9716950494719191,-3.607207063370208,9.2167192647963,-0.01950640768245294,-0.053588895612469704,0.161608581501096
1700843649.6840186,-0.5073180162110033,-4.861873212401294,7.627344762700681,0.03424980065677603,-0.06453671060050827,0.1696414845763142
1700843649.6940048,1.8982932707544928,-2.346642188768633,7.237746195104927,0.06583500881492005,-0.04594213455941781,0.1823557215510304
1700843649.7040122,3.1707522615182007,0.13270507381606508,9.105944385046662,0.067140019635437,-0.011090670378713217,0.1811482655583317
1700843649.714064,2.96588882731996,0.5807682755581666,9.299741261541406,0.04971095281336459,0.03593894345521193,0.1700494783698018
1700843649.724051,1.0387673799502661,-0.8643145132774486,10.388800868923164,0.053090807576569546,0.05298952416369367,0.1586155789671834
1700843649.734002,-0.8749360726200305,-0.19014973758360776,11.206421853672364,0.04903649798522474,0.047997248150942445,0.1417374360142644
1700843649.743997,-0.7640844504164388,0.6861111391710841,11.898194289797033,0.03323889568457528,0.04459604971569124,0.1276294040261204
1700843649.7540057,-3.0551283984656172,-0.2568128458655937,12.1442094293329,0.026890989700788886,0.011657647488542047,0.1054326566635067
1700843649.7640622,-3.4538593096324175,-1.5542754528538123,11.185723500185183,0.034238987634866894,-0.028599837222903268,0.0925715687452252
1700843649.774017,-2.405364978798599,0.4362018491989767,10.630644921981814,0.02754133552315293,-0.06608489944542434,0.0909431027947361
1700843649.784031,-0.1057088167260698,-0.1382828113803822,8.883069020593501,0.02768896047422796,-0.07559057329669504,0.1023520800052578
1700843649.7940776,0.8194196977874131,-1.4440527757842139,7.5139931252432905,0.0389147555372855,-0.06915622955509437,0.1101739081321652
1700843649.8040104,0.47058458248005103,-4.1377412537568405,7.629280493498102,0.08111988950987375,-0.06548291427045991,0.118177224951833
1700843649.814027,-0.048528028016854456,-7.141257390408465,7.7063087775495935,0.15773009766426122,-0.07413089044991673,0.1273780512391026
1700843649.8240354,0.7791074940340948,-6.058162839777123,8.580236993873465,0.23461780216616768,-0.07134939213522795,0.1442492651520665
1700843649.8340323,2.1355414632335883,0.533822018063393,10.054234054547509,0.23276953392638675,-0.059096775687057936,0.1565043675480778
1700843649.8440316,3.4985313726089253,2.6728698688906043,9.533090355467811,0.18953039954376766,-0.013113069272181008,0.1669171201764042
1700843649.854009,-1.2351052607595527,0.253105029578565,8.838204374064382,0.16647826392259804,-0.02639756407622858,0.168528382736295
1700843649.863994,-1.9535711645014728,-2.7328568692443627,8.428024635263153,0.18799723181142228,-0.057223513058504163,0.1698461967287953
1700843649.8740258,-2.77792088707452,-1.433584845680363,8.756227626772223,0.20698777760762824,-0.09627979358478887,0.1727650361834462
1700843649.886232,-0.13784441671877853,0.5093645516729725,10.49802457183104,0.19291207417931677,-0.11611885696988009,0.1685007559834416
1700843649.8940446,3.1774213955946697,1.3212776245943714,11.58222488417631,0.1729944431389641,-0.08471328954606393,0.1584526198683674
1700843649.9041867,2.2409386597163197,1.4073067849238587,12.275199610454523,0.15224222780159527,-0.058900256792833165,0.1346594291506703
1700843649.9140842,1.4075577237798864,-0.17572598894108232,11.20267356348303,0.14010263974138282,-0.03102423041282959,0.1022630679188664
1700843649.9240422,-1.3204966258781021,-0.4885322165290565,10.916449575842194,0.14627449703459386,-0.044117918393041376,0.0755540999351437
1700843649.9340508,-1.7007733639460314,1.7486145007409086,9.797233896732658,0.11888214243301612,-0.0677052030477116,0.0467255088268216
1700843649.944302,-0.8432992560866556,0.48380462058643525,9.633880383240127,0.09396328012604732,-0.07870261670589189,0.0271098847268517
1700843649.954388,-1.408239523975346,-0.5224859958984166,9.613544461054435,0.10140315981768588,-0.10326694512481009,0.0166052440880234
1700843649.9647982,-0.5980766299278153,1.811351799340408,9.923325383039096,0.0764929541397539,-0.11952347773424654,-0.0043066692771021
1700843649.9742374,0.6492355250948062,2.5897871747728383,9.666387813348049,0.049771267537423676,-0.11372808472298138,-0.0074830343247954
1700843649.9841516,0.39678608941789634,0.08826687036276334,10.664440133508412,0.04250165573614994,-0.1199629286710112,-0.0252467924030129
1700843649.9941723,1.1862579873443644,0.21971161857076224,9.421891285645502,0.04165294347923652,-0.10667995387851623,-0.0352496643783156
1700843650.0040543,2.8502127910262405,0.6622613324174624,10.15790746972073,0.039176052630959426,-0.0837627642964934,-0.0361385335446898
1700843650.0141623,-0.6085027841639976,4.89560609144691,8.27286625846169,0.0005570670902187635,-0.08181914440814572,-0.0343769704224173
1700843650.024222,-1.518271367597216,4.898282519323283,10.117255587956144,-0.08110021258645442,-0.10889270717156084,-0.0441332747460906
1700843650.0342207,-0.5170006522898172,-3.808139975473185,9.917639307357401,-0.028752395422971297,-0.11474800935539294,-0.0275078666628901
1700843650.0440333,-4.271700589959506,-3.6813103728279386,10.947048964511334,0.015915881669962627,-0.1840010151210178,-0.0354856987716261
1700843650.0540545,2.2182215831711902,0.13176335929616212,11.533625703393747,0.03244157878865126,-0.1686170869578201,-0.0159820084692542
1700843650.0640433,1.1750622231174708,1.6953381397503293,12.55948073177992,0.009323806595650415,-0.15848072280772108,-0.0239184060366456
1700843650.074073,1.4561351611968536,0.516113857361927,9.971795631632054,0.0016098138432793067,-0.1445655025128265,-0.0240540904225413
1700843650.084213,1.2312407765953708,-0.34164823392158544,8.883866006409853,0.0013909823384392781,-0.13797112831760583,-0.0130386370466653
1700843650.0940578,1.7795627695182226,-1.9805087477225969,8.582351766329005,0.022499210314099537,-0.1276028294451506,-0.0260138166369502
1700843650.1040463,4.534161205350126,0.11000807026882334,8.200958972772078,0.029653595282781046,-0.08140357812032603,-0.0215043750824038
1700843650.1140573,3.046433493812925,0.5520415578915112,8.240848056389494,0.009116611279175445,-0.04712693855756448,-0.0364440967561308
1700843650.1340587,1.9010809983118906,-2.967541291062598,8.752508929734496,0.061835455970399446,-0.0027147710844190277,-0.0471210171701018
1700843650.144029,0.6709014793575566,0.38968863842459756,9.142692839427946,0.0632708483384545,-0.0044062306788862455,-0.0477023226441447
1700843650.154122,1.930938757357611,4.411584306440087,9.874169486577607,0.01560221493217409,-0.00041185131941035236,-0.0481753115774695
1700843650.1640408,3.4921260898607267,5.776071338404159,10.032209312910448,-0.06045991737850003,0.03422308786924213,-0.0534769472898547
1700843650.1740608,-0.12373696116740814,2.2637039427768038,9.569916985267552,-0.0904098529248264,0.02805381776406043,-0.0575066459597651
1700843650.186031,-2.1572902277116373,-2.350485581404459,8.844952043253713,-0.06548696407810801,-0.012703820627145503,-0.0577195612014834
1700843650.194282,-3.4637038637484583,-5.5082463782023225,9.516427304858336,0.004943652939463669,-0.06365778749462604,-0.043492185813338
1700843650.2050178,-0.7161872833332452,2.7988410860396122,12.091516514051019,-0.0018432878982143795,-0.11301800254201527,-0.0366202694596354
1700843650.2141345,6.722912588081345,7.970069526022765,11.13550846217725,-0.09418170862854697,-0.05083544486313022,-0.0368010130943362
1700843650.2241025,4.591354632455541,5.311057406836535,10.297192847885855,-0.16845838322488269,0.006744715454711116,-0.0377807420910899
1700843650.234059,-1.5896348657568669,-4.7325612327265745,9.435246721255915,-0.14143656494157303,-0.007452328161229975,-0.0512553257168833
1700843650.2440524,-5.894549351671083,-9.468553040078755,9.61496546413207,-0.009132774204849503,-0.09469826609263943,-0.033257613819987
1700843650.2540486,-0.9033981002151233,-0.2276911328667943,9.865092252524471,0.006573295111935565,-0.138750251581219,-0.022668539476544
1700843650.2640498,4.406053546543737,7.549822333978321,9.893738486110209,-0.07019983343242452,-0.09520327203023317,-0.010741569963247
1700843650.2740817,2.8629766108595227,3.082019096843911,10.573136663904087,-0.14704531032190343,-0.060625588441191675,0.0010694239288936
1700843650.2841682,-1.3968095028919383,-4.103031988605796,10.898635074968162,-0.10238522163755957,-0.08206397543226676,0.0028062568279351
1700843650.294114,0.011713186679756788,-4.4848512844051855,9.309491427502348,-0.04216513000042496,-0.10278355244741808,0.0065877107670898
1700843650.3040864,1.6396325200183284,-0.3447054263469773,8.505274418638502,-0.026604706956769815,-0.08910322445089615,0.0192595003871615
1700843650.3141856,2.215797108033707,0.13976828514635675,9.85627634050259,-0.04013748389853877,-0.08187428983366057,0.0245905901072915
1700843650.3241076,3.9147866668436913,-0.7461000804876157,8.576337535334181,-0.03341185881386548,-0.03587863048669085,0.0339706438361104
1700843650.334055,3.3824072178794,-2.7878164801928182,9.24899993689463,-0.0049926301363123335,-0.006024250916413083,0.0419805506943161
1700843650.3441825,2.948584939260413,-2.1632761341402245,8.554969189491326,0.01973092566709757,0.032089357522330546,0.052447990584224
1700843650.3541386,2.1341359773650814,-0.5338417715995741,8.613703108098031,0.02852674042364559,0.04676671916500198,0.0611992749153073
1700843650.3640523,1.2051966837234056,-2.0129631259361607,8.516623613339178,0.03816791470736255,0.06780338083311584,0.0572683895705636
1700843650.3740685,-1.1136618331414583,-2.8428821373720568,9.717018029856192,0.06280196834636659,0.04334562271656702,0.0516996952472622
1700843650.3840933,-0.0958091562608401,-1.4675654947444885,9.63392084852221,0.09094008518304342,0.03460793585625599,0.0424019965110714
1700843650.3941495,-0.44870647739740904,2.0158202678564634,10.857971074145139,0.05230545895475927,0.022687610323197698,0.0336229699431355
1700843650.404166,1.6168915217713382,1.6614415514861143,10.092521620698648,0.02781809447815903,0.036514997779915445,0.0315743452636893
1700843650.4140725,-2.027378761528262,-2.82327257550438,10.78692736119215,0.0549545911851041,0.011431038043166312,0.0300796321360762
1700843650.424081,-0.501593225739269,-1.7989740681578248,11.04535649124095,0.07959041053635811,-0.011594455844997074,0.035917473095506
1700843650.4341347,1.1546808963495427,2.494818348878938,10.558102935175432,0.05536591570151435,8.199043629199338e-05,0.0469303960679467
1700843650.4440758,0.24757030782789677,3.5046937884942335,10.465064997204987,0.01344205893755472,-0.004680390136134881,0.0553555051563675
1700843650.454054,1.1181017212253155,2.4225372462292056,10.346593944291506,-0.03007512251186138,0.0022633772958130377,0.0612441311357911
1700843650.464069,-0.15899857060408842,-0.6377025546025948,9.50099452050635,-0.026580574997786707,-0.0032895545494777976,0.0659514936386044
1700843650.4740772,-1.165190495754522,-3.2814300894247683,9.119022435803037,0.002136051551824989,-0.024424929968781102,0.068587121623605
1700843650.484094,-0.5293747639275912,-5.836112630713613,8.81910400844199,0.06915572372005696,-0.03979291571177999,0.0758950906573231
1700843650.4940937,-0.31293629259539696,-2.9180042508896165,8.688485511070006,0.11651316798363978,-0.04701700337651248,0.076155093568414
1700843650.504063,-0.23532234910689276,2.1641319610946863,10.324470050996467,0.0904212863564638,-0.05524021136329171,0.0688465284882481
1700843650.5172274,0.7213048360842097,2.4094979041311935,10.592304526367146,0.04957095051853366,-0.041863636766528954,0.0641298266826565
1700843650.5241685,-0.2346517624299874,-1.0227930052681313,10.9467354032612,0.047752055684399955,-0.04486199736921177,0.0574560659705098
1700843650.534451,0.1748755189052603,-1.7598030559269062,9.816931204158164,0.06688587600725612,-0.04596174542426883,0.0590046728728707
1700843650.5443046,1.3055587636499486,-2.9201407327160527,9.329042711207805,0.10645856073368119,-0.031459288310954486,0.0589927593944962
1700843650.558247,-0.7397184517612658,1.223847929727649,9.919648164307949,0.09118675993928009,-0.03312965028569248,0.063252386706918
1700843650.5640972,-1.9062427978594758,4.494873299155647,11.819230012585452,0.05220594797630533,-0.05133151094725533,0.0677797990618641
1700843650.5741415,-1.4656104611010032,1.4533248269916788,10.718391167448523,0.02007672366690658,-0.07031406996594716,0.0665681334911282
1700843650.5841577,-1.4654000316400446,-1.7897918814535596,10.05840184217467,0.035364231731038864,-0.09235239231953368,0.0706631663022931
1700843650.594169,-0.8686315292381478,-2.1336631940010427,9.714402173553468,0.06037584510479961,-0.11178369346555773,0.0667326050578053
1700843650.6040957,0.1366831170078731,-2.2621345515014264,9.92559463725905,0.08860883711710903,-0.11471081755286919,0.0586572336731846
1700843650.6141045,1.6249616502872832,-1.2230585848573832,10.412764677261837,0.10075576303622824,-0.10291563706642823,0.0469087260542805
1700843650.62418,1.8425623323209002,0.5219897424565564,10.040574577425629,0.09857946251246788,-0.08294773666432287,0.0351569923339779
1700843650.634133,1.575110362689085,1.7503306984080254,9.860395733908131,0.07375909594059216,-0.06832113562384699,0.0294442093698676
1700843650.6441977,0.5721236425865398,0.8579418377829536,9.229768541800734,0.05498510738270051,-0.059645990165543665,0.0242478131084139
1700843650.6541183,-1.1872116013444045,-1.8546810685646848,9.316954155172992,0.06631526978154506,-0.07833158410341647,0.0247724327026303
1700843650.664086,-1.0285010938268366,-2.5564935361494676,9.101825802342475,0.09771221278856772,-0.10179452647801666,0.026612120750397
1700843650.6741395,0.48373054664238707,-1.8783408041730734,9.828822534723248,0.11851945567800952,-0.10703532141473283,0.0199353164760764
1700843650.6840808,1.9436572530502556,1.8693032847356414,10.398768967153268,0.09904151850390258,-0.09166682208528021,0.0156277623726423
1700843650.6940818,2.318864673162916,3.715745164499414,10.497454997037675,0.052168741387204356,-0.07018867349183633,0.0036806241376693
1700843650.7041347,2.5347108977889548,2.5009556524535994,9.588269806144881,0.01139377359121318,-0.040604027433376357,-0.0077737848506872
1700843650.7140794,1.2677027872353126,-0.9173080263385724,8.614546403533911,0.01925662948172953,-0.02839939489458804,-0.0114213609369103
1700843650.7240834,1.4822624020139306,-2.394553241188043,8.634623199401807,0.04726971000960123,-0.018636105822152197,-0.0129479811759297
1700843650.7340794,2.2156001957343094,-2.3297782779029146,8.609324835876508,0.07984077037980722,0.003204083578758054,-0.0101957692997161
1700843650.744185,2.3305655334990383,-0.6000923909583953,10.017812123832144,0.08667446474712152,0.025857394577220538,-0.0026232848642025
1700843650.7544038,0.7131983523328117,2.143120088166155,10.089047264219394,0.065898193563276,0.031233080495185604,0.0025727372384067
1700843650.7648191,0.4255533955515777,3.1053184487225987,10.084767166157734,0.022749571785032677,0.02837308298604579,0.0141982921166713
1700843650.774421,-0.7946622237465832,1.41064560915624,9.650425377020035,-5.488028701682009e-07,0.011787016928786,0.0121754259569938
1700843650.784097,-0.2906076668410943,-1.3302540012044397,9.536165646919013,0.006678169584109369,-0.004893891433212183,0.016037936392277
1700843650.7940698,0.9080204040093816,-1.9934497721034006,9.66745497570966,0.03282761094689367,-0.008180823556277755,0.0130112115992601
1700843650.8041532,3.2289487749828005,-1.2061102876532799,10.383138901106818,0.051980078865920244,0.016443935375206234,0.0084232632769639
1700843650.8140895,4.171097097452699,-0.32298270812452184,11.413525668464759,0.054052997552875584,0.05733442964961037,-0.0057521014706794
1700843650.8241477,2.396540848398252,0.19862118905398227,10.788922903641856,0.050899831329142026,0.08206091270394893,-0.0212271147640053
1700843650.834105,0.6948061630262494,-0.3864389094784307,9.487507623583218,0.04962305170624093,0.0805451333969336,-0.0288467844249312
1700843650.8441055,-0.7667652580558382,-1.831204593753753,7.807742190142286,0.06558455620096232,0.0640672705383281,-0.0298043088288609
1700843650.8541226,-0.2982362901730007,-0.8259485198820756,7.832435485623162,0.0789553075172161,0.044796893394867185,-0.0287391812773053
1700843650.8641603,1.1422744929464637,2.3993887779603282,8.36646540061853,0.056761461750452685,0.04916120207597335,-0.026244212803394
1700843650.8741426,3.1331256582246283,4.85238905292153,11.02134851001824,-0.0009113496464838414,0.07564318781882251,-0.026988691580445
1700843650.884174,2.988254497216923,4.212742105172927,12.37371837845918,-0.05587994257433523,0.11196226053080773,-0.0353343402267996
1700843650.894146,-0.06418226019467847,-2.452980638375947,10.98315737149874,-0.04186417281977262,0.1111968101712194,-0.0467143644811217
1700843650.9041848,-3.2467820615533025,-5.589051757345751,8.63517255334854,0.03213391371171428,0.06472717655506424,-0.0522769158007208
1700843650.914122,-1.5019405302053923,-2.13728688991358,8.395053449070272,0.06748769886837774,0.029013020311446244,-0.0482492809416358
1700843650.924108,1.2331927924707153,2.4650478479164337,8.815262501887196,0.04542995768317922,0.032962603960659774,-0.0469621149124209
1700843650.934111,2.9345260395725963,5.914583463116872,10.925120963381792,-0.024501087421392558,0.058907683238530094,-0.0520983030320708
1700843650.944141,3.843728879092748,3.9792022890087466,11.733601266007089,-0.09012363550795519,0.11101847912368394,-0.0642630559624735
1700843650.954116,-0.3487117348942521,-3.912513888349109,10.456019252377265,-0.05358217502322043,0.11297253555476419,-0.073107155901343
1700843650.964102,-2.6838692257103065,-11.506958316954435,10.105511325150415,0.0802497987538947,0.07098548646251931,-0.0643942383350436
1700843650.9741957,-2.8386622658500635,-2.9080882939558492,8.416195495598064,0.15178563440782908,0.016706274390707463,-0.0546542470575873
1700843650.984126,1.5321643283867112,6.381539362549835,9.055247325256213,0.0846366051029167,0.019937077733499037,-0.0528552186907832
1700843650.9941292,3.0944339353231034,9.975564262703502,10.283479942969556,-0.035929451296523134,0.052685941276728855,-0.0503155057550971
1700843651.0041203,2.908691148740771,5.590606254732705,11.214370931719184,-0.12317389197486178,0.08387550162407766,-0.067807356757075
1700843651.0141635,-0.2686437237606771,-5.343422733888702,9.693528779062614,-0.07692411900233337,0.0854229385786359,-0.0748987225116793
1700843651.0241013,-5.636858144726399,-12.911660257485897,9.470929530455305,0.08601984681545967,0.012749464392661523,-0.0716090080560748
1700843651.0341084,-5.595456444273454,-4.63914130053902,9.19571403861553,0.18164046013019927,-0.08122273664863582,-0.0680652884067599
1700843651.044098,2.5450141887809696,8.472582188262457,10.977255611716721,0.09450143327436973,-0.08064805127868505,-0.057432516408116
1700843651.054111,6.215089524263456,14.376348505441712,11.966809234251667,-0.08149103702387006,-0.0034115640510389077,-0.0679674250306193
1700843651.06415,5.205763889952896,7.211944380572928,10.507403572503105,-0.19816726923793396,0.06060290748836304,-0.0913099152268473
1700843651.0741286,0.8842032415598942,-5.5505101958961465,6.897147054258577,-0.15266849771295332,0.07817694364546336,-0.108459043246657
1700843651.0841002,-4.3227303145268055,-13.351945045928757,7.661643738519839,0.00926201921792781,0.026721659533912645,-0.1021347669185702
1700843651.0941267,-7.131638705957026,-9.00715692577982,9.502316238439679,0.15015359824463428,-0.08946592650747935,-0.071911315363795
1700843651.1041632,-0.37997222472133485,4.950698881200347,11.243161473400344,0.11911177511443623,-0.12604090903017226,-0.0494930510641638
1700843651.114135,5.707663819979324,17.9282917192806,13.755603035434104,-0.09486070180691471,-0.07070936749307355,-0.0518160489620272
1700843651.1241217,7.1549300238107865,9.171234575338516,11.954242081407068,-0.2422253701034156,0.016235447388747864,-0.066691237431914
1700843651.1347947,5.2533104085134,-5.242250462889887,8.01765395479423,-0.2025781665885218,0.07919246690207112,-0.0946073782862727
1700843651.1441698,0.495000153245076,-14.153821252463032,5.596140507305925,-0.047279008784605364,0.09008456985262742,-0.1195699152769152
1700843651.154133,-4.596338191844481,-9.543733168295443,6.488660537166356,0.088383398677221,0.019597829213760333,-0.1145643768133227
1700843651.1641428,-3.062640822121321,-2.8035546340613804,8.50486629671932,0.14140274708495487,-0.040721617683160356,-0.1228459728182856
1700843651.1741517,-1.5220476721494576,9.730934305198291,12.11102816788146,0.04455370064857357,-0.08010963350218915,-0.1156837892951075
1700843651.1841867,2.5571601767997056,13.110531165780445,14.412849390136383,-0.13836963432342533,-0.06489721051844614,-0.1277258646906916
1700843651.194183,7.200820234606495,-1.7838712518909656,10.812915092110373,-0.1550965754908186,0.0026004050356236495,-0.1286540431202952
1700843651.204147,4.152110962550736,-8.87489158348313,6.301423714721944,-0.040668475154754316,0.06115179246561932,-0.1396834654034678
1700843651.2141354,-2.4799472243299254,-3.0208140968366455,8.25899989359406,0.017511095619664258,0.01817846014356871,-0.1250785690964762
1700843651.2241275,0.4698444877273007,3.034614027507925,10.038235795718009,-0.007528415538425564,-0.009589048467925392,-0.0997505289734904
1700843651.2341652,0.4480326609171138,6.34328073482679,11.504202689943382,-0.06737086026650346,-0.014764156099126955,-0.0808088881196086
1700843651.2441268,-0.6539292967833058,4.782595412228295,12.654837816352444,-0.1428470887409188,-0.04872707086802024,-0.069193142396361
1700843651.254138,2.4827926328928203,-5.320691324582606,9.203920364612895,-0.08434211947786768,-0.03202432138423265,-0.0685311359585826
1700843651.264183,-1.884534967716511,-4.302726776953931,8.020588228361019,-0.008524767619435015,-0.06770890879581754,-0.0625459877075259
1700843651.2741563,-1.6983960088582772,1.4409262666232128,8.371902354721698,-0.0057702333660521994,-0.10671310069337997,-0.046264930558354
1700843651.2841656,0.7473172282142283,4.895694578738043,10.20784148586044,-0.061578303442414925,-0.11953831314624568,-0.0417364192427699
1700843651.3028677,1.3305674863254975,2.2994477497450028,10.191917891934537,-0.1041901223800843,-0.1110484449268254,-0.0352030870737139
1700843651.305976,1.8437426079630996,1.854714897520848,11.938086829590569,-0.120493511081875,-0.10882963823233413,-0.0374106344999377
1700843651.3141885,2.5826249809026454,-2.513511653123987,10.065712734317074,-0.08491427666042665,-0.09481344454543297,-0.0345467356266085
1700843651.3242805,3.3840487559242813,0.21877688766763959,9.501255668736047,-0.08918519950826097,-0.06516066664349075,-0.026165029895455
1700843651.3341744,1.4898497994201485,1.0202082310476566,8.787226665770289,-0.09685338162724484,-0.05678828703568318,-0.0250540812732283
1700843651.3479917,0.968240821278804,-1.033531169010882,8.537398742299239,-0.09876251624338002,-0.05479304524433159,-0.025237432611138
1700843651.3541236,0.4514333503991616,-1.3050556994960707,8.109019214804903,-0.08491296898669526,-0.05694549612893442,-0.0267226443858449
1700843651.3642046,0.5644775565009124,-0.8793942866274088,9.785018845345242,-0.07653485120799651,-0.059565589773053616,-0.0366116454125945
1700843651.374432,1.3209868434970975,3.2471138902236243,11.173825317412415,-0.10663585586913349,-0.055477185897937764,-0.0386103903175894
1700843651.3844974,0.8161185874455865,-0.4330954702832061,10.63262739698798,-0.1222607214278034,-0.04437095233785263,-0.047203036886603
1700843651.3942857,1.0277030422849591,-3.6928090588098677,9.44792556445382,-0.08280978862898476,-0.04596495897462223,-0.0579913844586913
1700843651.4042115,0.4801277890713564,-2.0767973564743323,8.555492494187108,-0.043592908030442676,-0.03926335568537545,-0.0566815276862685
1700843651.4141805,0.9771070631857499,1.4477417221735633,10.1863287302165,-0.06274434680645803,-0.046000690867777735,-0.0539503013016287
1700843651.4243653,3.678020351309804,2.7922092766568696,9.764027330265751,-0.0993775639256144,-0.0034043915526997073,-0.0464247417868678
1700843651.4342031,2.6936052106680384,-1.0431203841434755,10.537301302723955,-0.10469035978795815,0.017344693436362472,-0.034807844948918
1700843651.444212,2.0884544549486055,-5.820217292658694,8.490119616522243,-0.03511679043012587,0.03866095561633746,-0.0241995983989541
1700843651.454169,0.30703835398536683,-4.142891849889665,8.338259541754876,0.02104268280244817,0.03682771047072857,-0.0118968690977994
1700843651.4641488,-0.8369239077467907,-2.1916276079919506,8.955006550770351,0.047010345412191956,0.018782562579407098,0.0055497056572134
1700843651.4741876,-1.0665952959741758,-2.356650259391217,9.902677225585121,0.06850520637467848,-0.009019785329725928,0.0190874553053076
1700843651.4841642,-0.7677252445232449,-0.2018440894771041,10.833401474167387,0.06459069945495978,-0.030849927017092098,0.0376442867098744
1700843651.4941845,-0.11337109371679173,-0.8593155440301211,11.243590671239799,0.06851517767401985,-0.05485648263598857,0.0556080574868615
1700843651.5042658,1.774776617283298,-1.7008606376276885,9.958501795416103,0.07834216641013547,-0.03829431508107165,0.0705578672467167
1700843651.5142865,1.1207122306143844,-1.5730056560458077,9.78753572166616,0.09897077840002108,-0.039510250973974106,0.0916371690808232
1700843651.5243042,2.265164438372633,-1.2274906039732716,8.85242000953689,0.11525186849678186,-0.01963749393652233,0.1020021262346203
1700843651.5341823,1.142003652790788,2.243442469955099,9.110581555282115,0.09593558343808992,-0.0115119922864045,0.1053974601207669
1700843651.5441942,1.414906055748308,2.1718807876793353,9.812380337130323,0.05957069531232251,-0.004034435803859441,0.104416293161958
1700843651.5541582,1.667243277541105,-0.8466734277413334,9.654364861681504,0.059980174333079235,0.007634995466017595,0.1022190126357968
1700843651.5641594,0.9816398115728672,-0.23276081770018062,9.421267452245518,0.0661252892472389,0.008022253836513173,0.1031126948772366
1700843651.574257,1.1333529207386153,-0.8140975775812614,9.047138329815553,0.07770759581353938,0.013996210385257293,0.1061301055131848
1700843651.58417,0.9643190140505181,0.4928192576185806,9.407540156661637,0.06630390734608684,0.014436788834598023,0.1043142649112637
1700843651.5893722,2.051062803294497,0.5883201071777927,8.70267487242883,0.065707275525585,0.02445310752469738,0.1112201633630688
1700843651.603815,1.433019747638744,0.12856931378435257,9.905624908257249,0.06105217952029405,0.03402594384965103,0.1094066771446164
1700843651.61326,0.9656384499230245,2.2546222303899044,9.8569754719809,0.042226356547265954,0.03876304754298612,0.1018760624109204
1700843651.623181,2.2665157009599617,2.0650679237487504,10.838366441217447,0.01090470384706615,0.058242030561735984,0.0997157144127781
1700843651.633233,0.6643961619593797,0.4129405918083964,10.165204283747435,0.0009439512125800609,0.06129619083176981,0.0907503562746937
1700843651.6431844,1.1033621710678374,0.07630412688814622,8.816566721911721,0.009221270345419905,0.06980942500038886,0.0829170542536671
1700843651.653182,1.3928998637147962,0.16024116445128184,9.433801428186568,0.005898964508049867,0.07761131400818996,0.0751422616420681
1700843651.6633315,0.6999030745008739,0.3004094212206273,9.557362796882243,0.014627713020789891,0.0815248514868037,0.0663573863683636
1700843651.6732345,2.8616593266390304,2.4684666028849263,11.039362505538026,-0.015165669383730627,0.0986401269654124,0.0489375936566288
1700843651.6832538,3.5610677807884206,2.5689499103903106,10.21108830931757,-0.04091894042281428,0.14223703413230074,0.0507302331505711
1700843651.693176,0.4783825951229368,1.4991745215689078,10.243069727300938,-0.06615345074973103,0.13702379592657574,0.0392114939866955
1700843651.712885,1.0951466025197614,-1.6812802616287559,9.255471582810674,-0.04710927868196072,0.14542856331135304,0.041212429362386
1700843651.714747,-2.7660921610588534,-14.120206385008437,6.8234239976050315,0.003793897316444832,0.13067259999782385,0.0465308475075657
1700843651.7231836,-0.822686884339109,-2.538192409636506,8.831288124695982,0.03272389880074017,0.10836444636601648,0.0513701374410088
1700843651.7331824,-0.24930071484228494,-1.6122225056783601,10.700475869870033,0.0475093979449367,0.08701870630085495,0.0595200518845017
1700843651.7432194,-0.2857254072518377,0.38394498997560844,11.02556757157979,0.040125305973313125,0.07451802062455445,0.0568252588389809
1700843651.7531698,-1.0507373134892095,0.20508403568859043,11.02316356628357,0.025073462954481866,0.04762606369276266,0.0568563948152955
1700843651.763271,-0.48538880402875967,-3.2974791154786796,9.9738394757397,0.055950734889074,0.032082759288180294,0.0455186600564415
1700843651.7733054,-1.1315164202817303,-4.099227773794481,9.815523549545745,0.10772554894594989,0.007064952512636141,0.0346548977075512
