time,ax,ay,az,wx,wy,wz
1681944012.209803,-0.9437221057534964,0.7154168388371809,9.837570791267575,-0.0027713040442807944,-0.0016140536769139089,-0.0006085326045057
1681944012.2197752,-0.7138440675372212,0.5269235032842798,9.656462388619328,3.9421034349098335e-05,0.0005101111956779503,-0.0006752097129127
1681944012.2297697,-0.7889951264448051,0.7961199263793504,9.779771282895307,-0.0006355923798575629,-3.4908249608826676e-05,0.003082861510361
1681944012.2399209,-0.742723415086433,0.5895530898810538,9.693148754484024,-0.00017811748530129016,0.0022498123402433803,0.0007441267057084
1681944012.2497427,-0.8519997525706703,0.4859699958100151,9.707794588111343,0.004097002407703195,0.0013173921376834106,0.0017618837259443
1681944012.2598314,-0.9006821555049647,0.7692373553453097,9.831238760337914,0.0004063615882555862,0.0006699240963939217,-0.0007996406953087
1681944012.2697673,-0.9731144265824293,0.6128221398313014,9.822035048346404,0.0004424935156937685,-0.0018260383811836522,-0.0029297682072273
1681944012.2798002,-0.6415003453390014,0.7564602259323085,9.688253826419663,0.00011691238727361705,0.0008762985900839028,2.6252089323948458e-05
1681944012.2897704,-0.9328234996197986,0.47775591752338387,9.759988769097935,0.003153026499210054,-0.0009941491557394638,-0.0013077658682367
1681944012.299851,-0.7074126468677325,0.7227728041289404,9.725622379213204,0.0031392385735971922,0.0006457081138238112,0.0002560974948802
1681944012.3098173,-0.8149976183203252,0.6123343586468655,9.743021791708781,0.003122124565509013,0.0013568587686391578,-0.0017957667901418
1681944012.3198085,-0.9108791433618871,0.8235581158556434,9.840919279320577,0.000264059605762394,-0.0007900144059758068,-0.0005440815898827
1681944012.3297498,-0.7999797836156962,0.7576267097805286,9.775113652474623,-0.0015069470092688082,-0.0005493797877192372,0.0003134663833999
1681944012.3410125,-0.8161228957430252,0.5291562473987702,9.71678777359662,0.0014759063426445214,-0.0004480544537104707,-0.000617854910647
1681944012.349795,-0.8489632042363088,0.7278282343260405,9.793858831198722,-0.00033123783573297774,-0.0005888570616220133,-0.0014694483566335
1681944012.3599782,-0.8433475129337631,0.6853245033666113,9.777870631746424,-0.000952617222069298,-0.0009766568903816762,-0.0013200644484958
1681944012.3697467,-0.6973590255510984,0.5420290849198236,9.643886373274883,0.0019143501345337906,0.001153470313057639,-0.0001663542666709
1681944012.3797257,-0.9369634400619634,0.6960519103791002,9.835911807355107,0.0005769695921142152,-0.0008477456799650641,-0.0013163452117941
1681944012.3898506,-0.7801490304439584,0.735754380083293,9.762139902158454,0.00038029606836837977,-0.000992302483013228,0.0012783378747054
1681944012.400528,-0.8332002057281716,0.7400550461566625,9.782792355452544,-0.0027392714280097354,-0.0003452454149342181,-0.0012686633586189
1681944012.4113865,-0.8356936782364673,0.516521667176036,9.723464817473161,0.0004793690007400979,-0.0008172097343803897,-0.0012198608915558
1681944012.419781,-0.9591103515933311,0.623732233702969,9.811552033716291,0.0011197694839209843,-0.003066171026899022,-0.0015800876158527
1681944012.429787,-0.616883724047257,0.7282190224898853,9.6854622851904,0.0007073609309899629,0.0005529505469198935,-3.2980492082883284e-05
1681944012.439863,-0.7669318480711302,0.8239469287879004,9.779736140668382,-0.002467356264562629,0.001652258292965717,0.0004941428464599
1681944012.44986,-1.0722160368778142,0.4878017767094012,9.831924290095616,-0.00017959144326908409,-0.0026109700774284133,-0.0021422246086648
1681944012.4598806,-0.7013249601292282,0.7088490593105261,9.710055377192608,-0.0005100512386182483,-0.0005259044374421125,-0.0011151762760481
1681944012.469925,-0.8490601170497354,0.6626974524202431,9.768414871103596,-0.0005108071930333831,-0.0011576898671361298,-0.0008719062048247
1681944012.4798703,-0.700160484805267,0.6245820405630341,9.675653519977713,0.0006876111318528181,0.0009250981477652384,8.956805455918176e-05
1681944012.4899344,-0.7432137019030295,0.6199198230270062,9.693240316422076,0.00247985865428925,0.0020661644443519885,0.0012842869304814
1681944012.4999409,-0.9299554004282581,0.7429816345734569,9.837289419696473,0.0005725321063462913,-7.068273176857515e-05,0.0008681904559717
1681944012.5098689,-0.907655609939816,0.7743466901732157,9.846394563850392,-0.0008825777668303691,-0.0026202513499608794,0.0022513733979077
1681944012.5197878,-0.6589043579280387,0.5815047486447023,9.633929172201443,-0.0006139940352866253,0.0017696256879146254,-0.000354838705366
1681944012.5299432,-0.8608737137966815,0.6727635544015167,9.778208196414818,0.00051290999603047,-2.559011356330755e-05,0.0023739282309771
1681944012.5398805,-0.789794659672966,0.6606086739552556,9.741025037835525,-0.0001289725982394249,0.0009176558776689606,0.0013330983615242
1681944012.5499368,-0.9873296446755979,0.6764714292665914,9.863545155954956,-0.0017941441293338487,-0.001998155924965884,-0.0009471684775552
1681944012.5668602,-0.7281098045644702,0.5946658448431594,9.672508561834151,0.002069335041647175,0.000529852471746411,0.0012083012529411
1681944012.5751083,-0.9553109686830286,0.7348676586059429,9.860013289867057,-0.00042662960143539485,-0.0010921439758689012,-0.0011557861312529
1681944012.5799308,-0.7847774753439509,0.8536578297847981,9.799651896174465,-0.00036923521160408,-0.0019280859207535773,0.0026134763297387
1681944012.5898952,-0.7438322608716206,0.5517227209633098,9.674045422087767,0.0007699224367242325,0.0006300653862641382,0.0003149303060718
1681944012.5997689,-0.9954948768481167,0.495798489947845,9.792434632968877,0.0036030393116328148,-0.0026008877280258146,-0.0006282810668698
1681944012.6098502,-0.7430441072026591,0.9461747338059456,9.809884436249156,-0.0017740395382086175,-0.0013454784675093487,0.0003693503944897
1681944012.6197526,-0.8047101307332086,0.4813050935137174,9.681933495798273,0.00122591722142673,-0.0005270235879955293,-0.0008033836807361
1681944012.6297567,-0.7717640847297885,0.7601931432584256,9.754506993926173,-0.00039010272927640925,0.0003581091313252401,0.0001491865527578
1681944012.63984,-0.8590227727222146,0.5995878436187035,9.76118238127816,0.0015667938203975996,-0.0007766091007894442,0.0004572684096866
1681944012.6497617,-0.8587894273396749,0.717756257554212,9.794477097209667,0.0004253610626321645,-0.001490373559919973,0.0005559842952289
1681944012.659825,-0.8791840161863257,0.6623699844589857,9.784492465852178,0.0011827214404681035,-0.0031183412221740363,0.0018177512369812
1681944012.6698031,-0.7519070279673116,0.6076792136764883,9.701238095774023,0.0011786178687002752,-0.0011260294387454178,-0.0005098133429191
1681944012.6797707,-0.7544605956995687,0.7905491934562675,9.766307010334476,-0.0011847159814544104,2.097220885659449e-05,-9.742359046404496e-05
1681944012.689756,-0.8930533382018775,0.757852963018829,9.832537745005997,-0.002619309979160615,-0.0020123025498443117,0.0012224540382386
1681944012.6998725,-0.7546407003115949,0.4574981496206096,9.646558943087628,0.0006380710666296573,8.80394889082046e-05,-0.0009479067835262
1681944012.7098355,-0.7704960482419507,0.6962929591415408,9.740756837900735,0.0009387140753628288,0.00044863395208386876,0.0012913576478832
1681944012.719837,-0.7612549609032457,0.6287574125954783,9.711168546396648,0.0009118676804010119,0.002237545989018848,-1.4671155927230284e-05
1681944012.7299798,-1.0153528835297274,0.6241719225594141,9.846796470317592,0.0010251339473107285,-0.001527638608361499,-0.0013066638808003
1681944012.7398086,-0.7090104511470464,0.7839140799545083,9.73230732360301,-0.0003416644309168891,0.00014688599842897055,0.0005302820040606
1681944012.7498677,-0.860130874569926,0.4659494022815647,9.70698583481201,0.0027726773686438276,-2.2247886774744166e-05,-0.0012883952900073
1681944012.759807,-0.8690429690018225,0.7582060855841171,9.80516267353503,0.0013671049844515418,-0.0013890674956016573,-0.0004368255927464
1681944012.769883,-0.8246291523715816,0.6841912342365277,9.769596270753533,0.0011752881516264644,-0.0016502042770622665,0.0003593059641071
1681944012.779808,-0.826753634798774,0.6314553117307832,9.743754473188401,0.000899240352499841,-0.0011878598127127611,-0.0013468751299432
1681944012.7899218,-0.716912430493093,0.7268768187813669,9.711400919380932,0.00021415468245791582,0.0007466510623268084,0.0001406146597811
1681944012.7997775,-0.8929083204056744,0.7492048573174724,9.822239983908357,-0.0005726353285910638,-0.0014147563658013444,0.0014873149607093
1681944012.8098366,-0.82915050698195,0.6381975580403503,9.751140612416442,-0.00207577473982921,-0.00037391325559257935,-0.0022566059219888
1681944012.819791,-0.7296220164405262,0.5414413973183233,9.667778803757475,0.0016193009136285016,0.0007809621535204264,-6.836166952316897e-05
1681944012.8298078,-0.895880555701606,0.6996118878494425,9.811013235551298,-0.0002772114328107943,-0.00011800583590164419,-0.0018963722127727
1681944012.839888,-0.7743215611412628,0.6390953468492607,9.731278198343801,0.0013496060526378864,0.00013236185420301236,-0.0001767784438333
1681944012.849823,-0.8571564377289439,0.6243679971194372,9.758396580801502,0.001863700512622871,-0.0005601560244788141,-0.0005619590251943
1681944012.859797,-0.6896573628130772,0.7587653595270992,9.717150179523959,2.9090676889701364e-06,0.001975637042581228,0.0004610023147189
1681944012.869843,-0.8379442141517621,0.6123929322972504,9.743896994695522,0.0006112663781216636,0.001865733279881291,7.644962775062158e-06
1681944012.8810377,-1.030063583557416,0.6357123040324593,9.859511579917308,0.0005993428625525037,-0.0026433665109361036,-0.0014470926567218
1681944012.8898232,-0.6306465911400446,0.7724235677056097,9.689233396625374,-0.0001237423858344776,7.610443121921255e-05,0.0008827033720673
1681944012.899878,-0.8004243732979357,0.667771923128317,9.740732917977382,5.13579285184484e-05,0.00041622110614664034,0.0010335665114917
1681944012.9098115,-0.8168847857407314,0.6042213331986761,9.731210308719206,0.001323899412759624,0.0006743924557388436,0.0010864933987842
1681944012.9198534,-0.8626547845104672,0.7017694531842866,9.797863407745592,-0.000588284955559408,0.00028620747587195406,-0.0012001138261756
1681944012.9298394,-0.8596334625283152,0.8209873796505888,9.821852989142274,-0.0024498040027882235,-0.0013652064877487042,0.0014575075451512
1681944012.9398212,-0.7932413291416281,0.5210209676529804,9.700622333320027,0.00029349119781764654,-0.0006343031305815862,0.0007541782374256
1681944012.949798,-0.7528841149872998,0.78761501890214,9.778623212697832,-0.0019245755351164043,0.00020611065414892913,0.0013345811725822
1681944012.959793,-0.8920151844044827,0.5106487181457814,9.733531077032673,-9.57978939396168e-05,-0.00033442097212029104,-0.0008436023804596
1681944012.9698162,-0.6841099393309802,0.7366169532480935,9.699940573701193,-0.0006870023485965532,0.0018743017277853787,0.0010663451079973
1681944012.9803586,-0.8654196633167043,0.5540968869893954,9.741605096772359,0.0013309936390853503,0.0012473409583162274,0.0001216440845974
1681944012.990716,-0.9305986025869794,0.631389760159165,9.805056714534015,0.000536016006924017,-0.00046966246737184856,-0.0023273808497241
1681944012.9997935,-0.7607140902471891,0.8642395379653078,9.795005260191045,-0.0019316241220566066,-0.0003027572672380208,0.0001521678327345
1681944013.0098565,-0.7551268956811815,0.6201780317329438,9.711424629295845,-0.0011735214275437234,0.0010875170302496464,0.0002650376095199
1681944013.0198233,-0.9664496027166468,0.5854706884179738,9.812334084739634,0.0007997627343972975,-0.00258151195748006,0.0014426086540562
1681944013.0298507,-0.6297319200422582,0.6262798802942859,9.640513375241273,0.0001731721034966195,0.002487126837289483,-0.0010685857000998
1681944013.0398617,-0.9317648892877135,0.6290012593096054,9.800527556840771,0.001632344877401861,-0.0003068441158553744,5.082817866886719e-05
1681944013.0499375,-0.8516873712454347,0.7586547499454322,9.801610555476708,-0.00011666031642203207,-0.0009554328574177888,0.0002318854362466
1681944013.059934,-0.8115317111019597,0.6574961980785194,9.758401430476622,-0.00019602013839796159,-0.0007281815122348024,0.0002385920065217
1681944013.069849,-0.7348307292270598,0.6448534351982129,9.70081709706905,0.0003497437239451243,0.0007906200921948597,0.0010112304857694
1681944013.0798717,-0.832116376315967,0.48049039210803146,9.71211723869611,0.002473926543075894,0.0014715962226112054,-0.0020394024054757
1681944013.0898452,-0.8276125657357484,0.9958895981662303,9.862028648526802,-0.0023961761861422456,1.9477015373621016e-05,0.0023109627340682
1681944013.099821,-0.7415794039531034,0.5813414949813822,9.68999046775843,-0.0016396041977884885,0.0020750876904457416,0.0007351876388066
1681944013.1098228,-0.9883067874098366,0.6595790541648143,9.833066068952165,-0.0007987621000534402,-0.0018237928801951772,0.0021690432890546
1681944013.1198835,-0.7102043010728948,0.5246038783987244,9.646367698650462,0.0016379491919679653,0.0008032841424737859,0.0013789233030048
1681944013.1298418,-0.8501861517628505,0.8049918977261686,9.825086792584006,-0.0005826935441792519,-0.0003217566263727743,0.0026507167762839
1681944013.1398382,-0.8076464511177824,0.4638058478705423,9.678861219636994,0.0008332621314738563,0.0014708519331753658,-0.0020062729331902
1681944013.1498623,-0.8169881008734736,0.8162633321159259,9.804433453572578,-0.0011414784042268345,0.0006814625682206566,0.0004617494682543
1681944013.1642096,-0.8534830435078234,0.6123181540627493,9.768979925496271,3.569976205020441e-05,-0.00017051716327227615,-0.000840998402541
1681944013.1698213,-0.8712132257603495,0.6805412871295705,9.803126185085489,0.00012733207053162082,-0.0009837239271338809,-0.0004591552156261
1681944013.180792,-0.7903476278317183,0.7063111782806843,9.749888779973665,-0.0018697875089980385,0.0003569922743721072,-0.0020919457624903
1681944013.189823,-0.7536566154374282,0.6135076528349541,9.703992152858481,0.0008105622872838856,0.0005134506364167203,0.0015308933193092
1681944013.199819,-0.9009037235006984,0.6551768750708645,9.799949584965987,-4.9236565327493254e-05,-0.0008067916165331878,-0.0001667215570113
1681944013.2098353,-0.8316801271663143,0.7129917218427321,9.774220716044695,-0.0014342916230015005,-0.0009010395485170839,-0.000617102169176
1681944013.2199569,-0.6031245829790293,0.6705096993092288,9.656059023534766,-0.0023082665317831616,0.004047659725422842,-0.0018479073501429
1681944013.2298942,-0.9369079767539469,0.6163771585327938,9.805803659116364,-0.0006411694096750393,0.0010759616610650868,-0.0006513811263493
1681944013.2398582,-0.8409422641856146,0.558341971612196,9.736170904252344,0.0018108229650301915,0.0005223669790598767,-0.0003298916003904
1681944013.24991,-0.7920590300753617,0.7117633383636963,9.755005693178738,0.000568380076205321,0.001362462046407766,-0.0003064194775423
1681944013.2598512,-0.8330807623095231,0.7296132896948488,9.780225754992156,-0.00022992912964797424,0.0007641706226761988,0.0001778669806891
1681944013.2698395,-1.0325278995067013,0.5639404119823032,9.817345414873131,0.0002525156253958589,-0.0024116453816246048,-0.0025952320161512
1681944013.2824993,-0.6664806194543467,0.6683591257314613,9.6656975536698,0.0011227403722042827,0.001069272227922357,-4.042478625242846e-05
1681944013.2898898,-0.7585866283841204,0.6395439698054006,9.70423661410028,0.0013138180762968898,0.002254657313971176,-0.0002881867426684
1681944013.2998505,-0.9928134709339093,0.8133211895826538,9.905096817693428,-0.0012193452878238142,-0.0016848459359106425,0.0008264454349638
1681944013.3098536,-0.7796418968195135,0.4992233597741144,9.694895814304285,0.0015451706418310078,-0.0005270031830538112,-0.0008007736492208
1681944013.3198595,-0.7539972919813336,0.7753354977505832,9.761100973039982,-0.0002496661694604104,0.0003860487155634602,0.0006472404033639
1681944013.3298614,-0.8852095553721464,0.6208550573484589,9.77272872666815,-0.0014212685145526462,0.00017819466422260355,-0.0026283787179044
1681944013.3398464,-0.7998652952089733,0.771662058625959,9.770624299273658,-0.0011984841136692156,-0.000980016357676962,0.0019313682400616
1681944013.3498538,-0.8194989437147494,0.5050610300684348,9.714739729024858,0.0020600233809568783,-0.0010250950740400913,0.0012674987933361
1681944013.3598816,-0.7011545564903578,0.7532272446677435,9.712304047151225,0.0005039748781420757,0.0015133228612443208,0.0017473309212301
1681944013.369903,-0.8890606472042936,0.6003002968875001,9.776437412992564,0.0003173160313949149,0.0008677439927024373,-0.0010276261332682
1681944013.3824022,-0.872986170976534,0.6449706374483097,9.779902121273686,-0.00019563469288885304,-4.606444300085356e-05,-0.0025564806151441
1681944013.3900712,-0.8133153605545055,0.8115232281592573,9.799613866143329,-0.0020325828211380436,-0.0002316162483876438,-0.0013699896249226
1681944013.3998983,-0.8718711635150281,0.48313739335925376,9.721133063781915,0.002641544745083335,-0.0017481608672900808,-0.0001428671262464
1681944013.4098594,-0.6917334347992286,0.7104280692072411,9.701123479075301,0.0010631434163168546,0.0011549500213510848,-0.0006334936793199
1681944013.421789,-0.8190190843271482,0.7273896242589295,9.773614073672176,0.0001910191977660178,0.0006282109838302054,0.0011341456242599
1681944013.430687,-0.837273334982816,0.6329618357863978,9.756386425869067,0.0005486561114311167,0.0004221908064914438,0.0003112252720394
1681944013.4398825,-0.9060499256197209,0.6195431905673701,9.790253277594557,-8.31318747244626e-05,-0.0002588138435959055,-0.0024648524436405
1681944013.4500222,-0.6476443314216057,0.5763405721434562,9.628529470441912,0.002149755984597727,0.0032217798182881826,-0.0019857645116052
1681944013.460105,-1.0068875209861587,0.837048866778144,9.913647680872273,-0.0005096672661791376,-0.0013067244098686562,-0.0003391948144189
1681944013.469862,-0.7337590621327765,0.6435145175782296,9.713161995348337,0.0010825091287909342,-0.00034558673135294136,0.0013323535945029
1681944013.4798708,-0.8420449378677579,0.5977135255615462,9.739636664333407,0.0016800466206038811,-0.00025656933405143853,-0.0002523988100937
1681944013.4901,-0.8495625477019371,0.583164373899366,9.739674316938919,0.003337060516475705,-0.0008261679936651823,0.0001335380051978
1681944013.4998431,-0.7693830251164345,0.7440044714899057,9.755553566814525,0.0017131931222378737,8.207046866201885e-05,0.0001909015386127
1681944013.509846,-0.8893797681180962,0.755038474014923,9.825499738491127,-0.0003863710672838202,-0.001406923274056874,-0.0001503252738392
1681944013.5198328,-0.7173346005708424,0.7056210849308996,9.712192000964237,-0.0005703974680087122,0.0002709370927432547,0.0010134524468095
1681944013.5298407,-0.8723870106129453,0.6029909048195304,9.755283715596985,-0.00038896731794300243,-0.0001731272739420144,-0.0005884251172891
1681944013.5399983,-0.8485177453277721,0.6830727791785032,9.773557123788805,0.00017391102783898498,-0.0013871882843027555,0.0011941431707465
1681944013.549936,-0.8236456023394644,0.6845714965706021,9.78090868018155,-0.0006322367072600502,-0.0013294556998193542,0.0001707859023236
1681944013.5599086,-0.825318800325166,0.8040472580629886,9.811379941872119,-0.004318041444334684,-0.0009517167368009548,-0.0010708506766012
1681944013.5698786,-0.7981356681605278,0.5516804972695011,9.702937240856347,-0.0009541083114699813,-0.0011089090655088812,0.0007042567862891
1681944013.5799932,-0.7569734604198278,0.47919157625006703,9.673839240315932,0.0032282863486484555,6.805464278539771e-06,0.0009028313483805
1681944013.5899148,-0.89800758518225,0.7662536083399065,9.838588217982323,-0.0008367694892507601,-0.00034371148405288617,-0.0026779269415191
1681944013.5999007,-0.7251833992765789,0.6064420167089608,9.67417099069425,0.0017985000328610285,0.0005741922536696521,0.0004848423099839
1681944013.6098833,-0.8219518675191259,0.6986798251654195,9.762192787540014,-5.664318192660505e-06,0.0012659796953504803,-0.0012626847333512
1681944013.6198246,-0.8104287311573684,0.7065450687651735,9.760234977175054,-0.00033315736156607146,0.0010826829021011377,-0.0001749211537889
1681944013.6299074,-0.9836774515540708,0.6205523977673109,9.828317216417103,0.001116039854983046,-0.0027472898543291044,0.0010499588365429
1681944013.6398726,-0.7778261088848847,0.6510464120751953,9.73844889823672,0.00017354088473648914,-0.0012772899513811766,-0.001144231677731
1681944013.649889,-0.6062229637448807,0.6745397689477458,9.663963161595987,0.0014703044020991998,0.0021097439366110824,0.0013055063004368
1681944013.6641474,-0.8003301008902386,0.6850378453445938,9.73359069405223,0.0007204166873489026,0.002610794423184161,0.0017868103172669
1681944013.670837,-1.084612957238092,0.7209935781431006,9.92336096836815,-0.001788203244401631,-0.00012543900563181942,-0.0013223031151345
1681944013.6799624,-0.8714711278198891,0.5316075096247345,9.742206386982868,0.000336689587660822,-0.0007371027509831418,-0.0018691738683036
1681944013.689852,-0.7401864819860653,0.6689808720791968,9.717796462433867,0.0019676455672578137,-0.0001749904176960219,0.00141467476848
1681944013.6999383,-0.9303108199863226,0.746997728249261,9.835267289606797,-0.0010092401219276093,-0.001864770642470452,-0.0004028984426758
1681944013.709886,-0.9517956356610046,0.5367127355591026,9.781895951087197,0.001512070510734002,-0.004564830407828598,-0.0006767028558305
1681944013.719916,-0.5775887148798245,0.7812195989503649,9.664272063194641,0.0008250875214845854,-0.0007505447470940169,0.0028455722762965
1681944013.7299662,-0.80591238474242,0.6809298207287375,9.74077053484022,0.0006045530038130274,-0.0004398480887521681,0.0026760591694847
1681944013.739967,-0.7775564394788079,0.6620104144704447,9.725830378112285,-0.00046534043005764836,0.001210457214611446,0.0004676998045989
1681944013.749869,-0.927173357171717,0.6066842088247345,9.779459056126429,0.000196234831015585,-0.0002908168383947793,-0.0005616151343337
1681944013.7599225,-1.4219327149127674,0.5081220154108543,9.593575469169242,0.002350178826508216,-0.009285928858791648,-0.0002196504815719
1681944013.770085,-1.168245380987448,0.3729789064000645,10.143190670989439,0.0048258843769205485,-0.025024476588217784,0.0023718173883617
1681944013.7799127,-0.40939305049014685,0.3267201825405742,9.607548441137947,0.009190269403049902,-0.03054819880163887,-0.0077522761735371
1681944013.7899642,0.9596974268608199,0.3611004057753596,9.844763577249122,0.010431091625734273,-0.023429407892489318,-0.0104160673531941
1681944013.7999997,1.3734822338059385,1.138082646502713,9.670837732644737,0.0033212460362283566,-0.003048187283348849,-0.0144196293863705
1681944013.8106377,0.6271244880090525,1.177420326727507,9.83015857854036,-0.003231682697917384,0.005428200033912289,-0.0116093327838233
1681944013.8209507,-0.02002691791056627,0.8224048588625015,9.523377945305317,-0.00449496547339256,0.013430796848652785,-0.0076044668990424
1681944013.830141,-1.2893334479119787,0.5738955243429792,9.928770835806436,0.00016045499449722516,-0.001630835169422806,-0.0039981758768907
1681944013.8398805,-1.1933793084164477,0.4424592579720964,9.752931156910496,0.006750557838283047,-0.015686296534284952,-0.001504611837422
1681944013.8499403,-0.880226978930543,0.9159602689519546,9.901273748547556,0.0036558380075304977,-0.027578523820514175,-0.0045469847123376
1681944013.8599122,-0.6246563782459496,0.6404811940557942,9.573727251954242,0.005532749425769784,-0.035752440916811366,-0.0159114684525183
1681944013.8699236,-1.9980120988041334,-0.024563116591979472,10.243200141739036,0.005396337059572052,-0.07184487535737581,-0.0585774864617041
1681944013.8799129,-1.8378390241697704,-1.0516391356853005,9.940350249883592,0.017576457109608163,-0.1107386991446592,-0.0978695835533789
1681944013.8898585,-1.6361271766463652,-0.491474989537643,10.994083562521741,0.023389193405945932,-0.17253460385384975,-0.1079489077988318
1681944013.899864,2.0043045241126367,-0.8205828292646852,10.553689552057753,0.03080505118644797,-0.19522803939455396,-0.101802171355789
1681944013.909902,4.3278377054184105,-1.5573348298173533,10.353473796033784,0.050485399759519656,-0.1914985692508561,-0.0799052502575567
1681944013.919879,6.223905606140028,-0.9977621764955882,9.634254991477684,0.07146975838770683,-0.16044108127297488,-0.0487124707165411
1681944013.9299595,7.0303665211920014,0.9171345831298446,8.95598048915838,0.06925197060066085,-0.10586440709368047,-0.0162705156567743
1681944013.9399052,5.940391669530807,2.0315477161270428,8.370273017780177,0.0590707848763354,-0.054998724328545204,0.011727208123798
1681944013.9500072,4.535345762089937,2.9063014769838493,8.163907701086774,0.03789618810559028,-0.00931720287556124,0.0252751771745034
1681944013.9599617,2.4926686973967636,3.173523306898884,8.271152091998353,0.016093984090690894,0.019569524535492617,0.0244330045220204
1681944013.970045,1.1929652323120719,3.8990841375958305,8.655150039119162,-0.011495443441278941,0.040712196715078156,0.0174119852867671
1681944013.9799163,-0.5153349027257911,4.139489477880554,9.418050281096857,-0.039490584216267284,0.047562640713710545,0.0036780183122255
1681944013.9899163,-2.085877915108907,4.445390736234851,10.356497490967042,-0.0724597296412112,0.038558291882419854,-0.0083248281467012
1681944013.9999335,-3.2557720505512924,3.5259530061124176,11.193435567657632,-0.0975893858394214,0.01149264821304696,-0.0201088890048912
1681944014.0100255,-2.911233161220454,1.8234751890134873,11.181313831498244,-0.10069250662571627,-0.011470017756195132,-0.02559610936672
1681944014.0199804,-2.301797694366925,0.1295311658029119,10.982461183325578,-0.08536032143916565,-0.028487727140423927,-0.0332147936883619
1681944014.029979,-1.1327138909519208,0.03221235784090387,10.238542741115229,-0.06840221467105136,-0.027256786621303958,-0.0295233141246489
1681944014.0399072,-0.8648746033402755,0.7353721802194118,9.732699293050299,-0.06671671275621828,-0.01950054893331397,-0.0217464912298372
1681944014.0499277,-1.2174796432613224,0.9727412490841747,9.482269606126058,-0.07211720027624374,-0.019037194892861906,-0.0117585297289541
1681944014.059935,-0.8512181161445942,0.8792709977973177,9.2691673133829,-0.08267400406835707,-0.012804260893975752,-0.00018670680814
1681944014.069896,-1.1820369325419169,0.11052818509204082,9.251669612235753,-0.08728441199440161,-0.011465013570676452,0.0078504922252842
1681944014.0799456,-1.2733345168653756,-1.0244197252324252,9.201167458535153,-0.07460016207397674,-0.012042558232981662,0.0156908490148135
1681944014.0899222,-1.4826363339155393,-1.2962027500709343,9.362524661569328,-0.059384831943988435,-0.014964877711730114,0.0261201866355487
1681944014.099922,-2.0336289459988186,-2.020172597014912,9.533842744383495,-0.032441553431916334,-0.023743964099771166,0.0299286589410849
1681944014.109963,-2.524651557944531,-1.6922227712532163,9.84757291808639,-0.009928716356405892,-0.039798877366241506,0.0344073091086694
1681944014.1199832,-3.329251259568688,-0.5738899205809103,10.282647182453525,0.0020044115932899512,-0.06500557174512012,0.0412577417132207
1681944014.1299398,-4.095106600480742,-0.38963420440646934,10.741308546641816,0.011782907418597633,-0.10350434231975636,0.0464409690734692
1681944014.1399944,-3.6285816545036855,-0.05049787055884434,10.651820346656933,0.01662242548095785,-0.13402146801851278,0.0473352659878083
1681944014.1498914,-3.318800257179498,-0.5284570191196295,10.526198529562576,0.03162499600352984,-0.1647091626926254,0.0519901018974133
1681944014.1599848,-2.3495524647834447,-0.10986561116167858,10.159325486221137,0.04137106787702632,-0.18330699299459263,0.0556883801159211
1681944014.1699097,-1.802664235812693,-0.3753851128221607,9.803363675843313,0.058963562780413356,-0.1964914937356905,0.0596866261598416
1681944014.180113,-0.6393144662916327,0.5641751319691173,9.542077892364068,0.06256355143515659,-0.19452064170213093,0.0629690837499448
1681944014.1899118,0.6104493841755334,1.0587854874230913,9.328079865166323,0.06267623713589408,-0.17884990973935025,0.0747459967073747
1681944014.1998994,2.4668275522995278,2.0715666327411015,9.17470478879659,0.04961537697579558,-0.13539623610630866,0.1013368133839913
1681944014.2100987,3.3060317348188306,2.9394511964543715,8.82783086887003,0.03251409920695633,-0.0774220323613537,0.1395128507551499
1681944014.2198746,3.7880146019296466,3.505543612757622,8.796555813090487,0.007942410231791876,-0.012093425967362454,0.1764060397085496
1681944014.2299163,3.116153812975316,3.5770830432832135,8.489045831517213,-0.01245303688426108,0.055498478590983925,0.1981204141315766
1681944014.2399678,1.3961960718161421,3.6805657574792825,8.701278467277412,-0.03837170858389475,0.10667871291041275,0.2008524675306626
1681944014.2500286,-1.0316196476220625,3.586388860387427,9.131531682851547,-0.06343032610596176,0.13113584032628275,0.1832451213535615
1681944014.2599268,-3.35156926329122,2.785476121622618,10.017660952721425,-0.08650479572461348,0.1252031201853334,0.1432657678064652
1681944014.2699409,-5.0410514586611175,1.2519445426711344,10.502212638939005,-0.09355294576721193,0.09624221041435072,0.0945166189607926
1681944014.2800462,-6.930326983546336,-0.4381937797732007,10.980649653301322,-0.0870078691924548,0.03641651682980658,0.0435263391968556
1681944014.2899404,-7.737618522627372,-2.1939075183396253,11.718609785193667,-0.0660030943917278,-0.051046985152629634,-0.0008115471887639
1681944014.3000138,-5.128361021737082,-3.9234873801302594,11.166568610755649,-0.025450027604272944,-0.11418630872021761,-0.031414494997566
1681944014.3099694,-1.9003050034341735,-3.844337157793078,10.179682476328368,0.016489331569535495,-0.14016366741117034,-0.0377013470593146
1681944014.319924,0.5333870192160511,-2.676139976297749,9.528002493220631,0.037701656068121085,-0.13524953598616055,-0.0388592715922049
1681944014.329965,2.276338300326686,-1.8455809968669086,8.742772142270619,0.05212992300997017,-0.10635204832515802,-0.0213309574487856
1681944014.3400466,2.6201372207572464,-0.3504959448278034,8.580045442860133,0.050979033076380666,-0.07313073206121314,0.0093837830622443
1681944014.349916,1.6783567945205715,-0.4915265085847504,8.978816194642388,0.04864968207868361,-0.054322760804315945,0.028159164675767
1681944014.3599243,1.5551086062537143,-0.553600864187371,9.033740628972835,0.05449326518046941,-0.03592450136386259,0.0520137761172601
1681944014.3699338,0.6784607367902534,-0.8193702512933043,9.30644900660469,0.06743345108411099,-0.025681537343745692,0.0653208259877511
1681944014.3800669,-0.4200517671079445,-0.6539819072413688,9.600719811100511,0.0864368940181698,-0.028306147646774624,0.0710154910024949
1681944014.3899214,-1.3204736148087943,0.5989540711000108,10.126267429183796,0.09134899470105723,-0.04232619200722435,0.0697183374699899
1681944014.399936,-1.6613559746426394,1.1934504352405402,10.317772481859194,0.09414419018482853,-0.06138270967138534,0.063367961758072
1681944014.4099126,-1.4377645440898497,1.905122732182838,10.53160077668135,0.08659406197807257,-0.07807746544204207,0.0525474686559983
1681944014.419921,-0.7812809522722861,1.9454898345071336,10.46737105871285,0.07782150428918637,-0.08716962593836532,0.0376118895050832
1681944014.429929,0.08316512085472172,1.9826644189308071,10.208238338467572,0.06831710566028733,-0.08495159096368671,0.0232809771236726
1681944014.4399974,0.6990468543866826,2.1397539632751124,9.997657903035517,0.056628204630755054,-0.07585734644705015,0.0114398802083679
1681944014.4499257,1.3351890590218742,2.150981634972767,9.622485557079905,0.043766926806917024,-0.05763882601917177,0.000183256428013
1681944014.4600313,1.4500270183368995,2.094907464339981,9.485518554764152,0.02843330897792246,-0.03701032872552871,-0.0101409770163944
1681944014.4701204,1.808802933993779,2.26350925641962,9.325819226116717,0.010255354580185425,-0.012473679768296376,-0.0127353874582103
1681944014.4799335,1.4095362185461624,1.8843913224426545,9.408841459687777,-0.006408112483220577,0.007187059945379624,-0.0153621576342037
1681944014.4899392,1.1783884354564016,1.3977563926565928,9.371069615241309,-0.015118484054250316,0.02429963838012008,-0.0164551000657728
1681944014.4999828,0.6785586495404292,1.0434542754387233,9.542398614013191,-0.01962265304618169,0.03540036939387899,-0.0153973169240406
1681944014.5099194,0.1335770861199939,0.7279127932708171,9.749644228088554,-0.021497401394604272,0.03880866976604371,-0.015629517993634
1681944014.5199804,-0.08547521791787237,0.6358199441753668,9.883103631323227,-0.021299894750392987,0.03910895476523449,-0.0107735331717184
1681944014.5299976,-0.7041926847751537,0.24009682196989407,10.09299359191939,-0.01601337817753638,0.02930029433875737,-0.0098525845992616
1681944014.5400443,-0.46968457133030883,0.36422991785971676,10.036319594564148,-0.014094857092248269,0.02356918058674576,-0.0071792427066019
1681944014.549974,-0.46227126862242657,0.011710197063469492,9.950191654978521,-0.0053529970358103356,0.015053976197995405,-0.0035560495767048
1681944014.5599954,-0.1130117250505028,-0.11138171078081927,9.75844345691952,0.004048907897229252,0.011526111187267851,-0.0021741214755228
1681944014.5699675,0.2131335350136512,-0.00568466670395867,9.606057755621643,0.010388264622693802,0.012068929814162565,-0.0018621801014295
1681944014.5799518,0.5042803651209136,0.22043228831671807,9.520453579227699,0.014540778846666684,0.014456552028685435,0.0013305539882504
1681944014.5899663,0.6646707049453807,0.29199092700556495,9.423722223592627,0.01550646204960532,0.019916291623883645,-0.0005032929207435
1681944014.5999296,0.7469430452492853,0.15003957978249344,9.306301732236863,0.019817248982346436,0.02685700876467709,-0.0044232426758161
1681944014.6137357,0.7253026102764016,0.25258614805365237,9.429256434373459,0.024146928064575843,0.03474847778177299,-0.0078229654195955
1681944014.6234825,0.9267544596604175,0.5009032210536182,9.411115163623894,0.024691314333714253,0.045170239606655636,-0.0054301551158777
1681944014.631545,0.42533383913852957,0.5348344931873339,9.64786164446334,0.02704478863595807,0.04805167221600457,-0.0021426120388558
1681944014.6406312,-0.027625642259412043,0.5837257350972239,9.809310307190312,0.02716392028129799,0.049234373970800646,-0.002802382836794
1681944014.649948,-0.46301101137566714,0.7408773350734236,9.998224240547266,0.026650269351112203,0.044491642198858185,0.0019046910578846
1681944014.659982,-0.5943225762722766,0.7395607297298806,9.977714223015525,0.027675086913369888,0.039059177010617285,0.0113733409357019
1681944014.669955,-0.9555983439433658,0.2792740092087187,9.810900355367421,0.036852523890942436,0.03066407713693222,0.0156445660081454
1681944014.6800404,-1.0492008898438636,0.6446069503433178,9.868889371111813,0.03865363890981241,0.020652535602554797,0.0188258931425162
1681944014.690056,-1.1274646403921955,0.4340335168089382,9.704929567782603,0.042415717114056686,0.011979072324239788,0.0145281346899219
1681944014.699995,-0.9085051951344797,0.6014584677345342,9.720384713177749,0.04263259864507291,0.006795041808105752,0.0104604678612896
1681944014.7099688,-1.0010839417541513,0.4183358556630157,9.79872144281083,0.04539145779073718,0.000319273626341223,0.0032462288777106
1681944014.7199528,-0.8559651942047937,0.5488188309542239,9.846233542056327,0.04723404826569639,-0.0033509504786437216,-0.0029709778341702
1681944014.7299747,-0.6185093991465755,0.46197863816607765,9.865483669609821,0.047260097893630344,-0.001446958554296691,-0.0143965586635521
1681944014.7399757,-0.21503242955981433,0.9583006287856316,9.952413756568584,0.045549840196224135,0.0038945902112783454,-0.0110161129000834
1681944014.7499883,-0.2625835509112071,1.1946061087528848,9.83971599938034,0.041267651565892134,0.011275647856393291,-0.0074868892866424
1681944014.760094,-0.5226816332067021,1.3943439974699443,9.888041752182463,0.033657955740729883,0.01572428365614408,-0.0052737134124389
1681944014.7701268,-0.7677244002134158,1.462436400489442,9.892281399891845,0.028164338455573132,0.014546473846990876,0.0009759388317116
1681944014.7799563,-0.7883889809137258,1.6892606770791088,9.942446341649573,0.018098526368167354,0.013644746207644285,0.0055530093063362
1681944014.7899914,-0.7786409313698833,0.8810399348559097,9.758032331082255,0.020851822797895332,0.013107605768271597,0.0065496799920448
1681944014.8000836,-0.6571392692521537,1.2628999518344977,9.900375619172086,0.01675633427065154,0.012869438954388706,0.0096278561663576
1681944014.8099337,-0.6259597008968664,1.0153635924331075,9.820324774234333,0.018063399607966112,0.011213095468392812,0.0115901789081045
1681944014.819975,-0.37490008610243325,1.0625291204034308,9.61795008364794,0.01885330689602104,0.013848063379142007,0.0126445785549231
1681944014.8299415,-0.2657258681765309,1.4534153373445418,9.638685346197068,0.010402381694389564,0.018354640111917613,0.0101262785878726
1681944014.8400228,-0.4526263522948949,1.1596386011751332,9.535166305476572,0.006236364974723428,0.01919393323597432,0.0054195079405554
1681944014.8500092,-0.13004528789403552,1.2017588546244573,9.38351741038724,0.0021560616942206956,0.024208151974399735,0.0045798985206284
1681944014.8599722,-0.4707264881561218,1.0801582038218076,9.523148153105062,-0.0038014247061926784,0.025020294154225693,-0.0016842476639202
1681944014.8812132,-0.5614346204164484,0.7735087185852723,9.482195304066705,-0.003953232937210487,0.022158814454098546,-0.0108736568677476
1681944014.8824372,-1.2850104332757382,-0.7403993840880829,9.39403255242307,-0.0035034860269955,0.022310533682883188,-0.017462805992668
1681944014.8911483,-0.9100521843357577,0.5340984939658702,9.6606006149261,-0.0007769438608177233,0.016624002624029927,-0.0203710618975809
1681944014.9012072,-0.985806370881733,0.531069581767129,9.786346083479327,0.0015677184116396092,0.008779421057788388,-0.0223993092390946
1681944014.9100866,-1.048173261315066,0.6599833718430808,9.910199319812978,0.0002564694105953869,0.0007577513755489781,-0.0236721925053051
1681944014.9199722,-1.0632686077838698,0.2816256623510031,9.808691047786473,0.006752732686478914,-0.008395120637774122,-0.025817607677286
1681944014.9299667,-0.7273010426176405,0.7827581983508702,9.805982894952354,0.005677177883003719,-0.013246716662187553,-0.0234596386167458
1681944014.9400551,-0.6473969525262651,0.6894373716786248,9.816309536048845,0.00614369408620414,-0.01779488044013723,-0.0204233314457586
1681944014.9499729,-0.4682273788040827,0.7311367261684397,9.824932107522953,0.00565154041940523,-0.019558182716314088,-0.0195675409945896
1681944014.959981,-0.24161394128697444,0.9786302549003172,9.843511191655791,0.0036619392932213716,-0.01799909812663304,-0.0147053069981983
1681944014.970058,-0.10024576069058971,1.2113169436985225,9.927295558740369,-0.0004948287524754422,-0.013606459178575534,-0.00995013970763
1681944014.979981,-0.2564574375864399,1.240390628320314,10.081603965042135,-0.0040427375423325975,-0.011854118113899515,-0.0053191889624348
1681944014.98998,-0.06617335248213226,1.5328253538408856,10.20280415366441,-0.011646464548795707,-0.007833759366151537,0.0028663444950007
1681944015.001956,0.03187236578531982,1.2801658781973346,10.106204850133718,-0.015471247189991587,-0.00043202339988235484,0.0084940882784077
1681944015.010297,0.15702914576623944,1.376135119059349,9.996638449322289,-0.019010284943617502,0.006886611644133851,0.0111521304038115
1681944015.0199645,0.2793298460034029,1.2430895030205573,9.689487665441332,-0.02033384522280757,0.019531374030577624,0.0108065762010165
1681944015.02997,-0.14285195630788405,1.5698550897933188,9.71073091199709,-0.02707783458819457,0.026354946160126,0.0102204455447145
1681944015.0400968,-0.674407426578936,1.4778688921811693,9.722610448380431,-0.03452520265915961,0.027259208952853383,0.0034995033324458
1681944015.0500398,-0.9854478809159064,1.467602631059954,9.709322990751794,-0.042186822621779155,0.02508090707641018,-0.0007567083544335
1681944015.060031,-1.4051309235429794,0.9963024097893829,9.811005984262572,-0.04406304200399971,0.017788402331914102,-0.006916161774402
1681944015.07048,-1.6067549333249223,0.8144137933813426,9.948504268044289,-0.04759006939649887,0.009654989015711478,-0.015502355209296
1681944015.0799708,-1.7026800257716517,0.546612963704369,10.073042478523947,-0.04552178927245168,-0.0011803919011928443,-0.0175656612578085
1681944015.0900393,-1.4043851492209747,0.2530080161242113,9.957033172789973,-0.04129114417889177,-0.005595360683544249,-0.0210551499936035
1681944015.1000152,-1.504263092704453,0.2570956659103153,10.075995755927819,-0.03991847750102306,-0.011780254193778738,-0.0239865306380442
1681944015.110036,-1.1052988505810564,0.2630764925896852,9.899099088081991,-0.03830981135069891,-0.010420765766577576,-0.0239556535694054
1681944015.1199646,-1.1252714558968553,0.11767375699890417,9.867179136803195,-0.03327253536593492,-0.009685087193844746,-0.0180354427161863
1681944015.1300263,-1.0568903409205797,0.4013739228920343,9.896744600956865,-0.03300462318005058,-0.00705955263763076,-0.006534180751746
1681944015.140032,-1.3188084090148533,-0.07616354200399619,9.799139497021185,-0.023857218699461495,-0.006628501566428476,0.0032866141677596
1681944015.1501143,-1.662930081433958,0.24243908393550453,9.968444786083209,-0.01797766172252703,-0.01232564552677605,0.0146308586385794
1681944015.1600738,-1.5978324746658787,0.5216708726481952,9.897105314016697,-0.016014188557857058,-0.015223650741803506,0.0199607879307814
1681944015.1700149,-1.7606369617157975,0.6062684158433244,9.96281141545009,-0.016209076543230058,-0.02105641092243941,0.016400410645897
1681944015.1800132,-1.577034502683684,0.6989684138100015,9.917020681442532,-0.014124267901188751,-0.026754005933731537,0.0150897017133184
1681944015.190012,-1.5095228914309642,0.7594292274910939,9.92920520027732,-0.015111761455848619,-0.031972687639526626,0.0069915390026518
1681944015.199973,-1.0822620980154816,0.5565614003240594,9.714752020121765,-0.013284735378099951,-0.02997681194781215,-0.0069093463558009
1681944015.21007,-0.9111897093416631,0.6702739158436342,9.718428068265148,-0.011515559212616036,-0.02767548495687443,-0.0165960110339573
1681944015.2200985,-0.8053293678200751,0.889703239755344,9.81160700043046,-0.013621334656290634,-0.025511486174160835,-0.0229435853275707
1681944015.230065,-0.5651416061513919,0.927850303379512,9.701335863893815,-0.015204407653802546,-0.0200055616052601,-0.023275961315935
1681944015.240101,-0.6717929671216138,0.8327438182394997,9.64312137304567,-0.016173048581350696,-0.014995035685670838,-0.0207611687097004
1681944015.2500677,-0.800656074979666,0.7056565948936541,9.752577500783845,-0.0153412997085463,-0.014837729370407164,-0.0140026930335215
1681944015.2600243,-0.7456825458338986,0.757169317162587,9.726653781449818,-0.015556512576018826,-0.013413902568997419,-0.0040354301768592
1681944015.270029,-0.9786966208223662,0.43535052523483103,9.74135512712802,-0.012019704872460804,-0.015995174771251185,0.0025408846244909
1681944015.2800314,-1.2208218540205151,0.48411857676093545,9.728095441514766,-0.010497601844710287,-0.022200737890994676,0.0030992619844847
1681944015.2900472,-1.071858789114237,0.08282939641382199,9.802882549218145,-0.005674250977888721,-0.028538330508597057,-0.0052388209465197
1681944015.3000696,-0.4717486058981303,0.5566862221676422,9.699149790936909,-0.0060767338377897715,-0.026720280014901867,-0.0049578306812099
1681944015.310038,-0.37072231390339294,0.18985891883707695,9.657817133564459,-0.003173110878920258,-0.023355226896490867,-0.0105617625254443
1681944015.319998,-0.2155581533945124,0.318657161330617,9.645021105010835,-0.0010329619243600997,-0.017258786437926787,-0.0145779970648935
1681944015.330072,-0.06891051086890437,0.4260078944399658,9.53570033747036,0.003110368312600665,-0.00928430727160338,-0.0133717555168322
1681944015.340092,-0.427270077536742,0.6676767512099524,9.749224863490467,0.001761300786159706,-0.0066602899397127605,-0.0146718836936405
1681944015.350067,-0.47003656200814387,0.7912480674724202,9.714410669924353,0.0011729735916099374,-0.004549229326221367,-0.0134369499597004
1681944015.360011,-0.4837442383883227,0.8651617233202303,9.753445181220886,-0.0021696649530983537,-0.0016334107842772255,-0.0141678426030329
1681944015.369984,-0.6671330694039274,0.8420488137033358,9.827087975544192,-0.0013191509843098752,-0.004073134060265629,-0.0098487419623187
1681944015.3799686,-0.5370848649076925,0.9999312586908533,9.824104758952926,-0.004773657514588822,-0.0038365546968655655,-0.008234946205025
1681944015.3900106,-0.46142066000732573,0.7587771153853357,9.69671343436737,-0.002997016618166897,-0.0023490546920358793,-0.0052521165075949
1681944015.4000306,-0.5150757347747151,0.8611003179419823,9.798605549277035,-0.004927104077031949,-0.0019090985765603111,-0.005191397535359
1681944015.409988,-0.40848373408241256,0.7869111934161234,9.731302565510784,-0.006355792214271038,0.0008833359498530616,-0.0061975979793122
1681944015.4200454,-0.4669113699161319,0.7561043117961435,9.722962625868847,-0.006569246829633956,0.0025146448945778162,-0.005870149153029
1681944015.4300172,-0.8302633967262798,0.598923574482118,9.739677902717098,-0.005277304544864833,-0.0018602807260885263,-0.0063208967062882
1681944015.4400558,-0.996660850168885,0.817428108016114,9.825728981597113,-0.006029478975043625,-0.011285632910478101,0.0006479967537098
1681944015.4500682,-0.9603456472882841,1.1435056162747883,9.92683972231552,-0.012074170504736362,-0.02335588567824775,0.0110573357355543
1681944015.4600494,-0.4146122358749681,1.4052718160590163,9.990658902201162,-0.017473461175934672,-0.03521380636224601,0.0302212059882232
1681944015.470096,0.17586308743176052,1.1942048163890882,9.935626885824439,-0.02339292750048531,-0.03852398464414588,0.0387092370924302
1681944015.4800098,0.7621735558707523,1.0323630870813831,9.870042252407897,-0.023574470724410084,-0.036926245369774104,0.0494862486061402
1681944015.4900184,1.3052570990039178,0.4642695436697319,9.561779931095964,-0.019822694344466894,-0.023313436067603773,0.0452399764594384
1681944015.5000095,1.1420664668994414,0.6123113858993506,9.728751617169799,-0.018792386772613977,-0.013602696760813425,0.0388045411941357
1681944015.510046,1.084998397573825,0.5173542724491245,9.54767737448986,-0.016084481644173903,-0.0023688803165484626,0.0300796058413335
1681944015.5200584,0.5429628512365989,0.6544871601286794,9.636591513725037,-0.019308811488645536,0.0042322372061750135,0.0126104614150472
1681944015.5301285,0.24725249203714236,0.5989132007357519,9.592825207766825,-0.017910227381699846,0.005548362231169058,0.0018293526604475
1681944015.540139,-0.2875992483149195,0.7305662702512019,9.867573028375876,-0.02015535751622107,-0.0014268446850598101,-0.0093149395275167
1681944015.5500624,-0.33782267381753217,0.6938620408458235,9.911070547011166,-0.02353527930347683,-0.007960162074338969,-0.0218799702438763
1681944015.5600412,0.09105714380035122,0.636664523890244,9.829718723649028,-0.02400771048770986,-0.008970430857617794,-0.0275330442550829
1681944015.5700345,0.4460773074648883,0.9079323846269642,9.846133950556117,-0.026617170836249093,-0.005210069451637702,-0.0251497134181908
1681944015.5849807,0.574726077912323,0.7536099760320281,9.828240461514945,-0.02629335906296835,0.0038294118796412396,-0.0178001831832579
1681944015.5900562,1.0437080838084984,0.9600274256823614,9.554558498637538,-0.02705892115599266,0.01296794322806816,-0.013042238688772
1681944015.6000297,0.3278974525859572,0.885372523397579,9.768020030589808,-0.027950486503829565,0.019637299212579534,-0.0088924748438647
1681944015.6101356,-0.07729456343499484,0.9920201143544148,9.83509442460045,-0.02911687875257539,0.021090535588178385,-0.0049589035648158
1681944015.6200202,-0.2757365676325108,1.1413465185439027,9.802344427472471,-0.03486299584155101,0.022580044138573268,-0.0067617559421113
1681944015.6300783,-0.4917661178958206,0.9694262502620921,9.686065609906182,-0.037872298299429626,0.0218465507077362,-0.0077972739550522
1681944015.6400518,-0.7709540301050728,0.7205069394432005,9.622327419508226,-0.038209380645338444,0.017428904999585573,-0.011859385444527
1681944015.650024,-0.8237613548830524,0.6368906132105677,9.593556698352707,-0.03694094638905817,0.012195299247903742,-0.0144508435937813
1681944015.6600163,-0.7728428864850517,0.6589875419120397,9.637538500631575,-0.03755748071612222,0.0075249449368374015,-0.0181034460279396
1681944015.6700425,-0.4422699438025699,0.6403518526515204,9.607635536273598,-0.0391605031989661,0.007624842724330154,-0.0199117336037806
1681944015.6800454,-0.13811561852612406,0.5135239977999927,9.468103084868867,-0.038477362091101946,0.01423032160942818,-0.0133023952680877
1681944015.690031,-0.34437870216116906,0.29154721735735084,9.482209513459015,-0.03261675176023317,0.01759034039405167,-0.002381699307566
1681944015.7001116,-0.9463328097339923,0.32603162263243024,9.682341199373212,-0.030662515404832513,0.01362133561412114,0.0031573648716085
1681944015.7100766,-1.2917715271202588,-0.007263349840267234,9.718054226971164,-0.023373284979304833,0.0046461834726639,0.0056202747777798
1681944015.7200935,-1.266446766715792,0.38247793337760516,9.716214911076,-0.0221129655509485,-0.002261487201283149,0.0085367982660182
1681944015.73008,-1.7124370978354593,0.19911846144900755,9.891934273410907,-0.020240247361005687,-0.016947738413357682,0.006027189401234
1681944015.740126,-1.2189868775110029,0.3717425223373498,9.684562944559756,-0.01970002645265606,-0.023189158195091167,0.0051885557745345
1681944015.7501204,-1.4688488565954754,0.3002530319767113,9.882655886030355,-0.017772479153764155,-0.035877512325873905,0.0021284664958012
1681944015.7600513,-0.9788812232971023,0.3163748633668684,9.679840062108605,-0.014777527681663941,-0.03996853622789994,-0.0021292275364748
1681944015.7700863,-0.6711599216901875,0.6656126902495361,9.746520710438022,-0.015576789168698382,-0.039797636931079274,-0.0050482416141084
1681944015.7804554,-0.6438360234521284,0.9798712348197763,9.922868535328908,-0.020831956051333988,-0.03857838943847768,-0.0106352131429365
1681944015.7900586,-0.5096178884560127,1.2476331725348777,10.050905392421358,-0.027351911230330463,-0.03486997710518004,-0.0156019042792967
1681944015.801499,-0.5185971895628984,1.1670763695774022,10.104252279554123,-0.03231817948894346,-0.029276103684654504,-0.0201992142561129
1681944015.8101716,-0.5269922697746225,1.5901157197958002,10.256797119261599,-0.04235785723368869,-0.02439977561655613,-0.0213893923524073
1681944015.8200688,-0.6495401429063136,1.300976660020088,10.105946272076254,-0.0483633890382208,-0.017845864116279954,-0.0251900788012198
1681944015.8300958,-0.9606093639882716,1.3361248297674078,10.121368561228879,-0.05512115945246136,-0.014781664071393964,-0.0278830576303652
1681944015.840263,-1.0086388853287525,1.2101898323313827,9.949829387323808,-0.05944252071532695,-0.011158092184445446,-0.0265371270093372
1681944015.8501234,-1.4621961891172441,0.9447707505271624,9.967132496588897,-0.06229885037068387,-0.013750307627908692,-0.0256226930382898
1681944015.8600698,-1.3766599481771353,0.6784663431361462,9.768099430837553,-0.061086278316835226,-0.01421668188460911,-0.0219234834972075
1681944015.8700778,-1.4835545309599705,0.5987595113350536,9.74410904981921,-0.06180289283455652,-0.014574892800150242,-0.019920201188629
1681944015.8800616,-1.7311467398732274,0.2653669893354515,9.753636533920082,-0.05880531892765274,-0.01895298290900503,-0.0194760068866661
1681944015.890036,-2.016334869399079,0.3126278420526351,9.8401776155298,-0.059664186236955775,-0.02816542506789409,-0.0181434779974869
1681944015.9001195,-2.0473566425704735,0.0742794926930968,10.089567094185332,-0.05519148064069903,-0.04608760042326177,-0.0098867874208143
1681944015.910035,-1.2036137432177578,-0.11917682060492056,9.99477870985717,-0.050755248281563095,-0.053185898347066454,-0.0011715918394974
1681944015.920057,-0.26171394501050765,-0.5178236626502816,9.815261767964211,-0.038707073106641746,-0.049531680693603815,0.0125165561598488
1681944015.930036,0.20271263654707602,-0.28180632110143566,9.930934680871434,-0.03308191304818437,-0.04308141129660379,0.0265488893178054
1681944015.9400692,0.8281608835828767,-0.18960246283349047,9.73332387041546,-0.025281827741794192,-0.030384900906598032,0.0453728836414166
1681944015.9500573,1.1183136567959373,-0.036542770264987694,9.549346971108513,-0.019664059528773627,-0.013077956545077308,0.0625301104423352
1681944015.960143,0.7884274942442677,0.2447666275134495,9.600558478190944,-0.02029031798726507,-0.0011803443303692706,0.0758160565432854
1681944015.9701002,0.20325612699831672,0.0066332322957593625,9.541822731114413,-0.01545878507535222,0.0005879908028163767,0.0825052623090096
1681944015.9801886,0.29218075042297076,0.06547139888197104,9.642973475246654,-0.013402953061408757,0.0027582020729227667,0.0821804915007897
1681944015.990561,0.5396439501522955,0.13475335087522713,9.59269408437153,-0.010827386909480473,0.007988385169994734,0.0789069671568223
1681944016.0002177,0.7480264251329491,0.06467270060506876,9.640321008676096,-0.004737008586830894,0.014067489296572292,0.0750065658625909
1681944016.0100582,0.8634562696781738,-0.012323932306466159,9.65535262224752,0.0022500513700360637,0.021524676610206232,0.0670214657124825
1681944016.0201411,1.0332264004859997,0.3593023689088952,9.74625922414009,0.003938116111555633,0.03039902479782635,0.0580766562756844
1681944016.0300667,1.1588681874200153,0.2304794306976582,9.58733752386381,0.010279177194878631,0.04110573828376561,0.0496066462632962
1681944016.040074,1.042432648795179,0.6475566490018954,9.68528488476174,0.009998245199775536,0.04897892624256726,0.0412540126976319
1681944016.050152,1.0872944250720442,0.7647301055749873,9.643407702595695,0.008287820428023273,0.05796867676808229,0.0325924855109998
1681944016.0601287,0.8741624633020711,0.74735135073193,9.633507210233308,0.007244909185185328,0.06267870753659754,0.0246044069912978
1681944016.07028,1.0939947314983964,0.7348388054877038,9.445508003925472,0.008506034404123335,0.07043758160399727,0.0214160725858756
1681944016.0801592,0.9498027751893352,0.7763407801198113,9.458965449951805,0.005782629570529637,0.07786878346459597,0.0173618903768011
1681944016.090434,0.9125140098532993,0.6088088791706245,9.366937399158655,0.004988612161899922,0.0865378895100195,0.0150205631193467
1681944016.100479,0.5548344204490178,0.5623601182362843,9.372513304717494,0.006278446701620671,0.09082272928459785,0.0180437740322896
1681944016.1102552,-0.09756850494600915,0.07156784102910577,9.389909363566868,0.01344390367016262,0.08737090920937558,0.0159076832619258
1681944016.1202054,-0.319057366563653,0.3325826445205854,9.539719398662621,0.01623220277233913,0.08092581421472772,0.0125455612701126
1681944016.1301954,-0.21660788403372996,0.7791845757668838,9.794238488592288,0.014307555214131946,0.0779705661160448,0.0039652323734709
1681944016.1401885,-0.3371707877427639,0.648080451590829,9.971290715553494,0.009686356813332703,0.07516280255531922,-0.0107870773959211
1681944016.150159,0.152953655077929,0.4165016014468645,9.881850064297028,0.011339483025560695,0.0815664021511823,-0.0199114560696533
1681944016.1601677,-0.24377174474666724,0.637632756827331,9.851467679920837,0.010806906115103503,0.08756908020516407,-0.0204646654042652
1681944016.170179,-0.8850879018286236,0.7275694270693619,9.860529890880697,0.010438774183275336,0.08604305876100617,-0.0169008142861775
1681944016.1801603,-2.176045701503305,0.46913982863780385,9.947371229563073,0.01392332789949429,0.06882353945165172,-0.0194803226354769
1681944016.1901472,-2.6494157876746387,0.7434717242635908,10.120242007251678,0.012065212886884514,0.04348471340777787,-0.0170783504459313
1681944016.2001665,-2.643224859484256,0.3270678775517769,9.78354741510298,0.016312483164785604,0.02392349540454516,-0.021917623615568
1681944016.2101376,-2.9035676192469513,0.49903059407781547,10.10433114156717,0.01588989107859322,-0.003873995143968756,-0.0242632116738012
1681944016.220105,-2.503266858754427,0.1401867127684591,9.818614730903684,0.01877028013921081,-0.02359966505795679,-0.0283300552132776
1681944016.2301126,-2.1908462669400066,0.053374228115714954,9.833704411157484,0.02617648160367957,-0.0412425476153531,-0.0300222646060637
1681944016.240148,-1.5460297611154001,0.468231960721382,9.802787904232355,0.024788874710355385,-0.050523299962858065,-0.0314905803266218
1681944016.2501757,-1.2612289654771733,0.3703081332165858,9.89536190378857,0.023130932967836883,-0.056352619994957574,-0.0344820107880285
1681944016.2601516,-0.4920136566385726,1.00287812450036,10.102473944988803,0.018137506338033925,-0.05529358536767128,-0.0329460624221018
1681944016.270192,0.3749158565184554,1.2251614270344835,10.00975321510006,0.005652335384273255,-0.039593848196557715,-0.0248610797885111
1681944016.280434,0.253890057598059,0.29054015057183297,9.907763174163184,0.00792141402443095,-0.024199687239224398,-0.0167025990399769
1681944016.2902014,-0.04382061323882882,0.1086561774479437,9.79883533201627,0.011901801955435826,-0.012967776484070865,-0.007663412167435
1681944016.3001523,0.049840591768646435,0.3500287793548544,9.554384874503484,0.01514026470707542,0.0028601742834644655,0.0112529032316752
1681944016.310118,-0.6021973898430335,0.4502009709927861,9.433606686916157,0.019493691464316957,0.013253377430340366,0.0319473993417569
1681944016.3201623,-1.4801547765112497,1.0674138661508477,9.728071992078585,0.0119116465911716,0.01209227745692629,0.0508588616189309
1681944016.3301427,-1.9460789594970134,1.0049315060732216,9.770176678895776,0.0065139700362361165,0.0070276257334791455,0.0678973187145539
1681944016.3402474,-2.6200894349284303,0.5597599544035036,9.915152126753242,0.004665111423918996,-0.006021785172160742,0.0763093445834466
1681944016.3501668,-2.8404916661746977,0.16167814743543374,9.953296691782398,0.006457514279113791,-0.021082157723148042,0.0741904665169068
1681944016.360187,-2.8178404982712104,-0.17641525375209027,9.876608536435883,0.015590170295933034,-0.03590329593621083,0.0703190703329392
1681944016.3701513,-2.400357578622928,0.09319080439578697,9.912310230239132,0.01869602113908734,-0.04641454444899205,0.0612579461571523
1681944016.3801446,-2.1470828712938603,0.04088349974940942,9.9014088508894,0.02235873874824222,-0.052411320787612195,0.048035493904049
1681944016.391532,-1.781310842754115,-0.039458355866066414,9.837798173802806,0.0318487582993369,-0.05623775733739415,0.0334104884800263
1681944016.4001656,-1.586234524327018,0.36242632581709244,9.79965997754814,0.03335561359245114,-0.055378213382960895,0.0221492581453868
1681944016.4101894,-2.0274131299762317,0.6598038280955767,10.026944792852216,0.030495494902954542,-0.06483379006103496,0.0135611657437631
1681944016.420157,-1.713842798749839,0.5506590372289174,9.828852910042217,0.03263512840823207,-0.07395284054857582,0.0109391741839
1681944016.4301438,-1.4350543018573594,0.9648050835310593,9.961391544765405,0.030437418669122432,-0.08628445878860048,0.0183841184166022
1681944016.440258,-0.6865959522511988,1.151659333644547,9.773715394385523,0.026263867208416017,-0.0909319781270984,0.0302745670464583
1681944016.4501772,-0.5216827805881675,0.8431867940743908,9.935351385283854,0.02719067217751311,-0.10120057446271145,0.0418025542434998
1681944016.4619846,0.49646879528714194,0.7403172216074394,9.687039409778604,0.027485091621145732,-0.09645213985307238,0.0518538158771344
1681944016.4703443,0.9596436778507014,0.7948240538315923,9.734839266929681,0.027210646152651407,-0.09168673433036771,0.0608635273215123
1681944016.4811382,1.3670163033106872,0.49715057912117944,9.616449954745999,0.028111987779752465,-0.07842113709848027,0.0633664679166623
1681944016.4903798,1.3099441613301532,0.3967441641986171,9.606938603577621,0.029768841440813456,-0.06756647123714099,0.0627507631120034
1681944016.5002358,1.399013056901005,0.3623582038061369,9.472121967661364,0.031805681968520336,-0.05312888348833411,0.0585745338734933
1681944016.510195,0.6552678148953406,0.18639468590743558,9.631494618260286,0.03582864960582388,-0.04913093224289817,0.0507900741335698
1681944016.5201612,0.6257950158822679,0.521042815810363,9.698930162852882,0.035352006518789725,-0.045053513869065254,0.0474381920334645
1681944016.5301723,0.5413567228538909,0.43416216862271695,9.613078957359045,0.03698545900887187,-0.040229862095055614,0.0424853478011437
1681944016.5401912,0.5491372999593512,0.7284662987001338,9.727700220059644,0.03388239984124642,-0.03447027722992577,0.0395086471375771
1681944016.550175,0.5007014683287944,0.774863866959279,9.68762842895613,0.03230798924347768,-0.027974941611795694,0.0400622029241868
1681944016.5602107,0.20440566826612153,0.8282954785826288,9.733296602968933,0.0303512519261622,-0.02281706818174301,0.0410385828849622
1681944016.5701728,-0.0023176637733506636,1.015221231378762,9.757141168626466,0.024927396672012735,-0.018523448949503536,0.0410655465361424
1681944016.5801694,-0.4405127667422915,0.929149498880821,9.748627468195055,0.022125704705579976,-0.019280725945338206,0.0426596019801446
1681944016.590103,-0.7755181267877427,0.9032683645091908,9.761213361413041,0.02127136414650652,-0.023776538929767724,0.0447547052439996
1681944016.6002522,-0.7940911335411062,1.0089925641481254,9.807364366741254,0.017295873635889643,-0.027134539192650187,0.045178199970419
1681944016.6101265,-0.8532117671664478,0.9665513625974438,9.873055246531386,0.015182726149572012,-0.03175455297069776,0.0439624924597093
1681944016.6212904,-0.5643863612373486,0.8895341064530476,9.724153698147884,0.013256598250282052,-0.02961932785353867,0.0418183345732041
1681944016.630117,-0.46982531613852085,0.9541406858784064,9.762117888252542,0.011235567992809236,-0.026911613413657998,0.041354178303177
1681944016.6401863,-0.5789365172384018,0.9604162175856,9.707415875955123,0.0067500797172571425,-0.02257278156831513,0.039506773316557
1681944016.6502037,-0.771146525286498,0.9908058945851623,9.808870206408425,0.0033862854987869425,-0.023436269944793277,0.0451246973511525
1681944016.6601267,-0.7690755815910943,0.8247517137101843,9.771510734107151,0.001261203910457923,-0.023267527383947693,0.0511175457772561
1681944016.6701405,-0.8542454433188292,0.8383948340616828,9.791665030792094,-0.0008365622488477487,-0.02579678527109557,0.0596463296946832
1681944016.6801414,-0.8050985030957151,0.5635298198095424,9.767703714860579,0.0014514546761651157,-0.029305630131770764,0.0658320326742478
1681944016.6901484,-0.6094278800015804,0.6345490980723371,9.74320782889915,0.001869936872730939,-0.030213599613673477,0.0721131850418397
1681944016.700143,-0.47374313420997116,0.6977872832173939,9.793032566607277,0.002375661620726981,-0.030850026866278888,0.0752513174351998
1681944016.710111,-0.4920402749122249,0.8344633874822239,9.819542020447503,-0.0013098134569414937,-0.03217788843323221,0.0758819271263429
1681944016.7201428,-0.03322216376658269,0.8141327816488826,9.585904869797375,-0.003227173983631003,-0.02657827556303192,0.0819985557731934
1681944016.730168,-0.1490119216107173,0.5869514608108584,9.751558645163604,-0.0018584549973604098,-0.025418630039291207,0.087266496234829
1681944016.740147,0.09355617717703676,0.32327032983167153,9.630653859511986,0.0014887905286521015,-0.017922487710354852,0.0859143723186799
1681944016.75013,-0.028720195283581038,0.5873168292217454,9.783431267513622,0.004066042132579523,-0.014531478566522359,0.0875731844839402
1681944016.7602844,-0.3339434557408568,0.6661286915991907,10.016748784882,0.0054962955870384534,-0.0171472246071936,0.0867854494985886
1681944016.7726614,-0.12211707585495306,0.7383026895130546,9.823020336672242,0.005705303641543579,-0.012300255364484097,0.0824378867086716
1681944016.7802365,-0.4778824141055994,0.6458783413438239,9.954349838344939,0.005470011879429858,-0.013842466567775845,0.075151166730816
1681944016.790253,-0.34322837899146774,0.5913215927950707,9.823145353935661,0.006746030714375581,-0.014295666166973984,0.0698323537048646
1681944016.8001342,-0.36147871679531857,0.7136247488876213,9.855222856087783,0.007977219106735394,-0.01691742349177886,0.0694171477493592
1681944016.8101544,-0.24347112179879402,0.7567383279243428,9.824468325275843,0.00641585311000409,-0.016224875679420592,0.0673675898846932
1681944016.82011,-0.08751125555058344,0.4940402136174038,9.62886791343763,0.010149233471357474,-0.012939427950207007,0.067536725514824
1681944016.8301487,-0.2587623780813211,0.5524801175055138,9.732913794887313,0.010435061839142836,-0.011841945493934204,0.06748637449115
1681944016.840258,-0.5598064214655903,0.563671134385313,9.821735339338533,0.012240556883101895,-0.015541740702498608,0.0720379788812943
1681944016.8501625,-0.7129318808898006,0.4178708903431801,9.828881474150975,0.01544653132931039,-0.02005151181981442,0.0725705165800401
1681944016.874394,-0.5599650792089466,0.5871815344536022,9.868146236209805,0.01407542059655486,-0.02182772455926702,0.0741993029054948
1681944016.8767958,-1.4549906713410599,0.46352010449074665,10.377888526621764,0.01364214735226356,-0.02582748049550196,0.0720355797943421
1681944016.8826354,-0.6190026970565279,0.5364239896330419,9.96891769978873,0.014434862838111587,-0.026449283359485026,0.0705103490886041
1681944016.890195,-0.5226367538230958,0.9291944375961037,10.06654450954304,0.01157677049568672,-0.02634929111356254,0.0721992019948312
1681944016.9001894,-0.583574844598422,1.035503625721109,10.0576963069486,0.006418872097248618,-0.0262670503907188,0.0739221115049668
1681944016.9101117,-0.6355290523227151,0.6647303353475904,9.9004676279257,0.008319006702915218,-0.026617079212921134,0.0775101248559304
1681944016.9200978,-0.5247574400314144,0.8255411270243501,9.802913080803851,0.007724567282950075,-0.024698325318606357,0.0810828421649285
1681944016.930147,-0.5222656006780599,1.011579296024412,9.730971125232255,0.006763472805808209,-0.022474275544057922,0.087213686519558
1681944016.940287,-0.9590569177501821,0.9472113207588272,9.953391024598757,0.003639194801796597,-0.028102839847737263,0.0867484797176667
1681944016.952211,-0.7133379698308596,0.9971960309920506,9.853940800065718,-0.00031726423370144203,-0.03113735633969516,0.0882207591471024
1681944016.960255,-0.5818341808550219,0.7407636945499275,9.80042541831471,-0.0007087166222856943,-0.03195274891897939,0.088123946302826
1681944016.9701524,-0.6771655079418641,0.8488197354779633,9.92948127343304,-0.0022087805634165955,-0.03675055241229465,0.0897776920732804
1681944016.9801583,-0.44632942027133565,0.6254793431639875,9.825590358329343,-0.0008597882966922758,-0.03688594823381092,0.0863508943852731
1681944016.990262,-0.10429706752420341,0.8966832897346549,9.852266387985637,-0.00496480228470552,-0.03432361877786611,0.0878460992512055
1681944017.0002234,-0.27379342196603196,0.4873017288971849,9.910922915155979,-0.0028411951779621536,-0.03612872863384213,0.0832273129758187
1681944017.010259,0.21212707126467548,0.690764459690703,9.80526790624436,-0.0015117386514772754,-0.031494005764000244,0.0835701961454697
1681944017.0202546,0.026636659976907756,0.9694404944617422,9.914389568306191,-0.004185366093223248,-0.03133616299553857,0.084457381480629
1681944017.0301745,0.21478476334603178,0.8171348312473625,9.741018150959153,-0.005418927754757522,-0.02809025563926368,0.0815973643597909
1681944017.0402434,0.33797707389136683,0.840550749102998,9.679615318299748,-0.007024138573697318,-0.02388123879245761,0.0821476865944215
1681944017.0501971,0.394151867240094,0.7664272248235083,9.749962952244207,-0.007708356246870733,-0.020149615453463006,0.0844987024006196
1681944017.060151,0.2661331261420638,0.5526825841125812,9.672203490815228,-0.005643408404489661,-0.01817112133493442,0.0861177284654923
1681944017.070215,0.4079518044845918,0.3258800514594229,9.50880027056953,-0.0012707453868213588,-0.011513802695436027,0.0853245694574662
1681944017.0802257,0.28361594109500793,0.560468622166975,9.682093921053418,0.0005025676781462917,-0.007798011838189494,0.088825276904995
1681944017.0930066,0.10841721041893393,0.27332251859885115,9.672213397496805,0.006965866518160803,-0.005836284988576654,0.0906640801963158
1681944017.1001606,0.4670404062887325,0.5646074392121789,9.679920840909439,0.007068055132748537,-0.0006382591070937881,0.0938943241175958
1681944017.1101663,0.08329960620194937,0.12509516205883298,9.674905205512639,0.012299045557535734,0.002801211696754522,0.0938124124345132
1681944017.120144,0.18910089485475012,0.2865559422782751,9.63282416721945,0.01577150597846619,0.009123488376555711,0.0966532517608949
1681944017.1307807,-0.1680727428161007,0.18607044863019104,9.739855568707336,0.019920402585921305,0.009891804188505509,0.0997013736900636
1681944017.1401722,-0.1456852897878812,-0.06874923804578971,9.610330326804705,0.027005230613800207,0.011938168721846157,0.1010587949690171
1681944017.1603513,-0.28903524438076184,0.03230162263264161,9.586312076238961,0.04320195155718511,0.014504261508082272,0.1035362396773644
1681944017.1701598,-0.4570345947531774,0.4004857462688341,9.744022033293664,0.043840997334943725,0.013739494633183332,0.1031318594154664
1681944017.1801624,-0.6200311375263475,0.46333490602956173,9.809282778043498,0.044928847996946575,0.009965175881831757,0.1031210113701173
1681944017.1904712,-0.5585827104875766,0.5408506503735057,9.744796776612494,0.04551673973219101,0.008580921965554492,0.1036170486745187
1681944017.2001486,-0.6102706417377054,0.2550939416147176,9.758580635693411,0.05122455486276315,0.0058330838251803895,0.1011875261005708
1681944017.210243,-0.6484273800197191,0.8585921127562047,9.891699627666396,0.049806671929700695,0.001694045053838438,0.1042194653686829
1681944017.220291,-0.4221835029042484,0.6729225287212537,9.747246943821711,0.05221142079554846,0.0018928790258495838,0.1043770376977273
1681944017.2301457,-0.5470884547854047,1.1610427874330107,9.941689856325935,0.04833913481923054,-0.0011228942595178776,0.1030198101338693
1681944017.2401588,-0.441247238588757,1.1890203750734243,9.954487305128024,0.0455250463422829,-0.0037572092129687126,0.0986405376729318
1681944017.2502303,-0.011362649581263536,1.3972831647335222,9.76276667362426,0.04100209230691462,0.0007758065493922832,0.0945459295448609
1681944017.2602012,-0.003691068288948794,1.807200342349869,9.932978702261773,0.02871360559862271,0.002928046906555956,0.0909661192831345
1681944017.2702367,0.15222407387006573,1.4472971923958153,9.779912661266989,0.021834867706384695,0.007340125112641329,0.0855250571307488
1681944017.280226,0.48590009686580177,1.3931296485380986,9.69774906532129,0.01682559634791627,0.013715558735739024,0.0855039421853371
1681944017.2902324,0.3749634423467956,1.329652165718579,9.718013448882989,0.011112325915417616,0.018423842988402897,0.0835198823746987
1681944017.3002827,0.518495754088285,1.3903064294298302,9.67467175386764,0.003092042762065762,0.024903412837094494,0.0836028743919679
1681944017.3102615,0.48493272716498165,1.1615940363298642,9.647931077579498,-0.0013121126283608677,0.029969913302843137,0.0863619361457177
1681944017.32021,0.4273522317735657,0.8242305148455046,9.536706444372326,-0.0014939578159455116,0.03533388381526889,0.0856998477515527
1681944017.330176,0.30973742870839804,1.0271610101627962,9.674853430098102,-0.004157355439200882,0.037291673261745234,0.0907566536602326
1681944017.3402932,0.15737369008548235,0.949738864569967,9.706015302459857,-0.007993171506772655,0.039359188022845645,0.0927841354545899
1681944017.3501954,0.10554457847346971,0.9000848430579491,9.693983692365649,-0.011698445016587601,0.04221494848047763,0.0937873561319657
1681944017.360162,-0.1364475276140491,0.5641333270573375,9.632580942810375,-0.009742036524009212,0.04199618972449557,0.093781842702324
1681944017.370223,-0.22636980945476787,0.939453641363738,9.691104601809236,-0.013934262621939471,0.04146868494436373,0.0964721504983254
1681944017.3802233,-0.3035568005345048,0.7060601206704246,9.768267119665508,-0.016793069884359236,0.04109118624173693,0.0969656397041627
1681944017.3902383,-0.6494465702958423,0.3602195812914778,9.736065241618567,-0.013448376213730313,0.037412135671310964,0.0931715060409852
1681944017.4002447,-0.624757271840111,0.3235050194209074,9.689019083125173,-0.008156862811965444,0.03486702393031815,0.090714945310051
1681944017.4102163,-1.0339977574654482,0.46256613123577356,9.890317278586213,-0.006679699924741709,0.028173076064514548,0.0843357433018037
1681944017.4202857,-1.0183278393321464,0.8170962892021937,9.862937205231441,-0.006601424912950261,0.021275192782472037,0.0831784893211671
1681944017.430192,-0.8969843619433204,0.6245015644594383,9.814931805749781,-0.004134637610334224,0.017696128536698944,0.0783743773040124
1681944017.4403164,-0.8565140034379091,0.9289976720690007,9.822586422296073,-0.0030849875623213327,0.014789380434396962,0.0790247831878014
1681944017.4502378,-1.0220191110950876,1.0276435425791801,10.0076536179056,-0.0041624894552173015,0.008111473408844225,0.0759454135236092
1681944017.4601896,-0.6207367360991219,1.2101647310876593,9.80058376342114,-0.006575639133512893,0.0085456719413639,0.0737758566078492
1681944017.4701674,-0.5931705710698516,1.5643936075479798,9.938041617781776,-0.014411881214772928,0.008849471854096862,0.0723282162484475
1681944017.481621,-0.5802849745711391,1.3087476564052751,9.747901511599979,-0.01707229738184085,0.011695048278030494,0.0693026248750039
1681944017.5250075,-0.5729863420726582,1.267125762488529,9.831852509254624,-0.02521126234958137,0.010673700161003632,0.0656934742268868
1681944017.5261643,0.18899599193335073,4.64963498454321,10.497129951239385,-0.032392498625126775,0.011985282244558065,0.067559978776867
1681944017.5269923,-2.14268513551434,3.874482988424019,11.637886321898211,-0.03756423251085097,0.00951997757214053,0.0665789757308312
1681944017.5278432,-1.0525758617942962,4.635481298407925,11.304646076443412,-0.04520299233523645,0.009487304201216714,0.0639733139809914
1681944017.5301569,-0.9885575407456196,1.8422949477098334,10.456486814488429,-0.046948015439481766,0.005377784693426646,0.0682201970753022
1681944017.5402558,-0.28504865524459677,1.1443797499482737,9.864502491646618,-0.05211487022329986,0.006809695273673569,0.0715068493422814
1681944017.5501926,-0.4418597732364592,0.7047160402421179,9.768769937716407,-0.04995077590527268,0.004500213349349332,0.0736034799751588
1681944017.5601938,-0.5262559421019611,0.6378000735110396,9.664824569610843,-0.04693559186624686,-0.00013597285731089997,0.0767673243221589
1681944017.5705504,-0.5807392116698612,0.6511759317371619,9.894580985179383,-0.05016135714299639,-0.008877845769686492,0.0739044908818551
1681944017.5801976,0.18730282335307138,-0.3182388162037003,9.575637958016806,-0.03921463653776618,-0.008789906389794414,0.076787321680481
1681944017.5902283,0.8465655617039686,-0.369793578502823,9.334122516239178,-0.021692542206453305,0.001904923753307116,0.0780325893697091
1681944017.6002204,0.6850481232815379,0.614385904874524,9.437388391532028,-0.023683423565583162,0.013340101235491222,0.0774362076458283
1681944017.6102183,0.4397710024524817,0.75539833033373,9.662476445162923,-0.02827182234920585,0.01954489998461289,0.0770076800522157
1681944017.620205,-0.05542060951016732,0.35558241710161276,9.81217047012803,-0.02757611053973392,0.019240513948393774,0.0794298787054368
1681944017.6301816,-0.40476496417619734,0.152439830609019,9.871586633527743,-0.02316589906550266,0.014849021199637966,0.0784407321748086
1681944017.6402128,-0.3095427706642157,-0.07260881635021357,9.802308547572965,-0.016854127316833285,0.012985363687808496,0.0761312384542771
1681944017.6502633,-0.5333755402611294,0.2748598983735617,9.987333321639085,-0.015059786819966397,0.005812307544038569,0.073584086113865
1681944017.6602335,-0.21332923061557132,0.20010076630610876,9.7617264222485,-0.009065038257791433,0.004318750262855209,0.072223826163704
1681944017.670214,-0.3202767122569747,0.5529475931121454,9.87960421695298,-0.008737774492251627,0.0005309248502247601,0.0737579379615136
1681944017.6802082,-0.2833992335205551,0.5011553992209901,9.775830241351633,-0.00920521914987323,-0.0009153078913636043,0.0673202786979028
1681944017.6902776,-0.080775540512001,0.4906225934261381,9.557650823541472,-0.009428443475360976,0.0030486576717291603,0.0658785988029786
1681944017.700192,-0.38008423753062714,0.3202023332938193,9.6925173946896,-0.004861312708971061,-0.00030993296562527805,0.064797869735653
1681944017.7103543,-0.15384907943258733,0.356538230654165,9.495042129836936,6.605925108811118e-06,0.0018105319535320899,0.0666429985699006
1681944017.7202866,-0.6078096227843401,0.4872205344570744,9.71741753595545,0.0014043168447510808,-0.0022421814597799483,0.0611374106642552
1681944017.7302315,-0.6137835442026712,0.9713976638038394,9.741922209116119,-0.0020255050112733546,-0.006436002587777183,0.0600618970033475
1681944017.740261,-0.6759816427052108,0.7848986721929075,9.67151564984854,-0.003496399397604914,-0.008823882181992222,0.0524976913270303
1681944017.7502072,-0.9874263689891156,0.7990757169750352,9.896806651787335,-0.007093534637348768,-0.015122518034733856,0.0416082803544351
1681944017.761402,-0.8683080694837841,0.6375093192106123,9.736573773122752,-0.005289622962988636,-0.019478565043092182,0.0352854755160161
1681944017.7703526,-0.6586916862174873,0.6477185820472383,9.77697529834572,-0.005785569556340197,-0.019268072556105964,0.0303822894033738
1681944017.7803595,-1.0055554990369986,0.8551901691773366,9.987916605199104,-0.005352051218284395,-0.02673350659774131,0.0319719788071462
1681944017.7902358,-0.6577992122014431,0.8365451985069539,9.799703630733724,-0.00587568763505632,-0.025567855339638956,0.0340242710348912
1681944017.800289,-0.9857937148743062,0.9628827170401753,9.978736200504395,-0.006710309719453967,-0.03060800582751175,0.0387186248239823
1681944017.810235,-0.8821188752206556,1.0276603233420762,9.855201985814903,-0.008673245626704306,-0.03345735333783646,0.0459413964685746
1681944017.8201845,-1.0762142727692017,1.0865569992886168,9.930107779598025,-0.013429853956910457,-0.0391414362490787,0.0508351501461812
1681944017.830221,-1.0150353275770607,1.0904713591966921,9.94698960102449,-0.01834521148254658,-0.04617651100947942,0.0562258091208287
1681944017.8402226,-0.5590667850517562,0.47770444348648344,9.635736881454957,-0.014839639182573356,-0.044981652096795645,0.0606820982333966
1681944017.8502083,-0.6339974066661974,0.26952650915979287,9.799088651540753,-0.011405226393543032,-0.047667409650410074,0.0602293786045857
1681944017.877041,-0.3178658448666904,0.39930224267608483,9.862497211219155,-0.010666283739299898,-0.045432941315631026,0.0623157162603684
1681944017.8797462,-0.12218651537299617,-0.7521941560322578,9.435155380614958,-0.005741889479363229,-0.04335337062086186,0.0591956477996655
1681944017.8808255,-0.834814146991236,-2.8264719053531917,9.214553236731993,0.0007987736895334138,-0.04435401839285945,0.0576548975345441
1681944017.8902397,-0.10442412798726464,0.17988675948760718,9.802780442807657,0.00469737365596988,-0.042454933284508084,0.0548558485147305
1681944017.9002175,-0.0691708557802684,-0.017216042988414504,9.776404951932742,0.01061305665827395,-0.03973742262210278,0.0435670081910439
1681944017.9102316,-0.25860352518089863,0.015903221066212447,9.861901412335467,0.015166686343693198,-0.041367392682283864,0.0299034051981517
1681944017.920252,-0.04644872002757673,0.3489672843927769,9.860234161646082,0.017483482499596803,-0.04099195177817691,0.0219196051743575
1681944017.9302197,0.001273624318857354,0.3538111611707059,9.824689657700379,0.019783479170789747,-0.03980600323369995,0.0134089438629099
1681944017.9402723,-0.03358455261621567,0.419114371672099,9.857398091126294,0.024112721592863175,-0.04073775017925012,0.0093707212631353
1681944017.950222,0.18720827290662176,0.6925929959686286,9.74639426619355,0.02366034900840412,-0.03604743953052758,0.0066902705852636
1681944017.960274,0.038308075606580075,0.8973727129962082,9.81867032995676,0.02180904176521676,-0.034637928704645424,0.0063066886191018
1681944017.9718945,-0.1341120640593989,0.8744446123505227,9.805442575364525,0.020549289165940333,-0.03497003795233083,0.0062042338226684
1681944017.98255,0.004306187428656013,1.3189003773499761,9.864597135288253,0.013643456793765883,-0.03354949505334993,0.0097246112686344
1681944017.9905145,-0.19697276810371586,1.2455104956683414,9.865318584221697,0.011026242212121925,-0.0353890242707187,0.015268514716322
1681944018.000205,-0.20212710083471558,1.1296780966479203,9.787708136591805,0.007189184709549645,-0.03464441597725551,0.0148887548980065
1681944018.0102265,-0.21825260491540902,0.9774914846118087,9.71763845102898,0.005458518583192178,-0.0321514115985104,0.0141011502978154
1681944018.0202792,-0.30231986291285184,1.1314755939100847,9.738840999950703,0.0004280233216340769,-0.030516694921249626,0.0155428879347392
1681944018.0302937,-0.8165135117648794,0.6619256609642387,9.819313950755772,0.0011802922097282065,-0.03650701374169378,0.0117801836144873
1681944018.040226,-0.8371650738011782,0.9985662505817794,9.892514157774196,-0.00380327419319654,-0.04372658741041513,0.013289846332068
1681944018.0503314,-0.6227895145474894,0.4667570764797795,9.65408890378201,0.000923036098045071,-0.046194900066431774,0.0148666099098273
1681944018.0610316,-0.7826234118279328,0.7638730913905687,9.861693321429819,-0.002972086966470492,-0.05201429068586677,0.0133213082712837
1681944018.0702133,-0.5361784623136435,0.6070837605760065,9.825570344098711,-0.0023524583923082423,-0.05464318170177696,0.0153282711666771
1681944018.0804472,-0.35288790923566093,0.5646447233241493,9.78407936684952,-0.001399343128226199,-0.0538985644224505,0.0159043677535601
1681944018.0902033,-0.3209048353259251,0.8934556321714643,9.934837738155059,-0.006022276940342577,-0.05467424173460782,0.0194051869597979
1681944018.1002629,-0.27666157914532385,0.29717718575337004,9.747654396965567,-0.0012141349512998474,-0.052378194729080126,0.0196336441126414
1681944018.1102087,-0.5427871262422251,0.45079444329898083,9.995423778700323,0.00036774626287988037,-0.05723440818399268,0.0200603556272336
1681944018.1203415,-0.22123569732078413,0.1737190310896323,9.805885169421686,0.0056969472323743515,-0.05560045564053613,0.0160185432445951
1681944018.1303418,-0.30745067149757754,0.534194383478616,10.036265809149151,0.0048182240494900165,-0.05846674103143719,0.0125308547553368
1681944018.1403987,0.29508248950171356,0.3160744594155912,9.749456228134774,0.010820505125338534,-0.05205475544211021,0.0115467271220632
1681944018.150287,0.14745218709203772,0.6113691743991703,9.94770044256844,0.008268229524529174,-0.04852439400590507,0.006498301719571
1681944018.1602497,0.4481321887519104,0.6247222234282791,9.85606831080685,0.009381799954359362,-0.04225769280969008,0.0077153289143689
1681944018.1702344,0.13787714167150297,0.505244367837939,9.936462126690001,0.009413136795537382,-0.04003852984515274,0.0019607952831075
1681944018.1802998,0.2693468235483154,0.7015681419267231,9.944004146946611,0.009306019184897275,-0.03805253689308864,0.0034980916802533
1681944018.1902752,0.2059954005801704,0.6052438689877934,9.841758067064188,0.011990823844273803,-0.03596499629474256,0.0050844408956118
1681944018.2002687,0.12393944056439359,0.7947501195820862,9.86312433316529,0.010436381595021624,-0.0353837918030975,0.005661173808644
1681944018.2102826,0.18563323249480249,0.9344249950292469,9.811367770148063,0.009394414539103696,-0.035170696787106895,0.01014162957787
1681944018.220333,-0.026943999494473264,0.9660390449435198,9.83126703024705,0.0071362357402410224,-0.0383215384126761,0.0092024894815632
1681944018.230368,0.5374899737203118,1.2197785591839663,9.6351246774766,0.0042820100756226645,-0.03534841787643942,0.0149645971518703
1681944018.2403924,0.35441229468075497,1.2484661642470773,9.716177743168311,-0.0013100538091731007,-0.03500822057897478,0.0174343575176545
1681944018.2502775,0.7032189983796695,0.6365651022974939,9.450981406429694,0.0029083745690539455,-0.028015196882182167,0.0141085645568319
1681944018.2603369,0.6971788181553003,0.7142550851772771,9.537445937058285,0.005701473056549925,-0.022281997503413843,0.0119300045457431
1681944018.270266,0.753927011830393,0.9677302615253963,9.665572210331986,0.0014827050740484778,-0.014603348134141865,0.0087770250078984
1681944018.2802951,0.8399372258342706,0.5216546328726455,9.530659804298104,0.003870535288434631,-0.004572635617525163,0.0027848990552821
1681944018.2903292,0.5757825563895078,0.4701010704391923,9.667283150640174,0.005260051842827682,0.0020818445837913124,-0.0033614911685935
1681944018.3002715,0.5663444484985961,0.2998456404696458,9.684682660830957,0.0077831675821801415,0.008084740759568422,-0.0080330550286224
1681944018.31025,0.6072022493248049,0.32890325137255355,9.659370390380142,0.00822503732563021,0.016148454089446856,-0.0113862204912356
1681944018.3202748,0.4755334602400451,0.086530803976385,9.673234341417105,0.01282241038487443,0.021506238400900643,-0.0116476222488335
1681944018.3302443,0.6298206514669381,-0.03071433921164543,9.52596717576811,0.017906967763607312,0.030661545819859137,-0.0128978604066423
1681944018.340406,0.5290663965841547,-0.015402040891492972,9.537149496796813,0.02487156297660491,0.037271168063687785,-0.0089961971703222
1681944018.3503008,0.6062425313562974,0.08707204054014894,9.58383492148219,0.028361395551873825,0.04527503803635147,-0.0065833750727823
1681944018.3602643,0.5813187492473282,0.26041350492773724,9.586365420448447,0.03245055710197355,0.05166915950735314,0.0011307709769108
1681944018.370299,0.5450753720119103,0.30471079963903464,9.596877398449886,0.03709644515048682,0.058580650772330774,0.0086800515104779
1681944018.3802316,0.214250570247838,0.43966809483678504,9.682925064701442,0.040798024466847396,0.0612034922076385,0.0129524449270912
1681944018.3902602,0.15523799123725915,0.8724883494000254,9.781787823919684,0.0370404915624576,0.06549739339574126,0.0139839768794127
1681944018.4002607,-0.22875054883317367,0.9896038983536231,9.827315693509457,0.035895472024295,0.06387150975830147,0.0180043157574483
1681944018.4102795,-0.5026519481200654,1.0566724096733902,9.878979615013064,0.03288910838185201,0.0604955692063615,0.0155844528612443
1681944018.4203975,-0.8190528843287491,1.1954970565062686,9.912616896755976,0.029332341898343033,0.053101231054719235,0.0128482876729914
1681944018.430566,-0.776414596859651,1.2305033763161624,9.811727993976941,0.027710833945311892,0.04710219061859176,0.0086312427569874
1681944018.4402966,-1.058481329864706,1.5729978800832898,10.089658266942992,0.021445702554667597,0.035733303258294616,0.0039909887977638
1681944018.4502802,-0.6294159372846378,1.726035669906281,9.924227045621917,0.010180918453839645,0.035321740546905955,-0.0103364597621611
1681944018.4602675,-0.7836234237012485,1.2234776864471242,9.708719604964598,0.0077080793347341775,0.03594863701230352,-0.0253760117653063
1681944018.4702675,-1.3894680091789924,1.3970385515774504,9.95789976098345,-0.0002516663799973898,0.026277663555369483,-0.0395258377853087
1681944018.4802704,-1.1419806372850039,1.6972945662019,9.900297285348673,-0.01002652401939087,0.018875251100548357,-0.0424296196165732
1681944018.490285,-1.0319931507742632,1.5885875876851003,9.839050160280406,-0.01641813600240579,0.011894136978037555,-0.0393566649022749
1681944018.5008702,-0.6824343644645262,1.5960747033929124,9.759996457718172,-0.024706968612660272,0.009523612183118195,-0.029805262720888
1681944018.510298,-0.6772130205912082,1.3685399109461873,9.785381217950459,-0.031234757041738562,0.007226357345587859,-0.0219081334385327
1681944018.5202942,-0.5584788953901011,1.1607980313982733,9.75734535129596,-0.03547782550951352,0.005849137927846031,-0.0107023698824695
1681944018.5302515,-0.5650988549414191,0.9138554889047591,9.75172784293645,-0.036960124257727815,0.003800057157869788,-0.0032266552175632
1681944018.5402915,-0.45156131762959417,0.8994696800862406,9.78163504987099,-0.03776107269541272,0.000934904927262901,0.0058276907925256
1681944018.550286,-0.4171233347675522,0.8128256387525727,9.778335980317598,-0.04114402481907726,-5.35041252923804e-05,0.0067206773360022
1681944018.5603323,-0.18553193491837075,0.4904920443005775,9.594088370899826,-0.037693658836638534,0.001959840035019537,0.007035932355816
1681944018.570276,-0.413973133743687,0.6639189915545948,9.812399960979091,-0.041343708557180614,0.0002206620424660302,-0.0011873672797582
1681944018.5802803,0.08005156901317173,0.45436227885300495,9.58893995957554,-0.03718626671649207,0.0047182418961616,-0.0017756485927156
1681944018.5916696,-0.07208360957608342,0.6414757539470122,9.71942490437973,-0.039070248328678094,0.008176195241229598,-0.0089120782527378
1681944018.6002977,-0.11849730804748415,0.729573413981719,9.750122935874925,-0.04119548721379612,0.010238805540209246,-0.0151040881487778
1681944018.6102974,-0.14214499996600363,0.7616928404743402,9.683213966518853,-0.04102336377582611,0.012999428647348864,-0.0177985030773333
1681944018.6203723,-0.24925363323134586,0.9834674427890437,9.760364853915108,-0.04377517573633148,0.014260722683845874,-0.0161439377430132
1681944018.6302786,-0.46459187406259855,0.8211912744187304,9.774928169198708,-0.04280680377792517,0.013743774169368998,-0.0152895163360289
1681944018.640309,-0.6352976309472071,1.278151385958548,10.045592767553693,-0.04889546379849547,0.008449850414883274,-0.0100497698026946
1681944018.6504595,-0.47148220653608885,1.060002914580668,9.916094355399194,-0.05125485103347809,0.007310331868443176,-0.0043290864291838
1681944018.6605842,-0.48013145834042525,0.9215051550174208,9.950834518495254,-0.05334208831474037,0.0065962878310695154,-0.001086967213755
1681944018.670338,-0.47917091360758496,0.648990329150485,9.908318629285903,-0.051736509975128166,0.00638046274156075,0.0020691825170298
1681944018.6802645,-0.4129738748375994,0.4815165280829888,9.868004099965354,-0.05038118674900018,0.009457416426186763,0.0019028562651011
1681944018.6902614,-0.8468487050129747,0.19060761485636157,9.969448395681093,-0.04630843426513245,0.006410772137476858,-0.0012813102535209
1681944018.700291,-0.8286122509846013,0.21914708636600738,9.902453052538277,-0.04314641152299809,0.004983509590472108,-0.0024381067219427
1681944018.7129917,-1.2236995037233869,-0.04449563164158375,9.963164588215626,-0.03579752488923321,-0.004471009255830115,-0.0111509628209522
1681944018.7203126,-1.0633083258213771,-0.39854161976128677,9.910363950582106,-0.029414229090527814,-0.007866267762848489,-0.0207659296307018
1681944018.7302642,-0.5862704580696588,0.21880903017410022,9.949767215050201,-0.029033231302071454,-0.0076066629124681324,-0.0247106507036141
1681944018.740355,-0.30976275400591985,0.04325250055513054,9.797521046135488,-0.024950260999424344,-0.002686135332735087,-0.0267633005592278
1681944018.7504387,0.002247673412934301,0.22119469754741386,9.645629944110729,-0.02159682378634463,0.007916639166145906,-0.0218175921204737
1681944018.760321,-0.5207772746185692,0.20971078987661487,9.787596142974309,-0.01712804361835528,0.010665197215024923,-0.0177632711443356
1681944018.7702763,-0.45414031759964374,0.5022192814543864,9.721951708390225,-0.013244070154265394,0.014612985195113266,-0.0056765234644762
1681944018.7802825,-1.0785418812642207,0.620777249767984,9.925799188060926,-0.014990260431301096,0.011290418358617571,-0.0018052397377095
1681944018.7904463,-1.1125640615574255,0.5579873743899334,9.843961268598788,-0.013144721980603671,0.006790211108071822,0.0053225337446429
1681944018.800338,-0.9671257828697792,0.845995653927276,9.830616406197725,-0.013805535983513901,0.0035026350782028544,0.0158804169309088
1681944018.8103635,-0.9990778314407203,0.4294489975023911,9.786655507554702,-0.010380535652414315,0.0006588534791181629,0.0164659720298596
1681944018.820409,-0.8715130659428806,0.6823072305484734,9.827409937785088,-0.010376606396857951,-0.0010980973740982905,0.0184585422661849
1681944018.8305566,-0.7257024776297994,0.3569532561686597,9.691544089635167,-0.0069085191842167045,0.000730623657937078,0.0142632395413466
1681944018.8403742,-0.8957825034944684,0.44580011409554193,9.819727339476392,-0.006669839987345879,-0.0006157554600504817,0.0072670973290451
1681944018.8503585,-0.5356423437890692,0.5811357216155029,9.679274432477028,-0.00658678491271814,0.0036985691132490066,0.0058287240949221
1681944018.860377,-0.8434881649011943,0.23547196192734382,9.71859715320186,-0.002655447890764612,0.003221360544944422,-0.0006670354946753
1681944018.8703408,-0.8524623825985883,0.38868791467717395,9.724322163369298,0.000420484903303271,0.0014880071966421867,-0.0009959723416021
1681944018.8803284,-1.1120415899681124,0.5593905364026065,9.936385482093574,-0.0014763714113580906,-0.006170826119591935,-0.0034535458858362
1681944018.8906906,-0.7446382995088562,0.44019468424885755,9.770336875337193,0.00040046977935286683,-0.009277662025411944,-0.0047797962638786
1681944018.9002893,-0.5995135715295452,0.24151430939366778,9.630427292948497,0.0036667526957355587,-0.010401221401153593,-0.0078572408843091
1681944018.9102798,-1.1941769768688972,0.2152689456567117,9.830827098942427,0.008628468441061802,-0.023813264725621557,-0.0214347906026295
1681944018.9203303,-1.1723026712625002,0.36979587415872084,10.063615361454652,0.008197148874322492,-0.04281521172346696,-0.0439727764192274
1681944018.9303248,-0.5551963413274339,-0.02365665677952036,9.864322471045247,0.012904578550475197,-0.05479259613734398,-0.0740191127720526
1681944018.940338,0.38145578789007006,0.21655216194727778,10.10648994939382,0.013619551191772748,-0.0625236891965251,-0.0981584202113798
1681944018.950328,1.8474121262592043,0.5098099753699988,9.771608553580718,0.01400751949747962,-0.051572191506268406,-0.1093951623502424
1681944018.9602993,2.3470693125346935,0.719455447463774,9.826120201875868,0.009979189392464644,-0.03559806053839542,-0.1163333516183546
1681944018.983298,2.065591836536217,0.6374925065829212,9.9700703713177,0.008777089723343965,-0.02026383753717694,-0.1080293815198591
1681944018.9866736,4.52944662271078,1.783000976195664,8.832389430756505,0.004327156416827341,-0.002362692840307417,-0.0964661325874975
1681944018.994993,1.8096666662061087,0.6065780928416108,9.685392700805153,0.005259863018973571,0.002695359382917011,-0.0822266872587851
1681944019.0018446,1.6759324385534058,0.9570498336451959,9.61578530309814,0.006362238983198952,0.004563010522278994,-0.059881952739065
1681944019.0124133,1.0941887519663223,0.7699481755592799,9.724761464510767,0.008248984008535895,0.0008620907244792058,-0.0387044448021105
1681944019.0203106,0.7771171390086848,1.2422290273704257,9.893552516838126,0.005674136901375604,-0.006146948057698275,-0.0176734078291109
1681944019.0304575,0.8416577795714684,1.1097459916773336,9.775576822651148,0.004307020308623691,-0.011669794670130854,0.0034672710730456
1681944019.040337,1.0641766255232632,0.976750417985743,9.720585801492716,0.0033153842580623772,-0.010932177715234661,0.0184027318295785
1681944019.0504477,0.8771363159414094,0.7133071198595531,9.643981362589138,0.005391535361183135,-0.00944841422580816,0.0259248268243619
1681944019.060465,0.6776464696891649,0.7731030008816616,9.769539368094167,0.0074713625472823345,-0.011882861702466439,0.0343670945998975
1681944019.07033,0.3881784178268492,0.7653609728893682,9.741317174189096,0.006223922330113703,-0.013555532463869856,0.0350543622311898
1681944019.080297,0.3786912407669699,0.6393994971564553,9.648711773225296,0.008300720343507548,-0.012989413212692053,0.03400428485244
1681944019.0903945,0.19871998751788306,0.5801221018889994,9.613897768243149,0.010791252203442311,-0.012365396264460633,0.0329134881880828
1681944019.1003182,-0.0021707392922621915,0.8181092906371625,9.745915216537067,0.00606737462565646,-0.01221563629721153,0.0303915374365397
1681944019.1103702,-0.1198680860914621,0.5752160800479399,9.690021959406362,0.007671368761560078,-0.01329983121611148,0.0314912319567748
1681944019.1203146,-0.33040443976403894,0.41640964509543554,9.692569784942476,0.009447696274630324,-0.013701301969256133,0.028773273193533
1681944019.130342,-0.3764895774268487,0.711903951371535,9.782551445575384,0.00705941555910091,-0.01444124316098547,0.0317117412027665
1681944019.1504085,-0.7383548169992329,0.41391098757964306,9.73050494987051,0.011261765879013296,-0.02086308859185896,0.0306472748902388
1681944019.1603527,-0.853223537184259,0.21335508277133075,9.675143749993797,0.015511485823498828,-0.024388435008291704,0.0245603219059058
1681944019.1703818,-0.2185206131794731,0.5803973238429249,9.757095878408016,0.01576691604302657,-0.02021537345135869,0.0185354955878802
1681944019.1805096,0.034503983383459995,0.08186836208719117,9.425995147748507,0.01984919990736727,-0.0022888778065376786,-0.0083110296714357
1681944019.190314,-0.5523920922982759,-0.07144408260137128,9.6155501567053,0.02242726286989784,0.010336191407163636,-0.0400003540876558
1681944019.200422,-1.062495557246978,0.02872160518940817,9.594171775310294,0.026449984259154343,0.019390464272905136,-0.0668801452580145
1681944019.2105277,-1.6283742006541468,0.36510657575538535,9.785726243495493,0.025172953722177486,0.02328552197479225,-0.0871189768973044
1681944019.2203252,-2.5447149223590975,0.46645720497224064,9.95761386462307,0.026030763031773676,0.012850314641461438,-0.0944728713098219
1681944019.2303874,-2.427911889310302,0.8897500180708819,10.02837970901849,0.020182065999817582,0.0025385847478533842,-0.0908836956682852
1681944019.240414,-2.149874359171294,0.8716240308574543,9.808294243335219,0.02031892572874801,-0.006591813631863682,-0.0751982267561606
1681944019.2504416,-1.71107080287214,1.3491731978089436,9.943681748084845,0.013640992711088349,-0.015022425930773563,-0.0492418083909205
1681944019.2604222,-1.0401211174485347,0.9544743564803457,9.565113211005233,0.015044583356133758,-0.01220744384508004,-0.0231615911784819
1681944019.270361,-1.4922922399322895,1.1566289476798672,9.733953342890487,0.012504902836345757,-0.018456873723169648,-0.0018466102506271
1681944019.280402,-1.6572102999212108,0.7783339514214425,9.831194559084173,0.013801497534331686,-0.031076244602494623,0.0037507988431253
1681944019.2903793,-1.8229134826962823,0.7734092430669874,10.024020065995463,0.01050857158157426,-0.04886367632547045,-0.0066954159724763
1681944019.300415,-0.804316383937494,0.7038114502116768,9.947931782514107,0.007359608733378111,-0.0568964983498055,-0.0218880485358885
1681944019.3104627,0.10055509815011006,0.5276424839823969,9.813606280334092,0.007041029693501479,-0.055970168509564724,-0.041512006110256
1681944019.3205316,0.8198992527369429,0.533467435977881,9.798861748805743,0.008914169800823862,-0.051012912288258,-0.0591016497078589
1681944019.3304513,1.6858890565928422,0.6304421085380879,9.622121274447371,0.004382050696258241,-0.03369833752616605,-0.0746671419206312
1681944019.340344,1.4331825693509326,0.44215856874605053,9.764393177467616,0.007441660213719756,-0.023591888773646572,-0.0786498423281363
1681944019.3503437,1.1619298851822903,0.38512064323273065,9.841063088823471,0.00936236235008591,-0.020508732843034932,-0.0819596882525137
1681944019.3603308,1.4613021370800283,0.8308427840276509,9.74690915375528,0.007064939675551064,-0.013204039779267974,-0.0794973086181334
1681944019.3704295,1.2975100380625453,0.7955791790803003,9.73040546326136,0.006863921803518913,-0.010994150610180269,-0.073010639435356
1681944019.3754518,1.9617726027388798,1.0062124397038186,9.499836818615357,0.005164503464084333,-0.003958132743445556,-0.0681606616440466
1681944019.3893716,1.5372650263806453,0.696382440624104,9.579145758098292,0.003458967660950774,0.008369285584364648,-0.0667024861636809
1681944019.3993692,1.4243463171242157,0.3960947012892685,9.538690144097355,0.008272772345069236,0.017170876902338813,-0.066885867303913
1681944019.4093406,1.4215479907749833,0.6387153268499229,9.546293547729462,0.008029135340264983,0.030592534682396696,-0.0711456920567206
1681944019.419355,0.9803742704341206,0.7773786449419513,9.66316975372723,0.008325219867209,0.039598342808260384,-0.0725227158132246
1681944019.429396,0.8050172498416359,0.7578038954250242,9.615456115953824,0.007601854409069178,0.05179319789009273,-0.0762114982667616
1681944019.43937,0.05700917902340547,1.161988068545917,9.979810804368238,0.002057192123836137,0.0525111322990265,-0.0731529380741766
1681944019.449392,-0.25530722077502377,0.5343571349180586,9.89251081100605,0.005566682520033992,0.05238151641054864,-0.0755624632898024
1681944019.4593658,-0.40847529097370144,0.8476806087637141,9.831490002808337,0.004107866740812418,0.05291346164233045,-0.0755919303360632
1681944019.46935,-0.6002789692642879,1.087245794045517,10.007441151370243,-0.00028007794208716197,0.04860618739904177,-0.0706198151770285
1681944019.4793656,-1.247504234628912,0.8023667791426549,9.767003679311903,-0.002309786353316552,0.03853752327366439,-0.0682899217668226
1681944019.4895303,-1.086598559133259,0.763345475343006,10.009860331537086,-0.0021908078571932998,0.021011126107762106,-0.05963962260515
1681944019.4994164,-0.4433495998963216,1.0955053475813628,9.559572011075021,-0.005563262897312529,0.017598365677700817,-0.0524844351771525
1681944019.509344,-0.32054063774871355,0.7451712526365293,9.960200961957002,-0.00794334360383847,0.008543094136441066,-0.048138776010578
1681944019.5193398,0.48850912257794477,0.9061042352876632,9.622078281930092,-0.012046921874958197,0.015252792079455573,-0.04334548223645
1681944019.5294635,0.4133601207051409,-0.08355655854150004,9.715202471429132,-0.002937414851501491,0.01882841879869732,-0.0445241417351416
1681944019.5396018,0.5636973653763291,0.4253628980715715,9.696703262237053,-0.0004077093884248771,0.02584930504838974,-0.0423614952328852
1681944019.549438,0.2509806517686496,0.5288906033486234,9.848201377551343,-0.00020665715608412673,0.028129477542500222,-0.0423071581485918
1681944019.559509,0.252427870487466,0.6632526874407683,9.777921343853464,0.0003141183023049354,0.031238840900820707,-0.0431878167751482
1681944019.5694504,0.2462783467812473,0.7074907658445406,9.886765463396674,-0.0017465189971798873,0.03460024310014494,-0.0490626442793062
1681944019.5793662,0.5203966430944467,0.8639542427994001,9.517932144879607,-0.006036677876036163,0.04917233056707832,-0.0573768552008322
1681944019.5896575,-0.009754831082532963,0.5747760593224063,9.579985987561475,-0.005885231420397328,0.058685813420427495,-0.0625045459333113
1681944019.599766,-0.623047965298295,0.6731381455390278,9.531812401917334,-0.00412269738823786,0.06140351050246478,-0.0644940968218497
1681944019.609325,-1.4940660936880636,0.5170658102617669,9.726230912884883,-0.001570333379448116,0.05501413777402656,-0.0702203821006468
1681944019.6193838,-1.8357860481739507,0.7895886655741687,9.818059367635627,-0.0017573905312467722,0.04408804709674135,-0.0732638474169424
1681944019.62939,-2.169942146945543,0.9154663896840105,10.155211750545346,-0.004011464490592968,0.025898137766605253,-0.0728662546339682
1681944019.6393938,-1.8010647220471108,0.9486936066443046,9.986489754192048,-0.00564464965772552,0.013340635253381451,-0.070911080724304
1681944019.6493664,-1.2590123837037954,0.9140482138099681,9.984726573313797,-0.008687339042313733,0.0076723986871712994,-0.0675105537834814
1681944019.6593564,-1.0809234632113562,0.9103162223949118,9.92264394858633,-0.01257707646911824,0.00407832886827311,-0.0663884814444235
1681944019.6693618,-0.683962357971623,0.8157377717843398,9.931461030808252,-0.013713485769502697,0.0030938666685953234,-0.0592566255095652
1681944019.6793892,-0.649293966813442,0.44666690695257794,9.721007135880829,-0.013408468931474602,0.006134640340727998,-0.0635985891881636
1681944019.6893456,-0.7417720107702859,0.21160460411370066,9.814106695886645,-0.008239784381284965,0.0028788658194286018,-0.0663137446704558
1681944019.6993947,-0.6157301520639997,0.50059387918528,9.808317515210986,-0.008830317324675636,0.0009203876400452157,-0.0665159534278563
1681944019.7094293,-0.36075436378599346,0.5290016744800456,9.845811267897336,-0.009622762275304696,0.00031907758258006575,-0.0684758286538771
1681944019.7194903,-0.37364285659078067,0.6084753063371375,9.900740011301535,-0.01140875649185922,-0.0029492223572690655,-0.0702051605644873
1681944019.729452,0.13117761531604433,0.4540973870845779,9.738536756397407,-0.010658251190136362,0.0005844575307612847,-0.0731273527804068
1681944019.7394228,0.12148846872775759,0.5402281226502199,9.937154684056738,-0.011537807981496418,0.0019579541301729965,-0.0787271197500876
1681944019.7494204,0.5964411344218921,0.49780913315321074,9.717839941754033,-0.0097284687935592,0.010325049417436458,-0.0798191364470175
1681944019.7593842,0.4665594016952062,0.6539590671627519,9.899151029083589,-0.010406474818748106,0.015037191531214578,-0.0793235759797743
1681944019.7693825,0.2602498063361142,0.6027458388221928,9.863354703770652,-0.010048224528869196,0.017732723134873285,-0.0795147355261496
1681944019.77938,0.23689266138208742,0.5840531954064231,9.870804254715958,-0.0065030430446897285,0.019089835308968465,-0.0767476345959357
1681944019.7893546,0.36225050858876534,0.8632278556844599,9.74627014873016,-0.009293763869369856,0.025466399856859317,-0.076690160817211
1681944019.7993996,-0.05634502771936055,0.5995418411634704,9.91109372724615,-0.008678740302660644,0.023702327520939665,-0.0773881610098532
1681944019.8094008,-0.05012599141768463,0.6118440613017783,9.817823592923268,-0.006823482296559784,0.02278438924952164,-0.0764491196337393
1681944019.819383,-0.08356683910316685,0.6947384037981665,9.86135116336699,-0.005400132950829818,0.02147785548773544,-0.0770443241658858
1681944019.8294203,-0.06264533152676671,0.6600938143643076,9.758060487661826,-0.005737473343218947,0.023755010930676133,-0.0821544762316397
1681944019.8395088,-0.6005526553239361,0.27020382806561555,9.604649657805359,-0.0011079581227258894,0.021146105561940683,-0.0845353986683539
1681944019.8494616,-1.3267920823603394,0.36997988756666084,10.043552454894607,0.005871971373988159,-0.0032154860960424162,-0.0762231062713316
1681944019.8594203,-0.4143944308448573,0.9526434030194745,9.836051079551284,0.005302071667693009,-0.013516322504401627,-0.0675852309528044
1681944019.8693824,0.3578871632990812,1.3393073957744752,10.248470264723748,-0.004592626259618266,-0.01965811846064498,-0.0564961406949213
1681944019.8794005,1.8298368916878576,0.847580307524991,9.736285012701428,-0.005801471199833064,-0.0016285780389782962,-0.0449309546116045
1681944019.8893828,2.037142083711015,0.5443948625159496,9.938474867813314,-0.006979144571467304,0.0175532207153399,-0.0355776149395159
1681944019.9023097,1.8266786269662372,0.1501747037763904,9.881647697932683,-0.0028035424746232977,0.04133588925513704,-0.0282884716603211
1681944019.9093733,1.8921367911544442,-0.8310331213335872,9.230293117759466,0.013251075134353236,0.06001785664771613,-0.0261492665472677
1681944019.9194148,0.8325540448368827,0.038617014923146856,9.784993093356366,0.02056443698996061,0.0686171163872507,-0.0218175846698931
1681944019.9293914,0.059032768439980766,-0.03398204241604426,9.787722551255056,0.026635341855776682,0.06985816080581464,-0.0275022230657986
1681944019.939592,-0.21090687132532493,0.4407737931153368,9.956678047753678,0.024503386299032634,0.06559327145143122,-0.0323314118745974
1681944019.9494565,-0.12793036906518288,0.18550024537617474,9.66878482399511,0.02677935679430357,0.06534375009615083,-0.0380801941815069
1681944019.9594252,-0.24934561233663097,0.18444472940536938,9.681734274826693,0.028222940394930365,0.06320691251046312,-0.0437922786536863
1681944019.969399,-0.010800484426829425,0.22701724257405467,9.505260303668152,0.03227823119932721,0.06624448027743429,-0.0439175191882303
1681944019.9795258,-0.23231246421733323,0.19095093063859686,9.54569339565152,0.03723351112778854,0.06789093762818973,-0.0470447402063063
1681944019.9894514,-0.494699652814252,0.6766176873319482,9.665647160350819,0.03601135950967111,0.06764794114951181,-0.0453787456813505
1681944019.9993758,-0.9373036516968318,0.5196731868022587,9.759280547005496,0.037512625048732144,0.06217348202803365,-0.0445281575980833
1681944020.0094354,-1.089943607697232,0.6442390148825706,9.761456465465493,0.040293969734588146,0.05441144101506629,-0.0400770727160624
1681944020.0194414,-1.2009446580376733,0.9911366657846438,9.923916410391927,0.03603532750283392,0.04538375119485755,-0.0365280482533625
1681944020.02943,-0.9213961941074053,0.7846500920686691,9.687950891900222,0.0381735412536043,0.04063416820043662,-0.0322173658374003
1681944020.039522,-0.8864637904920323,0.8511349059850334,9.70275410635228,0.037763259608463266,0.03661980918724199,-0.0295517194631746
1681944020.0495,-0.848477965096918,0.5913647517345161,9.541909261275004,0.042495116250253345,0.03367819841352182,-0.0300604339304617
1681944020.0593977,-0.7808449460614695,0.9033142225429739,9.636268734347418,0.04168220004066532,0.03161929908892422,-0.031633571869438
1681944020.0693996,-0.9033547715675705,1.1635476864336676,9.80566342136205,0.03506056036052899,0.025817110212966315,-0.0328036557498625
1681944020.079444,-0.7527827882449828,0.7546935475501457,9.766992241949062,0.03162833261333454,0.023880348756096684,-0.0384097259107283
1681944020.0896797,-0.5938879789648687,0.579884761006326,9.727352445932075,0.03400672104636504,0.021376460797888738,-0.0359015438321283
1681944020.1005647,-0.20781171331212714,0.5455286343776513,9.639586237075232,0.033378948901968186,0.027415683697089445,-0.0351809572044066
1681944020.1094222,-0.5475195842352636,0.5858551675311889,9.814880498074448,0.0345494151582774,0.025108785884534832,-0.0314834873738936
1681944020.1193843,-0.3026848900878108,0.4764647083332351,9.727816572264672,0.0354707373841946,0.027141817080965046,-0.031614088601177
1681944020.1294153,-0.3675254298146802,0.6382658791129106,9.816114221264256,0.0347474355900174,0.02692694786778333,-0.0305130455258539
1681944020.1394253,-0.40420995376960095,0.6516951568695009,9.889120515132667,0.033044993609732155,0.025227270338295686,-0.0301186713936976
1681944020.1493957,-0.5261315215237446,0.44116359153549617,9.932354872007275,0.03538759177762106,0.02044370206283413,-0.0311484906438044
1681944020.159412,-0.17925872832207682,0.5678117934329152,9.766037595951756,0.03542119821214446,0.023028818925864725,-0.0348599452140978
1681944020.1694725,-0.16811490385236763,0.534560078760322,9.805482710044393,0.03660990117220865,0.024403020204012204,-0.0386651951435259
1681944020.17952,-0.34615906673082336,0.5477709533031389,9.733005225907686,0.03929733341619613,0.024262799957939785,-0.0415096368256262
1681944020.1894271,-0.4170749886294335,0.7050500014855939,9.850429636344716,0.038511694494158796,0.021935590397267564,-0.0445466052356413
1681944020.1994288,-0.4663436761256786,0.8155988366075477,9.716172516349022,0.0390858722280496,0.019602612107673424,-0.0456459644797495
1681944020.2093835,-0.6079395934324847,0.900972330281493,9.883344455508475,0.0367442450088839,0.013664750203216731,-0.0482847924891165
1681944020.219441,-0.3662401041605442,0.9684825780055468,9.74893044808699,0.03656840332753095,0.011056247452903458,-0.0477216589811495
1681944020.2295067,-0.03838552558740366,1.1716764930602719,9.69813570392719,0.031985422168502434,0.014758611329400565,-0.0463640626135519
1681944020.2395608,-0.15787726316841164,1.0861645747001292,9.668634373109459,0.029896555004122468,0.016878159993140338,-0.0444503549101999
1681944020.2494276,-0.3022654245964692,1.2312879417378801,9.765621653269596,0.026264995735771148,0.016552725759803287,-0.0419371772173098
1681944020.2594187,-0.17445309562055972,1.2970072072106584,9.607937407408766,0.020497493520777472,0.021588481512245704,-0.0407042849424532
1681944020.2694118,-0.6485303882906311,1.1623560012065657,9.764933312060453,0.01970339605879341,0.01725658704874503,-0.0375323976936987
1681944020.2799408,-0.7814391569980849,1.2231237379561337,9.726886770456765,0.014169666743612409,0.013609472184097063,-0.0384258303406885
1681944020.290703,-0.9382651868418868,0.9773255135220913,9.69112454775613,0.01313439744483598,0.007974764832152278,-0.041522727495735
1681944020.2994158,-0.8018677440924588,0.986194180281675,9.674868548518191,0.010684324940490465,0.006332147452906806,-0.0455192375543764
1681944020.3093998,-0.8543678557919031,1.0559535184987208,9.792739118662505,0.0075839090867267185,0.002532566638648363,-0.0465368900063685
1681944020.31945,-0.7427142846911542,1.2665307998595718,9.90540450265361,0.0018984957292615533,-0.0009389827980743161,-0.0465819324913672
1681944020.329557,-0.47084772663597213,1.0793344117655228,9.747468048243315,-0.0008484808666603026,0.0026928523516522133,-0.0478731218341044
1681944020.339456,-0.6578211553804467,1.325948354315473,9.938320421539544,-0.009846547442578167,0.0033000833894161257,-0.0496433835092238
1681944020.3494172,-0.7595695315359691,1.1180607727325595,9.866313485004454,-0.012498414905441796,0.0008456204105235511,-0.0483015525701693
1681944020.3596575,-0.7765622400912932,1.179182955889607,9.842656966419824,-0.019037184722339805,-0.0003371780074388605,-0.0488513756158999
1681944020.3695614,-0.8629676295029993,1.0466438332209365,9.805018660059861,-0.021972547244300474,-0.0040193768147149525,-0.0479204739990881
1681944020.3795552,-0.9794802417589409,0.9521263836869996,9.802028030351785,-0.022316761479390698,-0.01061031638938904,-0.0475133705499819
1681944020.389464,-0.6061470039841383,1.2774478596919745,9.788805388218554,-0.028048166811255933,-0.011447338204352276,-0.0470803986850432
1681944020.3994966,-0.7633727151758324,1.2032446296958899,9.880487681461409,-0.03222814405607808,-0.016223607317907146,-0.0466745581093481
1681944020.4094615,-0.293658223348225,1.30049545263086,9.873218677819722,-0.03936103552973204,-0.014854383689277235,-0.0434590886893919
1681944020.41944,-0.3931664525309261,0.8451608694094558,9.886477261436557,-0.038387542399492734,-0.0163597904734136,-0.0403012793126753
1681944020.4295182,0.012329286472097009,0.9619218566830234,9.808167707075846,-0.03762184362221886,-0.011727636755891733,-0.0341177705290964
1681944020.4396267,-0.2293365423454533,1.0187304430825637,9.977794765200837,-0.041166843262418304,-0.010892428627367855,-0.032730882203882
1681944020.449493,-0.17862593714202277,0.8584169115993788,9.924548435759862,-0.03919572046274318,-0.011239971561245036,-0.0303865719202212
1681944020.459476,0.11405133788362355,1.0146875928337673,9.851608676087965,-0.04069575650104343,-0.007227777819961732,-0.0286255601409128
1681944020.4696424,0.24557032418388275,0.9680440167198734,9.84224064864815,-0.04517469756898469,-0.0007868787288311574,-0.0318221274378946
1681944020.4817584,0.18175622619584325,0.6694659506652836,9.754311524168138,-0.044570571210702785,0.004920594505759676,-0.0357306051614931
1681944020.4913862,0.33976291465194197,0.5743783371085595,9.77996760070975,-0.04427453413474127,0.010750187526727566,-0.0351889330509356
1681944020.4999094,-0.07159635267245706,0.05086960288696514,9.776224931485068,-0.0374441230236892,0.01142228061797174,-0.0376471627119234
1681944020.509436,0.12952397525757334,0.34055203176037374,9.75698630379637,-0.03506955409917446,0.01634697540736594,-0.0320258300367048
1681944020.5197537,-0.7398812526415806,0.13384834131584117,9.943157906730244,-0.029769889029654807,0.010016121241210785,-0.0281788400921276
1681944020.52942,-0.7973276202146518,-0.1074303476628312,9.782583402164724,-0.020503053142725207,0.003955655446872675,-0.0232534605625322
1681944020.539444,-0.9520388673865737,0.270268082413852,9.857449917471103,-0.0187943668328042,-0.0030479102273253313,-0.0212337888392857
1681944020.5495496,-0.8241554229851137,0.31097569999246677,9.788754760417278,-0.016776174814073123,-0.009077301888283918,-0.0172881401690891
1681944020.5594463,-0.4841937409874123,0.031138187549662733,9.485071482448639,-0.01058364621761248,-0.006252126807650392,-0.0207127809140137
1681944020.5694208,-0.5433520766923733,0.21680918364220456,9.595102748532703,-0.005859890729209194,-0.004965562450759612,-0.0197554427745989
1681944020.5794227,-0.690551042101339,-0.09219414873573487,9.548321897990562,0.000877442795029308,-0.00199539387435508,-0.027090496531432
1681944020.5894315,-0.9086729459546273,0.20924934822121016,9.80247284471037,0.0066624787712080075,-0.004743797847486735,-0.0286551426711729
1681944020.599513,-0.9861912086166436,0.14428572395285164,9.837256515775914,0.012196851599860305,-0.0074026231975605475,-0.0359604704740694
1681944020.609484,-0.8580254656894725,0.4473286877255581,9.895553854176722,0.01414327582576441,-0.00989399532662136,-0.0382988910737684
1681944020.6194656,-0.5877244624284386,0.6222174289269288,9.890558108613952,0.011424810032584783,-0.009395888852231186,-0.0412357460323027
1681944020.62949,-0.2894256436611692,0.5085677120959717,9.79879575493071,0.013145305439628966,-0.007597722049926105,-0.0371371145907095
1681944020.639572,-0.2596519550573602,0.493182272486009,9.81311745320408,0.013628917571677288,-0.006394878080288352,-0.0363929096224955
1681944020.6495109,0.08691310201113904,0.594474379453024,9.69455726662902,0.014793804030936218,-0.0015906702471821191,-0.0336529846850088
1681944020.6594546,0.16053096931812716,0.5790126818395211,9.680425886930218,0.014882370774364048,0.004089158044457585,-0.0345987464848211
1681944020.669684,0.15604798247577698,0.7682286598013972,9.77265478574921,0.013399719378259968,0.007533690233545801,-0.0332017998758009
1681944020.6795237,0.32435689550435715,0.8030614464111213,9.752967792769141,0.011231073333134738,0.013486124681105946,-0.0315224017563513
1681944020.6894662,0.3805008622214687,0.46854541340002565,9.70445076235699,0.015709905570028167,0.01998062420190362,-0.030865003502672
1681944020.699579,0.4909461865301262,0.47170794593471466,9.643629548702872,0.018960276712093885,0.030004683077740103,-0.0313402872148207
1681944020.7094498,0.27576552905433516,0.8225425913330642,9.882903070706504,0.018408304226957405,0.03419627767403761,-0.0284048050257614
1681944020.719563,0.3382375003539515,0.8515683276541655,9.84840974000775,0.018038016269074756,0.039694983985928724,-0.0247627079102448
1681944020.7295165,0.20474080677577927,1.098723320164262,9.859340578258081,0.014645589414185284,0.044818731809761383,-0.0220277580979517
1681944020.7395954,-0.09105683667045508,1.1820701941643619,9.936018526569045,0.011810018715255593,0.04582051072593435,-0.0201912384095839
1681944020.7494438,-0.28024301830686366,1.2261268653164392,9.983062045142201,0.007921240989525367,0.04451784089514268,-0.0197033892932585
1681944020.7594495,-0.33984184046327354,1.2726495755698373,9.963041980706702,0.001346577524161726,0.04386555491974222,-0.0221642452839068
1681944020.769467,-0.37691799209816,1.1632927366725956,9.82680751148029,-0.0012434433518830545,0.042008371623809916,-0.0234583273145607
1681944020.7794664,-0.32843679214782123,1.1785235958170939,9.809434951659695,-0.004814992781627314,0.04096615258073963,-0.0252099122467688
1681944020.7894592,-0.08846327900700605,1.2249408900789647,9.562664679239393,-0.00872526386332082,0.04538959288308678,-0.0259494997176579
1681944020.799442,-0.4202570944392808,1.1679236421813488,9.71229738414995,-0.01384667037273693,0.044465442803341686,-0.0310821171465567
1681944020.8095095,-0.4251744743564637,1.216972733063292,9.668649140343737,-0.02058618148532196,0.04409863656194629,-0.0352511789265326
1681944020.8194797,-0.2839208510410202,1.4249475650745114,9.65956366505551,-0.028890385168163453,0.0457865249337837,-0.0339674438896826
1681944020.829444,-0.44849133071374103,1.2893162165411898,9.677311982540973,-0.0346824855283639,0.04592885290623,-0.0317907195153883
1681944020.839471,-0.5050436827840178,1.0325749060548493,9.71142043618397,-0.03780718102576451,0.04601407180601842,-0.0324245925608328
1681944020.8494463,-0.5277396829623557,1.2146416187378006,9.873132491281574,-0.04466304389002599,0.04555674070162019,-0.029410169607704
1681944020.8595004,-0.48253539645328003,0.7280157450923783,9.769691138228165,-0.041587496465862225,0.04559148346960447,-0.0245992086443356
1681944020.869469,-0.41702928495890673,0.8781209029626782,9.836059477942527,-0.044852747483050195,0.048603833947281704,-0.0221965156111172
1681944020.8794732,-0.8185138852199534,0.6144402295055353,9.913958438618943,-0.04392851018168935,0.045709840906167774,-0.0213973383966139
1681944020.8894496,-0.6377941488579344,0.7402323263835674,9.787337178159149,-0.0459293077173217,0.0471120795687015,-0.0186481840524128
1681944020.8994813,-0.6802853224545518,0.6329186087374268,9.698669342011657,-0.04529157477811609,0.048330158056326906,-0.0148979231330803
1681944020.9094956,-0.8066704099670878,0.616067928115175,9.725529084883203,-0.043319945393876076,0.04659944184432493,-0.0077523488166979
1681944020.919483,-0.9760831292613277,0.4725978340157727,9.771381630490833,-0.04258488456506815,0.04324592629231672,-0.0073165038216165
