time,ax,ay,az,wx,wy,wz
1700843426.0128157,-0.015302736599448273,-0.06363033148771886,9.820197827375813,0.0008724730201895615,0.001236840192292656,0.0007772987999855
1700843426.0210085,-0.10192496369034788,0.22534732077892253,9.95758829903528,-0.002255655777207959,-0.001317984826234488,0.0007862506725727
1700843426.0309916,0.249297952333458,-0.10280420356010511,9.674363991276268,0.0005733245859703891,0.002925133511163668,0.0001499513571984
1700843426.0410454,-0.19545664350918646,0.0026750899414124435,9.93495279764576,-0.0002127079373151985,-0.0012665373370185707,-0.002443574066237
1700843426.0510106,0.20257704911574273,0.10788641403606468,9.763913519618018,-0.00048615362223456614,0.0011817090427260705,-0.0003041351912174
1700843426.06102,-0.0008146273910558175,-0.15748534311893594,9.787379670730713,0.0034172152606055527,0.0004735484670145045,-0.0012965496163447
1700843426.0711875,-0.03322596969304309,0.11196555287046932,9.893476020243636,0.000982759688498487,-0.0009245526317532765,-0.0024849131470177
1700843426.0810244,0.12308279741883672,0.1860265242775306,9.827200432573989,-0.0004433072377853142,-0.00026668464294680045,0.0004587844817619
1700843426.0982938,0.039283012325662656,0.0745798336856111,9.841759896935073,-0.0018529497286699716,-0.0007308490773706608,8.1046001323999e-05
1700843426.101006,0.11712221676081157,-0.295547766590664,9.67569370714928,-0.00032073537877072756,-0.00014337464767473227,-0.0006207891739536
1700843426.1109877,-0.029775284594393422,0.09839233468585486,9.884176076725726,-0.0020142426523507588,-0.0015791116032401033,-0.0014500528806452
1700843426.1209702,0.15937068876665764,-0.032661209530237566,9.738374862496594,0.00040308927956228313,0.00018966519894416582,-2.3995892806409765e-05
1700843426.1310158,0.05866716402731145,0.06793868098794673,9.8256227671954,4.992778747690039e-05,0.00034836442248119373,0.000490471010235
1700843426.1412103,-0.029172011490989004,0.05413566115460542,9.868197151663527,-0.0009070947505802077,-0.00103335108273601,-0.0009270124602694
1700843426.151379,0.2061626515933665,0.10447034295847656,9.743687643076255,-0.0007100562230943444,0.0016838708287261824,0.0018427421572055
1700843426.1609814,-0.05866977676519108,0.0011895427488950758,9.85778748323274,0.00018627820092859078,-0.000436184612188403,0.0017108642030875
1700843426.1710453,0.02552476170812728,-0.08458165074771709,9.789734041646824,0.0008765648232001487,0.000345374043773984,-0.0016772953560207
1700843426.1810234,0.04613330044984527,0.08554579379056773,9.837202282850187,0.0006284720534401356,-0.0001299678358817312,-0.0001763689680588
1700843426.1916308,0.08327278502457566,0.14110682380727796,9.853129129501598,-0.0013466791152330802,0.00025820857482095397,-0.0001625828328174
1700843426.2077527,0.09614080059506763,-0.04058524817665573,9.783649050684035,0.0012151867369637485,0.0017013950464824124,-0.0003741690772217
1700843426.2109852,0.044480335196050526,0.4272763845367922,9.968062170042192,-0.0012837415791963627,0.0014726451136464328,-2.400983354119854e-05
1700843426.2211328,-0.07957845837703587,-0.09248077701730921,9.841558011459432,0.0011131269791133382,-0.0009025871010971873,-0.001084960345142
1700843426.2310116,0.09111526725176423,0.2067616918067879,9.842753728600044,-0.0014763185389643518,-0.0006556046644974149,0.0007370780920978
1700843426.241,0.08108719860344922,-0.13449521848788779,9.736711739276457,0.0015813942804439997,0.0004359139725324566,-0.0002899767015692
1700843426.251003,-0.05982326248650114,0.02898782829648647,9.86102815884654,0.0012092289688071262,-0.0012888977329077885,-0.0014448285102476
1700843426.261023,0.09011226994479427,0.10333314868883253,9.82310372503144,1.9008169742738066e-05,-0.0005293188269155784,-0.0013472250895206
1700843426.2710989,0.04854749699516101,0.10602460435967366,9.842552163832472,-0.0008959240463880063,-0.0008411245602930666,-0.0003648639423404
1700843426.281037,0.03636273094547807,-0.1010968534656763,9.783108859010584,0.0020619589600804887,-0.0011506890917878008,-0.0003298456896659
1700843426.2929823,0.05709800430076612,0.14260016504576295,9.853840049714483,-0.0006064685912418237,-0.001002437535062493,-0.0004505496937413
1700843426.3010235,0.0246046937880906,0.00449819504047076,9.827091191739207,-0.0010080592697844057,-0.0008966461770087463,-0.0023396405623857
1700843426.310985,0.11173298265097716,0.0981698661407398,9.799444571170373,-0.0008549448857197639,-0.0005695538737983278,0.0005474539983338
1700843426.3218074,0.10209312350047033,0.08177603569903819,9.818354025333896,-0.0016022432770885977,0.000496620072918242,0.0003645470249834
1700843426.3309994,0.05274137759894906,-0.13944899535325836,9.75795556427459,0.0013951227743392157,0.0008769824944789422,-0.0009806604822729
1700843426.3410044,0.09228923831882903,0.08325661827515438,9.815948310234361,0.00046826764724707535,0.001684994336571682,-0.0004997365059894
1700843426.3510163,-0.04852285828771904,0.11445211948313516,9.908550280199576,-0.0013541256459448398,-0.00030282319068765916,-0.000801850622483
1700843426.361035,-0.012117944317550063,-0.09358419338807736,9.803049126749707,0.0012554324554037636,-0.001373471420757486,-0.0008752344175804
1700843426.3711174,0.17735197751022416,0.11438237564108548,9.770957597814967,0.00022687277413048867,0.0009686226999183883,0.0001838697179123
1700843426.3810663,-0.032288611640992795,0.1735923035428308,9.91397726500632,-0.002286944501302741,-0.0011384019935267947,0.0007434120460315
1700843426.3910186,0.06878545407967308,0.01728099014179394,9.803530777016856,-0.0011019301630288529,-0.0010355826411844798,0.0018896772060911
1700843426.4010406,-0.006812278811335446,-0.04465673770262732,9.835030149771995,-0.0005599010200446897,-0.0014911894414163824,-0.0001756204757471
1700843426.4110403,0.11394395203006923,0.04974297797561495,9.78944342765654,-0.00033228463636298414,-0.0004261310804799198,0.0005191435673991
1700843426.421194,0.07700595814492547,-0.014611369340790988,9.779577584067194,0.0002779058034576347,0.0006337145808933347,-0.0007627334445346
1700843426.431044,-0.0907076938659108,0.11014361966856695,9.914347159645624,-0.0013839335282184943,-0.0020682288543841672,-0.0010320654138554
1700843426.4409995,0.21760015221806892,0.17190374265163955,9.789742032777347,-0.0025849814557244383,0.000438513646687637,0.0020692256046827
1700843426.4510615,-0.0207514110563487,-0.10745992104411756,9.806734783054777,-0.0009726739224582628,-0.00027451521089235937,-0.0009288744069267
1700843426.4610262,0.00908276793536101,-0.0036874136970752886,9.83541456788169,0.0004716268410448,-0.0015068317829118334,-4.784418266309696e-05
1700843426.4736495,0.07172533215691168,0.05244910290005806,9.793859620097715,-0.0003904054314337811,-0.0003404472295373668,-0.000416274869312
1700843426.480997,0.02790265077311009,-0.09691502921926101,9.77821087647341,0.0017110324034197346,-0.00061685499190885,-0.0003168085123975
1700843426.491043,0.055696385084775694,-0.05114707557129158,9.783455404421462,0.00259690573183593,0.0003505915705491786,-0.0022368341916803
1700843426.501022,-0.03843557075844987,0.13921684194527612,9.900303858944694,0.0007510355043370414,-0.0016446789206357418,-0.0016303424955908
1700843426.511041,0.21038417123644412,0.15743373890032497,9.771823996598219,-0.00011807769820828623,0.000554365778080577,0.0014933059690888
1700843426.52115,-0.04444461545346315,-0.051381178086773005,9.840586781156825,0.001323980980238019,-0.0011253685347938464,0.0007706069271448
1700843426.5310378,0.06721154486971156,0.08630883220483296,9.823808493638989,-0.0007785847322397018,0.00010062529682615555,-0.0013781392946471
1700843426.5410442,0.14762581567656918,0.06155738030265231,9.769547030226258,-0.0007558721724790464,0.002057145493548561,-0.0007288317894194
1700843426.5510652,-0.03187155832046975,0.10024992168308704,9.88518689793876,-0.0020258144165220013,0.00016244585724571305,-0.0006591701414067
1700843426.5561233,0.04351397611299908,0.2046636326716708,9.8746390709008,-0.0029243565786389114,-0.0003464251282913889,0.0009207319352212
1700843426.571051,0.07558647651197464,0.0449820104924137,9.812688002563869,-0.0018872255844764047,-0.00027637038758412176,0.002495409059375
1700843426.5761285,-0.10714951571468495,-0.283939134175636,9.79633449435553,0.00023321424853389497,-0.0010538398892253607,-0.0002147353835967
1700843426.5901723,0.12439790114226744,0.12817025334726886,9.813693548636381,-0.002018350216877368,0.0008210912880770558,0.0004543113135155
1700843426.6002567,-0.04028826835678892,-0.2148265711630758,9.762148349818773,0.0017214645306339862,7.233788545317638e-05,-0.0019514553015683
1700843426.6100554,0.04510956640712552,0.23443360238113992,9.888954151027855,-0.0015180462155020887,-0.0005673305873512408,-0.0002609323011343
1700843426.6200724,0.12537661287887214,-0.07767064618488025,9.735932556271518,0.0008173303969272516,0.0010844789323881175,-0.0004833356826197
1700843426.6300428,-0.09744520321956815,0.2266339556276172,9.970973080657444,-0.003636985160347725,-0.0018860628696702405,-0.0015804485184703
1700843426.6400244,0.14974740792580726,-0.040014169189968765,9.749942035022972,-0.0016115623737089759,-9.868914133363128e-05,-0.0010596322128181
1700843426.650036,0.02492330219713097,0.09655148233285014,9.841602223592336,-0.0017709980857346804,-0.0008735399347757199,0.0004841378966743
1700843426.660162,0.12801562174095793,0.03597279713279791,9.767084479083577,-0.0010699048989544484,0.00045937510179919764,0.0021686980734016
1700843426.6700616,-0.04952782907702941,-0.013149788181503747,9.866055559707478,-0.001206620875355295,-0.0010631655504371824,-0.000140972598419
1700843426.6800663,0.026867132396570424,-0.04005782478889709,9.81921834508464,0.0002600406719964609,-0.0014803912251854393,-0.0009005610365052
1700843426.690054,0.07434757915120796,-0.04219918173219305,9.776322600616174,0.0027321410604950963,-0.0013440399061598,0.0004073814096413
1700843426.700134,0.08945699270383507,0.23691794668300992,9.860481342360712,-0.0017352374136345257,-0.00020820753277142292,-0.0003115949104171
1700843426.7171893,0.05012142067366191,-0.1017264028650681,9.774384169889,0.004782166875774577,-0.001066122294790142,0.0024480976397539
1700843426.7200158,-0.037826015627319465,0.8257610109218186,10.139964926817719,-0.0011634024914680182,-0.0008258575170287845,0.0001987672702311
1700843426.7300377,0.18529225767410334,-0.003695737360641487,9.73627397391335,-1.1560034211379919e-05,0.0019383111737876358,0.0005187724135252
1700843426.7400496,0.014712305132186057,0.04209713426060562,9.840380718681532,-0.0015474987994217502,0.0021864198138177786,-0.0024651763261858
1700843426.7500885,-0.024062927237892242,-0.01984261444680959,9.841854185766197,0.001187627696592051,-0.00038886774142863516,0.0004125991589175
1700843426.7601144,-0.00999041636479921,-0.10048732380560794,9.800989092338348,0.002936657349192544,-0.0007975361189056396,-0.0016955364727978
1700843426.7700183,0.11427116719578391,0.28187852508399475,9.888853017318755,-0.0013660622543083104,-0.00014115493663445212,-0.000471417955086
1700843426.7800815,0.14380352174476257,0.10978591988352542,9.772065651038758,-0.0013746269301297808,0.0010874538137326372,0.0025546432705964
1700843426.7901027,0.003983957619394649,-0.17453071612756024,9.769828426134039,0.0016666893402828553,0.0011385046476549306,-0.0001715243444409
1700843426.8000407,0.14375666350664054,0.21981704975887312,9.824757710797192,-0.0013366504549387878,0.0026475933843144173,0.0013949909014995
1700843426.8101058,-0.14631838087281365,-0.031243620148998022,9.900542286035565,-0.0004935900250727061,-0.0011011570209850294,8.067597522357209e-05
1700843426.820199,0.11571080851472054,-0.0978782449245873,9.729895654926542,0.0018172084782076307,0.0009827799963528303,-0.0014012338826064
1700843426.8302133,0.01866122012124968,0.1479863979346117,9.861683618578864,0.0004608221266776499,1.942296154757921e-05,-6.944685006557303e-05
1700843426.8418636,0.09611835002233182,0.10126998392078401,9.822246288304898,-0.0001549618762012348,0.0008225896084937431,0.0010149756679679
1700843426.8501248,0.05260519016896007,0.11884222275514178,9.846077903574031,-0.0009406417052174972,0.0005085390322022623,0.0019485424971576
1700843426.8601785,-0.021508965653759964,0.00746967491542352,9.828742028105605,-0.0007733597344826296,-0.00044289000365875736,0.0010373268276821
1700843426.8702538,0.1718948075552646,-0.08514489312568187,9.706091586522883,0.0007755932479736595,0.0027243534736687185,-0.0003559306962047
1700843426.8801994,-0.10059168138921336,0.1465096148317419,9.939064519305239,-0.0008009305930290011,-0.0008433628002351162,0.0005482023669542
1700843426.8901625,0.027694461142149872,0.021002534702363882,9.825045158965032,-0.000841911224932449,-0.001065016575794683,-9.36678726789196e-05
1700843426.9004216,0.11349255015777059,0.008234396974186636,9.775257821687978,2.757677653364534e-05,0.0003416551153432556,0.0002106933214604
1700843426.910151,-0.02535951023046424,0.10084061545996006,9.885673428964681,-0.001962833788793794,-0.0007357115712893982,-0.001389700616673
1700843426.9201388,0.06753639783724354,-0.04917276031527293,9.778180382614162,-0.0004786713354606545,1.4568743564840732e-05,-0.0023154322290424
1700843426.9302669,0.02334956039681797,0.09236956090131526,9.84952945686187,-0.0015433736970174572,-0.0006809738947439873,-0.0021537620806698
1700843426.940129,0.065082089187618,-0.016200494360346582,9.800843622237746,0.001139575680970992,-0.0012807102244281133,0.0005850855712565
1700843426.9501784,-0.06573345905354097,0.04053557456192159,9.882381285160164,0.0012707156161721651,-0.003889526074053405,0.0010306307347859
1700843426.9602437,0.15003707627274174,0.11218728027016264,9.788785956997339,-0.0011082564831466706,-0.0012691503561328603,-0.000846919999421
1700843426.97025,0.05837005888831723,-0.014620280767601397,9.798077299431283,-9.671522053900092e-06,-0.0010754388646763387,-0.0010484540136162
1700843426.980146,0.08656678117068654,0.15267697860973953,9.845192681167623,-0.0016227252657267024,-0.0009536321767920602,0.0002129236935074
1700843426.9902894,0.13849406964999647,-0.052880948051110016,9.728010772464994,0.0010184994769461273,0.0008546267264860256,0.0012057304382692
1700843427.0001578,-0.06546900039956674,0.10595823778843659,9.905583116897308,3.428211485305202e-05,-0.0017605313627747283,0.0019094212446729
1700843427.0102253,0.10603200174936275,-0.014401678515464436,9.771217842453092,0.00029653999035671223,3.2831009547608944e-05,0.0003604576894217
1700843427.020247,0.0010769407829788438,0.0031976230876155872,9.821998336764764,0.001627962488804982,-0.0012252080401839694,0.0015741509385775
1700843427.0301716,-0.028039778600107743,0.04325188245940334,9.877401869227242,0.001570588312340916,-0.002917610892865457,0.0010373457451719
1700843427.0401492,0.13772642759668247,0.09516924834453486,9.794136774611738,-0.0004738556645556317,-0.0004920561723336874,-0.0008297747000683
1700843427.0501516,0.17896518014476998,0.05796610296352119,9.752980231661365,0.0003676814881920221,0.0015326369141995403,0.0011434873566399
1700843427.0601745,-0.10207135236586137,0.06816656203178073,9.903164693279999,-0.0013604611974176218,-0.0010936942761047984,-0.001016050274447
1700843427.0701678,0.11851708670454031,0.05530259255071453,9.78361120972307,-0.0010505283275333347,0.00013117160640091426,-0.0001446964335259
1700843427.0801804,0.035877014691902916,-0.09253632433276254,9.780275808217011,0.0023782275502360383,-0.0004708189895710041,0.0006308936979989
1700843427.0901444,0.03319008752596034,0.16783584608218638,9.8735509396618,-0.001219287786477038,-0.0001884671309296889,-0.0009329774649445
1700843427.100212,0.13411051868702015,-0.0434917954569277,9.733976603628596,0.0006176437754329097,0.0016555693633789473,-0.0002691221190248
1700843427.1102335,-0.07861815041310205,-0.027856213753605523,9.857257535845996,0.0007443170418624708,-0.00014634728067310993,-0.0022524671395872
1700843427.121021,0.09996740604630801,0.10403547224228359,9.816010349168238,0.0004544904010721576,0.00017774440638661527,0.0001101082715108
1700843427.1315212,0.11166271087534436,0.10359409611733619,9.814363195975618,-0.0001881257245158916,0.0009805397336699496,0.0014486077241967
1700843427.1418436,-0.15268120288252102,-0.04220249042516379,9.900241437738732,0.0005945710553805342,-0.002746605545062586,-0.0006118643097211
1700843427.150131,0.1734663345635728,0.2246461060695792,9.811344829196086,-0.0029031125125988863,-0.00039633930530502784,-0.0011889054905254
1700843427.160154,0.1053109135218281,-0.031809923368860765,9.77418189747705,6.929548757493407e-05,-0.00024507869445406427,0.001118921220805
1700843427.170155,0.13240630390811153,0.0008532167607884419,9.758888251198925,0.0007692698775014318,0.0015985721256738237,0.0007322396675958
1700843427.1806438,-0.02523567728894429,0.1379679857935398,9.893652512714636,-0.0022712858144390293,0.00048061095797193715,-0.0010909287258614
1700843427.1901753,0.08079430090096149,-0.11714318847374541,9.737356825001477,0.0011920861696173637,0.0011031077753124762,-0.0004431078442935
1700843427.2001514,0.01508748907655383,0.04475399248328931,9.845322575134535,0.00035949200709811235,0.0009012006525377937,-0.0017659430624548
1700843427.215653,0.05797320845207123,0.09362041929731539,9.835381244194464,5.885768290450533e-05,0.0005033323316425187,0.0002930193557772
1700843427.2205515,0.018047416168942603,0.2769999733356537,9.918353490470485,-0.003157915470735496,0.0006892120562496651,-0.0011319133219872
1700843427.230166,-0.021622262437373092,-0.018178674933957566,9.835064921668199,-0.0016212328655758582,-0.000980818119069238,-0.0004419824573774
1700843427.2401264,0.1375256152289129,0.03674779315006441,9.761427328555373,-0.00033676136275023744,0.00015129099938001768,0.0018941527931387
1700843427.2501624,0.005614856992253305,-0.006453604972977368,9.8342031256676,-0.0003345205434188051,-0.00022123814093657864,0.0001302267599753
1700843427.260177,0.06968326829023766,-0.0788987151283827,9.756525669680558,0.001295274153841719,0.0008822106744555803,-0.0015945764490966
1700843427.2702224,0.054379770653434224,0.13793065679004468,9.853554783518074,-0.0008940569201661015,0.0010237335327515863,-0.0023210322716836
1700843427.2801847,0.13106078845361452,0.06225941874979583,9.787728157303818,0.0011105054640077755,0.0013191785870939094,0.0017913272139053
1700843427.291109,-0.0031872059552531876,0.016422989550860995,9.839736469791042,0.00044667452614077845,0.0008952280793828155,-0.0005567302461345
1700843427.3001366,0.06948757631685692,0.22236922620455984,9.87132403023019,-0.002469482173031401,0.0009086448903510098,0.0003209652466834
1700843427.3101912,0.06574434453531665,-0.08685671466966224,9.76440350199494,-0.0005248910679382489,0.0017904111301553232,-0.001155765540861
1700843427.3202138,-0.07861885985304143,0.041427502357480675,9.893603950090831,-0.00018589170543410703,-0.0010937156356005831,-0.0007947681471337
1700843427.3301444,0.1633047208854653,0.09180297674226817,9.774698269019245,-0.0010549954251040498,0.0010557920226729252,-0.0001376233878177
1700843427.3402288,0.0009823338345742027,-0.0015863750571518506,9.845852248139014,0.0005018000162632433,-0.0005680633006481986,0.0009185017086933
1700843427.3501472,0.06224727509371188,0.07122070639530007,9.830052230235744,0.0004150087742634622,-0.0007833844953012106,0.0019001119770477
1700843427.3601637,-0.010080801181476695,0.08557520329651357,9.86697484858267,-0.001164139186611159,-0.0017180555378329128,0.000576883726208
1700843427.3702111,0.12354797681110209,-0.07826629699470401,9.726116366396315,0.0012010470058995606,0.0002257975100177712,0.0005083260483302
1700843427.3803208,-0.06942636857165031,0.044736967371099015,9.867919649892912,-1.1540780870053556e-05,-0.0014621182909916462,-0.0012805416946862
1700843427.3902369,0.12959294377213526,0.049440730056150184,9.787658924800063,0.0006955196856425575,-0.0004052648647922879,0.000268808766887
1700843427.400251,0.09663516858924802,-0.12219898470857438,9.739322593179896,0.004111230814836049,0.0005517855958666711,0.0001473537821225
1700843427.4101408,0.015663495721624916,0.3553270619130777,9.952612463021975,-0.0014960686183473327,-0.000835910222543759,0.0018740311032529
1700843427.4203887,0.07595181843502087,-0.11552387695018075,9.749315640976965,0.0012342020146560025,0.0002101525428971089,0.0003671357161151
1700843427.430138,0.07968549214830234,-0.0004360588992613666,9.780454550639838,0.001698725343736976,0.0012186015008809241,-0.0004073326009888
1700843427.4401534,-0.04806036199037934,0.1381253827440258,9.902280915442681,-0.0008553130467977865,-0.0004607725458844934,-0.0010492032626275
1700843427.450184,0.08029820217699282,0.22571350602534984,9.869127539008282,-0.003920865975524693,-0.0005859807026168969,0.0007504835201329
1700843427.4601362,0.09545110639676477,-0.125409934500446,9.749777852649327,-0.0004373373508568708,0.00011441128986027233,0.0005396314635076
1700843427.4704,-0.04813672786444127,0.0004921633260893289,9.870205283628444,-0.0001404268346974139,-0.0016942086496554802,-0.0004430969012532
1700843427.4801643,0.11435678514347931,0.1353605905653347,9.806106755028058,-0.002286935021175163,-0.00023613924434806165,-0.0006427857325975
1700843427.4901512,0.0701303371597558,-0.024168603555453517,9.796745811434981,-0.0006370099017924902,-7.63239868553586e-05,-0.0001987280440148
1700843427.5001557,0.05310700891613849,0.10895416721921954,9.832093663472872,-0.0011578130817352123,-0.00032853776660843304,0.0012925246381569
1700843427.510136,0.03888985446569928,0.02680138638934281,9.82602476809006,-0.0009592558656025881,-0.0005039924755957486,0.0009054579248554
1700843427.520214,0.013985069000666529,0.05038079191675108,9.829593312419037,-0.001027794785252968,-0.0013008280177064318,0.0012876692461218
1700843427.5301485,0.049479574335227615,-0.012652234087141953,9.79831766619303,-0.0015493466541660465,-0.0001847403881656183,-0.0014243383658681
1700843427.5401225,0.037820796554740514,-0.007924908707048773,9.796417667610024,-0.00042466954011792626,-0.0003151140658620667,-0.0010156757663567
1700843427.5502317,-0.04064011809276833,-0.05191286481739562,9.833337973261257,0.0012680992902093385,-0.0020000558439150083,-0.0010708121582497
1700843427.5601451,0.09427386770063166,0.1053880446336502,9.82070881274359,9.873109075179592e-05,-0.0011622417699918772,-0.0004606068716016
1700843427.5702198,0.13190751660894282,-0.0886417614415892,9.727506629380978,0.003506257296603652,0.00024256126343132913,0.0006488119368809
1700843427.5801709,0.03957390771628077,0.19031548121217567,9.88222188933769,-0.00016205449100955877,0.0003401651945122544,-6.200500061778622e-05
1700843427.5901716,-0.026716537899377075,-0.09859433966740719,9.810836343084866,0.0016789985190166718,-0.0004864817326221797,-0.0020568931242082
1700843427.6003225,0.029091418170971658,0.1561120608453973,9.872557408251174,7.088480889707298e-06,-0.0013201965628240279,-0.0006401611491669
1700843427.6102424,0.06511235871608208,0.019773196116467967,9.791388324001758,0.00175462565574885,-0.0015463104292112128,0.0013387074112329
1700843427.6201298,0.11193336788314949,0.04881332252976957,9.79546396300546,0.0005457701633453277,0.00034500226676524966,-0.000697172060572
1700843427.6301432,-0.0004613799657481776,0.03132123871201917,9.842670050164406,0.0008769430944544208,-0.0008534123242856599,-0.0003756678080749
1700843427.6401367,0.11769063708047622,0.23087141794285984,9.839862030589169,-0.0018250143953507188,2.8730587282589948e-05,0.0018237406155462
1700843427.6501212,0.026240551133442314,-0.007046163846286982,9.825809440751682,-0.0015940393623269451,-0.00020931508270751904,0.0007851407979983
1700843427.6601253,0.05089297813399525,0.06787322410971341,9.838897448110954,-0.0018194211885013917,-0.0005539183629417459,0.0012362822424988
1700843427.670165,0.07756697992952662,-0.025726727090519003,9.790459451449728,-0.0012401431898312026,0.0003621431762825642,-0.0002996689173956
1700843427.680206,0.05511080768035605,0.12217180694679836,9.85049884754987,-0.0019032326671819173,-0.0001538193222808216,0.0016918823356177
1700843427.6901782,-0.04512007091296804,-0.11831380381525873,9.8178076149429,0.0015828858233284833,-0.0022075618564020073,0.0016855358379329
1700843427.7001438,0.21346066343445355,0.1647441523450121,9.783425300617058,-0.0009413732237595816,0.0009119944888439326,0.0022547632223363
1700843427.710152,-0.013214429766223012,-0.09135649753481634,9.8076312833231,0.0010755008694464303,1.0848043063153082e-05,0.0008514495392232
1700843427.7201352,-0.033443098322857724,0.07898439865562368,9.875571723125539,0.00016951030963081222,-0.001638707695643142,0.0007929559040717
1700843427.731036,0.13387657256309507,0.08777522285739242,9.787937642976923,-0.0008359459398087899,0.00018929427146665282,0.0009017243108614
1700843427.7401214,0.0009941682364818319,0.06015061912077345,9.873743499245396,-0.001037112524088714,-0.0008284638955857254,0.0007642671233411
1700843427.750131,0.08191467339554334,-0.015493979447916119,9.79124220971838,-0.0005986494253981087,0.00029731795884644177,-0.0007832213770229
1700843427.760118,0.010438890423570511,-0.053495897620967445,9.803765490659208,0.0007268058064292621,-8.637597410139578e-05,-0.0016042701201145
1700843427.77023,0.11784408811795256,0.12201361352355611,9.81070990553897,0.00032187283175928375,0.0005614454627572377,0.0012783724931436
1700843427.780148,0.09324934060637347,0.11817090447810515,9.817715005783809,-0.0023208580714581327,0.002079501464412031,-0.000676640472338
1700843427.790156,-0.15803382433775826,-0.04955969394983811,9.902994746358974,-0.0004179731925910184,-0.002385260777338296,-0.0011605896753822
1700843427.8001158,0.14563818061612163,0.00909722738036281,9.755173596852583,0.0003401146611352502,-0.00043096553792272395,-0.0005954574327547
1700843427.815441,0.05632391801255873,0.09662047262283921,9.82911015042503,-0.0011473809692306336,-0.0004015420200744428,0.0001577929768613
1700843427.8201132,0.14933179997316565,-0.07557353767094917,9.722995322679122,-9.573730121662634e-05,0.0006646388539799147,6.876386472912235e-05
1700843427.8301177,0.10304055502871509,-0.0515650951085158,9.749718159880292,0.001730787308908908,0.002219571955168552,-0.0002460169954788
1700843427.8415196,-0.09566524375714014,0.05045067210811672,9.89788306106532,0.0014022039474117303,-0.0011767681656345602,-0.0003574166795801
1700843427.8501391,0.09093612889888134,0.276591838689374,9.881068895253856,-0.0034093888519339073,-0.00010502131759952881,-0.0011531118535999
1700843427.8601742,-0.043127333265693395,-0.09043486121649981,9.832797925339953,-0.0011753245836592775,-0.0017474916327477718,-0.0022781725739691
1700843427.8701563,0.1288861773572466,0.11267290153856861,9.796605786382953,-0.0004730946614642884,-0.0014338226981482132,0.0019459264120455
1700843427.880286,0.18668305401914345,0.031627385541658705,9.738971731664261,-0.0013261867150539178,0.00221585135860047,0.0002032176533616
1700843427.890232,-0.17972369153491355,-0.04407471536358378,9.915651209048312,-0.000762537911461714,-0.0018797453861041369,-0.0020110706565533
1700843427.900141,0.19472291303286668,0.09100358477206774,9.749246761286916,-2.4577045536550678e-05,0.00017364298750331418,0.0010775681701857
1700843427.9140477,0.04809342971903802,0.07070194857507359,9.832441333115588,-0.0011019397953027582,0.00015948658662736783,0.0007419182919334
1700843427.9213493,-0.003545767467680003,-0.13897355573635914,9.774846784853453,0.0012535706193434028,-0.0002745067422154658,0.0001734393707379
1700843427.9301507,0.09856029880887408,0.07806314757848123,9.804295655072503,0.00011584901748916658,0.0010259928072259828,-0.000509783497509
1700843427.9402256,-0.018388238800984107,0.03669352861196566,9.861414363505638,0.0007409707272221868,-0.00114994264964549,0.0007728467288329
1700843427.9501698,0.1479958475762821,0.2843201120074962,9.85338026160631,-0.0033758456152448674,0.00032451137849787403,0.0027066488517816
1700843427.9601717,0.01782212714499348,-0.2566557054717483,9.736322058447588,0.0014003237075808587,0.0005402137041608998,-0.0004133148933392
1700843427.9702463,0.06658365423866498,0.12330980574801435,9.8321402528782,0.0009250040126283658,0.00028093316940609584,0.0018427348230402
1700843427.9802046,0.03257089666265611,0.0917031384260551,9.856978903313072,0.0002540723381730598,-0.00036838868905593366,0.0022733861813689
1700843427.990405,0.016232120269157446,-0.031084233702195294,9.826375764693463,0.0006247420056715309,-0.00046486247963282697,-0.0002422858844142
1700843428.00043,0.11688953114847889,-0.03345628491121009,9.75061339562306,0.0016283207579239302,0.001384745303247019,-0.00119076103434
1700843428.0101366,-0.025024888027441648,0.20738703784764184,9.913904110521667,-0.0013824532373330472,-0.00038366963233025115,-0.0003533216542196
1700843428.0201433,0.06940185507717453,-0.0013013501444980801,9.793765744670594,-0.0011544628449434604,0.0003815164265943211,-0.0012533449800316
1700843428.0301805,0.08496816099437372,0.04150513404382503,9.804060681553363,8.209267732172748e-06,0.0003036547745989982,0.0009352587629477
1700843428.0402205,0.01816450844811874,0.13011865875156356,9.872660368517854,-0.0019263398601652199,-0.00022943823645929927,0.0005753999474477
1700843428.0503228,0.015131699534306348,-0.007368245998580506,9.819588545242302,-0.001178300349880023,-0.0007763132910677152,0.0002740207972606
1700843428.060151,0.019270816876717164,0.059670323662134685,9.843404582019787,-0.0008176902429449848,-0.0017735762723484272,0.0016993125435333
1700843428.0702734,-0.026786790831019796,-0.048495586636746094,9.833370071684733,-0.00036692532711708764,-0.0024653462342228835,-0.0013420096831028
1700843428.0802016,-0.02249231855375652,0.12416395207965009,9.796546528026818,-0.001892064238257894,-0.003096412711647753,0.0001611448068074
1700843428.09034,-0.22149055921142893,-0.2842048452294396,9.779124252534688,0.0028562695849843594,-0.011605717990181343,0.0014067987329694
1700843428.100207,0.9555719494475219,-0.24791885849800382,10.010595937386759,0.007651182092227153,-0.01637937141733516,0.006414164858907
1700843428.1102884,1.9738915217930721,0.5631642871194313,9.677861622875199,0.0018732052696411562,-0.005456402529589527,0.0210700976429875
1700843428.120187,1.2101179249992777,0.5873272704303873,9.87169718674355,-0.0039047409677163375,-0.009656827959740879,0.0390430996893342
1700843428.1301525,0.6004646542126189,-0.8335776245748832,10.109859691056208,0.009212052108533066,-0.023545532202636246,0.046427403646558
1700843428.1402345,2.58506867121349,-3.0157259165103176,8.697181155031608,0.04244360348976372,-0.0156818721523562,0.0616405020235474
1700843428.1501565,0.7985329535389484,1.177346773226336,7.7083825415824405,0.058498912274057686,-0.010255525133265274,0.0933662104187901
1700843428.1602943,-2.1307315394177953,-0.917749389176569,11.75885517356632,0.03748102971784142,-0.07218280075912703,0.1190319406567509
1700843428.1702583,5.8405233452943675,-3.8778361039408336,8.646041019451134,0.1153123321429877,-0.028883988397147575,0.1320737051545079
1700843428.1801643,-0.11856474641362395,5.847028575370706,11.025855486415262,0.06899017223789444,-0.03152749349392451,0.1247687387047703
1700843428.1957974,-0.11850900309346432,5.2169364817526835,11.959159849513465,-0.037588922171961615,-0.09216354232579181,0.0787293213187153
1700843428.2005675,3.6330423520244954,-1.4562369876778174,8.718973801581999,-0.042578502444256955,-0.07215050632113994,0.0212196773616965
1700843428.2104192,1.4886402197629964,-0.11700481005805895,8.549381562403344,-0.05756361590634925,-0.07669146634306846,-0.0189870567293469
1700843428.2201655,3.012173023858251,-3.20276245484617,8.984383747366564,-0.03442025590362805,-0.07022760902971702,-0.0348011394263808
1700843428.2301798,3.277810270065241,-4.137249336412793,9.673918623334396,0.018956190709682543,-0.062206261726813726,-0.0811235261382166
1700843428.240142,4.666933286465,2.5815050523999594,11.035452246664601,-0.013459977487605862,-0.03042018533970878,-0.089991751057059
1700843428.2501557,2.8688791368628506,3.486503776585518,10.87902156690821,-0.050628734465080226,-0.019219891351528098,-0.1021355194272105
1700843428.2608447,4.50444941012415,-1.4933822960076213,9.861006590925346,-0.0639169461992665,0.025951362160585315,-0.1218958375276629
1700843428.270182,-1.665202558105605,-0.09355422713539471,8.162583179815348,-0.041172659110655326,-0.009252043211757056,-0.1211181906284396
1700843428.280632,1.590795817897038,-1.5703250408913638,7.438595759756042,-0.03790189714430666,-0.008521893000817914,-0.1255387616576258
1700843428.2902317,0.8192913080264851,-8.134013095270772,9.165119507882356,0.05193786010922725,-0.010213830468134287,-0.1132392165483538
1700843428.30519,0.8538874310028096,0.7816417543201989,8.721864847162006,0.08586396838761132,-0.03596917008266261,-0.0922028300584857
1700843428.310885,4.858984922552111,14.370844088740316,11.850451192033125,-0.03159004482340737,0.005578616214539726,-0.1038293120683734
1700843428.320427,2.540553921027153,1.3269429880819337,14.231718980231843,-0.08215235086880335,0.016359846092720835,-0.1086840805830065
1700843428.330155,2.937139763701277,-4.133176327324824,10.201956979469257,-0.02338987362373984,0.036891540898213865,-0.1166226444067065
1700843428.3401556,-0.48669724438739287,-3.6777020658182575,9.132537954851447,0.026897063642051314,0.029260480492626372,-0.1247148466528956
1700843428.3501632,-4.514647282049584,-1.950428315254594,8.992533709699316,0.05727629688038591,-0.039286520095860214,-0.1076335710705821
1700843428.3601725,-1.4318140488846298,-2.7774364552351303,8.460286121872315,0.08703051696077764,-0.08229426943574782,-0.1161675405921046
1700843428.3703527,3.195184861281214,2.5690606613466924,8.952386290703467,0.06991036575944719,-0.05197843513312918,-0.0836082053603236
1700843428.3802826,0.599399818248063,8.933513814430878,11.511311395565944,-0.028929479736847293,-0.049877302134357863,-0.0907042053760592
1700843428.3911395,5.493373616829121,2.4854236010680237,12.060274494776325,-0.08513739261086774,0.020629300250469367,-0.0992662710370127
1700843428.4002535,0.34511299140000623,-1.328689300376311,10.222445458117013,-0.0590664419238356,0.031107769126080802,-0.0938690779031817
1700843428.4102128,-0.7715365759839384,1.1606089921827172,9.178853829697335,-0.05644743960693843,0.026782172009570695,-0.0891981524647776
1700843428.420199,-5.3555505549782305,1.9112725988480477,9.142984259854716,-0.07165824157053421,-0.03841176919238188,-0.0627724704565112
1700843428.4301972,-2.4837119173960205,-0.5632563277106091,9.728199133208912,-0.06297592056362895,-0.08445670677124469,-0.0358595391036574
1700843428.4402268,-1.4712745243871377,0.7876987844653481,11.189081301334998,-0.05890758032643207,-0.10518725103313724,-0.0141246327431504
1700843428.4502444,1.0548504423744043,2.7893292734073807,11.916092415683304,-0.08402464534098929,-0.09844792480687578,0.0054036128102238
1700843428.460338,3.0422785264779195,2.3262082111151763,11.008090037799624,-0.11757114372392174,-0.056906631154972735,0.0124005191726978
1700843428.470216,2.3899496817897408,-3.8099838150084633,9.659385817989522,-0.07761701826569575,-0.028669819323182102,0.013597278925627
1700843428.4802215,-0.2196202083569519,-1.9919124877970755,7.658155366949437,-0.04268877346060445,-0.02631342837009859,0.0106853489531572
1700843428.4902022,-0.4329528363059237,-2.8602046010801865,8.678502174804283,-0.01575438941499828,-0.03882657720754726,-0.0044993571238224
1700843428.5001934,-0.05720934359408852,0.4810895377153325,8.523375099642408,-0.012178730771279896,-0.04663001153852784,9.041044981175764e-05
1700843428.5102124,2.690737917120144,3.3978566030118973,9.938926608130393,-0.05020681543925534,-0.026275862003431617,-0.0030257284408067
1700843428.520226,2.020065356885851,1.1009707303159535,10.678426372807733,-0.08079410576776211,0.0035241999234224795,-0.0129189453320209
1700843428.5301874,-0.7121901475207996,-4.5103654271883435,10.391362528530097,-0.035454140205617275,-0.00817094273893945,-0.0122058688895408
1700843428.5402007,-2.707544089536344,-4.317022147383912,8.985074503340412,0.025702792255663767,-0.04474556605127885,-0.0160410245181624
1700843428.5502224,-2.6609747421381322,1.3779526065492451,9.654726126457195,0.024952935066755937,-0.08860740796152906,-0.0072984797181193
1700843428.560228,1.3625042318172786,4.946357698340932,10.842823740677721,-0.04397757523592055,-0.08374251820721183,-0.010430215788037
1700843428.5702229,1.8625122584787837,0.13938409541695418,10.3465200568981,-0.06348965534522164,-0.055494401456089,-0.0111029557184879
1700843428.5801926,-0.26189857765758934,-3.591876972349036,10.097892733820077,-0.020701592672779774,-0.06688650131834131,-0.0031235752859715
1700843428.5902548,-0.07834734783174432,0.049668741438802594,8.609351385353992,-0.01187553642742439,-0.07135486675308159,-0.0015974980080132
1700843428.6017475,1.1017907121331674,0.9748108258901393,8.88907303799062,-0.03159127495724217,-0.06431782334500304,0.0004950173868933
1700843428.6116185,0.29896328562379515,-0.11618775836398171,9.191171208398506,-0.03651980825706059,-0.06279639061250844,-0.002597372676209
1700843428.6212225,2.328090059809408,-2.7332356826718214,10.151011294830088,-0.013521898866947563,-0.04601196709048622,0.0034902555169905
1700843428.6301775,2.200246567439568,-2.498460395817892,9.223139004163336,0.01865025974020382,-0.021186221206835804,0.0095437989337738
1700843428.6402054,1.795078269852218,-1.4291218769952312,9.976731776659351,0.03362859054243176,-0.010038104955981914,0.0053563151276107
1700843428.650193,0.3609962737948321,-0.20305424168933184,8.943961905711433,0.029147202343166558,-0.005145935242629976,0.0062263678526874
1700843428.660184,-1.60019796629519,0.16764836623289867,8.972196729065002,0.03211287859905653,-0.029935573640920015,0.002786670415699
1700843428.6702662,-0.8068944605997731,1.189938240708658,10.233779516909225,0.01068706581617219,-0.053345744024691354,0.0020002913196008
1700843428.6802697,-0.18153215281579216,-1.0669388745970403,9.974814203136765,0.023656030563972235,-0.05891336085241627,0.010678993607908
1700843428.6902237,-1.264737224534972,-2.15317286725883,10.605460299290984,0.04546689215819725,-0.08288831021142487,0.0027009305311735
1700843428.7002072,-0.6283430016387243,0.30416001400611037,9.953028582019122,0.05665106145891936,-0.0977499536499636,0.0132833617506916
1700843428.7102425,1.1591950498069667,2.943010326295144,9.99438387979706,0.01898565082155861,-0.09398782332143818,0.0163274920313055
1700843428.7202108,2.099496468326133,2.9442432570349157,8.67967074569988,-0.012098378712740394,-0.06957128775647091,0.0177713437704737
1700843428.730412,3.0050334506778094,2.029246067759229,8.541980513742427,-0.0354325607739029,-0.03861325224762587,0.0232033478794987
1700843428.7401905,1.6502655846732204,-0.9050812802266243,8.583145250468059,-0.031762077230655224,-0.00902486121340293,0.0172117884038384
1700843428.7502356,-1.6634903211907939,-3.739711526361707,10.251128748082188,0.021582085805936794,-0.028299431734492224,0.0197374290554221
1700843428.7602365,-2.1008264273307233,-1.4264265958823685,10.890917215193754,0.04221011119022636,-0.06395823385014295,0.0167381419567759
1700843428.770232,0.4630834039044912,1.8099657888964538,10.371350178262908,0.01721294444637506,-0.05854832930279564,0.0104395934148128
1700843428.780298,0.16999663446556673,-1.1290985537436036,10.79780433030757,0.014243671120970549,-0.05751074325106568,0.0062241815729434
1700843428.7916064,-0.9407206274590217,-2.274637980066342,9.777441407466329,0.038251193762577164,-0.07265526238282205,-0.0061140562640134
1700843428.8002326,0.4514591703176525,-0.6669764940587884,9.25642051814118,0.04422317111112982,-0.07049720076689851,-0.0053912051254515
1700843428.8102243,-0.5059111535057667,1.2219170561764432,9.148317337277275,0.03482781507179432,-0.0751542632545072,-0.0030891638481621
1700843428.8202188,-0.37784405411806976,-0.3573231246833425,10.06199884052014,0.030284991998635064,-0.08739154846598213,-0.0102250463561718
1700843428.8302925,0.7668783598114773,0.6324754804998785,9.478350462334877,0.029435164150809257,-0.08258210408819759,-0.006511362665296
1700843428.840273,1.7484398644848522,-0.8188353664732118,10.33523935846805,0.034798787180070775,-0.07218458856546117,-0.0144019871251289
1700843428.8501954,1.1104820400502282,-0.5449571065472733,9.543264484764947,0.04267460390158972,-0.06018573544043245,-0.0171604612143342
1700843428.8602324,1.3437896972945884,0.26549602246160653,9.542421689763936,0.045232832594232185,-0.04935581801595667,-0.0155582585604493
1700843428.870246,-0.5161169984992451,1.0588189786323223,9.539158868406226,0.03195962197377131,-0.058697894104259095,-0.0147887933300439
1700843428.8802335,0.1825526660992014,2.091076303323853,9.273006106419725,0.011896503714017629,-0.06178806074496881,-0.0089085874380175
1700843428.89023,0.4171917356217688,0.4183243152885915,10.33641673185774,0.0031280216540572514,-0.06383393893903981,-0.004044291493446
1700843428.900225,0.04453339246640646,1.525484097373267,9.39704413370204,-0.002313209256862062,-0.06472782560908287,0.0054380596382911
1700843428.9102263,1.8507403996899157,-0.1669768706051487,10.641894776796763,-0.016072433283710358,-0.051460091710788504,-0.0005236367461834
1700843428.9202783,1.677071877441284,-2.3041200729968043,9.839311616767105,0.022890526244786765,-0.029430739321430113,0.0054119900567825
1700843428.9302995,1.944366809524034,-0.777083946563286,10.309602114451778,0.029588004553052074,-0.01910349599802447,-0.0017595171695206
1700843428.9406092,1.3492112798451907,1.5551963968593652,8.71576207695325,0.008058734360950143,0.007515731285972409,-0.009255208936483
1700843428.9503138,-1.5059123012143176,-2.5407721876188063,9.017496037524557,0.03262664093945394,-0.013128631729424333,-0.0154963144333664
1700843428.960267,-0.12050040415877636,0.8122837159989558,9.830825266193951,0.02513979803445194,-0.02704209211456444,-0.0256645110668246
1700843428.9702983,-0.21112210603807688,0.8729762348343978,9.730550700073993,0.01942789710264058,-0.023909708100004624,-0.0218118754448
1700843428.9802437,-1.4091514168631813,0.32954205333933406,11.501242343963893,0.003709125333285831,-0.05455944721936497,-0.0326407579006259
1700843428.9902518,0.3401645647841435,1.0323082065928038,9.864543713087325,0.0029786278463321287,-0.047643969259328595,-0.0302581907482449
1700843429.0002356,-0.10625365394308045,-0.24867744300377234,10.077695717016827,0.0015821390079705728,-0.05682263750035344,-0.030691628274471
1700843429.010242,-0.06364891587964032,1.876544956645903,8.907165286699168,-0.009186853111493963,-0.05300904542009889,-0.0318340239347521
1700843429.0202324,1.255349315591986,1.1512285183031732,10.723940899303097,-0.022608374666786234,-0.044573347418929696,-0.0189047520281378
1700843429.030353,-0.6070217830043606,0.28950971790437496,10.577617279707798,-0.02601752232783752,-0.04512512038738717,-0.0233815786661212
1700843429.040421,-0.6759724205436904,-3.295325138164733,10.950431471492877,0.009216225985976023,-0.05536658380416892,-0.0202431482495371
1700843429.0503018,-1.0070764810561754,-0.9010541128078486,10.682405250990884,0.022617719269733202,-0.06935008475381196,-0.0166675959946219
1700843429.0602784,-1.415035104183315,0.019449888229530192,10.234157140035725,0.021205997769475172,-0.08534763243100546,-0.0176601697923247
1700843429.0702596,-1.799869995816571,2.225324211473839,10.282534209377996,-0.008576452002924744,-0.11133965792031822,-0.0224245310993496
1700843429.080264,-0.5003367257650723,2.549501050583498,9.681360553238754,-0.04246496690828826,-0.11842673265977381,-0.0260586262913052
1700843429.0902529,-0.03609270846486296,1.90566612929459,9.806527783035275,-0.06520073022790579,-0.124050364565871,-0.0224566524149481
1700843429.1002588,0.6128381212268329,0.7078151813214105,9.359650683732493,-0.06983900286301571,-0.12007762299152185,-0.0251098041655127
1700843429.1114376,0.8096753317903427,0.4514465173931958,9.686174213508817,-0.07370085643018248,-0.11667562363292368,-0.0338626195909087
1700843429.1217706,1.6219361237826404,1.6217065455449855,8.949433067081848,-0.08676919976590211,-0.10165075787449188,-0.0439733294071261
1700843429.131646,1.2178918509172059,-2.158050466411914,9.617226951372839,-0.06904567834098395,-0.08979594304411717,-0.0511727583827082
1700843429.1403232,-0.08928533572808865,-4.125494991913143,8.75775836418089,-0.01703463335266492,-0.10043505530664941,-0.0613702711881701
1700843429.1502686,2.76740008175699,-1.2329016599501976,8.336562090512292,0.002858139428217677,-0.07749237008255752,-0.0682033774675433
1700843429.1602595,2.9923061047793835,1.350857076588161,9.093197196309193,-0.010979743824138945,-0.04818534685884409,-0.0673227486433093
1700843429.1702406,3.802146298227938,1.609210922564636,10.02433514124501,-0.034919722335012615,-0.010564242897198069,-0.0775140476645533
1700843429.1802971,2.964414172478623,-1.462709713557957,10.18619675603944,-0.03412987663128131,0.023701863189224973,-0.0813770544947688
1700843429.190314,0.7704905378634954,-4.177751645128856,9.762803773239403,0.013023610155635863,0.024084288781536678,-0.0910406288923327
1700843429.2002506,0.0955828072073144,-3.4269284928604398,8.811737976916103,0.05050578075370574,0.01768780589368459,-0.0920408991397921
1700843429.2103376,-1.427749688541791,-1.759099218970507,9.180753858134915,0.06593605030692555,-0.011012463897705164,-0.0887985554756228
1700843429.2203102,-0.4666998164674718,0.8547683663868811,9.854970950273133,0.053556124663742086,-0.03349504465805005,-0.0971948680700366
1700843429.230285,2.432241475251436,4.7586995780597645,10.912369212744014,-0.0096620187973962,-0.018168447978440232,-0.0890888673485819
1700843429.2402294,3.5436372256267217,2.619897515001016,10.89868865710589,-0.056042519620779274,0.017121975662119825,-0.0902161774457995
1700843429.250274,2.0264742791820285,-1.1185523855290938,9.834382094916137,-0.04935597656952707,0.03785286883802651,-0.0957882059039179
1700843429.26028,0.3651379508043945,-3.8413433446613077,9.116989616461616,-0.0006857673155604341,0.03301307475598618,-0.0941192683996264
1700843429.270388,-0.08245497757044123,-4.153450705199189,8.712709457075448,0.05763313178002392,0.022288541561560824,-0.0953548577846591
1700843429.300551,1.220720209628821,0.26125630133087424,9.526575941669812,0.06909103740852741,0.01930927850051746,-0.0802665007533137
1700843429.306572,6.6546519781114055,7.6524519038235495,10.059818564515075,0.015148383605211048,0.07037005966553357,-0.0647229579509799
1700843429.3110094,6.3953994335193265,7.143464195261004,10.892155833471055,-0.04309483559240715,0.11614201056748133,-0.0647707757772509
1700843429.3156269,0.8079538881810133,-1.4726461245550144,9.127219981435942,-0.0369736665460684,0.12203235897295399,-0.054819262516648
1700843429.3222134,-6.0371864649911,-9.169193951678677,8.216118718949662,0.05217525090095592,0.06263930883238521,-0.053347217780501
1700843429.3303158,-5.146870834228228,-5.281370439282178,8.288169112453321,0.11983996689551572,-0.00880781978873232,-0.0407024686457221
1700843429.3402858,-0.05588538398277028,3.5087238498937356,9.8109333142228,0.09189769743787833,-0.028681666683938026,-0.0273300455184285
1700843429.3503509,2.3327937529464253,7.870650519420003,11.666201534699526,-0.006968738977367728,-0.004019734261262975,-0.0291443084599082
1700843429.3602822,1.5792180100614268,4.581646430714051,11.612357924885824,-0.07640113919220441,0.01758267858132614,-0.0365748209179942
1700843429.370357,-0.9937510222321724,-2.048077038061971,10.120058492754204,-0.06380881093757339,0.007226172135795612,-0.0521240820409361
1700843429.3804388,-2.2869256827194135,-3.0526072336486743,9.234255188616004,-0.011068171988778262,-0.023611057995027652,-0.0503188473404948
1700843429.403002,-0.9041448534340887,1.1552129934808366,9.781942995541797,-0.01709491517888818,-0.050205338420413394,-0.0459261973620955
1700843429.4048862,2.205416207133531,7.518647820228447,11.296443577205382,-0.040271155146219005,-0.04523006611077711,-0.0322998267830912
1700843429.410437,-1.961054024125797,-2.621414142649289,10.317561419959844,-0.014463090109346407,-0.06763106598645141,-0.0205892761470381
1700843429.4210095,0.8431509195684302,-2.83830237178742,10.418228188146724,0.018340966589974115,-0.06365629535514458,-0.0086482613579933
1700843429.430326,2.06574853549167,-0.9454284612201413,10.172776359441846,0.041466300386559976,-0.04684190898511965,0.004792112461328
1700843429.440493,3.0475819175817094,0.212540358698247,10.1309999144491,0.032371146441895475,-0.014838603053014548,0.0046369429445262
1700843429.4502475,1.293263704686984,0.471628314050178,8.922665454279166,0.024979184207472194,-0.00044456673264520603,0.0034364253050084
1700843429.4602463,0.4130718934605693,-0.6816441403218299,8.902407467514166,0.02805412722961449,-0.004280383706158693,-0.0038329171249274
1700843429.4702723,-0.42984895416667024,-1.0273464498743696,8.499486934607418,0.0405697908039464,-0.011803301374977461,-0.0154706024797265
1700843429.480283,1.232419483221647,1.0311906514808404,9.265530647680038,0.03197418853167437,-0.011219932547567864,-0.0161581550957266
1700843429.49031,1.6737172464273697,2.6289918800436904,9.874598068222635,-0.00040886797366079824,0.006000216950848644,-0.0232027963967625
1700843429.5011094,1.4053033693520596,0.9465258121012665,10.435240216903601,-0.016473757198147546,0.020232614241578874,-0.033259387058169
1700843429.510267,0.7953932665794716,-1.0748016164201701,10.373555231180344,-0.01026364872484487,0.027181993997046204,-0.0386077043832842
1700843429.520258,0.02593697378655422,-3.0785990217789676,10.154325305124898,0.031244725724964895,0.026236889961103252,-0.0446588834048811
1700843429.5375073,0.3854108701313502,0.1408628483060427,9.947483135469774,0.04014740879480873,0.02512858011673108,-0.0360199501039092
1700843429.5402582,3.429408052125785,1.5287485177078308,9.56396131911592,0.03147356806888781,0.041119376881990764,-0.0404293229104582
1700843429.5502694,1.5769342649357168,0.9970259168441757,10.139648904994422,0.015322216557742543,0.05959132752894908,-0.0398433682741229
1700843429.5602453,-0.1167862139559753,1.7770912203023939,9.63693842325229,0.0021996326472230694,0.056584812072771266,-0.0495867123128478
1700843429.5703127,-0.0795852007705072,0.2335463372039442,9.312545552111072,-0.008608771426106525,0.053515319274401126,-0.0605557364644114
1700843429.580362,0.08258234685247734,-0.7783754266511078,9.796805914990353,0.004430490662542424,0.04770378552563365,-0.0639728931011263
1700843429.5902526,0.2829339163559344,0.6365970981794318,9.159778802197238,0.0036000260255905493,0.046690910417378405,-0.0759813812793795
1700843429.6003437,0.3512230057896833,1.4249953979890548,10.100857176205484,-0.009668496644473447,0.04343867070056133,-0.0772376087726657
1700843429.610366,0.14666666685138421,1.6037272114648111,9.797700522441424,-0.03471843595275916,0.039410928391005476,-0.0868734223069254
1700843429.6203933,0.38054343792389006,1.143516471969575,9.506877942910865,-0.04532740009494421,0.03678174308340514,-0.0877023664535586
1700843429.6307168,-0.06630679114641769,-0.8327662055809075,9.356969829163857,-0.03988407489090037,0.03189165090933573,-0.0978964817942683
1700843429.6413193,0.6553691213893706,-4.240034331090164,9.713312461510288,0.005608893249592966,0.031509035303746324,-0.0993876037420336
1700843429.6503303,-0.3676211021702642,-1.8092548420345287,8.688025056842111,0.040616567583037985,0.02252685538103739,-0.0996910286368434
1700843429.6602948,0.9849805360221233,2.160011313140609,10.031003844527856,0.020332450790318774,0.027638046993786698,-0.0973343131364886
1700843429.68037,2.6837429922763443,1.5451703123170644,11.398816553442268,-0.057714449042224066,0.08610334677101114,-0.0953164723934237
1700843429.6905203,0.8354200879559759,-5.349902817438489,9.443214719354009,-0.0023043734607874366,0.09307966613464201,-0.0924903330625598
1700843429.7002728,0.14012163364635033,-6.6892521323141425,8.248331791595929,0.07777086922278716,0.09145258241214767,-0.0961689231218402
1700843429.710264,-2.0165023314733173,-2.330136727292503,8.250410015672601,0.11695346354559548,0.06116515238808401,-0.0855034095467631
1700843429.720317,-0.3386412947068901,3.624631082003223,9.664132798611078,0.07227878952397747,0.04220254626136625,-0.0870576379121844
1700843429.730346,3.243876663374597,5.378612652407125,11.502072339613648,0.006494844441648132,0.07297616783901695,-0.0762298804940287
1700843429.740309,1.73778700834565,4.603327406983835,11.118285713722878,-0.06502108983857176,0.08954842369614924,-0.0871483040274684
1700843429.750442,1.9585643055008326,-4.34066563836376,9.180416345913594,-0.029149688364978495,0.11269555799964447,-0.0945031446637217
1700843429.7603974,-3.80406780699004,-4.73113781599346,8.307677874030794,0.03462920032549533,0.06276173491621712,-0.1021652472437922
1700843429.7703805,-1.741654190338342,-3.505765661501632,8.781082001245814,0.08669268032497289,0.02346106625080527,-0.0960072902263705
1700843429.7803848,0.3784800295498948,0.8475791325645835,10.131302794219422,0.08921014031975674,0.01570938456991623,-0.0814444896997515
1700843429.7903326,3.15299767306403,5.992794052448424,11.584382509025803,0.027017250268768965,0.0470166784131717,-0.0765491080702845
1700843429.8003078,3.37202658868403,4.204211649255612,11.727770916482216,-0.04514874155008887,0.08972448149465154,-0.0757692185463015
1700843429.8103726,1.0157346069488724,-3.9974782339330255,9.472734871542224,0.0008931684418535301,0.10243299193998631,-0.0770771009148661
1700843429.820289,-1.5691402428893635,-5.62616895833878,8.637333903146494,0.06937230118608559,0.08224414914744353,-0.0789991942466799
1700843429.8302848,-2.9835941265844355,-1.6639640351707483,8.802799717247439,0.1097760112664338,0.036843793317512974,-0.061317297560126
1700843429.8403,-0.5644167180619355,2.128851313871608,10.402827178237416,0.08042065348048297,0.012772068566069019,-0.064416947704703
1700843429.8502824,2.1822375948020403,5.920003931569328,11.349789272608977,0.016850522496617497,0.036074278010039616,-0.0519844171823565
1700843429.860293,2.5348474975370916,3.634095830760273,11.61125183877127,-0.043339418805860896,0.05690780428484737,-0.0556338382185999
1700843429.8703408,1.631236731390172,-1.8866936568520092,8.908898896059453,-0.02577872118933773,0.08235663139067423,-0.0673223016084735
1700843429.8803344,-1.2272634207557076,-2.4951403834095074,8.449324409127097,0.009666603287766369,0.06327940207082591,-0.0738450017990176
1700843429.8903315,-2.3281892264769057,-2.0424694265797054,8.390438824769094,0.037962633305924434,0.031031304247747426,-0.0706492466153208
1700843429.900296,-2.0088313246736567,1.0550152685485783,10.025784090616119,0.03234702189963296,-0.012195816986712781,-0.0749281970085208
1700843429.910337,0.7195528768397829,3.9970850398199014,10.683687733934052,-0.005506215914168665,-0.010751814237409804,-0.0607365620554987
1700843429.9202993,2.31086469286895,2.434463843338362,12.288652046886053,-0.04841203144499893,0.005086668412393291,-0.0633384985150401
1700843429.93033,2.964297903379767,-1.3735188883513025,9.715836742720969,-0.028067850621426617,0.04305245455859315,-0.06339291755572
1700843429.9403737,1.2507446472590344,-3.2375190368667424,9.38648184815815,0.012004021650993279,0.05701226299728366,-0.0588526492239539
1700843429.950455,-2.5566967229389364,-1.5839058469960499,8.924479674101823,0.03897241944562767,0.02344638304896681,-0.0631760535062853
1700843429.9701295,0.1385159786465327,-0.4589532330148957,9.159312171635467,0.052069679693891806,0.007965814712249624,-0.0513840866507594
1700843429.970926,-3.506169483480067,18.62007832754143,17.93413209306723,0.023588532006259193,0.0007596274542251465,-0.0479557876707617
1700843429.9804275,0.586829255399675,2.9222427216715317,10.804870512502216,-0.005088905819437267,0.00037303781927157164,-0.0376140688778464
1700843429.9903996,1.5110469298530667,0.6835956415951437,10.834392826247278,-0.027860639228206297,0.01583871215183227,-0.0380549346329276
1700843430.0003192,-1.5618325001182258,-2.8419576455064597,8.473964449583116,0.0070255653896887415,0.0019829809441186926,-0.0441648652078215
1700843430.010377,-0.21011204837989417,-2.5409701745277165,8.89175919614418,0.039118294566049885,-0.011726789626567593,-0.0412576970876757
1700843430.0203242,-2.0206034106385635,-0.1630130410852156,8.580909131997961,0.05122316586052965,-0.032287483097353874,-0.044155909609944
1700843430.031813,0.3997725054622664,3.2229104291618156,10.901772344775777,0.007769806975134942,-0.04392963350166818,-0.0463257570983473
1700843430.04034,0.19749304945961704,2.9780691391484937,10.231329819566401,-0.03006029854948226,-0.03953974749139883,-0.0509555739583079
1700843430.0505288,0.7776975663103037,-1.3733332621239636,9.814513771088789,-0.01998830452435679,-0.036463808169652154,-0.0609504831255976
1700843430.0603342,-0.22479413966184197,-1.2040254488989592,8.843217320858251,0.0016936722793523822,-0.039647450778882015,-0.0642438632668559
1700843430.070442,0.195707397703235,-1.0901463595371468,9.237390580495374,0.019920086850548194,-0.044517675586326785,-0.0632981536211077
1700843430.08038,0.6235161069880961,0.9364529493298783,9.778375977747055,0.010423715857599825,-0.04110932465830652,-0.0615297843934599
1700843430.0911002,1.4612685661071483,0.2295367136431382,10.193940064574686,0.007582188724847561,-0.03127296207310629,-0.0464928549946848
1700843430.10049,1.6529823249256426,0.291639845606004,9.912330034914929,0.00415882735420579,-0.013625527818012352,-0.0372631092788283
1700843430.1103635,0.3045051117800479,0.5006095966693841,9.690489520214522,0.0011276340064815063,-0.012678242967427748,-0.0304087353171412
1700843430.120346,0.31032471436231457,0.39050346533012786,9.581866724107098,-0.00489705735993641,-0.009880406684172314,-0.0300636318744723
1700843430.1317017,-0.5439410362879816,-0.5542696907936671,9.609756236535583,0.0024977732494125397,-0.020113421441141515,-0.0393409681738917
1700843430.1405373,-0.2231259392382776,1.2487534017308912,9.50603676762789,-0.005814940627139885,-0.027023903569474143,-0.0345307057024542
1700843430.1503031,-0.20736268269992714,0.31138822464999166,9.819760381736696,-0.014804675484572614,-0.030602692742353107,-0.0469729070784155
1700843430.162003,-0.5448320611451428,0.5771441459760636,9.592198137478722,-0.020304657211550885,-0.04168922528201951,-0.0573191930772368
1700843430.1703155,0.8516344024192243,0.6524380219355799,9.754765696839478,-0.029579574454218046,-0.036580003073615856,-0.0588120621861521
1700843430.1803522,0.9214790383107567,-0.5802231102546362,9.281671364042044,-0.023738016089583782,-0.025887238400029454,-0.0601295595289771
1700843430.1903558,1.4755236050263765,-0.8180790725381291,9.597833957057974,-0.014884402850206072,-0.01319227120986653,-0.0534651828230921
1700843430.200398,1.4115312944471876,-0.36152002638008723,9.095911155404039,-0.008244474439022287,0.003007164287778965,-0.0491215166868273
1700843430.2103565,1.7596164654658404,-0.7155110544078747,9.967795503428361,-0.0018964285057739916,0.016547761535996235,-0.0434403707505766
1700843430.2203336,1.2362119816631285,-0.6727018220619897,9.556552113196023,0.003168270630422362,0.027589714234244545,-0.0371135165216033
1700843430.2303822,1.1582093764572114,-2.387889241835655,9.496841700166785,0.02423801897640462,0.03749745909028039,-0.0365694341482226
1700843430.2403216,0.02420304919609708,-0.9329260605683513,9.740581046430359,0.037900950438998784,0.029442842163441806,-0.0324163538636271
1700843430.250373,0.2759753862543188,-0.012921988784846619,10.200762812531133,0.03649713549413154,0.02060530059825288,-0.0304854558081929
1700843430.2604003,0.960611684446688,-0.15020960764846666,10.261878492780633,0.031775311323608675,0.02344723753136916,-0.0269895949633423
1700843430.2704194,0.6866774949578828,0.3582221161759442,9.905218199071772,0.02847576964392515,0.0213068632347502,-0.0251548131228987
1700843430.2803595,1.9987299373259582,0.13280267829909947,9.439037402393176,0.027140924168078926,0.03724637850199249,-0.0221585248829428
1700843430.2904284,1.3788587129847583,0.4550670558848703,9.052813290164044,0.025229605705320974,0.050082099572112126,-0.0192453366936747
1700843430.3005412,1.745008429381083,0.3975045406038781,8.84354348567781,0.025419688061587394,0.0671475469004082,-0.0203503602416817
1700843430.3104062,1.935084020969169,0.23611067112761797,9.682697469404978,0.022437362743886947,0.08238877448120753,-0.0202481922926013
1700843430.322585,1.835270560396848,0.1429500730498225,9.666399058000218,0.03302677235284172,0.10274887751857208,-0.022105379891545
1700843430.330407,2.0357742885516523,0.9809157828054025,10.355180660518862,0.02514553884420145,0.11820648676253641,-0.0254026939393584
1700843430.3403516,1.129027072659378,0.6204336129982266,9.955781028658295,0.027116973103955565,0.13034364424853837,-0.0261315693379942
1700843430.3503342,0.761568020048742,-0.058575349204222034,10.090245573716324,0.02585719863268541,0.13334041343331896,-0.0259262965293232
1700843430.3603742,0.45208460111052573,-0.7212276364066473,9.192140786405126,0.04482161271662414,0.13594827127415549,-0.0196105436654393
1700843430.370361,0.6098798055114812,0.11896239225935809,9.754695264792693,0.04410061619657197,0.13879760979977931,-0.0166215309174363
1700843430.380393,0.20684719924811937,0.5112075876405457,9.784222023827525,0.04460737313349365,0.1380543412241526,-0.0080654694931213
1700843430.3904016,0.0803173944072701,0.571810464406225,9.61803684724038,0.04420709391775466,0.13683831600158627,-0.0032906168372933
1700843430.400381,-0.9638583563570507,0.016875132274559997,9.377535241406997,0.0407216195100683,0.12688769873747158,-0.001676759379879
1700843430.410353,-0.6458483611476449,-0.1657782598664977,9.485895072356714,0.045143293722363184,0.11687326588113095,0.0023251168430219
1700843430.4203677,-0.2725733539629715,0.2910313954726775,9.833674740315361,0.051399761920525325,0.11281086831390529,0.0045892694732542
1700843430.4303503,-0.34854153331562276,2.313261758605147,10.466143737090423,0.025323281092615477,0.11213966571860987,-0.000602486706302
1700843430.440331,0.17678882239750274,2.1479575842502303,10.617795071905437,0.003811524690666706,0.11689751215154198,-0.0067789945052568
1700843430.4503264,-0.7718902288648661,-0.47618647160627947,10.13029662839471,0.004551476979641019,0.11664466376135314,-0.018097081151754
1700843430.460389,-2.1628764191026773,-0.7769863653796352,9.760058630999055,0.02168358905395936,0.09654562812384672,-0.0263291959883276
1700843430.4703605,-1.21447146310836,-0.38812615222307933,10.678351583277372,0.03089800161667177,0.08245354992824053,-0.0345452790381018
1700843430.480364,-1.7765744762373503,0.20587033279616954,10.376643348473324,0.03214480862817618,0.06671804622528588,-0.0413483035983149
1700843430.4903932,-0.8420540841827963,0.9231347940063794,10.435299792748351,0.021815288545030082,0.05960572810474098,-0.0465575707377497
1700843430.500344,-1.3586385520418094,-0.5109488963689238,9.846870069395006,0.025793803602384327,0.04907163470225204,-0.0520125095964972
1700843430.5103838,-1.0945529947561876,-1.242764799119596,9.416896437472031,0.043815109574936915,0.03785972474085925,-0.0506496717454497
1700843430.5209866,0.27736148464154653,0.3944884996139144,9.48841225878274,0.03839002075515708,0.04233971093023231,-0.0542573471786086
1700843430.5304213,1.0423565895765172,0.8693963111924787,9.588590714931103,0.03497151887336091,0.06074649160885622,-0.0565661442698542
1700843430.5403662,0.8148681808501256,1.7962205742973334,9.898332872393233,0.01014107908677308,0.07713913726910965,-0.0645256069721285
1700843430.5503705,0.2509201258703892,0.45871926460946755,9.914245769876146,0.004148719696995985,0.08956379897828698,-0.0728870135964457
1700843430.5604768,-1.8572092614466125,-1.295236168068677,9.394274914649435,0.02296465779292225,0.07510700308806727,-0.0800349516095225
1700843430.570392,-1.8704943416002422,-1.095632169335954,9.604533196368493,0.03740552320226442,0.052236336876450205,-0.087525132042319
1700843430.580393,-0.5840048316311971,0.3286803295195163,9.800606755492513,0.04297021057597607,0.044665760818932365,-0.0846653980435435
1700843430.5904136,0.12915418076037496,2.47238849938903,10.712906662938018,0.022433196833631444,0.04698043780082156,-0.0867420313180987
1700843430.6004026,1.5159694590048767,4.871811003583148,11.567895096009705,-0.030075443137582227,0.0648300083031221,-0.0919126075924937
1700843430.6103964,1.2359466910139096,4.037155808565195,10.725078581973783,-0.07805057028363577,0.0930927718722534,-0.0918313888134066
1700843430.620385,-2.6917496957373124,-0.5960733326424824,9.540462631339098,-0.07638452051842162,0.06666012054146779,-0.0974156213225428
1700843430.6304102,-3.8932218940621954,-4.1972623371937745,8.423705127093216,-0.02640086310828114,0.019813893209240582,-0.0920314443530146
1700843430.6404328,-3.4208500998559845,-4.857528794590533,8.4159511544186,0.04473468956039655,-0.033558874838752424,-0.0736850825370852
1700843430.650394,0.650654656803639,0.0938574853789562,9.38153978431765,0.059693427264107146,-0.03998391037740406,-0.0621261772932116
1700843430.6603837,5.132805489935777,9.237053826156165,11.709241770654486,-0.03195933341390691,0.024041147900244794,-0.0581464086891715
1700843430.670414,3.887534947750056,7.8091805048275935,12.213877820967548,-0.14250676869891357,0.08890021873468419,-0.0707803172291819
1700843430.68038,-0.1100067699881396,2.2948610873003026,10.745869871114218,-0.18250014833201453,0.10167367110613398,-0.0771787342847888
1700843430.690395,-4.2515303568515534,-5.293816031700176,8.980039557309563,-0.12268737542133482,0.06100242164813239,-0.0760638592065875
1700843430.700524,-9.158660681892782,-10.751981566485261,8.039169820607471,0.01242445783284987,-0.05631948219744579,-0.0653043938101832
1700843430.7103956,-3.6938894539501885,-4.102119498400173,8.643007445503118,0.09005224749555286,-0.12948390688666936,-0.0499707711161677
1700843430.7203612,4.88526981205749,7.239321416665642,10.260988853511266,0.031332277149723683,-0.08594148388881614,-0.0314986099721495
1700843430.7304015,7.637371347702848,12.921195450660859,11.735510293107584,-0.13710015831703254,0.030045474341931607,-0.0610231821657721
1700843430.7404485,2.6102960538056528,3.2389331859853385,11.096234485503096,-0.2066873852553264,0.09040463357256438,-0.0721473125042025
1700843430.7503903,-4.990896863405233,-8.282931916627227,9.81349235642052,-0.11659912719878797,0.04178647774818838,-0.0728393671335284
1700843430.760353,-7.33654469246635,-10.307007807720375,9.200984523638843,0.023522159065549022,-0.05139322571554343,-0.0607187477172915
1700843430.7704575,-4.880451063596729,-0.7628144284449095,9.448985217098258,0.06464285453772577,-0.1379277620067822,-0.0418059778632227
1700843430.780374,4.768077068079262,8.65284535936784,9.990044988888538,-0.019711462266976145,-0.10072952425620792,-0.0301597294630114
1700843430.7904148,5.900378579563038,11.092808667914214,10.482348224104646,-0.1670223601178896,-0.015039880605192624,-0.0335275409044329
1700843430.8009636,1.8120368397874205,0.8863405428919007,10.386570959834359,-0.20457120566953907,0.0207277258667734,-0.0409383167745177
1700843430.8103752,-5.40908085440126,-12.37560058314912,9.306979747000328,-0.08006339977713108,-0.026512677841091715,-0.0383770753861968
1700843430.8205104,-7.662395163937351,-14.090683366999528,8.85345765211266,0.10247406207713228,-0.14276666470438312,-0.017209599656016
1700843430.8303533,-0.7074889782933989,-0.24463387609739917,8.114136997123477,0.14210927164221074,-0.1758322809215436,-0.0133162875892226
1700843430.8403926,9.001822860188716,11.1877336586738,10.908537218314752,0.013911208355184671,-0.08131454075254618,-0.0078447870211307
1700843430.8503878,7.528823684142722,11.739236512257877,10.34513470870334,-0.15219678103654172,0.04240478892674496,-0.0328649309696261
1700843430.860428,1.5843509091374814,0.7832489383284625,10.386054673206138,-0.19083672954142428,0.07637374970410689,-0.0582970780552928
1700843430.870461,-5.877114953111578,-10.252026843537106,8.971854005153235,-0.08550202660928695,0.024410813525185024,-0.067519205552489
1700843430.8804083,-9.713438714938437,-13.022136915692512,9.101850570947636,0.09470856069694122,-0.11201626164091498,-0.0566931729437415
1700843430.890638,-2.659677827458467,0.2276422366358824,9.520516091996207,0.11681163234593475,-0.17956629592422968,-0.0546338585437838
1700843430.900612,8.122470239159307,12.439418570201935,11.188274138561995,-0.012774257832178764,-0.09705955101133153,-0.0446400855900351
1700843430.9104571,6.078429910854283,11.33886645779035,10.574209213327716,-0.172252798137357,-0.005191983177006694,-0.0521310036303107
1700843430.920546,2.2087410298818093,0.6175242460922737,9.304108175185075,-0.2039941194433423,0.028583379298323375,-0.0674750906647746
1700843430.9304116,-3.0174892753813762,-9.858955620176568,8.106082793233478,-0.09905808240274011,-0.0008328925446672454,-0.0744422552408282
1700843430.9409554,-5.6029095106546,-12.996208493155162,8.742474891777011,0.07236158527467387,-0.08599180799392364,-0.0611023259581629
1700843430.9503703,-0.7955865848501382,-2.462188047063622,9.388165186920077,0.13096214094344302,-0.12373163718336312,-0.0533178773941104
1700843430.9603825,7.291327254687482,10.196365249621811,11.393672161171352,0.027253455683478575,-0.048317493209211984,-0.0394647334934775
1700843430.971037,5.337254431810275,9.049005572204404,11.344350428889598,-0.11274791383622265,0.03586899098847141,-0.0442117628873889
1700843430.980541,0.49663111495921364,2.975072670251942,10.580348145475122,-0.16389146910982996,0.043704377568527235,-0.0611306158126895
1700843430.99041,-1.5082580887452666,-5.869487314146885,8.980594934144492,-0.10465130986330903,0.025228354035293908,-0.0609582689823214
1700843431.0007694,-5.121035139230328,-9.19232593409978,8.313974890461022,0.011861591015567005,-0.04591574626522261,-0.049795071524531
1700843431.0105112,-1.9974770360031018,-4.016900251966027,8.801647643388307,0.08505900752676746,-0.10049692968476512,-0.0425022979499404
1700843431.0216594,5.051338355919379,4.58332284166157,9.286359002019902,0.03653235592167056,-0.05156970662203047,-0.0222265468211476
1700843431.030409,6.570639099006487,9.818528198642472,10.395818572120088,-0.07140744582150153,0.02831232510427188,-0.0256357536883656
1700843431.040506,3.1130267038881176,3.1981624527309345,10.74812774026249,-0.1359919233969056,0.06718320919261513,-0.0434088771463934
1700843431.050523,-0.4469188920979982,-5.10388541672649,9.154705004159803,-0.08242546472892631,0.07173343580774173,-0.0479813431622092
1700843431.0604343,-6.437419586759077,-10.571791644899802,9.103779422831106,0.03848704989805669,-0.01249849636283202,-0.049959952873141
1700843431.0705695,-2.228305951410661,-2.8608467642239717,8.258368586396134,0.10934646575310664,-0.0709090674151416,-0.0334045206429068
1700843431.0804918,5.645743286634026,7.333596067883975,9.916442899196014,0.035587574481269986,-0.02231762329424826,-0.0077350120292608
1700843431.090376,5.821394290037644,9.435662328514443,10.874273941688456,-0.08959439891715944,0.05786019356894071,-0.0163836878956858
1700843431.1004474,3.794529211051329,3.6032898598374774,10.33162447657561,-0.14506538622889376,0.10527407725159789,-0.0234224525512759
1700843431.1103976,-0.973479076989375,-6.800967377924813,8.92635285500549,-0.08922338347037737,0.11162744726709471,-0.0311212492407862
1700843431.1204298,-7.2714165238812285,-10.526812716096563,9.489489545809494,0.04749547800157082,0.01206105238353392,-0.0209470772416894
1700843431.1304078,-2.184929129398214,-2.990004033668084,9.930540074330596,0.10708245354209601,-0.04402464054073613,-0.0020792106398944
1700843431.140422,4.572202463013803,10.227444276505844,10.896855812147242,-0.0006228561281418259,0.001393794113278743,0.0114173079608376
1700843431.150526,5.721040655593173,8.751286134127943,10.398034760170871,-0.1258856683144725,0.08235692454144579,0.0146243265597517
1700843431.1605308,0.6731044282751079,1.514609712664621,9.735908527502577,-0.16119451471716606,0.09679557920598239,0.0025043891044701
1700843431.170469,-1.3043729289196129,-5.946015004504677,8.584474698345842,-0.09174085454067506,0.08424460484085126,0.0088646841002996
1700843431.1805215,-5.014534139212956,-8.009615467719023,10.114566922056945,0.010836916267496078,0.015199197396183613,0.011829269188493
1700843431.1904292,-1.9260991168724102,-1.6935062329429111,10.509272839592114,0.05817529364365606,-0.030310313389471575,0.0187691329745944
1700843431.200438,4.055304343173776,7.627701156754065,10.38762861570495,-0.021168903159921072,0.007804493179781516,0.0258774972288306
1700843431.2106378,5.092345835977814,6.695893280015726,9.654913465542359,-0.11243804298811336,0.07753241126617812,0.0266379779903586
1700843431.2204192,0.9819794645608224,0.4765546487674799,8.5048016310685,-0.13391550368431632,0.0999320927048634,0.0156918429537113
1700843431.230468,-2.6752723316892815,-8.329672283723076,7.56876010611629,-0.04673974973218462,0.0728876924926838,0.017026430997103
1700843431.2404015,-4.785983572604279,-10.668513567216046,8.766858881913244,0.08914614435696373,0.008388849962176618,0.0166381700663264
1700843431.2505894,1.3442656682138436,1.697476266628448,11.314447174964753,0.09791404133223107,-0.006243259141497776,0.0213138843654091
1700843431.2604802,7.155987469163874,9.588561271610724,10.873230644282728,-0.024614037855742964,0.09948136930026173,0.0061042574933166
1700843431.2705295,2.9363142065062364,5.705340630920605,11.663331346326512,-0.11777297810046468,0.14736026664418714,-0.0098447351948921
1700843431.2804484,-0.7571525709314364,-2.360817414373091,8.939623410609068,-0.10560246845182578,0.15535210461240093,-0.0273691089124981
1700843431.2909803,-4.95000605255953,-7.283605988883907,8.995438192813024,-0.022092933355648027,0.09269211637765469,-0.0170228806556765
1700843431.3005135,-3.7911776290039088,-4.964412138708838,9.366041444063512,0.05646309146459131,0.031140787468182354,-0.0160900046350066
1700843431.310423,0.9974025234544517,3.315216513782037,10.667616787771417,0.029635311347435498,0.028177489989691322,-0.0100707848788802
1700843431.3204556,3.8319777409976186,6.597465072665414,10.274088710067435,-0.05643073131889175,0.08139696742599002,-0.0035671623656157
1700843431.330462,0.9234803207969099,1.3126410819254775,10.373703438810525,-0.08694848614149377,0.09884967777764725,-0.0153843061299626
1700843431.3404458,-2.356458237511201,-6.149811969297415,8.221527362817667,-0.026508394498794306,0.07700446017911794,-0.0148945366264884
1700843431.3504136,-4.140155982051707,-7.948247000276228,8.322174655934706,0.07697207177822417,0.017828515146357516,-0.0098169482545558
1700843431.3604617,-0.26470823438910823,-1.3493468802036286,9.493877293689712,0.11409236105177643,-0.007129401305591015,-0.0044693638803069
1700843431.3705738,5.385440915426928,7.572332074148091,10.705284948714993,0.028120761909036795,0.061546215025743777,0.0019758335082228
1700843431.380501,3.3220184007336293,6.177334996466472,11.560331873855837,-0.061971457127743795,0.10843415603519187,-0.0078330467687551
1700843431.3921149,0.5121912358812375,-0.618414176270015,10.070166542793704,-0.06706962588825349,0.12563994709321435,-0.0152859193505351
1700843431.400421,-3.9591216844768984,-5.94510309399089,9.294425255453929,-0.007969525624415429,0.08424139986852004,-0.0068987639853362
1700843431.4104538,-4.903197459227418,-5.657777350457324,9.165010343834476,0.07362081413822336,0.009928617462322733,0.0019222175004328
1700843431.420426,0.6388935291927341,0.9288814631254891,9.636900142211216,0.0785825351264119,-0.006687572727897698,0.0323744165478642
1700843431.430424,4.614094646469891,6.868029280445175,9.705532413448777,-0.0029591662371386395,0.049433410751516825,0.0458954545436795
1700843431.4404671,3.336856012777079,3.9413520817838066,10.14670693194941,-0.061968887954511595,0.09206900046429217,0.0515472526429589
1700843431.4504752,0.5149216280989987,-2.5485373198417065,9.376345928850919,-0.04877431649829211,0.10357291073289752,0.0548114637611802
1700843431.4604497,-2.826620299897607,-6.310575330384036,9.6831988414488,0.03525544345540652,0.06857354707149925,0.0586070689140255
1700843431.470619,-1.7933499016608916,-3.1213472471886297,10.203565151669947,0.08532118550791024,0.028847173006632688,0.0655160593567784
1700843431.4806144,1.4903953619066295,2.5580054296852066,9.290550076944786,0.06070790982794909,0.03991075049298881,0.0895704972325261
1700843431.490463,1.0766090558327621,1.9889416645135896,9.135254069919318,0.026857162541316947,0.048732371611198075,0.100988213974088
1700843431.5015872,0.08739900116329265,-1.2670520956997688,8.779328153057012,0.03102733264836492,0.04871232571415194,0.1188670444069798
1700843431.510852,-1.2937211212287145,-3.8417633717990323,9.00898698498547,0.06648555034840088,0.029286688653352027,0.1326568620978291
1700843431.5204525,-1.4162392068532512,-4.3112800873465895,9.388704074204542,0.1234765769717,0.006516677212274014,0.1420727419434483
1700843431.530543,0.17439960364895343,-2.2656785540288342,9.633029491849689,0.1496709005934706,-0.0035995924742913965,0.1522521721898015
1700843431.5406334,2.11430782816502,1.1993121729844631,8.94075218696285,0.14323131413324863,0.020726488123616944,0.1622891771374638
1700843431.550467,1.4673840873179298,-0.42821576305325887,9.584734461011422,0.13531820660045027,0.035648113690727005,0.1663727211533482
1700843431.5604346,0.0880609565071589,-0.9702611678588718,8.882441745407709,0.14902141080108125,0.04425629010480501,0.1656014519511159
1700843431.5704308,-1.0854813839182376,-2.69842034299526,9.755739525938932,0.17700053436863247,0.026296169851558006,0.1561972248135502
1700843431.580501,-1.1484016419942846,-0.21975594529293155,9.017455753153616,0.19216561854724087,0.01747040319258062,0.1494317549048359
1700843431.5904608,-0.6414839677561723,0.12163125903316031,10.098096524416881,0.1857481196453662,0.006582139343755699,0.1319343345938618
1700843431.6004677,-0.0651992362923543,2.5357260203657987,9.465997783985687,0.1602803074263543,0.017513090502606424,0.1126818480668957
1700843431.610518,-1.0178791815785182,1.0585893890588185,10.685132656614424,0.14621072817407113,0.008980802867634682,0.0991712185321744
1700843431.6204658,-2.695642822979672,0.39387620886097924,10.512414382971535,0.13863416457301367,-0.010244953386180148,0.0757217752514775
1700843431.630473,-2.025033004343073,0.6434907113501372,11.168373362455442,0.1380209708533808,-0.028585444840505823,0.0647916021524365
1700843431.6405427,-2.4345563848814797,1.108092195347386,10.83219526035128,0.1303903344415883,-0.04913138917155546,0.0492656836985047
1700843431.6504295,-1.074825693339184,2.5181974190065293,10.495386583156035,0.10565129781998017,-0.05112979739246026,0.0381705472944672
1700843431.6705604,-1.2734817842452704,2.125488686888208,10.050836998988808,0.06162221657026992,-0.060251451436170195,0.021603618818372
1700843431.6807926,-0.6344002753545677,0.964067492968636,10.197817274864212,0.04963333008750693,-0.058552881258812826,0.014446091908067
1700843431.6919582,-0.6056033652862527,-0.405865743044813,9.982565539044066,0.06628245370283471,-0.05727489114313763,0.012043192121237
1700843431.700462,0.11809004751920708,0.1395245545573006,10.121201117495279,0.06951804216329117,-0.04978358081201044,0.0028451572405542
1700843431.7105577,0.4247903942788132,0.5318555808984895,10.009519896823532,0.06981699605297581,-0.03549739719786215,0.0065391092328722
1700843431.7204683,-0.5471452314476889,1.4276861108998788,9.98621968237,0.05619957036098548,-0.0356726523621128,8.562615843446655e-05
1700843431.730472,0.3964320966148062,0.4133821240687296,9.449894359953523,0.05312892393423151,-0.025320840592752764,0.0022080029128487
1700843431.74046,-1.2764594226926396,0.5732857248958618,9.617206085265094,0.04673257039665252,-0.0336337180698732,-0.0003248952445205
1700843431.750437,-0.4845706573323605,0.06766764282215262,9.478769650912184,0.051073608130077275,-0.039871779661142234,-0.0012948549585048
1700843431.760465,-0.14204166248300001,0.8117442157077176,9.586367627018845,0.046581519329667004,-0.03579280359543947,0.0038448447129126
1700843431.7707183,-1.240910328547404,0.14395288800291473,9.82212339063915,0.046360996457226494,-0.04960992452411205,-0.0008104776963223
1700843431.7805882,0.24758433358882895,1.4218723374986257,10.098354635087315,0.034929698324345,-0.042973894083738445,-0.0018037861911211
1700843431.7904892,-0.19355344340312006,0.1589927283282328,10.155135956973602,0.03346408609425724,-0.04257056079225618,0.0018792832969124
1700843431.8005466,-0.3684970652118562,0.9307692018599567,10.090011342131534,0.026687443534551367,-0.04378398405599537,-0.0060707907424871
1700843431.8104763,0.45990624469405544,0.42518822652161725,10.066684210795707,0.02655045444452538,-0.03714530476607866,-0.0022668574703489
1700843431.8205073,-0.06754922631262075,1.1233417707576414,10.0028642655838,0.017943882167389767,-0.03622745332774978,-0.0066523276501898
1700843431.8304987,0.6031144962595524,-0.3827268186881037,9.468936100622573,0.022536543863110665,-0.026732447304988447,-0.0082883917959038
1700843431.8405492,0.3650315620421678,0.8277466146287978,9.797089332773568,0.016207711999512875,-0.017793672868759713,-0.0050805228994791
1700843431.8504343,-0.10556392258120452,0.3883546818105965,10.146517060616604,0.02075524239070769,-0.019049053829743198,-0.0069038876564805
1700843431.8604598,1.0610843847481484,1.3616892991104297,10.210182120386097,0.0025511200145396295,-0.00481227312519671,0.0003377369256127
1700843431.8705907,0.7095560551061302,0.10537954533266689,9.857811970235216,0.006726324131709167,0.009477586693413831,0.0027260541217769
1700843431.8804655,-0.4508375972652629,-0.4484739093493344,9.826591918999616,0.016689341250810834,0.0027481551380903768,-0.0047718220622841
1700843431.8904748,0.17496967995425036,0.14041590075905672,9.064085518943816,0.02024457827705658,0.010929442700436767,-0.0048347552539412
1700843431.901297,-0.6893156123996266,0.5735249911901455,9.470896555269642,0.01632746151933059,0.0018366750604580054,-0.0106792439939085
1700843431.9106708,0.665967687351786,1.0201974087289203,9.783502960669685,0.0142796435344697,0.008090303041737619,-0.0173879013629262
1700843431.920487,1.0937174342493992,1.2010290676291024,10.233085953304387,-0.0023513841557082555,0.02318433705578663,-0.0189299200893942
1700843431.930514,0.16771248132404015,0.9338569795967987,10.161108218037688,-0.010357252513722175,0.02939414004576513,-0.035232420009524
1700843431.9405642,-0.19740521755615328,-0.6234439118761064,10.024104021578948,0.00016194246702272582,0.028830628394782083,-0.0386646342696253
1700843431.950472,-0.9352251842699562,-0.42569197579086343,9.67015070908006,0.004518243903241866,0.018635034497754114,-0.039033799362332
1700843431.9604676,-0.06551420966850965,0.6323957347825903,9.431777192303928,0.008051940864686647,0.01715366169845109,-0.040125205111653
1700843431.9705684,-0.12432611905450214,0.5701873901100513,10.104954020962307,-0.0015055535892770867,0.014224081084576642,-0.0368407693924014
1700843431.9805229,1.2503131065311395,0.4562118364671104,10.35751252536803,-0.005950982296744884,0.030580479746973983,-0.037683124584109
1700843431.9904974,0.7889268588179679,0.6990426494337796,10.520904775832113,-0.007894920666953147,0.04020798445077737,-0.0349961397470538
1700843432.0005336,0.6773282732133692,0.18285114563445268,10.494978584933232,-0.010597214922214951,0.051390713885442085,-0.0319313210667674
1700843432.010491,-0.6118470362182469,0.8149097917031117,9.63260536543851,-0.01595431821067147,0.04502286724760855,-0.0360193503321711
1700843432.0205142,-0.43371434027052536,-0.278561473800575,8.79575886266891,-0.011883076196968082,0.045434999466154556,-0.0333446887554232
1700843432.0304823,-1.0148450739736576,-0.3434570473473926,9.505185273430097,-0.0002777037681583384,0.025355125094759588,-0.0375227694632117
1700843432.0404656,1.3300104440597784,1.1581105562524636,9.459819474340895,-0.005458319836967423,0.044868988456291566,-0.0385718298377101
1700843432.050463,2.0388486500664276,4.675958110525661,11.720169946375673,-0.04800175715144341,0.06802618530432387,-0.0519538623513285
1700843432.0604804,2.0728098987756183,2.134110927540387,10.60005269377577,-0.08150876667424967,0.10786855296981397,-0.0820063156308238
1700843432.0705352,-1.9715714494788485,-2.022604307597234,8.95351776114159,-0.061683492900865014,0.09606810780760716,-0.085548567515761
1700843432.080551,-4.612703083398315,-5.567189589668468,8.353794585120895,0.013968515385509363,0.03346738299201779,-0.0856657204450671
1700843432.0905776,-2.2202054380001766,-1.9515575031753387,8.447845790353034,0.0490200385517757,-0.009146471759807031,-0.0747079429449145
1700843432.100608,2.3735485277174875,2.5382472758905794,9.226375863413974,0.03690551617963087,0.006769431021037586,-0.0606757057131831
1700843432.1105633,4.4918970734467205,7.126721680186731,11.809142798822066,-0.04085148363406497,0.061102089156827716,-0.0755495381774012
1700843432.1207614,3.9415594896963104,5.038612388212484,11.195030891026493,-0.11847194544500605,0.12436190200971622,-0.0875076902331416
1700843432.1305387,-1.3621932490789852,-3.9578393648689567,9.916494082916465,-0.08926360125449613,0.12549656883114493,-0.0998864946188037
1700843432.1406066,-6.873179090568782,-9.216552436509344,8.471256189790951,0.03206949278759333,0.03785733918934183,-0.1041344654978816
1700843432.1504953,-2.6506832890561483,-2.0043660386737634,8.68914689015357,0.07706112666130367,-0.012338012805125668,-0.0973273840965334
1700843432.1605346,2.7911977376775168,6.66041852715499,10.129195768367683,0.014279834246976238,0.009221822717502477,-0.091850827378184
1700843432.1705325,6.16982959946297,8.59416396491354,11.34416602618277,-0.1046826454044701,0.08920302129288457,-0.1011281040729586
1700843432.1805315,3.5598198715207565,2.706795653556021,10.933103264198177,-0.15922431287897162,0.1416788654267558,-0.0999318090499941
1700843432.1905444,-0.4565426125180776,-4.751014979692759,9.720803757974803,-0.10503806337264847,0.13522793890612644,-0.0949749154271189
1700843432.2018914,-3.0607659286161146,-3.4811878350890506,9.466017747004953,-0.04438915852581448,0.08689499886871144,-0.0718973529757563
1700843432.2104783,-3.6553079036145473,-1.7568277154533958,9.776580781564174,-0.01327537141342258,0.028801006482112618,-0.0494085130514208
1700843432.2205195,0.6004153885698341,2.7078007197850487,9.795910924958651,-0.03532055914119764,0.014439842123897307,-0.0342461494030062
1700843432.230496,3.632191840746496,3.570408359114048,9.776487829968996,-0.07779061676759641,0.05555247088136632,-0.0128535227151219
1700843432.240509,0.5567260407523776,-0.31651463574265815,9.848517911751513,-0.07996335803507834,0.06508881339912674,-0.019671237957627
1700843432.2508187,-0.4459718044312642,-1.6226221216517382,9.537469652951138,-0.06197184297735858,0.0558953960275553,-0.0205061705084149
1700843432.260494,-0.6007077913356185,-0.41840527428828705,10.204096726457415,-0.0449752731916613,0.04050781662724313,0.0035247111926223
1700843432.2704835,-1.4828834550891243,0.9265523169145264,10.138152589507246,-0.05324456605715306,0.01439746594991905,0.0090910448460276
1700843432.2805436,0.8416182852221762,2.1413373961084483,9.96728372589696,-0.07905914503518446,0.016193562929831876,0.0258773389039929
1700843432.2905512,0.7778183557716214,-0.2518712207981,9.801489386138886,-0.06896040967017007,0.020920778225531313,0.0427486273227627
1700843432.3013802,0.10386496555367823,-0.3969544197016251,9.541979411543586,-0.06150181706100624,0.017118889673532745,0.0391328680096562
1700843432.310491,1.0605701764660622,-0.9633146043672868,9.254055162757542,-0.04456780898255051,0.02669266431826825,0.0561835664092
1700843432.3208046,-1.186949837787952,-1.2100583454333176,9.464997167166684,-0.02321795578002943,0.010435966685376363,0.0506924289046223
1700843432.3305526,-0.05669827038344233,0.8280759925483135,9.109367649511103,-0.025814529637646313,0.005504886159300516,0.0565743158338959
1700843432.3405478,-0.7096717547193785,-0.8045797547213497,8.601089851109563,-0.02609239557596271,0.006304892444878413,0.0603393773315842
1700843432.3505712,-2.5343952323717476,-2.017496429731123,9.19678068328535,-0.00769772017091668,-0.025219400296759273,0.05365541304931
1700843432.3605175,-0.3455929200020885,-2.2674833009844604,9.05544185874022,0.02644611376200519,-0.029088938226764564,0.0679431902943547
1700843432.370616,-1.2894145448197467,-1.6272337414308462,9.69129854696917,0.03922150854553043,-0.03459811507658746,0.0624406385003026
1700843432.3805475,-1.3688063068522405,-1.010711304467493,9.810569089291224,0.05393212486528698,-0.04161720469109765,0.0540443147300179
1700843432.3906662,-0.82343618038652,0.6179433744198529,10.425332376255396,0.04155502744675429,-0.044720471408692154,0.0564452307997639
1700843432.4006526,-1.9692532978592452,-1.030940649897261,10.49666379197297,0.04779443770109958,-0.05445881072690628,0.0416527847526963
1700843432.4105172,-1.8535051247425598,0.036289509002564654,10.465813218829132,0.04736630365179482,-0.06799384949980296,0.0311200144468243
1700843432.4205215,-1.0947822240981566,-0.20642946292201816,9.735165102681961,0.050468142894094,-0.06607257495141976,0.0232941034017498
1700843432.4305851,-1.8914420126284914,0.3443124490642223,10.149988440683673,0.04803524380069041,-0.07958124398882732,0.0114523433847721
1700843432.4405775,-0.5915119791135895,0.24041158775908866,9.593890659742275,0.04483374689188043,-0.07637678012128035,0.010250212694555
1700843432.450536,-0.6555737382954558,-0.3361203429926411,9.471066470381096,0.052666383761312004,-0.06998878799504271,0.0045032641617949
1700843432.4605365,-1.1873982263610212,0.3192236627711722,9.6495167452224,0.05384561316104781,-0.07838622994854569,0.0018976049730922
1700843432.4705431,-0.2566062905258542,1.0002777895560873,9.581360584318245,0.04478457992338845,-0.07194391576456252,0.0086596292211111
1700843432.4807394,-1.7959096030920028,1.0468068840691815,10.182772558474886,0.033955182207564105,-0.08694559167575298,-0.0005641573108364
1700843432.4905665,-0.3014411234886408,0.5507001528331807,9.859171480041454,0.03126164004072674,-0.08804087887454423,0.0021363489330183
1700843432.5005388,-0.6952081996415458,1.0691703288239696,9.913770434670015,0.020470403007549497,-0.08925691676928886,-0.0008439755066861
1700843432.5105357,-0.7077968231338436,0.47284343477415264,9.879149381643822,0.02052338501014205,-0.09522058485591317,-0.0049771013902132
1700843432.520707,0.4542854061138046,0.8915448205033356,9.537703633777973,0.008117882917520237,-0.08558846247580629,-0.0080307274357978
1700843432.5306363,-0.5560777877919044,-0.0744753046501526,9.77322942364097,0.016059441638133633,-0.08655223360702731,-0.0166703582973782
1700843432.540506,0.43675102191411924,-0.793593208521095,9.969831758413632,0.0254844604732193,-0.0861714988295506,-0.0196354695828263
1700843432.5505164,0.8616142303713189,0.37805274228268826,9.764932931679141,0.029378939850907886,-0.07051503959444515,-0.028963585314304
1700843432.5606437,0.10748498415965674,-0.6528383698084053,9.909266185371335,0.042639919121395746,-0.07334729791569287,-0.0360237908782069
1700843432.5708892,0.5551885750718956,1.9015494437281133,9.968348435704474,0.019326346890917216,-0.06507478642846107,-0.0389749211491648
1700843432.580514,-0.40744885626645555,1.024313409439633,10.004894654314253,0.013915202300471847,-0.07165104830073647,-0.0437315394403044
1700843432.5905404,0.2282065771279203,0.5541204689284678,9.425893638757097,0.004394790389357702,-0.06850967036575108,-0.0456465435446803
1700843432.6005936,-0.016029186516641782,0.2973465812511403,9.509238309470188,0.006429725168867137,-0.07064420415283094,-0.0392563817323748
1700843432.610557,0.29296427230370864,-0.1356396630149854,9.614553696866798,0.010408508287938201,-0.06672866017133508,-0.0395021838368479
1700843432.620514,0.5466092718725312,0.32865056102787454,10.368144411867963,0.009944004988677096,-0.06335242708113811,-0.0322416750015322
1700843432.6305425,0.266708326082008,1.2608291374998195,10.378440271743353,0.0011610104811739519,-0.05763424898873305,-0.0251892552943532
1700843432.6405191,-0.06269275146799444,0.5103929150187957,10.589613314557337,-0.0024345817122014214,-0.06159313570602014,-0.0237887994618718
1700843432.6505015,0.1897073885804575,0.5348673191228998,9.859418131819714,-0.003610191140538523,-0.05825477580398137,-0.0199004960478846
1700843432.6605754,-0.21412153300205158,-0.315381765714768,9.592940676342836,0.005044357947466555,-0.0609128666756098,-0.0226541859330241
1700843432.670522,-0.24090290996733,0.6288284639654375,9.477985056455982,0.003924965444982777,-0.0652833243448347,-0.0252801598282162
1700843432.6805162,0.23216977958170043,0.8695405324366079,9.761666504001735,-0.003040382180401058,-0.060259565343098585,-0.0255858087213341
1700843432.6905403,-0.0309833325238032,0.5337371765368455,9.934234062270473,-0.005463441580646227,-0.06272683898816486,-0.0256222569616143
1700843432.70061,0.5848406822705516,0.2344386785738812,9.928608106686474,-0.004741537015726031,-0.05382080045712322,-0.0292690069647137
1700843432.7106862,0.28051621304119273,0.1343462795633211,10.019806964450364,-0.001968123548163173,-0.05365772596538638,-0.0289948740275208
1700843432.720587,0.04254099411103685,0.5821049278848242,9.766222566494543,-0.008040758329765963,-0.05192154073374144,-0.0313474861206118
1700843432.7305875,0.04732938803250203,0.5868319168771091,9.81618246919755,-0.00946110719825058,-0.05473462669114241,-0.0278506175847355
1700843432.740533,-0.2949386626654229,0.03557016935032639,9.414901736076606,-0.010448611030055833,-0.05818618900420595,-0.0303946984232966
1700843432.750526,0.1542194809604879,0.02898021925639379,9.706488596809141,-0.00827037312129398,-0.05929006869588075,-0.0304640502901379
1700843432.7605484,0.5171798795972393,0.2188516795147973,9.941352705745002,-0.006682071923902302,-0.057157853600655395,-0.0204896823735539
1700843432.7706122,0.25927419945747493,1.0608624358571335,10.240676949855096,-0.01655586083064968,-0.05343392315709275,-0.0203737103612725
1700843432.780621,0.38889745639091916,0.6004943851276016,10.4911359788576,-0.021908668589520976,-0.05218219511747758,-0.0131888854549829
1700843432.7907689,0.12146086442653588,-0.2099493275636919,9.960718207246519,-0.01820103897227448,-0.04901925362806133,-0.0130424964474145
1700843432.8005557,-0.3312865404851409,-0.8166111932911565,9.497076928049387,-0.0028700555134715017,-0.053368686809775516,-0.0132189448224012
1700843432.8105404,-0.8453216082627777,-0.12627606635755695,9.379688636553666,0.0043772776132953535,-0.06317493177022673,-0.0083273564697806
1700843432.8206172,-0.71868827899148,0.5962856518968006,9.649119570641309,0.003743683742767784,-0.07467323939815394,-0.0106218512402479
1700843432.8305163,-0.1887162259441493,1.7161148085733855,9.981057649754,-0.013697954151485022,-0.0751694868982825,-0.0067371413344149
1700843432.8405294,0.3102105952543578,0.24535406133904236,10.248316726865903,-0.01696379273887131,-0.07394752584077273,-0.0079544381470982
1700843432.850529,0.2903266028038126,-0.004600493505446677,9.813810306174682,-0.012135594218277803,-0.06681802265317051,-0.006117814150602
1700843432.860568,-0.02131453693134449,-0.5025719876996287,9.867613420382828,-0.0008450460197893271,-0.06868396080087082,-0.002093777456284
1700843432.8706264,-0.20930282028328354,0.12327696762280117,9.576996287671134,0.005681297125380728,-0.07047133776784155,-0.0034772431710366
1700843432.8806136,0.15148453583667035,0.47708105760552677,9.646952582463998,0.0027257494633569986,-0.07015984428647476,0.0028881759615983
1700843432.8905628,0.1336795656994026,0.8783093388256981,10.08539930749538,-0.0036723862357154777,-0.06703774761941457,0.0034791460028286
1700843432.9005606,0.4302394639055725,0.014439203139160032,10.204080567529255,-0.005026001254847859,-0.06482327474516686,0.0061246585799749
1700843432.9105585,1.1816666654904076,-0.6695815362955274,9.801888582307487,0.00727904002972248,-0.04726553168340868,0.0137935104547436
1700843432.920552,-0.2894865476928196,-0.12668818159697612,10.00571990644622,0.012967988982561303,-0.05215283296325992,0.0185267562745507
1700843432.9305906,-0.12542392745047132,0.23890995682322239,9.617481428460437,0.017124253422379644,-0.05178804523350264,0.0251468448667223
1700843432.9405663,-0.747408609725931,1.1001718297717114,9.868699757065455,0.00026999250849645587,-0.06051412799655869,0.0264308704762156
1700843432.950574,0.15126607499747846,-0.03002534765231631,9.548791461662669,0.006099292845922724,-0.0590604856270704,0.0275629936484988
1700843432.960543,-0.24346130734131127,-0.7352377794438456,9.495558991355459,0.015927329515784544,-0.06047144305036237,0.0233811112819607
1700843432.970579,0.3852339452906694,0.21396188795881427,9.690505075024824,0.020036289260065124,-0.05483159595471788,0.0248886654852326
1700843432.9805338,-0.29759414995617106,-0.35870274959322324,10.084723789123874,0.024371798528413667,-0.05821132054573343,0.0227351627080138
1700843432.9905777,-0.08715173704074455,0.6059148025421249,9.883616439102079,0.026476556277258107,-0.05976410908923162,0.0205074204830821
1700843433.000659,0.09399015225896186,0.7254089662953004,10.394149486456463,0.02000546241357868,-0.06042096572099706,0.026221047225445
1700843433.0105526,-0.22577877480193073,0.5348014425684577,10.232426554606135,0.015272261817223815,-0.06588142684408797,0.0286963219521935
1700843433.0205529,-0.40057467392332774,-2.325556262962743,10.26002550258336,0.042864698733943295,-0.07449537218456523,0.0333226742921765
1700843433.0305402,-0.08042479860205273,1.8405810972835515,10.111956290468592,0.03759098008613884,-0.09264733999532902,0.0425032461760933
1700843433.0406294,2.5889132365665226,2.455994861726589,9.618420184927176,0.005443388041195483,-0.058737106092632954,0.0467881793855126
1700843433.050574,-0.6757190645389026,0.5732976855474158,10.542372577030806,-0.006068501939492417,-0.07356704048153762,0.052131881075948
1700843433.0605357,-0.9094062518967666,-3.6673121180184967,9.063294516367058,0.036616942101185414,-0.08797154446189531,0.0522776032565529
1700843433.070624,-1.1548534285245282,-2.5260052368796693,9.804923887264536,0.07154326806427445,-0.12059220960009015,0.0601247596321995
1700843433.0806825,2.230191191028,1.9987436890970078,9.403925188340352,0.06271537939790162,-0.10048928507525146,0.0604441697476799
1700843433.0907147,2.4359991585574994,3.725860432982518,10.706773351794428,0.005355727496348804,-0.07776186585633615,0.0533717470942433
1700843433.1005712,1.9783725935707044,-0.1466991326812866,9.794726083516522,-0.002689034941781154,-0.0523539805820516,0.0466450872598584
1700843433.110597,-1.3857086650707016,-2.951326261726631,9.746697865771793,0.03474281084689095,-0.07494666795290071,0.031266220915168
1700843433.120596,0.014708539960956548,-1.8136461286892935,9.603816268642095,0.06270068650731173,-0.08632034462966667,0.0259671072243149
1700843433.1305797,0.2421525887399988,1.7988107231088595,9.951206525100785,0.046079817338814756,-0.09390917015107837,0.0154192522867019
1700843433.1405845,3.2022078701011214,2.6555984889147632,9.239789790252695,0.01108336134342045,-0.06460556328538683,0.009365938673764
1700843433.150618,2.7531757942999935,1.5462548050051406,8.97248521423276,-0.007427028607036444,-0.03183637196531519,0.0071667675627763
1700843433.160578,0.9664189416388651,-1.708327140650965,8.977488016930828,0.01210191235070519,-0.02909345222668464,-0.0070258690276746
1700843433.170571,0.5922147916941507,-2.6944729370003824,8.97017150100475,0.04334146799766843,-0.02083210968446594,-0.0119166746036712
1700843433.18058,-0.5012438564200871,-0.8863884178391946,10.186793053766118,0.06813019887977129,-0.040876504798090546,-0.0132530945585672
1700843433.1930532,0.2408580722606469,1.9429076616280483,9.91330897591384,0.046141110662827674,-0.04519688289009022,-0.0199211397440735
1700843433.2005384,1.451277818557506,2.8940867108371173,10.171791079463286,0.01770177534228217,-0.038254641466632815,-0.0117994536878172
1700843433.2110236,0.6040337903903509,0.11227615402539028,9.225340116942888,0.011153921709961791,-0.034638828748315455,-0.0221795783610646
1700843433.2207637,0.8042868347013156,-1.0741523440005787,9.157387475262311,0.025254982131702002,-0.03194955082954507,-0.0212309983791415
1700843433.2308218,1.0908543321551436,-0.11595427562262922,9.360182839845274,0.03208452396057234,-0.022368287224740848,-0.0234078997047249
1700843433.2408056,1.024408740632382,1.5403943798115347,10.16462718978145,0.01769595754505555,-0.015507692956681174,-0.0290640414924923
1700843433.2505598,1.849114827016157,2.4790830862194353,10.032103795309755,-0.009293783630860203,0.003416244478582843,-0.0281707504065339
1700843433.2605543,1.1598188362761463,0.5499515962998869,9.837414679575051,-0.021288612965559648,0.016727850214766617,-0.0358822037698332
1700843433.2708192,0.28209853165972176,-1.3897480238209292,9.15389072822882,-0.00044308530785665875,0.018466682914414067,-0.0357100655557219
1700843433.280564,0.24066065331198191,-1.9668272727402671,9.03940752903256,0.026237238680890066,0.01790926401988272,-0.0364628088893
1700843433.291777,0.46707595645641586,-0.864707623660248,9.432225289507574,0.049196034318412775,0.018223523377462504,-0.0375416306079928
1700843433.301299,1.7513597486421446,1.786888212265868,10.089074188549398,0.03150303715608674,0.031927044334768166,-0.0367094715358321
1700843433.3106112,2.1204498944813808,2.3912225228580426,10.254474498917858,0.009549147411085857,0.056711849073385376,-0.0367386293829981
1700843433.3205683,0.6479644011605272,1.9459858933338545,9.990329675418614,-0.013478048607518136,0.05967911207654889,-0.0384054732741419
1700843433.3305817,0.5103390230370356,0.2305041597750036,9.104976893285876,-0.01944293675398904,0.06665574913865097,-0.0410198708297316
1700843433.3412,-1.0366829013814993,-0.536822020821457,9.040984929807937,-0.0053818016700514035,0.04583200227852728,-0.0394124751211707
1700843433.3512945,0.5354289926531076,0.13787416076179212,9.215724144651057,-0.0012335940935766945,0.045447876251751014,-0.0340373245300356
1700843433.3605795,0.7643018455963017,1.8482699472110298,10.1178815613812,-0.015666725637876657,0.04952448273040642,-0.0338898067595068
1700843433.3706672,1.020130914218585,1.8940345211533034,10.359717173170482,-0.035455983344820155,0.05607555809866891,-0.0378413525642458
1700843433.381901,1.4376178597093416,1.539374616669331,10.175246877480268,-0.05410944759008514,0.07177170262297575,-0.0372249176026885
1700843433.3916638,0.2214775189083372,0.5085084359320933,9.879653942126412,-0.053630080873965806,0.07033550017682792,-0.0414773178519312
1700843433.400577,-0.3257842624485431,-0.037624649349539324,9.3797576847362,-0.050133235248882246,0.06282490698178264,-0.0432754521490637
1700843433.4107244,-0.4237733720410227,-0.14410031638253043,9.639123100393073,-0.0406505399281939,0.05209583158974687,-0.042854013782889
1700843433.4206104,-0.5651632091843379,0.05298549272619754,9.724292999378214,-0.0324206597803367,0.03717228088813709,-0.0441878167213503
1700843433.431756,0.9657666274264393,1.8517066927953354,10.349229141679183,-0.04951941023995659,0.04261457544204466,-0.0417491597355906
1700843433.4407084,0.6727628966332171,2.087402410247237,10.485140286366892,-0.06377642925453393,0.04598437188382997,-0.0399236259283129
1700843433.450595,0.6572540436780547,0.03594361735887005,10.04804802982907,-0.06937146725282105,0.052409037389127874,-0.0430066687287394
1700843433.4606316,-0.20696346298377707,-0.6009154169469946,9.645096053292336,-0.05423295156167653,0.04628437993487993,-0.0374778238357607
1700843433.4706447,-0.3663245090758928,-0.9846961775454033,9.446060124544713,-0.03538794656340224,0.038549043450943815,-0.0335994203807417
1700843433.4806242,-0.7378822353835304,1.4334051473240295,10.034678530613828,-0.04819821673081444,0.024108659223182307,-0.0264798225136105
1700843433.4906552,0.26015957212579527,1.6631865393773015,10.137977412666633,-0.06333328716242252,0.024856761660976025,-0.0220541105838124
1700843433.5174406,0.019826079504136056,0.5630257369748702,9.868988981289121,-0.07673195252524716,0.023237327512506067,-0.0156619259388749
1700843433.525468,0.45836437652964834,0.393149426683905,9.940697539126463,-0.07925951494670487,0.025162269572226604,-0.0118446200387184
1700843433.527278,0.8419844426131311,-2.506947729712264,8.522166187820995,-0.06856051928017275,0.028278186647971274,-0.0103442472638194
1700843433.5307603,-0.29975425250403165,0.46986662618077907,10.11779978788403,-0.06836130666033097,0.025848865768319497,-0.0089962695957724
1700843433.5406127,0.04699470076959703,0.5644738041485364,9.976940982017297,-0.07052415192971373,0.029156578812644007,-0.0040276459650699
1700843433.5505998,-1.0600376872641741,-0.08617282670979531,10.016293290958604,-0.0672259037967012,0.016884548136445084,-0.009049798292071
1700843433.5605788,-0.2106072518773198,-0.45366944746541443,10.004284065489204,-0.05719848697630925,0.012382799837968061,-0.0037246173480157
1700843433.5714197,-0.6867549475836424,-0.29848988157140505,10.064022043522536,-0.04690902235093586,0.0065866516918793635,-0.0072645670035485
1700843433.580755,-0.7482505955044291,0.3713442614154655,10.167704674805725,-0.045159066668356514,-0.00485716421367139,-0.0051845926092569
1700843433.5906472,0.07452882792156704,0.4413088667955148,9.835352521253371,-0.050272771242497405,0.00022372109111143501,-0.0045454338425402
1700843433.6020722,-1.1362664934446205,0.35499079955552654,9.776801968326039,-0.0512001105643396,-0.014160699047946769,-0.0030403674346957
1700843433.610745,-0.05428182643280598,0.6691574879099601,9.934902196379939,-0.05476190656347132,-0.016500662987480017,0.0034186677774782
1700843433.6205952,-0.5225927787091624,0.5848370318158016,9.901370003169566,-0.05694605517956491,-0.019407048073249826,0.0098048998741801
1700843433.6306007,-0.3249422513822881,0.2517254173216948,9.982786327369796,-0.06089624252709347,-0.02454251651819603,0.0172853796510394
1700843433.6407144,-0.3880214702250657,-0.29631400494453486,9.884756948070777,-0.053376933363211046,-0.027608851927579378,0.0273086978821452
1700843433.6506493,-0.014083617160538832,-0.37954989482376406,10.285478961770904,-0.045581359348837426,-0.031069840132799224,0.0316750827012951
1700843433.6606033,0.7126489779534367,0.6400630721857421,10.04991866548948,-0.05091602943403904,-0.020404757946224067,0.0349073308287556
1700843433.670721,0.5220211637077381,0.06016151966413841,10.186905888051996,-0.05153596611093688,-0.017618706246664593,0.0370790782152112
1700843433.680633,0.004795231357352384,-0.3415274302042098,9.301990810223996,-0.04627336722691868,-0.012187381076837285,0.0300194239942725
1700843433.690595,-0.5003067452354313,-0.758778193829456,9.340696792478566,-0.03584507883382035,-0.01969820361048159,0.0254966645269091
1700843433.700697,-0.6419745436858019,-0.9193274640133065,9.17209109673888,-0.02440403044938576,-0.028879758413542695,0.0223345710663493
1700843433.7107103,-0.0930357261176468,-0.5474914892765743,9.531331252175343,-0.009756861956892496,-0.03323649125351602,0.013229307788461
1700843433.7206838,0.8339221494187228,1.1556319402968347,10.144173619792545,-0.02402747749797303,-0.027003095860340123,0.0055929460330303
1700843433.7306962,1.2410215637787918,1.051136982015623,10.388096305715584,-0.03550940822667537,-0.011124070843489004,0.0067571230000253
1700843433.740654,0.29795073780279846,-0.32897180873706716,10.304255206041997,-0.03323526874669169,-0.01065842866725585,0.0050716903759534
1700843433.750652,-0.23698226315429943,0.15425209099956574,9.442279741994483,-0.029728979153698067,-0.013390019208003392,0.0022964021889861
1700843433.7606668,0.0676909759879253,-0.4028596397204144,9.798323381933274,-0.025224643508663956,-0.019556998101761515,0.012300944025665
1700843433.7706487,-0.5232659007699508,-0.15851849125773892,8.911658106234164,-0.019879508960371006,-0.027460561677856758,0.0160891758976872
1700843433.780665,0.6338624596229613,0.26382385747823406,9.60743733844145,-0.020218954148737936,-0.028690454132130574,0.0250467351405318
1700843433.7906065,1.1490156278819308,0.7806198509552296,10.072096615655587,-0.02795885213065613,-0.020205246847357486,0.0361899184761937
1700843433.800644,1.9594301759250774,1.6211356040451137,10.575713069497334,-0.04838034944511527,0.0028796672909227523,0.0331262732623513
1700843433.8106408,0.5919776945630074,0.009942161446219396,10.498707381466145,-0.050304932865207305,0.010499836621655963,0.0394727076171334
1700843433.8206143,-1.425885163857889,-1.92490242588329,9.92270705110901,-0.029772526586340095,-0.00752895537005068,0.03952958162412
1700843433.8306146,-1.452347370363239,-1.7397529915720154,9.878384229396119,-0.0011192128606101952,-0.032743621739476,0.0446556518553193
1700843433.8473575,-0.6541831447600353,-0.40497058527437,9.364502433904454,0.012109814567165582,-0.05118342902316267,0.0466172407148774
1700843433.851277,2.45845117809612,4.268787441159376,9.927156951924418,-0.013642275625138459,-0.03809418325547378,0.0417781556724007
1700843433.86067,2.501462218802701,2.9599127780130967,9.903264352757944,-0.05310356444667841,-0.010635756187419252,0.0415796126006539
1700843433.8724518,0.7362837207874849,-1.2784281858165643,8.925359580617513,-0.04410254079178519,0.004962258877334865,0.0284734993009264
1700843433.880962,-0.9140008447200638,-5.141274586823103,9.049590597947025,0.009192493718703622,-0.006818032124986198,0.0196348103462155
1700843433.8910587,-0.7148029235688338,-3.014658960580233,9.236059486860848,0.06033630032713512,-0.024434418443132513,0.0217900509713585
1700843433.903091,1.4594318299644062,3.3737668386569237,10.065982278051433,0.025896000825482816,-0.014605277364324142,0.0148164965911205
1700843433.9137373,3.1135732434847756,5.504977583300722,10.5207688139302,-0.04864449157784016,0.02409751569566919,0.0175447324989731
1700843433.9234312,1.6796133319062942,0.8858419798759106,10.21858051299877,-0.07297532171733938,0.044430204789992954,0.0153498836560543
1700843433.930632,-1.2832841539031394,-5.787111194121079,9.178629545337893,-0.019319881604620125,0.031046444560125775,0.0122510661138589
1700843433.9406366,-1.7585346979354226,-5.093976060942666,8.845577608709817,0.04642784905226547,0.0014812835433070878,0.0232263776241238
1700843433.9506056,0.1386469428333909,-0.1303479733070653,9.295830384000594,0.06618459587337368,-0.008825891524622487,0.0296966871945555
1700843433.960718,3.058150445884115,5.116322333800539,10.591582673566093,0.0029544318647310636,0.018772128481602934,0.0391160744009907
1700843433.970733,3.1992268880576034,4.166351218941423,10.382665142622068,-0.05605783025565055,0.06192959224290533,0.0400775792776043
1700843433.9806736,1.0700923031943408,-1.7207021317380986,10.16620846006818,-0.04712100382393966,0.07305050156819629,0.0326171043096478
1700843433.9906428,-0.9933203182692905,-5.375740705189096,8.945932058195115,0.018874272664043328,0.06373185556037259,0.0335448133526738
1700843434.000658,-2.16884706671202,-5.354452873755751,9.143718739220912,0.09422880634052427,0.032693674360979155,0.0308655640809233
1700843434.0106869,-0.3719034327770279,1.239685356130017,9.50432751687376,0.09534927057203509,0.015388308776598273,0.0294178808806832
1700843434.0206397,3.88517252103599,7.5346325173199675,10.659487904712691,0.009484387244729116,0.061519797967717484,0.0323503847001488
1700843434.0306752,2.016268310789289,4.691461390439733,11.04923590625872,-0.06379450195429909,0.08719268002612483,0.0218370827613766
1700843434.0407395,2.0743560769992766,-2.289589142083631,9.611189088907098,-0.048066291054576944,0.11882896731118132,0.0222858722089226
1700843434.0506344,-1.8256007631092723,-7.162730576896954,9.06551781209267,0.037618322017370094,0.10734241850984078,0.0257180771557982
1700843434.0606935,-3.696617458413246,-4.748341254215932,9.059707963499973,0.11772296375294782,0.053950600775802604,0.0347702811239655
1700843434.0707314,0.8248308683242699,0.868351972222535,9.332489036310285,0.11200519123616126,0.05798369291372752,0.0547354305861886
1700843434.0806887,1.5169517248969508,4.5291753608072485,10.703453111341497,0.0693895036205292,0.07979673777512203,0.0668883147417004
1700843434.0906682,2.4646953924325454,4.084320129691159,11.493751107973035,0.0051533827030973405,0.11231043910790027,0.0606125454185898
1700843434.100649,1.6201775076571043,-1.2940215976054532,9.960905041002336,0.014916718749067612,0.14310629252387025,0.0656139078317578
1700843434.1106656,-2.4371764717060658,-5.715098655974643,8.903296315296899,0.08609871626860824,0.12034526316181443,0.0554708997486527
1700843434.120668,-4.1661434481053075,-3.8472898133765434,8.404705105684014,0.14389790989972606,0.06854428636139183,0.0455007376848156
1700843434.1307929,-3.1668797380605276,1.1416044235102423,8.651896864388082,0.1438060429772282,0.029712213948889277,0.0408975342987473
1700843434.1406207,-1.774353350144421,5.254533565440033,11.880675066884056,0.08210556554676068,-0.0042692481082960195,0.0194451595424111
1700843434.150628,3.239562811655039,3.207080673175094,12.426321652208976,0.02916950534018125,0.0377911293600705,0.0081636263756449
1700843434.1606717,1.1021690136578146,-1.5989765665133133,11.359699716877717,0.03985924797714385,0.05261700845148856,-0.0143906045006219
1700843434.1707056,1.2713689348241204,-7.080432573652903,8.633090474177662,0.11841073291969224,0.07412433106696488,-0.0381002527894084
1700843434.180653,-2.320010004414953,-6.40740195972068,8.433248418064213,0.21041292436690623,0.04574647599983135,-0.0344674651743475
1700843434.1915636,-3.0217137897263417,-2.4001815693794617,8.444208567563384,0.24646213030892286,-0.006246412829153056,-0.0596170601667468
1700843434.2006204,0.32976424885712335,4.350415980296612,9.707004987411521,0.20352215801045648,-0.0019723001655241263,-0.0579745535971228
1700843434.210627,-2.451223392624553,9.551911925312876,12.363576282083557,0.08197037912283742,-0.03960552195666974,-0.0636814934434001
1700843434.2207055,3.6626073941466437,2.425932714952432,11.830285076481514,0.020071371033793122,-0.01087918947741959,-0.0674296123208109
1700843434.2306345,3.995072525902291,-5.339242898738019,8.932731945525475,0.08300302041841953,0.03966099913823153,-0.049680589628369
1700843434.2406285,-0.014085286925365927,-5.208391303083503,7.684344686983165,0.1636924932569691,0.04045314664251378,-0.049433915805966
1700843434.2508054,-2.1568367649595714,1.0493873244191356,8.157234679242197,0.1646185713870416,0.012087797840136989,-0.0425441553117339
1700843434.2607648,-2.1798451692594663,4.22229902731124,10.522611945846718,0.12027156748325482,-0.026918532564992468,-0.032246540230662
1700843434.2725372,-1.0089121028592045,5.466695008126814,11.787269586503507,0.04631193254551082,-0.055936436156595826,-0.031366023165137
1700843434.280723,2.453573047288099,1.8541886744018568,11.289160167735805,0.01920737038985878,-0.04049120863434814,-0.0231218644650284
1700843434.2907307,2.651049067236871,-2.650933153965912,9.38982111628241,0.05448262076562602,-0.010195873404080218,-0.0345374857307974
1700843434.3007112,0.13162992356522915,-2.4787270417182032,8.178055274870411,0.0930544646729197,-0.00810127221471744,-0.0410462160827223
1700843434.3106794,-1.456387596785602,0.9940373918782305,7.886069496483002,0.09950277806054021,-0.03048543206569526,-0.0408235741080348
1700843434.3206704,-1.1363177636430635,2.0164465936236833,9.827092957903186,0.06919579654827335,-0.05238268690604176,-0.0521881421329085
1700843434.3306897,0.7510602161965144,4.306718642831092,10.715563420025747,0.027734035251372358,-0.05336503304567641,-0.0431011942447726
1700843434.3406532,3.514397212503848,1.1731837416328443,10.745738560445194,0.008189052886999603,-0.022475055986183375,-0.0468125780345503
1700843434.350734,2.2869819967786245,-0.33291470005096724,9.371166796263365,0.011426534082940584,0.011230245805792356,-0.0540130426408354
1700843434.361632,1.4704097255696227,-0.9012487976191371,9.340339306965667,0.03145186158575619,0.02257385353845966,-0.0418901955010001
1700843434.3707173,-0.6299863137378946,-0.6679284017917106,8.872293363007211,0.043708950732887324,0.01792082898024234,-0.0421875146450106
1700843434.3807192,-0.8603831159817931,1.5539514697101384,9.676656993446096,0.035160807981603585,-0.002298542830821607,-0.0254581784130637
1700843434.3906913,-0.24432605565572402,2.323211169106689,10.006838949355124,0.00964427642358972,-0.013481350115265184,-0.0154389654518668
1700843434.4007156,-0.29826496892423854,2.3987632375429295,10.042127003243158,-0.019498010088792008,-0.020193515808345358,-0.0123655050294105
1700843434.41068,1.5584131269902786,1.4401537420746637,9.730772440532796,-0.03042870732489534,-0.007984128912436692,0.0050327350153024
1700843434.420671,0.6815494390514075,0.3575430127500625,9.370233468117513,-0.03444590627786535,0.003433221403943666,0.0065163458465035
1700843434.43078,0.30250713316411487,1.0961476042241294,9.484975492190042,-0.03126787284644081,0.0036391061428408676,0.0150353071047361
1700843434.440703,0.617475487047705,1.6387776885235001,9.964402558302483,-0.048785439624783315,0.007887405394833619,0.0194855565904076
1700843434.4507084,-0.8302033599906773,2.3592255914591154,9.884888778649302,-0.06474458150691766,-0.0011977495548015787,0.0154913031263645
1700843434.4607637,1.2208351164027662,0.6390720343188852,10.204502461755753,-0.07444380714991912,0.004499592303892211,0.0140570710180695
1700843434.4707208,-1.514296699654064,4.718835471380273,8.430761101631866,-0.10097220820929709,-0.0019086449013305366,0.0103558414383228
1700843434.480734,0.7563021813845302,0.34308443633158464,10.572859280356564,-0.1389984761312476,-0.009532251382357715,-0.0060574071714286
1700843434.4907067,1.3834550234259544,-0.0711074108044456,7.6690819093738956,-0.10160155353320403,0.021394168555680677,0.0027346490649874
1700843434.5007007,0.6166129742942948,-1.9801850173364401,11.176337203731865,-0.10134353515619832,0.011173042750978425,-0.0108889331342284
1700843434.5117157,-0.4746950602304779,4.986385146824134,7.56144943897496,-0.1206534491500463,0.030221064839486205,-0.0067374775418643
1700843434.5213094,1.8843981444431364,-2.187534344158969,12.718734936863878,-0.12591008813343013,0.025002222793518478,-0.0034483465598527
1700843434.530764,-1.1124994839793472,-0.5885297502937558,7.845846190131721,-0.09418814411403986,0.03551997308693928,-0.0175867480458323
1700843434.5407033,2.8385842640036385,-2.1734868463910146,11.608874227576287,-0.07115273043577318,0.047066996176695255,-0.0086108901770417
1700843434.5517256,-1.270510024090956,0.30026275370113426,9.279294668090335,-0.057291733509004406,0.04842785170180572,-0.0174725213320557
1700843434.5607257,-0.8353662432586779,0.6431412380285753,10.910048912011979,-0.06149123011771226,0.028474848580660135,-0.026749919098765
1700843434.570691,-1.8082565895205025,2.6958591250378023,9.804828870741565,-0.09151257447692761,0.007785721043234117,-0.0241247498662774
1700843434.5807817,-1.6486925788727749,-0.8961039407904582,9.749276787277033,-0.08377561439382654,-0.01805661957831046,-0.0337934744776789
1700843434.6024914,-0.06789466956488294,0.4409828122619463,9.424585492342302,-0.08279451744686826,-0.03098110188350792,-0.0290968352229897
1700843434.6088405,0.10566027009607515,-0.44639145041649175,8.849948803726745,-0.07489765269687128,-0.02605370464325557,-0.0263455332489316
1700843434.618682,-0.7868207534874565,0.7883701319152239,10.264543243046319,-0.07727240969586663,-0.04152726299314729,-0.0283238617004458
1700843434.621195,2.1302467353464327,2.2874804000244855,9.182533967784988,-0.08374378934152088,-0.03346046204741046,-0.0175250311614577
1700843434.63069,-0.6237281181613501,-0.207735364750463,10.413870475686727,-0.07680964767391084,-0.04396210777895968,-0.0145228141219918
1700843434.640729,0.7525055954620969,-0.6291840008495074,9.966850263859634,-0.06522890251014528,-0.03639363571699937,-0.0068202749127153
1700843434.6506777,0.14689554953683576,-0.09072154407015866,9.8128109968615,-0.059129171842966385,-0.032158327677254316,0.005607446725517
1700843434.6607654,-0.2880778330734494,-0.3013020403585498,9.824346227791684,-0.05452834557231181,-0.03341891086471412,0.0076265098294611
1700843434.673443,-0.6436416667497166,-0.6035284467276162,9.302306943450857,-0.04305723342827058,-0.04074598254980481,0.0206496874569352
1700843434.6808186,-0.498964697813267,-0.1550895746363033,9.654052289022047,-0.04031826230526495,-0.044904762711046445,0.0282087093918021
1700843434.6943371,-0.8507963730351015,0.03626509039805156,9.782371300355319,-0.03733687145987234,-0.057555151474574066,0.0316887843190129
1700843434.700738,0.008278502299769917,0.5439372659878936,10.124113703748849,-0.04208847325895418,-0.05840356169595079,0.0382712530671055
1700843434.710743,-0.30180674737489194,-0.4751017610663261,10.077102994132844,-0.03640278168359009,-0.05589162433838931,0.0328524457989628
