time,ax,ay,az,wx,wy,wz
1700843705.012528,2.185512683086961,0.007586146900194325,9.624426927354255,0.0020530179133380825,-0.0013697494855144422,0.0001056435692957
1700843705.0224504,2.4298216727307005,0.1028734913728809,9.51001954327256,0.0007413451715537744,-0.00046785206492636663,0.0009896497475351
1700843705.0324745,2.408448036125129,0.004647334019598034,9.511858163574615,0.0007119042137621906,0.00016396558988913276,0.0009106734767924
1700843705.042474,2.3281022260762176,0.03232667204802763,9.565964630034538,0.0005684875767466292,-0.0011946557586332749,0.0013197137276078
1700843705.0524266,2.4396190786095904,0.0832756872468792,9.512927009430005,-0.001699833683790291,0.00046197833946781284,-0.0002594521967325
1700843705.062452,2.435990147210577,-0.08206225247391215,9.450569613012311,9.426204685097126e-05,0.0016913307614038603,-0.0003141857334044
1700843705.0724852,2.333990436932409,0.1312430440601548,9.586498892596753,-0.0022571532706024025,0.0006724506401598866,0.0002695601841337
1700843705.0825598,2.431649437140755,-0.0007401169967889335,9.493985332020689,-0.001217426772936897,0.0012599482102127774,0.0016851310618589
1700843705.092507,2.3438562816200954,-0.18110814015091192,9.500691572671425,0.0026658239696629045,0.0004753986409004505,0.0008343145717303
1700843705.102448,2.3291611568744472,0.034591291026068505,9.570914074474043,0.0013731543722742834,-0.00021378675416112574,-0.0005310137522969
1700843705.1124473,2.386255396878747,-0.030780097969048924,9.508222137796707,0.00196509325383726,0.00025672538414180524,-0.0010972550836954
1700843705.1230435,2.436789824885758,0.0962242493597335,9.511335151954249,0.0004902568689874087,0.0012692529289347926,0.0003306526894816
1700843705.1324823,2.3527267269633714,-0.11498311444441862,9.491889229618653,0.002875177702418901,0.0007004141810478713,0.0003779657389172
1700843705.142476,2.332862154945379,0.10193376379669909,9.564260187524177,0.0011909932075629419,-6.0674430230554005e-05,0.0008540366951278
1700843705.1524594,2.4346096167793694,0.1005680068017078,9.52969604123521,-0.000753276730575599,0.0009745793993279875,0.000959470705166
1700843705.1624608,2.369108809875665,-0.0530482700185244,9.498461596494158,0.0007688982790219432,0.0008091873013924743,0.0015450908802817
1700843705.1725285,2.305704335583504,-0.049515382282884476,9.544857824909853,0.0008195616551280487,1.5696411305540635e-05,-0.0008763531688232
1700843705.1825209,2.4063889542209793,0.1483124473591685,9.551901190028147,-0.0006116848618738746,-0.0002599867849646216,0.0016784589505191
1700843705.1925485,2.386037122620131,-0.07240413829250761,9.499593420719306,0.0006824716784304662,3.469456238591304e-05,0.0006491617503711
1700843705.2024963,2.399408524227566,-0.04384291079023747,9.487796341573787,0.001464041894953657,0.0006691128756909852,9.112218398557706e-05
1700843705.212499,2.324602037487638,0.04089987226791247,9.558326748346907,0.0010669293297036375,-0.0005609762988791955,0.0001570532448026
1700843705.2225246,2.3776435536725837,0.00041719324042866965,9.5206706457908,0.000835594397844311,-0.0003445388851819475,-0.0006438853917275
1700843705.232578,2.3160242006913516,0.24847839232762828,9.645081731968087,-0.004692739527436317,-0.0016685301236455876,-0.0009579152566943
1700843705.2425132,2.3404214622009034,-0.2945284029630759,9.4342980664869,0.0014942213735833073,-0.0023468982516000767,-0.0015029485104237
1700843705.2524807,2.5755714899511197,0.16270013921123716,9.471826937443952,-0.0008720770842708729,0.0012714863506835268,-0.0005112733807977
1700843705.262562,2.3349924572670933,-0.020207314438841866,9.545192410010088,-2.3094236073256686e-05,0.0003826306130293181,-0.0003730672644083
1700843705.272589,2.441584175188217,-0.0024238829438648374,9.484548789693916,0.0006962611909530823,0.0014819675516287076,0.0001890819811164
1700843705.282474,2.2202036997841796,0.10111531923296495,9.637563264432826,-0.0013291737474798746,-0.0019337564977164985,-1.2448773449717928e-05
1700843705.2925546,2.4612971533948014,-0.023168588824282355,9.468983423727957,-0.0019676789218793754,0.0006407941241803524,-0.0024644403485213
1700843705.302458,2.5285976529792507,-0.05638888934034332,9.410710990027065,0.0007309085523352347,0.0029705917841940334,-0.0002668992266622
1700843705.3124976,2.3222832700503706,0.02928406872321945,9.555703530489685,0.0013563773358004501,0.0011306783862809352,0.001454553636759
1700843705.322522,2.318973954859671,0.09673107479401437,9.586941983942987,-0.0015377914891639883,0.0003368156511058859,-0.0003741700667519
1700843705.3325117,2.3569336241003827,-0.00048802293459101315,9.528951346112178,-0.0008877294366153529,-0.00029984358346982795,0.0001685957075464
1700843705.3425014,2.418610220327535,-0.08621906775085544,9.473931250951358,0.001538924171113838,0.00014905370116629802,0.0009397482034187
1700843705.3524735,2.3635344217987844,0.07695721042950089,9.556102328467126,0.00018776154455369111,-0.00022010810846895674,0.0008976241341228
1700843705.362491,2.2912798774302128,-0.029425054033701364,9.551318195864525,-0.00012964144435215246,-0.0012959757429646763,-0.0012250406900052
1700843705.372549,2.527677253695339,0.04295559796279715,9.460002391500662,-0.00044256229532485156,0.0013068756527993114,-0.0001767368986834
1700843705.3825276,2.293508479090875,-0.03494561603316997,9.558478621657448,-0.0005237701613033377,-3.087432981489087e-05,-0.0018277845112238
1700843705.3924637,2.4482124620945007,-0.03495122626635911,9.466620441741453,0.0018216625213575827,0.0006344746784903076,0.0008700660081017
1700843705.4025228,2.313173096596236,0.10499515042906532,9.590721784983279,-9.684917663631488e-05,-0.0007886003286575632,0.0008700674050855
1700843705.412625,2.4125432732013414,-0.054328124194923874,9.49263778740426,0.0010531501155527404,-5.434285024006494e-05,9.037127605596288e-05
1700843705.42254,2.3540625572808245,0.016557618613179965,9.525344602104646,0.0014752219551692287,-0.0005147860977267893,0.0009859250975209
1700843705.4325364,2.3714436709958653,-0.07738024429749116,9.496982190168234,0.001952410550370313,6.3396521004297e-05,-0.0012872637481991
1700843705.4424918,2.4178275611907236,0.16833451693313378,9.556672361696506,-0.001967660890906017,0.001303907671719534,-0.0025091543094818
1700843705.4524596,2.323889986380518,0.037186617025812246,9.562426868382538,-0.0014092676712996117,-0.0004611502701729322,-0.0003887064987425
1700843705.4624949,2.322387984463867,-0.24501717700775924,9.468267315782935,0.003451112360059271,-0.0012754592019598562,-0.0018005973426256
1700843705.4725485,2.3957712316123203,0.15786174432797118,9.557079532510736,0.0016067207291954803,-0.001518017039965517,0.0005034958820401
1700843705.4826338,2.357415084800497,0.09968295188241219,9.576948336641403,-0.0011313517827439357,-0.0015712925026940756,-0.0011319057549913
1700843705.492567,2.406455179017104,-0.07775860672286135,9.477086619328505,0.0009454920054329776,-0.0012334068577174073,-0.0005388422170285
1700843705.502521,2.457434936091981,-0.046798020067447384,9.454268843654935,0.0027332586733105476,0.00013787529519390353,0.0001119894849039
1700843705.5125391,2.400291620563406,0.14602560761315608,9.552610108468455,0.00011065072415706578,0.0005543682476771841,0.0003921107171122
1700843705.5227888,2.347299525848192,0.10003840051625272,9.557037974137334,-0.0016391169832368436,-0.00017355253187500784,0.0008063606045111
1700843705.5324771,2.404128187276412,-0.11444839178373077,9.47038857242451,0.0011339886745640852,8.01469797206029e-05,0.0015137918061013
1700843705.5424852,2.3318624506273995,0.019691591974734978,9.550846372148895,6.63197835526368e-05,-0.000591530700108482,2.8205803032378663e-06
1700843705.552489,2.4046939098421625,-0.06888676207984712,9.483554495495712,0.0015661142648782378,0.00014348271809153367,-0.0008577116997544
1700843705.5624802,2.3606600419861676,0.20557000871626693,9.60514734212619,-0.0020444391825508307,-0.0004727177014658123,-0.0005526284686852
1700843705.572532,2.42374716391327,-0.12289633533193682,9.46108672800562,-0.0007066692298213886,0.001308745047697752,-0.0032907076412443
1700843705.5825486,2.396827505230315,-0.06233514263222103,9.485675814236453,0.0022169241393356198,0.0009220418285321151,-0.0009989262790982
1700843705.5876412,2.4951188046069346,0.17093576614931213,9.524487209939704,0.000781559086044145,0.0018399686413190918,-0.0004527903976481
1700843705.602216,2.372543110266096,0.0635921147607848,9.533281551012076,-0.0015933382905660442,0.002240409858813063,-0.002140347310305
1700843705.611677,2.1858835854109433,-0.1749751293246246,9.561622801924972,0.0025116037871081263,-0.0019251761882252037,-0.0012231694301222
1700843705.6215055,2.3583328222010413,0.09013394923320561,9.560398821518568,0.0003691950828737566,-0.002226190073340234,-0.0020222425693277
1700843705.6322992,2.4883781801637506,0.08861780729067183,9.483538869737396,0.00011437477642796772,-0.0006790801915015515,0.0008428805275257
1700843705.6415825,2.3975590547425343,0.06462207215629519,9.536648002290553,-0.0023026007006166026,0.0003412779163774843,-0.0015442868927125
1700843705.651517,2.422205208984331,-0.07391113952700315,9.470661020192939,1.339979376007907e-05,0.0009220553062258024,-0.0008845484582339
1700843705.661599,2.3983047765994816,0.06410655482200688,9.533856652743596,-0.0006466859878843565,0.0007987524993460754,0.0003239402984404
1700843705.6715193,2.414031346613445,-0.0282722588551832,9.48195439701452,-0.0004217206403144297,0.0020053734598346738,-0.0006986335385222
1700843705.6826549,2.3215070120598833,-0.004556087801611489,9.561074055794986,-0.0002566663198374229,0.0005327587265920492,-0.0011639476753403
1700843705.6916664,2.3610701911203,0.015061711729459975,9.552526440330064,-0.00025294206712777787,1.7564126711731687e-05,-0.0011929881758619
1700843705.7015069,2.4013882819709353,0.00899741376617105,9.513801189999983,0.0009380428109786663,-0.00030803286387665556,0.0011069878936182
1700843705.7125173,2.4299488849023674,-0.04905784632193353,9.455709658260599,0.0018417984715375917,0.0013146929498197544,0.0007028007501871
1700843705.722749,2.292554917774977,0.1964854270214167,9.646699192795447,-0.002079443494417214,-0.0009662927982840348,0.0008868386329054
1700843705.7331235,2.302650528334781,-0.13860310897074157,9.51755413526035,0.0004593356816518017,-0.002416922427327233,-0.0001823271624375
1700843705.7414992,2.560240171703456,0.08788018294706805,9.444957759533521,-0.00013075430908869855,0.0004560208745301055,0.0010939576430614
1700843705.7515228,2.3843821481802197,0.025046832429178045,9.528649709793422,-0.00132359169976319,0.0010308281396385042,-0.0005272846202929
1700843705.7615044,2.3907378519196256,-0.016433226601933644,9.51078940391067,-0.00017284232966289552,0.0008289272111665767,0.000815303251184
1700843705.771574,2.364295026597128,-0.04331893268618551,9.519743775333495,0.0008963103188900581,0.0005420708209137224,0.0002199867129461
1700843705.7814991,2.372444532282871,0.02703970797159683,9.538777915624816,-1.8622385046529707e-05,0.000501835490664796,-0.0010197775438059
1700843705.7915132,2.217349515266487,-0.04826604094732531,9.586534792645823,0.0013232477691667876,-0.0030453713113145478,-0.0007861858931933
1700843705.8016844,2.5388466309339317,0.11843709281364986,9.459361978760484,-0.0011365796847049008,0.0005931168047078377,-0.0004259516601082
1700843705.81153,2.419427715290942,-0.10611754365841426,9.455908044183401,0.0025842567618167955,0.0006061447052295007,0.0021899330430101
1700843705.8215306,2.2618930625524967,0.049273818912248336,9.60910207433495,0.0006955242995832982,-0.0012885370444183544,0.0002416124160304
1700843705.831505,2.3329077878650777,0.02302712309932236,9.558254041345345,0.0001397040013846881,-0.0021766409453014514,-0.0002877547987368
1700843705.8415346,2.5419419426611864,0.04322219151030217,9.447833535186744,-0.0004242968185978737,0.0012081496875927466,-0.0003030350082185
1700843705.851539,2.2898619979479524,0.10499785215390073,9.609337628579341,-0.0008489859265277691,-0.0017351898291094986,0.0022052148823063
1700843705.861545,2.3866842475770134,-0.07997681426899303,9.50519947226789,-0.0005848502548758032,-0.0007762994344781001,-0.0011427074670423
1700843705.8715625,2.3819850853552675,-0.09872521855794186,9.473838056460277,0.000977141813309258,-0.00030244505750682237,-0.002041996153966
1700843705.8815703,2.3617329716978057,0.1486791902458604,9.567247560028303,-0.0009473315958678708,-0.001302314311434539,-4.412191916300254e-05
1700843705.8918066,2.245303894354363,-0.03156116802924455,9.580783524558639,-0.0006004978751150074,-0.0039334948201131805,-0.0010115661890809
1700843705.901578,2.6102378826817785,0.06738115483376723,9.419830460967539,-0.0006061037717547912,0.00011514984648632298,0.0011338301818254
1700843705.9115305,2.313639471489459,-0.12596201677323174,9.52125632668846,0.0008307450370621452,-0.0004019250160377638,-0.0016772951231901
1700843705.921505,2.426326903081905,0.08381592941030613,9.531932194866894,0.0008285119550664673,-0.0005322969110633065,0.0013256736100088
1700843705.931524,2.351702881263687,0.1208558174642492,9.593209213794953,-0.0006276816624667688,-0.001741911222612086,0.002757666702419
1700843705.941581,2.369975698465326,-0.11728601715885337,9.485522625022341,0.0013034886707746505,-0.0015817165379579364,0.0010108959512221
1700843705.9515796,2.4520676798749705,0.01500295957978477,9.492739189703888,0.0005304885715179141,0.00018593780198941352,-8.349353410734702e-06
1700843705.9615712,2.318072586996412,0.015179770001458322,9.559936479242502,-0.0002529407965840756,-0.0008094628341933661,-0.0010663426247988
1700843705.9716077,2.4104813728885275,0.007009856164116565,9.4961046315677,-9.646915969231006e-05,-0.00015009005248040595,-0.0009076381567497
1700843705.9829984,2.3725859684240653,-0.13363670494599,9.48661508993217,0.0018574180978462682,0.00036847076885430376,-0.0033130773109946
1700843705.9915593,2.3641817776301295,0.14648773203884707,9.562886291046846,0.001418970956100095,-0.0009796973539694031,0.0002963620907762
1700843706.0029995,2.3603035673189723,0.012680707492750864,9.528679996795388,0.00030772177478579634,-0.0009014813136944132,-0.001816244958863
1700843706.0115442,2.4832396890296575,-0.04296878448202919,9.449816966004501,0.002513833925750479,0.00014793928316386842,0.0006055842212303
1700843706.0216367,2.3430889717500976,0.07956256763650897,9.568671978980507,0.0013042317314956417,-0.0007412816986825991,0.0009039711265727
1700843706.0315964,2.365730035904736,-0.056501876174096535,9.511655226867544,0.0013683088662087698,-0.0003199469467313849,-0.0014228407991681
1700843706.0416656,2.340894054957,0.10609935804131243,9.573008911686646,-9.795945818213492e-05,-0.001348135805772965,-0.0004088186425719
1700843706.0515285,2.4956497026453253,-0.03151396444730946,9.441969731843272,0.0007696543322858557,0.0012063027835548278,-0.0002087594358813
1700843706.0616872,2.394139190529837,-0.006551191520340342,9.504381765487576,0.001337752116573619,0.0014998483190087433,1.9563315473065804e-05
1700843706.0715458,2.3794994077153135,0.014165001379585939,9.528463868834713,0.0006970154097915554,0.0019561902565372645,-0.0010667184134577
1700843706.081601,2.1960914341583293,0.1413771496095016,9.671988531970241,-0.0020023273389352197,-0.0021390305105850205,-0.0007608696352322
1700843706.0915272,2.4104723059074646,-0.03363633297177774,9.48412490788234,8.42046460055227e-05,-0.0019426948990978507,0.0011647389154318
1700843706.101551,2.503110967889025,0.09028395530264009,9.476909438623183,-0.0014249165456116616,0.000320048768242225,0.0018710485427077
1700843706.1252058,2.362735548878788,-0.009873184795392813,9.52332143834183,-0.00013150442364199183,-0.0003255410739594425,0.0015529209748278
1700843706.1270518,2.6511842885805716,-0.20085870309878284,9.30020445047455,-0.00010764735594176087,0.0012718590455511529,-1.803688352039354e-05
1700843706.131537,2.4776838425493533,0.013411034530929579,9.47625900501875,-0.0010352559632155099,0.0027366388667736776,-0.0016504693077508
1700843706.1415834,2.2214581768070913,-0.04868940546556049,9.595271078143009,0.0006038807630120333,-0.0010698440333192375,-0.0009322265861187
1700843706.1520452,2.4374313723749306,-0.014656847342194827,9.476343717052883,0.002652781530234307,-0.0005028513338019778,0.0014508532593394
1700843706.1615477,2.2415208703523195,0.05078296189396945,9.605592166999077,-3.9089914307247735e-05,-0.0019225742930846666,-0.0022208012407277
1700843706.171662,2.5405415718278372,0.05758937176628899,9.470864767496028,-0.0004176096858330341,0.0007570228709583653,-0.0008547361241285
1700843706.181604,2.3586705781765844,-0.07046090224818262,9.500236158486715,0.001657768885149986,3.3948166150807086e-06,0.0002408758999449
1700843706.191555,2.356703940883664,0.09367036774369708,9.549669884364299,-0.0003579996183764513,-0.0002171508612909979,-0.0005112761747655
1700843706.2015195,2.374501938043434,-0.023027171201412854,9.514880370766795,0.0009104659128877024,-0.000757672041828414,0.0006059443811322
1700843706.2116494,2.3195631929026304,-0.02559432360558568,9.541971049781504,0.0010769922000441637,-0.0016752103821715883,-0.0001331500708688
1700843706.222143,2.39954652101468,0.034791981023653724,9.526477924129408,0.0005997836406457644,-0.0013324927845099444,-0.0001912659965087
1700843706.231529,2.462124143552458,-0.04596898866847164,9.45847234634481,0.0004682836356105471,0.0011217362642507254,-0.0024357483954731
1700843706.2415836,2.3832775821522003,0.0976195917375559,9.55005158424855,-0.0009845799096651875,0.001004380642270737,-0.001483199116737
1700843706.2515917,2.4279769635934,-0.05094655571636182,9.480206253180791,0.0021081486275811765,0.0008576033309486005,0.0016240840312461
1700843706.2616131,2.213982346628819,0.005604909839560128,9.613635301384907,0.001365700684156434,-0.0021136854082390456,-0.0002098939614002
1700843706.2716691,2.4298983782179597,-0.06380450889982837,9.475097790287167,0.0028580519120281634,-0.0012553807333944374,0.0001268657914265
1700843706.2816007,2.29794759428292,0.14278539230848405,9.6176170750872,-0.000520409664970714,-0.0027045278573830972,-0.0011896419338513
1700843706.2915611,2.4605615021738116,-0.0009102928544309714,9.475407868952253,-0.000741319790461221,-0.000772951453990051,-0.0020989889045809
1700843706.301546,2.4402737938359698,0.13665200608074163,9.546670374541153,-0.0018566757960397603,-0.0007889783424526198,0.0005578927128594
1700843706.311566,2.3427169989862473,-0.12821166902847855,9.510616752740795,-8.753383285917575e-05,-0.0009506482782386326,-0.001577817532197
1700843706.321529,2.353191047269893,0.04243805729001775,9.55574089115351,-0.00022312734999177525,-0.001783256636796637,-0.0005641662748162
1700843706.3315468,2.4833676575946755,-0.024930441805451533,9.45659093761254,0.00039601189764275607,0.00041988951759340797,-0.0007355241570253
1700843706.341642,2.357195231678804,0.021771770841254673,9.529897379590256,0.0005617855953978298,-0.0003356014761789596,0.0005020014621918
1700843706.3515542,2.299934596555733,0.0586802259716993,9.567362110605655,-0.001383192248581327,-0.0013462720018029728,-0.0010600017150495
1700843706.3615324,2.483784278223847,-0.043470310339020414,9.44303748767774,-0.00043436130754593026,0.0010349371661839116,-0.0012309861369062
1700843706.3716717,2.3083265757771585,0.015620988528656577,9.56531804953725,-0.0009000267287414058,-0.00023688795628737516,-0.0019715830450509
1700843706.3816893,2.3303292261747632,0.025369006134653472,9.547331020345297,-0.000559896743044471,-0.0016223261828073945,-0.0006081265629832
1700843706.391548,2.4675697400437557,0.07858935581156581,9.508546984475705,-0.0014591860219407456,-0.0004011811450722469,0.0006137716526068
1700843706.401621,2.2672778130195836,-0.00022262924379331712,9.591391461881653,-0.001247963903617194,-0.0030852357136509395,0.0006640757026984
1700843706.4115329,2.5922882545693544,-0.035507539530852325,9.389222811792743,-0.00011288465994169557,0.001347483588865763,0.0007482425542916
1700843706.4216971,2.304417313084786,-0.059752729170049486,9.555493716359328,0.0005427912738845202,0.00014607524938159858,-0.001297301775739
1700843706.4315598,2.353107738327286,-0.031004252201010694,9.520644241355726,0.0015560601690581303,-0.0006012045854827343,-0.0006986516993124
1700843706.4415495,2.373856589355996,0.05812294170961925,9.542984573817321,0.0014033258881182248,-0.0011503265468838968,0.0009922701400141
1700843706.4515314,2.4401164929486043,0.028493327056705528,9.49209307551465,5.8492254962154615e-05,0.0006460058268302252,-0.000714310607836
1700843706.4616027,2.275228481759372,-0.13775338160985476,9.531821475588218,0.0025033918565264238,-0.001050102550313818,-0.0021686653373394
1700843706.471615,2.319601919516885,0.18091504115358115,9.623680429183729,-0.00036096296624256994,-0.0027358069506833753,-0.0013330671237413
1700843706.481605,2.5323769364444413,0.11114037675513669,9.473320760130225,-0.0021971798909397543,0.0002596887506489816,-0.0009910840773586
1700843706.491604,2.2695540690531044,-0.1497863616787678,9.52919433954926,0.001049054353953441,-0.00205817860813402,-0.0008539923466373
1700843706.5015578,2.4430353311624056,0.004641033064952748,9.467532464986862,0.00024550576438805174,8.385384703548374e-05,-0.0022241679718349
1700843706.511602,2.3431074346435246,-0.006747273714669122,9.535489949424733,0.0021502538354493603,-0.0017299700582626598,0.0007866251515592
1700843706.5217133,2.437798392069867,0.13182663395148125,9.530295090243088,-0.0016525394245059475,0.00026044305378756697,-0.0015006984350834
1700843706.531664,2.5242585589256166,0.031845123786048694,9.449706638576577,-0.0005759156662422726,0.002348098361140233,0.0011390299885901
1700843706.5415657,2.133981767048803,-0.000191346197511533,9.648443334990365,-0.0012259779584625906,-0.00215652514947399,-0.0005392118356753
1700843706.551587,2.4793874494633905,0.0074227890070341866,9.471020826789411,-0.00033414864092313264,-0.0006760963764318033,0.00117777783893
1700843706.5616057,2.479631275720044,-0.04526184554779991,9.468739155910365,0.0004686535115852191,0.0015292779016112593,6.875856783197923e-05
1700843706.5716777,2.27524759924785,0.050414383110782834,9.58497711583699,-0.001143271655119051,-0.00025849819587380515,-0.0012440459569547
1700843706.5818374,2.36795099581419,-0.12010399810595421,9.48820555658631,0.0027217111497754125,-0.0014207752605660748,0.000966538803223
1700843706.5919416,2.4006578177734275,0.09555489691942601,9.546858691886774,0.0011250412747799597,-0.001166711112069864,0.001626311172768
1700843706.601615,2.428056404964875,-0.00515731301546808,9.47252159941013,-0.00014377659580092693,0.0010975160622022568,-0.0012913452693824
1700843706.611587,2.452285664169016,-0.007585642846125277,9.471436773583829,0.002069775090551235,0.0013039083737007456,0.0024305808591093
1700843706.6216006,2.4361906070289545,0.08570968496486957,9.519533385927446,0.0001795791062829534,0.0025704987997485335,0.0019868998323004
1700843706.631623,2.295395559756371,0.03161361273262919,9.578202820190342,-0.001026685493585694,0.00118915749048124,0.0002144224534645
1700843706.641624,2.3535366772466535,-0.15145242121454802,9.49190151160321,0.0011500031131781495,0.001265528458009679,-0.0017126749036465
1700843706.6515863,2.2546199642572877,0.1274346397936237,9.620795700272,-0.00038704569788306387,-0.0018711657737402014,0.0003600715980069
1700843706.6616008,2.50101636783574,0.11975091215956549,9.489900154919278,-0.0028207927813583096,0.0006079974313767068,0.0001987778058178
1700843706.671635,2.2740004992328573,-0.2610241982644316,9.468138518579435,0.001900265719256262,-0.0019244554242899582,0.0028925382765378
1700843706.68166,2.2330098888370986,-0.2765363601974347,9.472623224145162,0.004372760341738652,-0.001972104493927532,0.0022208542330558
1700843706.6916146,2.628605161419671,0.20517092712430487,9.710040823260142,0.0024221995229708206,-0.003382514966985978,0.0026835383149232
1700843706.7017572,2.3648141305246146,0.17286176264230652,9.26831262096402,0.0021673940138323107,0.0012088874202674897,0.0036431847373391
1700843706.7115805,1.9153038087419094,0.027751588673226964,9.731771186761318,2.3504223283809415e-05,-0.004469180130301268,0.0044876998989279
1700843706.721563,2.56073864648771,-0.06570875951556959,9.505297813857457,0.00022538177847881229,-0.005181849980441157,0.0112561761169131
1700843706.7315612,2.587994749950026,0.0033848380832141975,9.449591767233153,0.0019033292081918395,-0.0043447935197169375,0.0166544868378336
1700843706.7415838,2.1213280015217464,0.022618524545041187,9.62410358580492,0.0011950680373450323,-0.008155786466604267,0.0118790157838161
1700843706.7516575,2.879086306158625,0.3064396679071088,9.535458785934567,-0.0016127958153846474,-0.005223539925327806,0.0150105162291224
1700843706.761562,2.6222706752024036,0.10029561585671248,9.440299980337349,-0.0014468573956475431,-0.004309790036036991,0.0150187137304242
1700843706.771662,2.4541771603550253,-0.1030698838314986,9.582649154932517,-0.001948696756801096,-0.005613282317512088,0.0135956379352505
1700843706.7816875,2.9300312990830117,0.14048884780305726,9.44395311670549,-0.0006204233735570666,-0.0009073547177059261,0.0203745673178132
1700843706.7916102,2.1450039120686037,-0.1242506838616432,9.464794070538316,-0.0003526008121771886,-0.0030530578890012655,0.0198109402088816
1700843706.8016148,2.3894654185854254,0.1363467954374365,9.655102251119958,-0.001720694493628071,-0.007522871107421333,0.0218125181971486
1700843706.8116944,2.997953384846606,0.13376421867585828,9.484771114157848,-0.0035427565864801173,0.00016331192001885678,0.0251082862494881
1700843706.828117,2.2506541373894606,-0.09613864454985999,9.483428854469887,-0.0005027952739229467,-0.003065013908276798,0.0232672664104397
1700843706.831613,2.515275650087512,0.11944831882275868,9.551062188346894,-0.0014994211710614889,-0.002844822326781532,0.023210640135258
1700843706.843435,2.4302299360458033,0.27106036974148123,9.59489559303987,-0.002875163644567601,0.005616239147312372,0.0150067676557596
1700843706.8524015,1.3619389857069004,-0.994399075994094,9.292941292056778,-0.001159811703303251,0.01156172319648721,-0.0068522714310888
1700843706.8618588,1.9423200174757242,-0.4543737186607795,9.49641296950056,0.008884773120960358,0.012652181436606716,-0.0201698196353022
1700843706.8716338,2.498880787959883,0.6091820052805017,9.70593251011149,0.0028073873181265947,0.01688732305282909,-0.0153571673901383
1700843706.8816557,0.7867887741376179,0.17447736940464498,9.342095398787352,0.001705260958649571,0.0005384002969638706,-0.0121870915637914
1700843706.891723,1.0787626205518943,-0.41256782843550677,9.54808076136166,0.003049870029455454,-0.004900272471794471,-0.0235048745991293
1700843706.9016042,1.7585671137205703,-0.07932648827767108,10.010501605263217,0.005452438405555475,-0.014955629041821454,0.0010589320562216
1700843706.9115772,2.3933027191319525,0.4064482703802795,9.179039099235984,-0.00398146817842709,-0.022391604526165055,0.0120902229799325
1700843706.921598,-0.28001734249280846,0.4345081793424319,9.189922187181637,-0.004767068268329874,-0.06277967665786933,0.0289679570822413
1700843706.9317482,4.970828448464485,0.434600764409873,11.26308947524176,-0.008563260410425481,-0.0595244945409859,0.056641754764169
1700843706.941589,6.506202462500839,-1.309524325426043,9.025984968258866,0.004702688599256942,-0.0059271576280133,0.0655464800773556
1700843706.951623,4.4546592943825924,0.1812241354816063,7.93838097688362,0.00717446362300926,0.025406298693488493,0.0623094524024422
1700843706.9616036,2.7628340152977118,1.6278428410019774,9.77471925691024,-0.026619877165632053,0.0396622803165354,0.0543099391041691
1700843706.9716756,1.8893318489810733,-2.4047928581550573,10.019771416927025,0.0011271954767496943,0.03693716625680856,0.0356190438149865
1700843706.981593,1.595871026826673,0.14959903468659067,9.330125260665355,-0.0024450984336841955,0.033516725610506656,0.0296454532770808
1700843706.9916654,-0.12456975333973482,-0.19593401745388656,8.879361549682852,0.009581036806025185,0.004074833222787925,0.0402024361072476
1700843707.0015783,1.0696078176896147,-0.4147872801180271,10.016536920928113,0.006045844020141533,-0.008261625855820603,0.0303886282025273
1700843707.011595,1.1048267868974673,0.49222609124206,10.296863275881327,0.013791983349367357,-0.03152101640112443,0.0369388135848935
1700843707.021592,5.579392012520653,0.9342760842291408,9.26863692064353,0.0002027072010733722,0.003664134662350761,0.058723104256242
1700843707.0316029,2.0539406633261112,0.16407849639276703,9.177035176635146,-0.006791477145175337,0.012846681016913396,0.0705281096278126
1700843707.041596,2.191333667015297,-1.523599914681638,10.00859566027756,-0.005699028365479458,0.011988449674216507,0.0909080701647694
1700843707.0516124,1.6340828757767116,-3.212641449791211,9.10520833318772,0.024076339614822705,0.014997876862259367,0.1073821234284337
1700843707.0616794,1.5457832199293962,-1.9942423998313894,9.377682038520602,0.036874621964233155,0.009721482288051607,0.1148210364161427
1700843707.071762,0.6420830515930995,0.21849357294033736,9.833131221163649,0.0501789763528878,-0.023181105003194525,0.1169879185734684
1700843707.0816095,4.9684999097632145,2.777663104471349,8.32870745799654,0.017775132767822707,0.020379351176683137,0.0953374552308018
1700843707.0916345,0.28212184373372606,1.0401120043247833,10.735462783465223,0.024292394745525334,-0.007965940727179292,0.0932915779529507
1700843707.1016157,1.631865559867158,1.8055596549991226,9.992924205617598,0.01923310237443701,-0.0403185525366026,0.0768580558477337
1700843707.111629,3.733700719891999,2.439846281370858,8.812657339623,-0.001174348159887952,-0.027298609063016104,0.0764569463907177
1700843707.1216753,4.2855807237787795,1.6979734375184727,9.888152641236847,-0.017544431371442803,-0.024115673201872422,0.081186537700742
1700843707.1316185,4.05309774124445,0.9860276593756457,10.114365395189285,-0.03397755661688631,-0.0031015209416890618,0.0529912720201905
1700843707.1416962,5.377925180400343,1.544889832796459,10.480227671810606,-0.06380032413479121,0.023849691519393833,0.053276521223634
1700843707.151641,7.1611365364565165,-1.5424379600472324,7.820190439517416,-0.05626666291609597,0.11119193652611127,0.0553118633805211
1700843707.1617696,-1.71742421024906,-7.573010609787176,7.937645253038572,-0.010948810746234472,0.10127765858770693,0.0522457408486302
1700843707.1716716,-3.1812964825930337,-4.923993439897564,8.789913242402688,0.0639637367834045,0.023915860157666176,0.0575043494580681
1700843707.1816096,1.0210382500310853,1.384052541606137,10.77010214020514,0.03559342051005378,0.020807238736663736,0.0740010040579731
1700843707.1916535,-1.3450035990913465,0.6573765347776878,11.094308217728724,0.04253015095144448,-0.024676935525650808,0.0846206518588955
1700843707.2016704,0.770402831305117,-0.3697603611645156,9.158892077031224,0.05548814297137087,-0.045028393009023,0.0742617296753819
1700843707.2116215,4.252799208457278,3.690118878787553,9.044751736348159,0.038552087892263366,-0.04549449784373723,0.0724983039079602
1700843707.221656,5.069956111983943,3.0873498441644562,9.122540328473137,0.014341545932077043,-0.015843303947677474,0.0605841251789029
1700843707.2316272,0.9210030445461015,2.503051083974144,10.785465883664337,-0.019249454346099253,-0.054832743284249634,0.0371482643066342
1700843707.241707,7.028933481662791,1.1124676072221007,9.049914665199214,-0.01887705261565056,-0.027918242595884043,0.041574546205848
1700843707.2528722,4.304313539002983,2.7151099010505395,8.499700093632795,-0.046842317557054605,-0.0031446296798861378,0.0373669202207024
1700843707.261631,3.7766573182632435,3.790936989940636,10.46682491214919,-0.10188054453731667,0.008868026335697497,0.01782727714166
1700843707.2738135,6.383178106031603,0.20250199098293328,10.836092762621353,-0.11946591034155533,0.08143196689689987,0.0015416547656427
1700843707.281695,1.4771860653791584,-7.122837579050612,8.644155715475472,-0.06269058443910215,0.10881003591803909,-0.012587035004944
1700843707.29163,-7.240585928179693,-8.414768730095224,9.177204529478601,0.02439620691902876,-0.007078882242073447,-0.0306352292419974
1700843707.301646,2.2850760481284835,-0.6735284077076812,7.841260222422078,0.04732241609029219,-0.014678326535547046,-0.0244085834594075
1700843707.3116467,2.4068341625183702,1.5506833159151838,9.947763354323309,0.020065008300124743,0.012261210222572197,-0.0032319716876004
1700843707.3216536,0.6125256987164922,0.5512096610242071,10.529602258871037,0.011695902571224033,-0.008147324544461198,0.0023585786810513
1700843707.331636,1.5102526477121425,-0.5631714461272578,9.747970265174649,0.025383020283655945,-0.01788237748558441,0.0216107564745839
1700843707.3416295,3.631325112593255,1.9350371066840244,9.198069522521884,0.017661749757818368,-0.0203047586780267,0.0654227631865437
1700843707.3516457,1.2934857277561573,2.239774827855974,9.601054675421569,-0.013405097476781274,-0.038479414895865524,0.0753326984821255
1700843707.361711,3.350382194456023,-0.7390682217349491,10.382542071931226,-0.005025405225946818,-0.057270870786907055,0.0857636528788502
1700843707.3717022,5.894851394847463,-1.613894422717089,8.862294197578576,0.017297901049305207,-0.023963261074890697,0.0787926065503056
1700843707.381636,2.384310812518137,-0.19434073867907925,9.604873629265857,0.011303326074613367,-0.034538808032633796,0.0640461119590695
1700843707.391676,6.225010488094126,1.5740664274422065,9.227712601908621,0.0016809202535504866,-0.010865189277093925,0.0676100077806408
1700843707.401751,6.774864415893997,2.86494800318541,8.994904336587325,-0.038075123281823234,0.04768507980929057,0.054097500699609
1700843707.4117832,3.502163773528032,2.633187813939011,9.277388155163449,-0.07433298163699242,0.06697579963472262,0.0419168184278901
1700843707.4216766,1.7790438032919482,-2.1986044234601474,9.965337322644379,-0.05838729032224136,0.07972391200929803,0.0271355054108794
1700843707.4316473,-3.954284281922463,-7.171659522115732,9.594078580810217,0.007512910015339973,0.0339886271065034,0.010893209907263
1700843707.441769,-2.6523566647026104,-0.9376889690659489,9.28466654456365,0.03676775859107421,-0.04093246365032889,0.0036737160524721
1700843707.451662,5.671763344817104,0.6546370851091758,9.182284444650865,0.015978887364236354,0.014699297571906973,0.0181565499632056
1700843707.46166,0.2297382034391219,-0.06816894851866667,10.401120138093347,0.021463219395745196,-0.0009815286959861346,0.0179630788742001
1700843707.471852,1.6516122837784366,0.18741847839044054,9.562057286473372,0.02442307039634828,-0.016358147704954168,0.0181247359840567
1700843707.4816585,4.656041719446826,2.261438621635317,8.946225341714685,0.0004028344543662536,0.004288599086881696,0.0491861040471489
1700843707.491725,1.1297211588697587,0.2972825444281166,9.555121695573177,0.0016628720415288688,-0.0164385123215033,0.0601522709010537
1700843707.501653,1.751088830050561,-0.8254376119528662,10.351526085748283,0.008459925958623393,-0.04625166844335006,0.0446644472657139
1700843707.5116615,7.122555782827858,0.9329334440993955,9.339060058415814,0.0001327763764741663,0.010188141312922307,0.035383896040767
1700843707.5217366,4.5727936120459916,2.09396621557205,10.248735373765617,-0.033011929428547526,0.05084263812604672,0.0031545751961316
1700843707.532973,2.135366256288428,-0.7304088449842264,9.677741562508698,-0.025192564690882317,0.05893035352038955,-0.0190343567402665
1700843707.541674,2.4754417047039956,-0.32338349144108847,7.174839035358558,-0.02409818696194871,0.07888675890509168,-0.0225542661966387
1700843707.5516462,-4.599515850446886,-3.674367415123647,8.269991663415915,0.016485256226274014,0.009285441626924455,-0.0056344530777637
1700843707.5616996,-3.5318116892169793,-0.16316369444153322,10.969511553500013,0.01978195076893884,-0.08154883103261686,-0.002340747206435
1700843707.5716803,5.174479406869861,1.7574724964315773,10.688826501022827,0.005671035613084116,-0.06021785995341959,0.0028425325407083
1700843707.5817268,6.52626696015696,0.4516508436200686,9.89113020853334,-0.002593807359827657,0.005086149245233672,0.0296954243211443
1700843707.5918255,2.7437758144078463,-0.8917642581692069,10.277259775744831,0.006033075152622194,-0.009326073575783887,0.0456767725525792
1700843707.6019144,3.6002090271505685,-0.9566781749306854,8.000679232421938,0.016019680600007892,0.0008700082102387961,0.0478452230571206
1700843707.6116817,1.652975180817319,-0.5031148857810247,9.343431333421254,0.01582692569109512,-0.007901542677252646,0.0409055362223084
1700843707.6216495,4.383405135762511,1.459547797805805,10.035657682613255,-0.00016561820061439665,-0.0022371981537404437,0.0226015141932661
1700843707.6316454,8.710985790872565,3.291284380047313,9.615595228037959,-0.03366046597558543,0.07218667971962882,0.0435713539598877
1700843707.641677,-0.5163409974878975,-0.32904708236997304,9.724238172082922,-0.026116509544370364,0.049184790482132104,0.0422795424936707
1700843707.651655,-3.4217491077996685,-2.4852882832672583,8.748627311372884,0.00025462695168484967,-0.032793084361097076,0.0085655423580105
1700843707.6616366,2.882810386007284,1.4176872338840354,8.422130589172264,-0.0040335237577834,-0.03862287330868926,0.004621984506994
1700843707.671753,4.647119001184861,1.6716692007555347,10.614838821073803,-0.034839858972479515,-0.009382381299566204,0.0204737345455582
1700843707.6816502,2.371289629491892,-1.8995027624739513,11.555204746738035,-0.015016005540801692,-0.017644975079757364,0.0297601009486611
1700843707.6916502,5.212756653628313,1.1369098778526066,9.037746098211532,-0.021320901198279646,0.011542626013220033,0.0404111976502831
1700843707.701697,3.6960419861404623,1.4219839239900813,8.237186830875459,-0.0490440667964047,0.05660548928991102,0.0261915503768618
1700843707.7117589,-3.050625443157736,-6.058943451060712,8.74179133371551,-0.00799462835555507,0.02452517140599704,-0.0093130785273019
1700843707.721683,-1.6617258068640113,-5.072672262014169,9.101845745973796,0.06487191517558416,-0.02842151569605858,-0.0098079591290657
1700843707.731739,4.1241744010187436,3.6219243283402944,10.401922104693174,0.016578175647031207,-0.00035503653916006065,-0.0129102197708193
1700843707.7416494,2.2162891979073396,0.04905617530786201,10.130930366364888,0.019131161574810235,0.01797711995250728,-0.0229975217254464
1700843707.751676,-0.40626824933123934,-0.0982672374494151,9.212642565724128,0.024226078881876723,-0.004415419805064592,-0.0188277484150235
1700843707.7616775,2.095421578193602,2.212206190698198,9.672134455503182,0.006311378708503839,-0.029214574917343934,0.008204891416281
1700843707.771733,6.005266183617895,1.4941979653486854,8.878726893937309,-0.0030802160992727586,0.003825159540212465,0.0475677075563366
1700843707.7817304,1.3202211890795232,0.38506001675850926,10.810471409529903,-0.01696621109094649,-0.01755211621824258,0.0642456087051327
1700843707.7918296,3.866716500236911,-0.9682559861059538,9.872600607938672,-0.0076537060170496305,-0.03498957003416226,0.0704865279375012
1700843707.8017137,7.133717571412087,-0.9771577126573951,7.6725306511444895,0.007336771829194115,0.025894368032642612,0.0646454068599637
1700843707.81172,0.5093314820713507,1.3601977626553805,10.605493905331233,-0.024032467216971883,0.009381650558851614,0.0336843962548668
1700843707.821736,4.782049619642422,0.2187845793613007,10.399464034409627,-0.03188694316055745,0.040732203241237504,-0.0009080894989524
1700843707.831669,1.7106865120606345,-3.5369317703677035,7.726839999066226,-0.0019608338918588103,0.06261454845913075,0.0057578571839626
1700843707.8417232,-2.4175503653498907,-0.47872172701532284,9.90216284317544,0.02162667902170515,-0.005697447640461443,0.0137643246679003
1700843707.8517025,1.7512897250695894,0.460598462603363,9.44543630315167,0.005366476042067927,-0.01482051857874003,0.0086025885073836
1700843707.8617165,2.7696661622132317,-0.30019497330704065,9.166665295938135,0.01646689714336229,0.006096966543064854,0.0039249812951679
1700843707.871775,-0.6708063266311158,0.30884004549879807,10.295274094022263,0.011547626767274463,-0.032738817892652546,0.0016343616415183
1700843707.8816588,4.741194532903365,1.1981049145490241,9.701072868680779,0.0026778988909129165,-0.026320222124353903,0.0242185099749262
1700843707.8916566,4.68590887601969,0.6861785727196403,8.759573030780917,-0.005148704584753171,0.008247103903566,0.0415273095248635
1700843707.901661,0.49535017903340084,-0.5534880325638206,10.588632615254646,-0.006603549591850297,-0.028277491924587853,0.0364999892888958
1700843707.9117026,5.714062692131839,-0.42517233548181116,9.423542355033002,-0.0009002230601964452,0.008075518992919707,0.0216437606839831
1700843707.9216604,4.677404581082654,-0.17417098837380343,9.517334783514382,0.001978631205466449,0.039208846814889516,0.017029901105016
1700843707.931682,1.6791554087039224,2.029990210232365,9.761746581554235,-0.019036148718860096,0.02126629726877343,0.0054803370265658
1700843707.941657,1.7341810622770373,-0.28720144445869433,7.913155593153938,-0.018663379207942976,0.021190985926631635,0.0060696379049118
1700843707.951668,-1.460516330668174,-0.6554675924564741,9.263835770751635,-0.009744877103870618,-0.02854684992483303,0.0035735441604997
1700843707.9616606,1.8492729685643867,0.31280796231895974,10.354988111653117,-0.014152652689113978,-0.052764746608939296,0.0190144377528126
1700843707.971694,5.090199339760961,0.46369640911497945,10.64975924139457,-0.017506911825497642,-0.03054037021835096,0.0458461801289017
1700843707.9816651,5.064749714289602,-0.40104802992722094,9.769848165691073,-0.01690051318998311,0.00400287136811459,0.0545332814334328
1700843707.9917068,3.7577755744210632,-0.03947725768836301,9.218353505966366,-0.02203005872831098,0.02912600365343476,0.0482295947848256
1700843708.001691,1.024082522384208,-1.7670367134038087,8.75375468584071,-0.015027441330080956,0.03924160286882712,0.0177476621000464
1700843708.0116885,-1.2602025988841543,-4.211212197393718,8.710309118163673,0.013964833973027238,0.016932115748342115,-0.0049147330456976
1700843708.0218935,1.0395348136787328,-0.949572954723241,9.808224171906225,0.05234001769010028,0.0019245682647640024,-0.0126455947057907
1700843708.0317705,1.3281365999793566,2.86545250718184,10.049252495760744,0.009461673218688951,0.003259180595194756,-0.0254839834989611
1700843708.0416725,1.3404053624823826,0.9451618359619886,9.037795334899426,0.004506688066746362,0.0056439739642167265,-0.0228421435923878
1700843708.0518034,-1.231657742842442,0.4532971391144655,10.184921619851636,0.0015487319385580284,-0.038811835021933576,-0.0145551691995565
1700843708.06173,6.098781247750946,0.7503151839204105,10.143815703356635,-0.005505805157269139,-0.01761211886018628,0.0262358142761881
1700843708.071702,3.555868672607849,0.14855772451623742,9.12026035672021,-0.004867181074673078,-0.002656463472891575,0.0458599152742321
1700843708.0817504,2.0977665017126776,-1.6546580592050915,10.171609828305499,-0.0010293764438346587,-0.03484697069502511,0.0431170473574097
1700843708.09173,7.505003692209079,0.13539100009496702,8.316297054749317,0.004065498927105544,0.02239616647543651,0.0407023961423333
1700843708.1017575,2.6199929292016826,0.8684000232853715,9.468337662958053,-0.0159437595772032,0.0494989749325983,0.0170834875433142
1700843708.1116853,-0.3222835255116479,-2.19303969622089,10.293576242245521,-0.006606986377268285,0.012511983730932336,0.0032647390151764
1700843708.121703,2.0700013271084345,-1.032901296819166,8.347680303196542,0.019459448524374204,0.013264327778883589,0.0166861350415642
1700843708.1317503,0.214288044015638,0.42092300983279196,9.783485379322649,0.013223755933147324,-0.011676519423570238,0.0153904725565011
1700843708.1417482,1.5103830619317953,-0.14340749098544106,9.732891682795975,0.014568445037405479,-0.01656602177067797,0.0007964975491999
1700843708.1517444,2.9236634515300812,-0.008415358408421522,9.872276997147036,0.017213426621943254,-0.011424711808734032,0.0033069225727017
1700843708.161759,2.8827871671922853,1.272958371519046,9.560963104325692,0.003404528660721832,-0.01106172077494354,0.0162028456805642
1700843708.1717343,3.841060878785357,0.2741130831331412,9.35564184032979,-0.003912039518918472,-0.004827633582357036,0.0276328577427561
1700843708.1816928,2.6995594984237696,0.23962531943064586,9.441370508787863,-0.005741396632676578,-0.0011445618473391339,0.0308516370831425
1700843708.1917584,2.428515303527285,0.06276869408935803,10.008937933813291,-0.010848558216880282,-0.0016728141716018466,0.0128072389169033
1700843708.2017677,3.9029364677275966,-0.08886393095050074,9.660545926163293,-0.00407993636386231,0.007847377502676637,0.0090351477964218
1700843708.2117302,3.7565075517920876,1.1342993823691132,9.291998823992689,-0.014582049101260786,0.01914376719857094,0.0240896335570509
1700843708.2217927,0.2623359399056684,-1.4666078198790582,8.689040396666899,-0.008763926880065383,0.004344883921902679,0.0067957393592591
1700843708.2317157,0.9344927954414575,-0.7121675191642929,9.741653347156891,0.003607603074786416,-0.029309116921314597,0.0078963232925529
1700843708.2416854,4.738091027120895,1.2025596194431973,9.630531881694424,-0.011506980147640377,-0.006528480656788857,0.0244211806683238
1700843708.2517154,1.9560831924252022,0.24863741926256516,10.30526349243679,-0.016483362952786126,-0.018338486466066756,0.0433677035151417
1700843708.2617075,4.002271083628961,0.49900102853711026,9.624723062432732,-0.019215237522376034,-0.01694048632990361,0.0533291856525834
1700843708.2717705,4.595692619490355,0.7949087362166777,9.248975930613312,-0.029316863751168626,0.00852997556935471,0.0714166733203824
1700843708.2817736,2.1167196719067842,-0.9309662213850595,9.673767262475563,-0.02696196455335701,-0.0005109304457672465,0.0825278359232838
1700843708.3038292,2.8443789215051103,-0.3573705501653656,9.78661143781052,-0.01659865154038602,0.004887928500888399,0.0902222889243062
1700843708.3097425,3.085690066572265,-1.638759970471211,8.3528204409146,-0.022169796892199438,0.039202609928842676,0.0530877458630497
1700843708.3145847,-0.5521901469684765,-7.479651652492837,8.476163731980584,0.01127894258448486,0.04006736836867479,0.0187227270333464
1700843708.322709,1.7128039209133943,-1.9372821782269998,9.004433677121616,0.05601974568786747,0.04619831282061283,-0.0028532449388508
1700843708.3318005,-1.5749542389852764,2.574083549487836,9.904755849277018,0.006496045935038342,0.032582070275458404,-0.0254927472443882
1700843708.341727,-2.315787910135799,-0.37794536798554884,9.358903304236694,0.02735273674556252,-0.01259911712869371,-0.04229035500899
1700843708.351919,-0.8470130701609535,0.8681734783376535,9.277534784848145,0.02029701602566099,-0.03771593525102733,-0.0373363000573222
1700843708.3617,3.7549557384296204,1.8021773215811052,11.196194133075927,0.002978067938179582,-0.036519436590992486,-3.9624737073167134e-05
1700843708.3720825,4.9379631766061856,0.15547489659183458,9.602502949343146,0.0006298716534448319,-0.002541659653356558,0.027129647391885
1700843708.3817284,2.2496080190659495,-0.93712692732067,9.804912260028305,0.003753902508486974,-0.023016555463942854,0.0442836145637925
1700843708.391727,5.098335319601105,-0.1657519521994236,8.487449402769533,0.004634879789809163,-0.010610904298594053,0.057679102825969
1700843708.4017782,4.351087788048803,-0.9722251179160126,8.834980658004877,0.006291268439111984,0.024215714059554777,0.0313765267609055
1700843708.411739,1.575122609593106,-0.7788894604332453,10.879746599896722,0.0010251682404210443,0.007073672468923785,0.0060980781680341
1700843708.424472,4.321745088143351,-0.0615595374142304,9.221503784816857,0.008205748055217843,0.03322328295435086,0.0105300676776464
1700843708.4317482,1.1483267509519588,0.3516019183826548,9.412715406867944,0.004312663349252124,0.026861357825061324,0.0150481491117175
1700843708.4417353,0.03309923022325071,0.013014215948544346,9.691118582468269,0.010554785393038875,-0.005606218584283648,0.0142428624211247
1700843708.4517343,1.597502334651935,-0.4252227350166609,9.246863002059778,0.015913970407591464,-0.01616775020836338,0.006296553253233
1700843708.4617572,2.8993610034165487,1.2440802338543184,9.549819030227333,0.004415696820880343,-0.0048477282844032535,0.0074544349452848
1700843708.47182,3.410675668863369,0.9663223083610205,10.470838696604627,-0.010952002254595715,0.0026053822161138736,3.35299817747782e-05
1700843708.4818077,4.228105419327167,-0.21380670492805998,9.25170056247526,-0.006675391063329313,0.024084202980855406,0.0077371998457606
1700843708.491759,1.5633674000909605,0.05174175457650179,8.893756986377735,-0.002556882077187345,0.009220423896740382,0.0172446454642708
1700843708.501755,0.005974111530077421,-0.45907470534787326,9.061251512942416,-0.006345898562992413,-0.02869362665632398,0.0042071117321397
1700843708.5118296,3.2238112988645975,0.08442346261557136,9.36861276636852,-0.01044917263744338,-0.030452302391156677,0.0130743170855935
1700843708.521761,3.763326744028867,-0.8847797268816859,10.358703424205485,-0.0009775107951886387,-0.02162119162000859,0.0297878636746104
1700843708.5317097,3.6197027085991738,-0.15106986103063239,10.3755938343692,0.002162414277725823,-0.023376027849160846,0.0406413870631154
1700843708.541825,5.425490001379321,1.1433913667387043,8.780055781174816,-0.009739267656608985,0.006866379928190326,0.047892470913976
1700843708.5517752,3.3969239361111248,0.4042614046890343,9.179129655009708,-0.024473441526499676,0.017299273355646867,0.0490604686318333
1700843708.5617445,1.2528616006654507,-0.2994508854892712,9.663410666168229,-0.019004450451012227,-0.01444668331250451,0.0534495907603199
1700843708.571762,3.534893217087807,-0.5492610856790556,9.276584670206937,-0.017215755256942678,-0.00631837546286368,0.056829379010051
1700843708.581716,2.6076840786248807,-0.2532036985546617,10.342287264530968,-0.013884886977846561,-0.006873425565352666,0.0516952845035489
1700843708.59172,3.8305021830008674,0.5474227434531863,9.928915181866818,-0.02714250613407911,0.018808468917278474,0.0328081185697014
1700843708.601712,3.5244435096171767,-0.4566739700564639,8.995955990298597,-0.03584353040716435,0.06782930617267346,0.0183861992089446
1700843708.6117518,-0.5502571956585761,-3.8780353294574166,8.64405112430256,0.00865671659866253,0.06453431558210633,0.0100534167839582
1700843708.621757,-2.1369750571008326,0.5489712438620628,9.553325183740386,0.011358630364692715,0.030204327238793946,-0.0072299371705953
1700843708.6317396,-2.7671028368445008,0.3037933391898461,9.553461019708296,0.009169571012291794,-0.019428771748518557,-0.0098498202161495
1700843708.6417954,0.5791036110607544,-0.17104729028437649,9.151569662454932,0.010188249331646054,-0.028033321642201858,-0.0282818869920079
1700843708.6518686,2.15681531264551,0.4465098694490591,10.631957348319974,0.0015691991917742088,-0.0246137440864626,-0.0134316160576049
1700843708.6617477,3.906930626187697,0.08781189690886833,10.07560890576175,0.007428233145829654,-0.020728427708969623,0.0171681373147662
1700843708.6718333,3.4393434552479807,-0.4178434121484207,8.831926289618558,0.0038199749821825417,-0.0041620517687141305,0.0274566440610583
1700843708.6817172,2.4620459507057424,-0.3975431096976454,9.889477127392238,0.005108750086639769,-0.017229039581215272,0.0334427217720444
1700843708.691736,4.051643464473294,-2.5686326214256057,8.895856793935044,0.02402902112070609,0.008626484799536462,-0.0043296221876148
1700843708.7017255,3.93024126106589,1.4115758860635224,9.791594393227111,0.008364286341741503,0.026839562589644563,-0.0254913409473006
1700843708.7117844,3.622035425093826,1.0906408491520756,9.583115744592899,-0.011575570216487086,0.049635242741938077,-0.0094531764508788
1700843708.7217886,-1.3285961620208675,-1.5628784032921392,9.103933513269817,0.007893181358204434,0.009334841322149656,-0.0008350944146145
1700843708.7318103,-1.0034891776829367,-1.2677201910980311,9.146595363547979,0.029228681495878917,-0.035881541354178946,0.0021180802258099
1700843708.7417862,2.873264013451611,1.0160906780646557,9.528920701398684,0.018983279726269956,-0.03855462079262082,0.0094537530793245
1700843708.7517743,3.4331086580019825,-0.31170168443471524,10.312800966607215,0.01702321384093766,-0.020052034815945398,0.0061291987775261
1700843708.7617712,4.343153239369091,0.4913221314375868,10.604466036966443,0.011878549265453217,-0.006530983929218504,0.0073877406074102
1700843708.7719617,5.373052550828651,0.12556631145557148,8.965910538874658,0.010647881502717914,0.03012692499622655,0.0157316523371632
1700843708.7817924,1.8928371609026609,0.6827799162371178,8.680302651564526,0.002540429624664957,0.02193798711207356,0.01666979405567
1700843708.791752,0.5026359014212352,0.379694804041488,8.870620051481467,-0.004269824945975352,-0.011521611463070262,0.0247690240620072
1700843708.8018706,1.8616305357479854,-0.17183574724510134,9.739634086957336,-0.0029446713969707625,-0.03566420761136992,0.0270419447450335
1700843708.8117745,3.521646581431771,0.14947456673431705,9.812670910924849,0.00016297173589480848,-0.03399696059303846,0.0355604151962693
1700843708.8217237,4.643301326834437,0.8512792840747176,10.421710403099123,-0.011525052119125476,-0.02069644981987284,0.0468381318031247
1700843708.8317802,4.718451454209553,0.027162880856772962,9.626140130826903,-0.012330768036708073,-0.002839608653960504,0.051951521146148
1700843708.8417602,3.917874035603041,0.4614622192305774,9.11757081546475,-0.021557772625434228,0.007597140627223142,0.054918454098552
1700843708.8517368,3.2616429547283423,0.22400684956085185,9.116554001978626,-0.02667412308733902,0.007413644396134431,0.0520420717774327
1700843708.86191,2.6077349157126433,-0.13661706427268158,9.541225169385035,-0.03302252375047557,0.004362861596114486,0.0527775260387356
1700843708.8718126,2.744726822600448,-0.24136203189978583,10.098103837502208,-0.028681708133206488,0.0018083416728480088,0.043894630926698
1700843708.8817966,3.97083256177558,0.0809927299642796,10.201525884916926,-0.03791842825531319,0.03715481331426642,0.0309227659134562
1700843708.89175,1.8985031054995418,-1.1460887027399471,9.08944829224132,-0.03915414797057906,0.059596003496670394,0.0179148382274802
1700843708.90177,-0.38191003272297974,-2.723798919714262,8.89312675766232,0.0014858537979025872,0.05937626333159983,0.0040098999860133
1700843708.9118028,-2.9188537741606124,-1.6823926132866465,8.778773716633454,0.011231768456513275,0.02561953390072494,-0.0070579689228539
1700843708.921802,-1.8940430200829999,-0.19252770222494603,9.312227569717436,0.022234047775726205,-0.018063343680559257,-0.0138400382594768
1700843708.931768,0.23882958930870157,-0.2288353079723805,9.813419635852842,0.018802808616516578,-0.030349514789578525,-0.0225927447201315
1700843708.941795,2.7638954973620464,1.2933337112429184,10.525721569944027,0.0038653380690044556,-0.024603631280872177,-0.011343671870381
1700843708.95181,3.205650275110279,-0.6639281252090043,9.768792867153627,0.010219356297109428,-0.017100640408883847,0.0123652583687003
1700843708.9618,3.4149672661051023,-0.192412887408729,9.116991099099655,0.014963758433601938,-0.011135537462398556,0.0338014672277863
1700843708.9718716,3.637228075395753,0.5180025290966379,9.72744313073505,0.004387597655577202,-0.003531950936102079,0.0312271072296793
1700843708.9818337,3.542046025132427,-1.864919636276753,9.39956526890104,0.012819259971205683,0.018939029037730298,-0.0153405041666333
1700843708.9947083,2.014835008189034,-1.4941975996652448,9.22839830217806,0.03193267208099972,0.01894550029471501,-0.0358246554853026
1700843709.0019183,4.132229184724339,1.8610185773068149,9.21784226561018,0.01586003419549665,0.031411713219989555,-0.0124242901103202
1700843709.011757,0.8225234816132765,1.113585748148453,9.545792155804897,0.004259624344690628,0.019911333168902687,0.0044593746541436
1700843709.021777,-1.116721683510133,-0.4077670513440385,9.719270057696686,0.009655489250050536,-0.027407980925265377,0.0108861299930508
1700843709.0318303,1.6120409264788582,-0.13336305121484537,9.410519145694911,0.01482032103508077,-0.05264303527301651,0.0269559315173323
1700843709.041891,4.525190657439951,0.5007279819074388,9.669715739101802,0.01052942805773352,-0.03816491825581014,0.0434630858479435
1700843709.0518064,3.808172616869381,0.098267692989055,10.464841893776434,0.006508438752663723,-0.03399167619428994,0.0539934868691857
1700843709.0618274,5.161843357085819,-0.5570968044213345,9.601568763294098,0.00397975473613903,-0.0030054226307771334,0.0371638695476944
1700843709.0717957,5.771331499268895,0.3499311479324523,9.374796811248126,-0.00426361287478086,0.0461560831499672,0.0203112988500292
1700843709.081771,3.33433311548915,0.10828675032364611,9.354395216990243,-0.0014003988251376789,0.0464452254289886,0.0366530055879052
1700843709.0918071,0.5330953898707415,1.851934384217321,8.445166027729835,-0.017585948009147003,0.03138986877272947,0.0203450425295527
1700843709.101811,-2.287348902016563,-1.6750448772674762,8.752306003935184,-0.0006511734290633352,-0.022734631595483407,0.0100787310628588
1700843709.1118338,1.1399755524356436,0.82682838913424,10.223854715013866,-0.004706718639694697,-0.06555945086554527,0.0158685027389224
1700843709.1217642,5.269409458388373,1.3841538732740304,10.0100770547695,-0.01798132242496506,-0.030364046036834662,0.040346541511863
1700843709.1318483,3.595695300219923,-0.3808622175634684,11.56940720906194,-0.016365177158457977,-0.036248465600235605,0.061918162810653
1700843709.141815,6.250789587756802,0.26388268890395544,8.46741315950437,-0.018694847321049028,0.003863449479912563,0.0773717733798916
1700843709.1517956,3.503557229474854,1.2244113835926502,8.623216853351293,-0.036489880516688694,0.010672757484632077,0.0923190611182148
1700843709.1618528,1.6220601295118644,-0.32379361418074387,10.179933738286596,-0.04258932170505502,-0.01140062910540192,0.0878319713054593
1700843709.171886,4.165758668463346,-1.3202062938955814,9.815468375970704,-0.027446997297717934,0.007892493954176998,0.065929246204942
1700843709.1817524,3.3043821129494444,1.467972319165206,9.88835999257926,-0.061582502173105305,0.04624193682626839,0.0402678633807595
1700843709.19181,2.73574987159389,-3.7600612085268135,9.571860041926712,-0.03751258590657635,0.0800065604736624,0.0162036186783011
1700843709.2019196,0.29069562514472513,-3.0864694543388222,8.167293695655903,0.004163923665884098,0.09320077013471088,-0.0175721691222493
1700843709.21175,-4.550621195560565,-2.336651577932816,8.156218936517822,0.03043137344850195,0.043208561619302206,-0.0341257666470114
1700843709.2218294,-3.974454430809144,-0.40714882368175365,9.264609326815236,0.03355309508505745,-0.03298078415927767,-0.0352686894358698
1700843709.2318244,0.8010816512743227,0.4043235190507789,10.158981110847618,0.02696430560853388,-0.0312854555559989,-0.0461019118548934
1700843709.2418084,2.2268161316481985,-0.23704171031153315,11.121466247935922,0.03061254441569127,-0.028685200697314686,-0.0368490209104125
1700843709.251861,2.814739625803392,1.0565714672581272,9.668387187072833,0.024517851397961525,-0.023491746824187386,-0.0162741606356207
1700843709.2619524,4.6119789768354105,1.0602474335440446,8.953635345070673,0.00784812017900654,-0.0008176725408381748,0.0232950309990342
1700843709.2718682,2.4550970979871556,-0.9183601273801634,9.823351660800226,0.02448431332731628,-0.017444883640376278,0.0417769039748604
1700843709.281795,2.8068205481306805,-1.7680419815312691,9.534472148051043,0.028164621432238544,-0.02402111021179471,0.0313082328765089
1700843709.2918787,3.0855888151809343,-0.8833735421679404,9.110917627875839,0.0422452207923246,-0.025579354328931447,0.0206333762733633
1700843709.301862,6.2051430789135065,1.9137274014775956,9.237853403800518,0.013233102977269777,0.00997386385023431,0.0137940692482884
1700843709.3119678,4.101431755606704,1.5827356549905538,9.415213077958276,-0.010254304346975647,0.03685136869643499,0.0216038721381123
1700843709.321795,-0.21525202363540166,-0.6279572324916698,10.244229271482311,-0.0010101522116317718,0.0035884307510866353,0.0174334189622099
1700843709.3317804,0.8556420186862447,-0.4028170174667339,9.596881529433604,0.011691748264111729,-0.027572193768806614,0.002883045771196
1700843709.3418372,4.273132443788408,1.0387158457865515,8.334395261675866,-0.0023736588673625913,0.004333728733447515,0.0101676416350896
1700843709.351801,1.3295301632207206,-0.23767888715554136,10.594612340777442,0.0037543248444231194,-0.02318493485902294,0.0174845429836209
1700843709.3618205,2.998038276708574,-0.2371632202748919,9.324010647479763,-0.005891325553188896,-0.011865699410318734,0.0063256654655929
1700843709.3719196,2.981947877650796,0.10469213289370631,9.662024116320737,-0.0011512184463673336,-0.013028564138365091,0.0190549856750662
1700843709.3819082,3.201717138546784,0.5164037008331843,9.25906954966057,-0.013993875062927067,-0.008254386777255398,0.0353794480441506
1700843709.4028895,2.22384813459835,-0.38128754778141666,9.311325987448988,-0.009526394920194416,-0.02063549504168318,0.0641328665195401
1700843709.4048553,1.07949571131499,1.6712646009441314,11.475211056135851,-0.010782991877955133,-0.033372280807823285,0.0792400660692151
1700843709.4118073,3.7221876337420783,-0.7262120415728582,9.848238362411472,-0.0012654653816743776,-0.03306871144811185,0.0945659103570874
1700843709.421866,4.671157991122129,0.7302556150906963,9.595819447317822,-0.011210442651575158,-0.016605414341661965,0.1026410433231289
1700843709.431841,4.707086910102043,0.18839220845927523,9.582176172685601,-0.024184463731167227,0.00482413047002217,0.0948811071692402
1700843709.4418423,3.907219118533071,0.24351647086755523,9.00053184862354,-0.027108172860876866,0.019134379755437348,0.0909454646287854
1700843709.451853,2.71733799376237,0.4183124186552315,9.842024563156851,-0.041838635079705505,0.02101947725624769,0.0793018686352665
1700843709.4621973,3.1238201108202355,0.39067512659009296,9.68861295539251,-0.05106909022806433,0.03707527699754434,0.0658023032127316
1700843709.471863,3.2075072736671166,-0.43470592589731993,10.49421741630644,-0.05361830802622941,0.07138875153415604,0.0524904104648526
1700843709.481893,0.3944816392928159,-3.2330902001698383,8.921029588164568,-0.019344185582139198,0.07674135448562767,0.0216159420786793
1700843709.491833,-3.3675511706624857,-4.162236768480207,6.770163303095455,0.020156466857810036,0.04985730954405326,-0.0028428918914501
1700843709.5018,-3.704938251623655,-1.3046360257723957,9.533645126794633,0.045755667800065465,-0.012162983949879061,-0.0156972174765173
1700843709.5118551,-0.7553684986875236,1.2635545571317586,10.669468021511364,0.026790607341783287,-0.039324788943224456,-0.0222392966271941
1700843709.5221252,3.1041385152248346,0.1750915019144376,10.509977030159721,0.01962658009337035,-0.023992839288437158,-0.0284447529585663
1700843709.53192,3.1376626118661965,1.4746771834517567,9.193439454594143,0.011956410718725016,-0.010075349244139024,-0.0165334631921355
1700843709.5418682,3.607294383652078,0.532218927430636,9.356877329102621,0.002843433229060825,0.0022336928265830587,0.0194360567955668
1700843709.5517857,1.1906028426445994,0.032789893971491575,9.830537389877094,0.0048290258905957515,-0.026154666377926173,0.0419262769399579
1700843709.561834,3.430307248885983,-0.8445795642093703,9.846368647369294,0.01365782751297832,-0.03021104450069238,0.024821532028764
1700843709.571937,5.336416683150876,-1.6213662050542537,9.064567184083504,0.015048693901383244,0.01386591693014126,-0.0065249623031918
1700843709.581899,2.2971928749977737,-1.8780778326386263,9.349972834667316,0.024735242112223492,0.020202930584196734,-0.0190816362620894
1700843709.591889,3.7388368116734445,1.4372870411939362,9.334214319874498,0.022895808674998453,0.023226162693080588,-0.009928923030347
1700843709.6020164,2.028356663584776,1.792993649273,8.721714539450716,-0.007773629931097027,0.04391561719509348,0.0026400101604308
1700843709.6119127,-2.6964273856551157,-0.7278357325683701,10.650446414540413,-0.00035460536368316786,-0.027441261291799687,0.0183559666155274
1700843709.621842,0.9807006150357246,-1.1974079564569613,9.349596637412143,0.02623996451587713,-0.061705164776488935,0.0283672912745173
1700843709.6318145,3.951350694738273,0.9629103842843706,9.367297488913957,0.010785917151561204,-0.04169825856574905,0.0334102707682545
1700843709.6418402,4.160074119083569,-0.22000378492039163,10.214215144684447,0.004828522810301113,-0.02416175155357622,0.0236346023856099
1700843709.6518197,5.16915336483682,-1.8117544310958458,9.911566405243725,0.013587488979375542,0.0025781810028402503,0.0303342110244925
1700843709.661876,2.8839008975663387,0.6193047398995963,9.00851846017079,0.02569531398257611,0.002190866527200735,0.0379149625776703
1700843709.671887,2.692253744255431,1.7116945765110152,8.688169777672282,-0.011036658046703555,0.005576188314474387,0.0201775199501212
1700843709.6818137,1.5244205360040957,0.11659290400270997,9.157939779515464,-0.008855063706763054,-0.0063867998983169584,0.0304534426657851
1700843709.6918595,0.08616826859597632,-0.5525473292471655,10.495844636268233,-0.0031434701190073276,-0.04891236862039973,0.0490063587902482
1700843709.701822,2.3273965096387665,-0.0378670933150935,10.117641836730622,0.005748316379075719,-0.07095416501500464,0.0656857463298733
1700843709.7118332,7.353857494814878,1.537574441618605,9.458056776825277,-0.016383528365176276,-0.022750913745756052,0.0814966159640248
1700843709.7219014,5.098195670888033,-0.5485727492301213,9.62147639192323,-0.015991446411597113,0.014173630153995224,0.0893150540767605
1700843709.731804,3.304863126291259,0.9149485372278279,10.148667163274169,-0.0333838046116625,0.009406561906173538,0.0805488872109349
1700843709.7418158,5.333055791561748,0.276166698512759,8.616396602712403,-0.04166398430802636,0.05125944907440946,0.0805190923391278
1700843709.7519789,0.2911004361991442,-0.09631654184932825,9.544178711266849,-0.049045034497133426,0.03802555549492503,0.0640751543222363
1700843709.7618802,1.0596055508588127,-1.7826864747734952,10.18948419483059,-0.04370119846461185,0.03793827122241937,0.0406465316890175
1700843709.7719631,1.658216470236418,-4.0384812460091855,8.820947080406231,0.004589879152694658,0.06574765419234316,0.0171951177297528
1700843709.7818136,-2.3553160991940763,-1.8370167475553465,8.057041618646151,0.026853211677221676,0.040382170649585304,-0.0248843030305211
1700843709.7918158,-2.964397658792359,-0.5109590436596312,9.349897899106736,0.028051399211564743,-0.008777297582347467,-0.0280949835897986
1700843709.8018968,0.21337947131522242,-0.26254679712055057,10.407843220015293,0.03413267405459244,-0.030938120268982135,-0.0281925023765866
1700843709.8118806,3.1076289255838803,0.22579915502452053,10.275408855711945,0.023783136715437254,-0.004580473459584985,-0.0438497242750231
1700843709.821919,2.8604682020391485,1.8277833731978044,9.514162427646346,0.008796205508470652,0.008703725525134301,-0.0209046443225447
1700843709.83189,1.8051261618801766,-0.29760238005014333,9.499197265759703,0.005543573603492541,0.0014788721253146397,0.0140496101929243
1700843709.8418024,1.3726632308815143,-1.0254430912736041,9.548609876218086,0.02491378762313124,-0.027452269527907306,0.045088236290067
1700843709.8518498,3.2221190257461827,-1.0466517505216628,9.296343091207616,0.030398462244754232,-0.021321663938919922,0.0427105921088154
1700843709.8618937,2.618595178711672,-3.32940602005576,9.239448708218843,0.055376967038318736,-0.017565523421358028,0.0156127187190945
1700843709.871867,4.900164726156906,0.9821139158692271,10.298575691195191,0.04514791448080677,0.005440666989225013,-0.0020342121598873
1700843709.8819106,5.13109761122981,1.2469226404464027,9.006033537184639,0.019721212959038243,0.04505438473950155,0.0049930304056401
1700843709.8919451,1.5081428788948998,0.33969703618079083,8.78446514432568,0.018831530100398224,0.047053287471133035,0.0101665473310645
1700843709.9019177,-2.05072486183098,0.32110121965426175,10.196784757247137,0.0165428342820204,-0.01527052913503526,0.0217042314587529
1700843709.911888,0.7998357939666615,-0.8676491902443059,9.355092588670407,0.029016792641380282,-0.04713876942669847,0.0334166521905358
1700843709.9218931,3.685064855074905,-1.0133843867994747,9.351972053387772,0.040525888603444776,-0.04562640141025848,0.0387848513899739
1700843709.931853,4.767306442652956,1.7162471553070824,10.208651612565028,0.02663203380683744,-0.034749354291813854,0.042075933027118
1700843709.9418504,4.907972965612905,0.8398094976564634,9.816549156823452,0.004049149437184627,-0.012654516291593837,0.0336529361782963
1700843709.9518547,4.603787530471336,0.6929622583706081,8.75369481733563,0.002169783274569047,-0.00017714512958077252,0.0291339169023926
1700843709.9618475,3.4796006226934555,1.8362539747847426,8.796807228016576,-0.023506153991189275,0.009900013061987744,0.0462346534012253
1700843709.9719355,-0.4355019480400905,0.38117257587537634,10.128075754983907,-0.02451029481110255,-0.04555435178659453,0.0555721978424485
1700843709.981855,3.2897428221293583,-0.560666744812625,9.514861157955663,-0.019692642064534888,-0.05722312168378815,0.0636418434558804
1700843709.9918635,5.317684625511345,0.3174349251423995,10.081259715039527,-0.019721039561967788,-0.03631226265109864,0.0786411064444478
1700843710.0018995,5.020846561808789,0.5034238235599752,10.142501955232973,-0.0312960361047155,-0.011077535443712682,0.0747729140101368
1700843710.0118897,4.947784310990181,0.4818269337337743,9.560157986127571,-0.04082071188340111,0.01726079988197806,0.0746105956612523
1700843710.02186,3.9475219025615846,1.0017470314540355,9.47439538423783,-0.06025015417778114,0.03719867522764549,0.0579917329131062
1700843710.0318842,2.9169204874940484,-0.19245203565047833,9.446102695688712,-0.07572726378069848,0.06243153036659736,0.0486022728262837
1700843710.041931,0.8488866245830886,-1.907940013602251,9.856542650194674,-0.06278725785434847,0.06749743051876875,0.0450655306456978
1700843710.051864,1.2705993114054306,-4.172179272417993,9.702039572330783,-0.012558439477057001,0.08221642419330245,0.0243767826585467
1700843710.0618982,-2.2758334856792124,-0.4540621455125997,8.308955978189855,0.004486065958595137,0.051206523403861524,0.0059253858169908
1700843710.0719707,-3.975042059229368,-1.284396602943866,7.719069668571248,0.016607675430386167,0.0020486711318767267,-0.0304340169997517
1700843710.0818758,-3.1077774238565876,-0.022503767957903237,9.54128072400158,0.015046567835035114,-0.05532851449243437,-0.0534635548712317
1700843710.0919278,4.018785056305642,0.9160297424442686,11.666003253358959,0.0021574470152205065,-0.048186764861344974,-0.0339243774534766
1700843710.1020062,4.936084535412661,0.3619003877358149,9.868056774609153,0.0007416996895856995,-0.008903639231415421,-0.006823887047321
1700843710.1193097,2.4307158745888553,-0.06612167245852586,9.440315370751684,-0.0023329679646253427,-0.015943085392158413,-0.0014594421255965
1700843710.121997,6.022353719917297,-4.020672122894632,5.740479687781073,0.0017692062341826997,0.014062288309589617,-0.0257521783234183
1700843710.1342142,1.0986009323530805,-1.5072994829150124,10.122491400403357,0.017065921058816488,0.002927173565688042,-0.0463435937882964
1700843710.1421409,4.1294187112291265,-2.7544137765518024,10.328505160083871,0.02920714193004574,0.019547634084960342,-0.0475289476336543
1700843710.151852,2.4535509510085447,-0.21656022430335198,8.491514526773635,0.04353212040788985,0.02568271112910422,-0.0264680766732995
1700843710.162032,0.729472817268196,0.48485763691674805,8.936239569012127,0.034099937561182646,0.02049334367566832,-0.0189957645954196
1700843710.1719532,-1.4033919969814714,1.6697150696237457,9.945948117421745,0.012016274313433859,-0.030447362646784926,0.0083260471700127
1700843710.1818807,3.09536972641035,-0.2657060907176612,10.042337751283009,0.011786042569301818,-0.042572261169912924,0.0318410481093819
1700843710.1919434,3.5916493782871854,-0.9842366440968442,9.360991444243831,0.028079296335425982,-0.025030110903489864,0.0597380744992192
1700843710.2019112,1.0643570628526449,-1.3646717473624153,10.306663512679235,0.03995218914531877,-0.05506650461579454,0.0657032477436955
1700843710.2118802,6.222302205019999,0.11498403010256981,9.554608960513795,0.03140972016351514,-0.020592431954239362,0.0402460667072232
1700843710.2221546,5.290084503846202,-2.0664165927180203,8.621519425908916,0.04821197616132529,0.018364089007653316,0.0475338297663624
1700843710.232015,1.2337457920906634,2.0658612712311357,9.835606978360085,0.0344375212585514,-0.008192935325270627,0.0262894416926796
1700843710.241993,3.6919440075745458,1.5896389721923259,9.043119613419757,0.011370807822845616,-0.007505723315635845,0.0167046534596379
1700843710.251917,3.1818566858242594,3.5753618007509598,8.871670672082335,-0.022033564214569368,-0.005273256191469977,0.038487003254741
1700843710.2619455,1.348115239792518,1.6574111132902154,10.178306670130784,-0.0431153121206496,-0.03600052538249973,0.0453821505187447
1700843710.271958,3.5250470498873323,-0.5432210963026324,10.254977604853755,-0.026231316317204854,-0.04668758966227572,0.0589779029367859
1700843710.2819357,5.185568598670256,1.2574898352458865,10.145126887843045,-0.04199503032945063,-0.028073538650896297,0.0743555473862584
1700843710.2920756,5.285815286584124,0.04591703910958174,10.110566139723552,-0.05171674339995349,-0.00493614496369771,0.070511189359277
1700843710.3019924,6.468598301404216,-0.5665856315802882,8.796504206496609,-0.04979127759887377,0.0423877976737005,0.0588306124089653
1700843710.3118892,4.135875280297544,1.4824973617430701,9.500577623066512,-0.08219185080791466,0.07698472484167714,0.0288711293368037
1700843710.321858,1.4440987998714079,-2.7816260992969406,9.09617171228294,-0.07308075561828639,0.08682320344415598,0.0243346105097229
1700843710.3319194,2.2045480106483164,-1.9336379134784798,11.160053769045378,-0.044133516833532525,0.10473221103681983,0.0124302088050539
1700843710.3418846,-1.9299878970671858,-1.501317025437066,8.817961586608737,-0.016795143523304717,0.06583691500546146,0.0015134028625111
1700843710.351862,-2.7613918762999843,-1.9105321749800013,6.607746050092667,0.004424893719861425,0.0430259012300835,-0.0236151487798993
1700843710.361868,-6.774950412238373,-1.4017112773985332,8.930781212186158,0.013072506275260286,-0.051306476532422714,-0.0457875234307353
1700843710.3718967,0.948017422221151,0.7962448777746478,11.260984824319253,0.007256193093066979,-0.08825446876448119,-0.0306841683806483
1700843710.3819506,6.777443169186763,0.06467828887893345,11.139648088328947,-0.0009605934885808898,-0.032415939195976004,-0.0025957901263241
1700843710.3919065,4.629583993779199,-0.031540356384939905,9.667511109532871,0.004651181282125396,-0.00959102687371019,0.0159708196996148
1700843710.401925,4.719966449792828,0.6280410948072809,8.658921220622926,-0.012341640135224843,0.016402823751368954,0.0263671046821768
1700843710.4118707,2.625759446941317,-1.4540632189447122,8.976159736202387,-0.005506802717780507,0.03805913158499341,-0.0046912249410156
1700843710.4218693,-1.5079657957753272,-4.460361457087303,8.925326332036066,0.03064138882487608,0.0016915131022776954,-0.0512897846521441
1700843710.4318907,3.328728081936729,-2.070512627234361,9.239785307700423,0.0387612791343922,0.028424115385509364,-0.0500479144276682
1700843710.4418836,-0.5532124641798206,0.21355046974828065,10.139239010182253,0.05469380579602561,-0.003948569395042283,-0.0245795109541718
1700843710.4519455,3.004049327737054,2.2789788146452463,10.052114923484217,0.014221897225861847,0.006204463616205465,-0.0110289332689349
1700843710.4619768,0.6588607966130138,0.21490795639626134,8.946223280117854,0.012058263683960154,0.005441370341392495,0.0036500038812305
1700843710.4719007,-0.5261114510077347,-1.2365740502459321,10.35446679328638,0.031838878697284086,-0.03935752829948732,0.0182333449600632
1700843710.481911,4.7093102502188975,0.6301314537951213,9.542780735948115,0.028441771435871576,-0.02316138884391536,0.0527604493080075
1700843710.4918644,2.9962682177020703,1.055794245916217,9.752297247276678,0.020015804815647076,-0.03131514965698739,0.0639755698619778
1700843710.5019066,4.024686751495007,-0.8764709949040406,9.99346210309548,0.01710931976025971,-0.027607256726244714,0.0509498613654072
1700843710.5118935,5.303138646856815,-1.2111212246645158,8.684216368740131,0.026314036191101866,0.00011569334562496596,0.0396303022979195
1700843710.5218968,3.8435751831426255,0.6891306949139442,8.662493458369687,0.02314004003650578,0.006580644278235129,0.0361441309331353
1700843710.5318873,3.38170143909502,2.1664581791640707,9.943246966262619,-0.00932292994287936,0.0015260167369717322,0.0298208064167197
1700843710.5419211,2.8400306591348206,1.5076013854398218,8.806124521151489,-0.023440587176639577,0.004343836819379712,0.0327389809070523
1700843710.5519369,0.7741284940131857,-0.21878341160539383,10.182484268484119,-0.020601736960032875,-0.030124507510922185,0.032127802330106
1700843710.5618997,3.7803623497359085,0.6118901967587959,10.05511842855619,-0.019691788185532258,-0.030144468927000973,0.0416400479851658
1700843710.572012,5.263499044946071,0.05404034884246804,9.722277730532724,-0.03402107071639346,0.0007270291661168477,0.0540917749284203
1700843710.5820158,3.6413474622209865,-1.0661701799214203,10.079100996954534,-0.031646935538405786,0.00906726055546849,0.0692915367661412
1700843710.5920062,3.7675103845687006,-1.0594813991883136,9.08625516735022,-0.021742217222314706,0.024400699053695504,0.0708294185577328
1700843710.6019156,1.9917193726577098,0.2722902668119242,9.321451334511272,-0.043830536931671375,0.03376932085792646,0.0499448190210755
1700843710.6119146,4.197810905827561,-0.6580701106897026,10.590539784514544,-0.041541180109433536,0.06810439629141014,0.0450076470850403
1700843710.622017,1.6090557359414654,-1.7299936458242604,9.302771790132011,-0.012555112463775376,0.08876079813165462,0.0307851052610571
1700843710.631965,-1.688791891465253,-0.0778148104488264,9.108951729866344,-0.013033810311409225,0.045205809102835455,0.0324253934203083
1700843710.6419458,-2.7967461654606347,-2.029846743734032,6.938379608403366,0.015020742103134012,0.015274992078883012,0.0050122384680803
1700843710.6519408,-3.2826983309538296,-0.29482575858601595,10.249301625694953,0.017305957535986186,-0.05505427497690895,-0.0112714897142354
1700843710.6619709,3.327208220850742,1.7661404941148555,10.705176580682132,-0.0018716895052476369,-0.057172708469454964,0.0008682354644774
1700843710.6720915,6.453626509527624,-0.05267210091036017,10.37878075234731,-0.006106008558471841,-0.007786874975586105,0.0094197914703186
1700843710.681909,3.0147248018641624,-0.04052696910454566,9.489802118105633,-0.008727111281208778,-0.001076949028298913,0.020664450782388
1700843710.6919506,3.6825708344926436,-0.43391559070047797,9.076115071351115,-0.01463929642027766,0.005751124440563086,0.0290676179109509
1700843710.7020438,2.687063632200631,-0.5656084952420747,9.39256363524456,-0.005519744221382683,0.012029198306570425,0.0074929558439548
1700843710.7119572,2.20194319684816,-2.299126434986019,9.468543253995277,0.005359629007122501,0.02095979669062782,-0.0211925682844225
1700843710.7219603,0.44762557104245054,-3.0644596752043283,8.177649019259132,0.03838320065623848,0.01953578593427488,-0.0438806032063071
1700843710.7319255,-0.2064483535400585,0.911872885814577,10.004605125448201,0.0251732031756415,-0.005456647106079899,-0.0411481400252883
1700843710.7428784,2.2729604673791193,0.05342836639003695,10.331921390191663,0.01025996358794679,-0.006131702762525931,-0.0070170955033604
1700843710.7519238,1.960441812641422,0.26968174226431596,9.492042304234348,0.013853243117968955,0.0014082296097584009,0.0047257957747574
1700843710.761947,0.10277890229959782,-0.5780360795480401,9.433050307881825,0.026383188578212906,-0.022981542878874887,0.0134742838098104
1700843710.772015,3.776285360981168,1.5823363862546616,9.67152875855963,0.002731599176767424,-0.019035157895511624,0.0363303246675427
1700843710.7819622,3.056311764851348,-0.8798852353268507,9.437033451176246,0.015606065309316257,-0.013857741352171271,0.0460994663415844
1700843710.7920043,2.8488789814099134,0.15093275959756414,10.396199355184374,0.005217350886932572,-0.03590799502687517,0.0449070605216916
1700843710.8019843,5.552627796642977,-0.7088787782637698,8.679600092797275,0.011023645349339434,-0.004393514043202684,0.0297146077035363
1700843710.8121426,5.145684335791453,1.043115348867697,8.916268568714328,-0.0065024111303157075,0.027668001624876704,0.0214654310373957
1700843710.8219235,1.5121864809542884,0.9151926476609821,10.458901234956206,-0.015580300059834405,0.007844405868738302,0.028410037118047
1700843710.831979,2.7200770371011145,0.7002135619815113,9.447777843919024,-0.028889665875350884,0.006344718619909439,0.0291412929771836
1700843710.8419187,1.7042464667499158,-0.7978150255724744,9.191702614015956,-0.019691568691415105,-0.004060602792040791,0.0427974099992211
1700843710.85191,2.06836461317962,-0.7236144421543784,9.798290060520245,-0.015571662988828323,-0.019174573300217584,0.0522829863010342
1700843710.861956,2.957314749872469,-0.6100607685839536,9.713230276001697,-0.012393677921346892,-0.013377647152949835,0.0529253716348107
1700843710.8720343,3.390564048311285,-0.10272166619459719,9.74810282359545,-0.015391186936774544,-0.006429317216877,0.0581540028332169
1700843710.881917,3.7068912218193475,-1.089433650898182,9.317753265760935,-0.01810154003089694,0.02883408170387185,0.0376804965315754
1700843710.8919735,0.7356970199836051,-2.4936822941749157,9.219630467060181,-0.0013055253273424271,0.03455004965745716,0.0230592238484318
1700843710.9021306,3.0098542925912244,1.8800760524186306,10.667252902811693,-0.0038743567352546512,0.04120841065348929,0.0172914928524191
1700843710.911982,2.0830262159916115,1.3292825029362654,9.38456342229645,-0.030429630200115326,0.04990076865637518,0.029341691243499
1700843710.9220204,-1.6794540689736086,-3.4993552570629465,7.392636694703905,0.008848512124224467,0.024918049825401994,0.0070512416540081
1700843710.93193,-4.129398903664347,-1.3787149417107192,9.488690408223011,0.03140752210924663,-0.05844675512383398,-0.0153017276199166
1700843710.941991,5.652231499327624,2.6994204414791687,10.629358911553057,-0.0008161124779742595,-0.039849021721000744,0.0030594743555779
1700843710.9519658,4.960646839752366,0.7041830999404339,10.077573792828199,-0.011068789044134568,-0.005164881450905616,0.0213737386046345
1700843710.9619603,2.4495630403916953,-0.4656760008204957,10.080187083691298,-0.01176208080548731,-0.018024174920528633,0.0209960016189511
1700843710.9719963,4.8104845624807435,-0.24633696672660008,8.789242066008471,-0.013209670953837769,0.0002563960572982861,0.0347067202208931
1700843710.982,3.350208136803584,1.343378064718216,9.335441950581462,-0.02693849504642045,0.016268387719205673,0.0343266251264508
1700843710.99201,2.2995378430812723,-2.013548123189974,10.845959316539313,-0.022664250379411218,0.0038915485903535203,0.0275491132168467
1700843711.0019307,4.417013294569526,-1.5830991065014735,8.13184123745809,-0.000486709341754856,0.0446618904094724,0.020364680397361
1700843711.0119252,-1.6996561293931463,-3.290862514848514,8.849994008061314,0.01889944403668928,0.018964051183173163,-0.0049959192284945
1700843711.0219164,0.3693368274161536,-0.9689070876569919,9.089731567713828,0.03820097095140421,-0.0058546951943782,-0.023846405488402
1700843711.0319517,1.5266901025374329,-0.7996959158547488,9.306558089729336,0.027924132326482755,0.015712243152422953,-0.0353501876117293
1700843711.0419562,-0.8667568673567234,0.9739124300235313,10.978698417244598,0.022854125584164997,-0.02981268598174458,-0.0178643119753901
1700843711.0519636,3.1372737273140827,0.402806638802514,9.363706000892865,0.0197343673675426,-0.019677479484466756,0.0076000076486165
1700843711.061931,2.9604275516911276,0.8975012857281147,9.586621976474886,0.012453937842573622,-0.014175152831957761,0.0209525330691035
1700843711.0719616,3.7556505836484706,0.9999834582770714,9.575327253880872,-0.0033566679790065527,-0.004002952488061882,0.0278759515611823
1700843711.0819485,3.6881651979360726,-1.2662938538865802,10.135674058338891,0.008938173997558637,-0.003406190056899601,0.0425040135858948
1700843711.0920005,2.833295177426218,-0.9926581655214931,9.307502429824718,0.010874262531213146,0.0007234481553259101,0.0360266725300248
1700843711.101981,3.527697183835963,0.8647054985819618,9.243988002283103,0.0005244047980821647,-0.001493620011775639,0.0349747064290936
1700843711.1119998,5.777194987673653,1.785139248743613,9.291106423838523,-0.027294188446616807,0.03623150222913168,0.044081044453233
1700843711.121919,0.708273153078793,-0.3260442336497475,9.972971051502888,-0.02502723197993299,0.017991233383185007,0.0510996925412114
1700843711.1321442,0.15834900266628205,-1.3898262123966614,9.358973295390252,-0.016693704473096666,-0.021676997194817624,0.0606349120615418
1700843711.1419315,2.8691723364682367,-0.8348548542783333,8.912133654624832,-0.000778078854829217,-0.019025054908242293,0.0618344667135174
1700843711.1519513,2.4568359485203413,-0.8121161452567385,10.034168476189926,-0.0040259061954530575,-0.007227211178065935,0.0490962537704403
1700843711.1619968,2.300503199103057,-2.138368435031988,9.887990216704617,0.012424154398524253,0.009595683271031488,0.0289908750681574
1700843711.172008,2.334211736582307,-2.563492752119256,8.820122941063724,0.04317028106985415,0.02499159245011281,0.0018605746562029
1700843711.1820078,3.8915085719251907,5.94251921639976,10.899023365049505,-0.014812182378212255,0.04782639337184041,-0.0031432350398604
1700843711.2172322,0.6244318860162936,-1.1519929577024133,8.626319602599747,-0.021781811007843224,0.05230380501233248,0.0124467677204306
1700843711.2182655,-29.76354070058397,-15.75219921639746,18.18441229990377,0.00716122366351704,-0.009936695487818363,0.0053459285525973
1700843711.221032,-7.005646627260573,0.013768551714222421,13.373065502369496,0.011848326875162005,-0.06477590387967021,0.0103613073705132
1700843711.223259,12.206414165755573,7.006632993165987,8.407290147730421,-0.012553548752781968,-0.030926649189012428,0.0261618747143443
1700843711.231948,4.48849575119548,-0.5074334918571667,11.299160065760121,-0.01875361507223666,-0.013898167178052577,0.0290506045101578
1700843711.241964,5.383602304473564,-0.6648571826820355,9.368514114523638,-0.010614466037353457,0.008658312088532445,0.0386979478178914
1700843711.252837,5.325176340855803,0.12254527125350789,8.351359480764907,-0.01801351590638964,0.04666882169707896,0.0446727546630795
1700843711.2620478,0.9780715893659999,-0.6291830786052768,9.189512655631987,-0.020237314440048393,0.0254331150992484,0.0438850941835339
1700843711.2719755,2.303525702674317,-0.2753345552745973,9.504897985654262,-0.02444543068157926,0.015047568275191629,0.0566846365807946
1700843711.2819636,0.3597256277099879,-1.2655510649888941,9.73043000644532,-0.01235794430032578,-0.012915568568762635,0.0671656551538403
1700843711.292338,2.36299063477076,-1.4983106035198588,9.686423381423218,0.003867273291962313,-0.03194931142317215,0.0775191756664212
1700843711.3019683,5.392578811108288,0.033571595450535036,9.106508679844636,0.0040921485486027556,0.007896596303042023,0.0770236822544034
1700843711.3119588,1.7035030976410572,-0.49439089061376035,10.045215051368269,0.0034154299262619857,0.006435830881502651,0.0662939521251614
1700843711.3219566,2.4711168376755905,-0.610048967119012,9.453284472517982,0.003474138259661349,0.0037709422939699033,0.0471644150792057
1700843711.3319526,2.3951077726557655,-0.3541364594055294,8.767582727511058,0.006710346508192088,0.0253913515972345,0.0304297796218092
1700843711.3419473,-0.08512112180354546,-1.020544275596079,9.750249433347545,0.0059451329971428706,0.010738863607388353,0.0146772620035703
1700843711.3519711,0.24420997473114664,-1.9061602886348883,9.218019968723802,0.03860884112488805,0.0014229468677044521,-0.0010944360866774
1700843711.362082,1.85683564829888,2.7563608883607875,10.152619045784618,0.0030421043395055048,4.6991138654336816e-05,8.00123787853281e-05
1700843711.3721027,2.0433379137363965,-0.033676411068288004,9.405603485077258,-0.0036666472287958767,0.007556171725422141,0.020587639021724
1700843711.3819687,0.41706675012245503,-2.525541225658575,9.67120359921146,0.022873820534567466,-0.01271777205932587,0.0141914571402962
1700843711.3923535,2.2674947950497453,0.40614918581590026,9.488899325867948,0.018799089542898984,-0.020759378912148456,0.0225341795711215
1700843711.4026086,3.7301260878639018,1.6828722956164606,9.335210151688054,-0.006519755464886114,-0.01081994410458395,0.0411559688626225
1700843711.41197,2.685885576827277,-0.770769508928209,9.731321783952875,-0.007005496507475483,-0.009601014575396633,0.0516290600179131
1700843711.4255214,3.518153504414549,-0.8176809367178266,10.325166096727925,-0.005960252199046571,0.001619312749979,0.0786306085763867
1700843711.4319406,4.542727834251983,-0.737056133662685,9.659752397489026,-0.008391373053150632,0.030096863535210478,0.0979436683236058
1700843711.4419467,1.2379888790658973,-5.054530023887294,9.089596292501696,0.037776231106843534,0.03518578474687478,0.072722946363538
1700843711.4519808,1.5316358926646383,-4.678718639483128,8.694529475913527,0.09835983506378781,0.0403039393127581,0.025636269780844
1700843711.4620197,2.4721003403847464,2.2642548197918706,9.665186209569649,0.07340203545400144,0.05759817194250718,-0.0018567616818104
1700843711.4720223,0.8494132545686284,2.600021477006874,9.253667208157378,0.04273935168374253,0.04987693096912331,-0.0040330592775349
1700843711.4820073,-2.694868100517732,0.9085637237844867,8.643031242680259,0.03230397348051766,0.011279688310761826,-0.0034473123261336
1700843711.4921334,-2.445975384388614,2.6177002476825186,10.462364793863038,0.02335539614408213,-0.07935706190421216,0.0121405693469937
1700843711.5020278,7.0212276643900005,3.654504878838512,8.677573684173757,-0.01940910167807655,-0.029556997347377975,0.0382739315508301
1700843711.51203,3.0766397354494175,1.393207444341409,10.764260505674162,-0.036583607499001726,-0.017902647311336294,0.0541478368221219
1700843711.5219564,2.6397805534781194,-1.7783006791594227,11.852327691958262,-0.024663959786605003,-0.039057572573687964,0.0315566650359328
1700843711.5320504,7.801249690810969,-0.559072776519767,9.65232864849344,-0.03282306525452511,0.024392813012430837,0.0175159006147082
1700843711.5420115,4.007241738546946,-1.1312838556147509,9.061911191202936,-0.0325162544589855,0.04840484672294568,0.0404235320864613
1700843711.551968,0.5806300773582721,-4.058461097066329,8.634135896649871,0.005106949319807162,0.01139536370455751,0.0586845549522336
1700843711.5619814,3.8613299007040056,0.2791683816941156,7.30038802262692,0.0047202684179119495,0.015065392951975039,0.0859726193128521
1700843711.5720522,1.9035412331651014,1.5931328804309177,8.381364918757372,-0.02018737002411259,0.008794376197188312,0.1033077659784253
1700843711.582013,0.6535230413109143,-0.24794306661118995,10.697172803252538,-0.026486574484125117,-0.032168174543771966,0.1024124967633183
1700843711.5923247,4.877198053072704,-0.3430620512901666,10.497477466015848,-0.02185020235239972,-0.014854774995741445,0.1031132909236844
1700843711.6021214,4.597910576466172,-1.9556354729983463,10.58213164533491,-0.007211661547794628,0.007956616124333236,0.103792448597997
1700843711.612022,4.6597491957534185,-1.7843693207049276,9.718275998641671,0.009253059875582248,0.03339726051571593,0.0697376998840268
1700843711.6221623,2.8955190802391484,-1.129815829545456,8.317625369110136,0.012202143447031326,0.06029076858012568,0.0592970783589776
1700843711.6319978,-0.3025837143211249,-1.6046001560772813,8.923148884843261,0.022931531933283646,0.0430359676447224,0.058917393046468
1700843711.6419928,0.03945164937612869,0.0160225133025547,9.536554469147859,0.029378946854528885,0.015289355783511342,0.0417370508192475
1700843711.6519744,0.7703402636885356,1.3218613100604275,8.780370770807275,0.014991100164533349,0.0190616527310776,0.0345123233972485
1700843711.661971,-1.1297382705057286,0.09030086779399836,10.147990949478373,0.010539593462122989,-0.010094521485021603,0.0179085015086825
1700843711.6720448,-0.6364346678067323,-1.6357297963113313,9.225657457277102,0.02841361316605367,-0.03765211811654668,0.0074647912523146
1700843711.6819713,2.684459352815149,0.23268992657398732,10.05126375494922,0.027793859612206588,-0.027364805107685464,0.0078908359399433
1700843711.6919582,2.792932098612169,0.4357551031026099,10.610459040413794,0.02288635244817723,-0.025366546337062347,-0.0026937487301979
1700843711.7023928,4.631347738525729,0.16643396646849562,9.675042686115106,0.01002934328857162,0.011648604305933296,0.0014676252147551
1700843711.712047,1.9771018956494906,0.0894150689142106,9.400292501155727,0.014758535394574826,-0.0014627975180470623,0.0227204776136572
1700843711.7282157,2.9934884085236475,0.43493640213679013,8.987933102054114,0.0025456577768242037,0.0014290046518903251,0.0254734913586075
1700843711.733279,2.7252894585393754,0.1027515723064365,9.01341641160963,-0.004561043976437308,0.011485314054925694,0.0153794252081211
1700843711.7421083,3.154366205727378,0.9159869767569359,11.051786599764956,-0.015038017154468437,0.01667616535987648,-0.0053199645364288
1700843711.751959,4.199670447522095,0.965304473648452,9.93266881014317,-0.029217051400279758,0.048296050923929655,-0.0099287879885737
1700843711.761999,1.8799097746288507,-1.0295887831897348,9.301114424953605,-0.022928861670999227,0.0545048152355785,-0.0189455365063254
1700843711.7720294,-0.7778470338428773,-2.6858123468011716,9.104335738084206,-0.001523273289825109,0.025501911265805033,-0.0407148738624159
1700843711.7821925,0.42708765340042465,-1.649988376459958,8.526606658224614,0.017540699288950887,0.012318062629917172,-0.0296129201771323
1700843711.7920003,1.0545599919015596,-0.17886127573790808,9.444262442371357,0.01649049888766111,0.006033801980377079,-0.0134430983336274
1700843711.8020115,3.2163304839387834,1.3960336340601367,10.31370742961369,-0.01196025135880142,0.02058619352080015,0.0251706103561814
1700843711.811972,2.021205040521104,-1.2431286913754502,10.186117258676834,-0.008564369941277697,0.028339993819645116,0.0781969698844845
1700843711.8296182,0.3929719348904865,-3.4168593391087727,10.192238969858211,0.024707540656704212,0.01115197358341667,0.1174028339563305
1700843711.8325093,0.041873435377139175,-5.561838720604291,9.44862478856792,0.05869800969788625,-0.005774032040844405,0.1359242248116429
1700843711.841976,0.8395536896865411,-0.7081396120685344,9.60020385270979,0.0465154945599997,-0.021207802376438174,0.1368038850603993
1700843711.8520012,2.894136818829015,-0.2745846855766986,9.78971722000125,0.055739871030159115,-0.03342717524991564,0.1456147926627095
1700843711.862008,5.296802876804185,0.88661248477871,8.489058807183715,0.04139054042300886,0.0004128029020443612,0.1595653491793568
1700843711.872055,3.0267448673041466,1.8788698646614284,9.029576631829881,0.016511302150662183,0.014690909630965185,0.1747249412117894
1700843711.8820193,1.807554215733429,-0.4441833363902809,10.157684524992604,0.01257637232641301,-0.0019004305204094482,0.1899598586140568
1700843711.8920074,1.2088600051963674,-1.8674705281961759,9.565268187488874,0.03287759571175576,-0.02458242444766844,0.2045366811333592
1700843711.9021046,0.635302322770399,-0.4864633555432373,9.919134354645013,0.04306572431953941,-0.06241471714916825,0.1691380637465413
1700843711.9119902,1.1965531932560922,0.31360150837658013,8.935651062670928,0.03691749772750075,-0.08626809507072147,0.1353506046114857
1700843711.9220235,7.492274422178951,1.8786245430775388,8.168272833161263,0.006692822358462988,-0.03325085702567617,0.1194344582734997
1700843711.9320612,5.483839816511788,1.7235050976597601,8.326570409326179,-0.016375681549297222,0.023768226056824163,0.1096459301887448
1700843711.942133,2.208917721068293,-2.204275282347004,9.938676549280656,0.004140618297722386,0.02351574306933435,0.0978573906002934
1700843711.9519658,2.0390728212276663,-2.7764797590966293,10.554710948588166,0.04069432409966932,0.021676112904553697,0.07163557137832
1700843711.962056,0.12497817079148522,0.43010001992052066,10.755981068720091,0.042289502622561044,-0.021105636328180584,0.0315795141039784
1700843711.9720232,4.145958891675018,1.9255256193848371,8.814829107570619,0.017383201936590396,0.0009096675436923374,0.015442481334358
1700843711.982032,2.5726770943467416,1.5372126273514943,9.064471294533476,0.0031766562931202728,-0.004010221819123103,0.0313805463491375
1700843711.993759,3.650261599497155,2.4408766900979733,9.075866479362334,-0.023455049362525557,-0.010869232725039958,0.0429270352004464
1700843712.0020075,2.7363990420010573,2.1662119140477403,9.083303624917603,-0.042320572602043874,-0.011103031714113197,0.0512168193934853
1700843712.012014,3.7467056090225643,1.6271986728539796,10.644429139025961,-0.06724377197336506,-0.0021348466165742913,0.0291955369292195
1700843712.0221603,6.5278586523059925,1.5078093106454624,11.185954334595985,-0.09805004668785129,0.06300550111318051,-0.0029659205348794
1700843712.0319915,4.713616117395965,-2.6497409350969714,10.637133142509983,-0.08329175998951827,0.108744043612687,-0.031022353959233
1700843712.0420425,-0.34998887715503973,-7.088334993788777,9.066521121436834,-0.015904402914556984,0.10183000913131428,-0.0613158931256835
1700843712.0520744,-2.2297090490573828,-3.6511700060393046,7.440456753267828,0.034664774552991245,0.06222267805384662,-0.0548441027523581
1700843712.0620315,-2.373744467568285,-0.2442566416531115,7.459596083341545,0.03281982073697623,0.025748637105144485,-0.0276056760223214
1700843712.0720425,-2.516077046376313,1.3285413018557861,9.296336400516214,0.010544524257311031,-0.035153926254976424,-0.011534746666402
1700843712.082033,0.7816775278430003,2.143113569024151,9.579375231665296,-0.022961592561232674,-0.038667887789922,-0.0010922942775864
1700843712.0921688,1.5787338624853402,-0.08272151545189292,11.295544582548532,-0.02123195260596944,-0.05437732063012738,0.0390255088685448
1700843712.1020696,3.9186687516066145,-1.2516973149391286,10.834846835455345,-0.009558389946199427,-0.041904946953470544,0.0755687626777585
1700843712.1122837,3.0592470015248034,-1.7406514044872607,10.464179335015597,0.02166542355572999,-0.04487471767828618,0.0956429141341145
1700843712.1221812,3.4608095236814127,-0.2249117844382551,10.396286158704706,0.00454721133181005,-0.04630776307153326,0.0754283117829258
1700843712.1320446,4.864291105531385,-1.0372873506925393,8.335079738626467,0.009254767376313007,-0.005003781125444869,0.055941061186641
1700843712.142486,2.553984908841249,-2.076807830649658,8.003147840642697,0.010855226703816858,0.006887843820875737,0.0446926700650151
1700843712.1520283,3.6972063947566944,-4.515219066975694,7.788900707531751,0.05647917920983844,0.017774233578397164,0.0498717288254197
1700843712.161991,3.7398071208645307,1.6649633329267306,8.816673272095969,0.048675256613039064,0.03535186103289151,0.0546783442376549
1700843712.1720502,-0.1412202259289101,3.186568980442268,11.389350144634452,0.005033876877315171,0.014707680233832785,0.0439549098490174
1700843712.1820247,0.7817367623677878,-0.4462366216166166,11.702073753013737,0.008376327149238054,-0.03412994283768884,0.0444665337680275
1700843712.1920576,5.549367511064406,0.4118840691989654,8.619012536452674,0.025523765998864415,-0.0075502472163795405,0.0595234120963509
1700843712.2020829,1.5552856688122443,1.67340126122646,9.467544519194469,-0.00044419465080264915,-0.024058092578843997,0.0552646751283104
1700843712.2120366,3.8550772653191383,1.6229579857777996,9.368080092192278,-0.01733937069937041,-0.03472191872683656,0.0542973364470894
1700843712.2220123,6.022032183401844,1.4060085703824798,8.155769977414648,-0.039743695428856265,0.008271699601459383,0.0466077225981648
1700843712.232329,2.058079051544151,1.3556618193130063,9.39452983332902,-0.07874006179138048,0.02566117672857515,0.0268763537286217
1700843712.242034,4.3530663942079695,-4.72035607394032,11.139633580517398,-0.03794491161169193,0.04567888466921996,0.0072678505210574
1700843712.2520375,3.7742969063158243,-2.9175451492757776,9.52759939676786,0.00856665028062079,0.09049626576453197,-0.0230731488437954
1700843712.2620332,-1.6533875725917695,-0.4735978316448406,10.376187732031353,-0.0029686758827819474,0.05791075956058817,-0.0514541779877249
1700843712.27205,-0.8058503413819216,-0.9854137623523155,7.79776149558673,0.006038650060472546,0.04173551710700331,-0.0338503484846655
1700843712.2820275,-2.4580904159435217,-0.3686216490853441,9.138092455668403,0.010239686415592336,-0.002113821698557983,0.0013178093475657
1700843712.2920809,-1.4416480689088857,-0.32155625317664044,10.39941072234123,0.008426702052975094,-0.048744569469317156,0.0164873647271092
1700843712.3020358,4.651392905802307,0.5860918687736042,9.896390637019488,-0.000899269139152438,-0.02665352030117895,0.0222420646576579
1700843712.3121235,5.820976168787382,-0.13477069746940437,9.001015532335467,-0.011472755197536572,0.03777747635665751,0.0248333728639777
1700843712.3221097,1.0683285634565707,-0.6415085760265204,10.090441361224764,-0.008818123126138895,0.030588835415478372,0.0388396317838128
1700843712.3320389,-0.20659101713567196,-2.380810892598653,10.0653550391043,0.014129513308951961,-0.0038067132076792013,0.0418100739596779
1700843712.342062,1.474388596790248,-0.9851792886658042,9.388952179469495,0.031000449722935194,-0.02663279381886669,0.0341828997014458
1700843712.352213,3.871685745292876,0.5599403113062676,9.565128822899366,0.006056995270980624,-0.005476497284929252,0.0260256389854844
1700843712.3621094,3.406382709290452,-1.5490523635958127,9.690088308663109,0.017196346272894344,0.010294933854817398,0.0265904414235051
1700843712.3720467,2.486574997021742,-2.159665707374312,9.168718692578137,0.04048000393663907,0.009224774685373761,0.0396090904949601
1700843712.3820908,2.668778477333752,1.0756333727082803,8.807732812082593,0.025905817603155124,0.014635625175094109,0.0526726963697369
1700843712.3920703,1.1039069658126155,1.3284912684950136,9.148360246383769,0.005021323077336931,-0.004230471220571828,0.0648533004103596
1700843712.4021802,0.7821299109835069,0.582179098203215,9.423575718580262,-0.005699265392745673,-0.03275771176509461,0.0729555385886128
1700843712.4120555,1.8555694538810854,0.18135067274157093,9.875704251460272,-0.004440650225834406,-0.05144496224322794,0.0891470807372029
1700843712.4220428,3.0923104067101685,-1.0374416139586415,10.587858992445819,0.0062176444151004675,-0.05871996397741088,0.0988798412261899
1700843712.4320936,5.579899395567911,0.1066437644806947,10.558112563131239,0.008009342605102023,-0.046535294615887846,0.0904030847130711
1700843712.4421604,5.95337697456529,0.010651802109873874,8.969404727912606,0.00455023107656601,-0.0010071274377523038,0.0803584876237805
1700843712.4521017,3.2987099229001116,1.2648718216405619,9.067155998170218,-0.015864843976956935,0.0007213816092590894,0.0677602189360554
1700843712.4620776,5.03222020041789,1.8371925840362053,8.170632328233028,-0.045013236998428005,0.03465618640501275,0.0605887333630021
1700843712.4731326,2.023915100023388,-1.2341148570446492,8.773683670160452,-0.050467487468294034,0.04056929542011639,0.0605432065902646
1700843712.4822147,0.8257097115113436,-3.860455738297275,9.925795271573692,-0.011365199075626282,0.023210054892781853,0.0600468489108975
1700843712.492131,0.3401362811877135,-2.8988716336359257,10.437869104883875,0.028566872901533497,-0.0009367250461196385,0.046945777791589
1700843712.5021148,1.6699185536802463,0.9932060283750405,9.94523016581644,0.008433842671057604,-0.0028311601249130375,0.0188361770240958
1700843712.5229962,2.109440867758097,-0.4669192331703641,9.302711146864292,0.004887759074183567,0.022883967482285664,0.0305197770474846
1700843712.5278375,-2.1516454345887808,-0.5759207186523134,11.055297279425709,0.013798151484479593,-0.019231781016342465,0.0372500280617173
1700843712.5410855,3.1265640525156804,1.4455806486437506,8.86534649348838,-0.009171294321195582,-0.02111451986564694,0.0365435751853878
1700843712.5421252,9.868818161734438,15.186727619941795,10.042889572380707,-0.03175062863651079,-0.012125430077330874,0.0544547485886509
1700843712.5521543,2.454490347182264,0.504621084144882,9.951798631816285,-0.040128032770958964,-0.02012899636992916,0.0514221126912529
1700843712.5621264,5.119523405013532,2.0007899784930663,11.038784292808073,-0.06932092944174124,0.010095941409582513,0.0373844477115567
1700843712.572157,6.379077652528131,-1.7186289587817722,10.645081526768978,-0.07024017302695913,0.0853025251303176,0.0077533103293176
1700843712.5820875,2.6977345803201445,-4.118860807499004,10.500287044934035,-0.038226114741674144,0.12133393822431207,-0.04339385677591
1700843712.5956144,-0.565555927861125,-4.0575188583021,8.785157127806114,0.015942917127144227,0.11744419344167936,-0.0495235723675791
1700843712.6025813,-3.9731492908720307,-1.0220090302652143,7.577325899181975,0.03243029631911855,0.07792301984608996,-0.0353301939786974
1700843712.612737,-5.087297843878924,-1.908578920615844,7.7597686330811575,0.03770695000073043,0.01062554819089107,-0.0283864689292017
1700843712.622083,-4.324328400516116,-0.3616392959973707,8.410001556120804,0.04173150132989799,-0.06275637823879286,-0.0133883523987237
1700843712.632054,0.6559443148806771,2.2285954103170607,10.459292942131736,0.01927771439173699,-0.0851682201165234,0.0069589210441704
1700843712.6420777,4.7139909481420945,2.902224775969777,12.745631917856587,-0.03480838625112009,-0.04924424935182196,0.0207203394500906
1700843712.6520348,5.8049992643567485,-3.7628855366984495,11.24444770818467,0.017290254110411386,0.015639199244622197,0.0385891581653054
1700843712.6620736,1.3101448375261369,-1.6774575582977178,10.254056092309298,0.0396738927779379,0.0033516526220473387,0.0212768605677779
1700843712.6722028,3.2167452257334332,-0.7652383545858717,8.749185043281908,0.035068191932072425,0.01234589235573875,0.0257515116362269
1700843712.6820965,-0.6130739746566316,0.34675450542599173,8.200445550180778,0.023792906714992373,-0.019481531483584474,0.0484065572498734
1700843712.6921084,-1.8281552957386926,-0.6569846012594792,10.082996029403166,0.026786887302655632,-0.10096808021808545,0.0742881270824368
1700843712.7021089,6.196995302468595,2.330582971793587,8.829577881270039,0.008780665748843498,-0.08511332974180436,0.1095715584932263
1700843712.712124,7.31587898689161,2.3468703358711687,8.398586382008446,-0.0182809628364385,-0.02529539450011046,0.1340966271935399
1700843712.7222817,2.666943432341812,0.652348425141874,10.700685797646281,-0.031524367618109575,-0.03947229009442242,0.1412918018876011
1700843712.732264,5.557308187935013,-3.0374093660496895,9.711723494640312,-0.0049743779012925695,-0.00766962730812253,0.1370319920359547
1700843712.742434,1.5260084558264067,-1.964661945698586,10.321123915119262,0.01226933800687526,-0.030823523163146217,0.0947497757850583
1700843712.7521467,4.962759780632604,-0.7340158919276594,9.769508110118748,-0.0026281751339690697,-0.016018730057672907,0.0666771205841
1700843712.7621086,5.486905012995409,-1.407070041799625,7.845227163840558,0.008126651561977656,0.029788341571849317,0.0638183104573185
1700843712.7721014,1.8134531324978298,-0.9187302899539439,8.596525817461156,0.022193493281208714,0.015298500930399413,0.0535743470071251
1700843712.7821927,3.3753333002528767,2.2952045381339676,8.435635707127705,-0.001005032655425684,0.018168788584518775,0.0510516325710709
1700843712.7924955,3.4717869598984237,2.6964965427595367,9.383228403724996,-0.037992196175113936,0.03003044874242343,0.0540294210194046
1700843712.8024666,1.7997252361479605,0.4736141277333664,10.537439979828548,-0.045596489558732335,0.018746131231540796,0.0538123297272618
1700843712.8120933,2.4470031065566937,-2.0591737322981913,10.921310512835069,-0.023221443725828867,0.017158138467042252,0.0544187064050133
1700843712.8228717,1.7528687811426593,-0.3879617247154293,10.572178019448488,-0.02831555828365891,0.016406005601896107,0.0097954665078218
1700843712.8322084,3.7876073460870296,-0.5360560088462888,9.316495679854736,-0.03395966198856791,0.055085007378927506,-0.0035057933302227
1700843712.84209,1.1991704478621632,-2.2057965135521416,9.247901989169735,-0.025733572791594245,0.08175193493865043,-0.0037484452360872
1700843712.8520927,-1.5257795866121562,-2.663440561893645,10.084674930038602,0.005627944966566843,0.053751454776052865,-0.0075183789478246
1700843712.8620677,-0.47410018685743527,-1.3547813213030722,8.67233789571738,0.019192813883833038,0.04582188254580026,-0.0074932378949229
1700843712.872117,0.19500942818352604,0.9210331688763963,8.561566438577856,0.004734381835230083,0.03062500669416244,-0.0049698990070824
1700843712.8821392,-0.19529919733314827,-0.08384577353344619,8.205137436889348,-0.002374935499629907,0.016713550585678343,0.0012899612891855
1700843712.892125,-2.316434981119281,-0.12044396510380345,9.345750859905749,-0.001209625029063788,-0.03267284332636696,0.019945821794718
1700843712.9021168,-0.7191716751805657,-0.7815394373590299,11.139949643554916,0.005528332206252042,-0.0872014902443289,0.0481616976438458
1700843712.9121351,3.7737709344773833,-0.4979447342593993,10.699150588001439,0.019906734111228216,-0.08754810525338268,0.0761498856125767
1700843712.9220755,5.050826276963434,-0.3687758790281823,10.949580261072242,0.00502876362295386,-0.07081770209018882,0.0688388841925557
1700843712.9321818,6.785366296777084,-1.2695654182481397,9.807074000941032,0.011465845462706861,-0.013433126055267301,0.0569249811349804
1700843712.942073,5.1250097322868085,-2.0244219124109426,8.999228517172451,0.015718476944112037,0.036304650683403106,0.046811749297231
1700843712.9520695,2.205139644272452,-2.981934853697195,8.444202014695058,0.04566338261043788,0.03222305995002048,0.047070880490392
1700843712.9621367,2.62865356363974,1.1603964979922365,7.823414492620408,0.042966551781859624,0.02662614870963161,0.0501391413389142
1700843712.9722488,0.6178744829286745,3.324675363965057,8.208528574066367,-0.001258880846246088,0.014192131786900004,0.0507280091522629
1700843712.9821455,-1.1781795179778403,1.1788108403520157,10.551586258699942,-0.01648605391785082,-0.05504903003133823,0.0550621348200734
1700843712.9920945,3.736783727200157,0.48592086100969417,9.754800408722586,-0.015790270836030275,-0.06010133394303253,0.0695032003103192
1700843713.0020614,3.2417985629928165,-0.256115547535743,10.99353742302317,-0.003222961607066668,-0.0692384914729725,0.0728405984817441
1700843713.0121083,6.128062918406922,0.592696927657942,11.058245853101106,-0.025049836760178936,-0.04950044147278313,0.057631024229377
1700843713.0220895,7.491017371220535,-0.5579431310714993,8.497318955555064,-0.020083171058585862,0.014835465546534393,0.065455068904012
1700843713.0321465,2.174967631631179,1.3125232640567976,8.936016134735631,-0.05134265472653392,0.016594092146597676,0.044906766223758
1700843713.0420945,4.897995228978624,-2.3507140879357036,8.493291495514015,-0.052446739043481176,0.05081630090568819,0.0361483256100113
1700843713.0520802,6.25244950405861,0.12428416616553693,9.16758749671277,-0.04646796620369756,0.11172514097651183,0.0367009687004979
1700843713.0621295,-2.609590247418981,-4.470075115317545,9.806355870050023,-0.0106084416147527,0.08598529811218344,0.0268214969663317
1700843713.0721347,-6.491298081775232,-3.425025587324887,10.424161452580112,0.03184046032693755,-0.024708833750208156,-0.002209112676755
1700843713.0820978,1.9289411070298021,1.7885791754664278,8.35319673860437,0.008818444208092953,-0.026962211184033785,0.0092542432947452
1700843713.0921516,2.4986028495124377,0.4055712014936937,9.851809271515226,0.0006742045819410113,-0.011642939430568496,0.0496035600779946
1700843713.102213,0.9890756420323745,-0.9972086923539254,11.330527338092113,0.006079264005245822,-0.05053061025270409,0.0509977313457425
1700843713.112075,5.522209829523476,0.6861261335320873,8.87670964242507,0.0006701889042565199,-0.015112746537062374,0.0553963604150708
1700843713.12219,3.3378932665789423,1.7562517139541878,8.850180045804201,-0.027090958058872953,-0.010435612994572237,0.0684711756883557
1700843713.133321,2.169359660729977,0.9062868238335,9.528915232439603,-0.04876796999010665,-0.005406314642167043,0.046687607723325
1700843713.142182,4.820457667240499,1.4302520034483726,11.012779240597796,-0.08202164963137298,0.032018213864806834,0.0232927399455006
1700843713.1521106,5.906783666051454,-6.015844340112991,9.74417479280006,-0.025838532109825417,0.10393649287296676,-0.0021957433083657
1700843713.162115,-0.8308348641057591,-5.110103633048599,9.852770072522715,0.02897447527663649,0.09041378238667508,-0.046984895062596
1700843713.172186,-2.013726899852559,-2.635865175588617,7.376332612109392,0.06901137376992486,0.056575176949079355,-0.050686283898503
1700843713.1821728,-2.9563456353696047,1.3983380205729075,7.810140615063669,0.04860944155657653,0.013022906668150926,-0.0352641967357699
1700843713.1921403,-1.719495923545836,2.025508218991823,9.888415163894312,0.02527639068248155,-0.03590016339226867,-0.0342320529045168
1700843713.2022023,2.278122289135227,2.4663370421363546,10.298796897427255,-0.023873472490526213,-0.020551479387937294,-0.0143570005194847
1700843713.2121608,1.4153553958886855,-2.35645272047228,10.922559706219308,0.009503951305523605,-0.011393719224784235,0.004465889255553
1700843713.2221496,-0.4191906800787544,-2.2179309525093536,11.54435755804225,0.026786079713686316,-0.04862413426977446,0.02473754349634
1700843713.2321577,5.725604711410316,-0.76578000225846,9.322186231072301,0.044135946322236115,-0.016832961874704684,0.0510865385411675
1700843713.242156,1.5338435010995748,0.9339316945703404,9.363382025205789,0.01261335280264819,-0.013301245871042373,0.0726274150191243
1700843713.252097,-0.8360107391005175,-0.9962617458584355,10.352089888904551,0.0189025064519686,-0.08149793845024354,0.0922237234888966
1700843713.2622454,5.3115021062833385,0.77871358928434,7.978349024786393,0.01351226574578297,-0.06398902129567333,0.1118213581620152
1700843713.272138,4.639286962869588,1.485181902918765,7.921493214996714,-0.005243744639697736,-0.026329485590376754,0.1013318869052823
1700843713.2821746,2.826550422495126,0.34290514323706234,9.550521434058291,-0.03326029663849539,-0.025576565144137333,0.0846791165648396
1700843713.29331,5.04284856777562,-3.9616619265436372,9.981944967256053,0.0036377044665486845,0.0006552929272489508,0.0951789441286023
1700843713.302119,2.833128204717598,-2.955585279772751,10.673617644582762,0.038497554465087194,-0.008003648605139182,0.0540494742570813
1700843713.3121412,2.2816191530814307,-1.1047734240183351,9.594990630373578,0.042633215121264736,-0.012150813330279377,0.0064298753394182
1700843713.3221817,4.145220937894698,2.362051930526113,9.063466299651614,0.009100203693267679,-0.004831471492466572,0.0228813319234545
1700843713.3321342,3.8469277248958913,1.3958006255532802,8.386375187096315,0.007689140280967568,-0.0017422253460757649,0.0501292357920105
1700843713.342105,2.4814939014524233,3.1419290265867157,9.426739014207985,-0.030354508879119106,-0.02833126991070469,0.0639907913981373
1700843713.3521278,5.047086653098699,2.540209414330006,8.998405203039246,-0.05544284348179661,-0.017045115040206792,0.0908159437356884
1700843713.3621583,2.365233539255475,1.0694489953944433,10.421449278445845,-0.07211707367409774,-0.026050784087726046,0.0823415937601025
1700843713.3721793,5.69112082041068,-0.3602575402565617,11.29419845089836,-0.09136617695034137,0.018614028330225928,0.0546857948182518
1700843713.3822238,5.96129696533927,-4.457342580394488,10.599004608882236,-0.058154723035164974,0.07508306518188558,0.0408160025952752
1700843713.392184,2.14127666431942,-4.238180443442026,9.54983634777664,-0.03462314272717132,0.11229911298293932,-0.0027455419068787
1700843713.4022229,-1.6680008251970921,-3.1350933344423098,8.556611685642721,0.005834689353971626,0.09583393641106992,-0.0095077854813639
1700843713.4122138,-2.0338034226490627,-1.769473127355169,7.21711307900964,0.014401887361815592,0.08098259763170904,0.0026876871241624
1700843713.4221468,-4.562245770867263,-3.099235453550595,8.687890233100898,0.046991681964021086,0.02289760946318975,0.0069527687272425
1700843713.4321911,-3.531271032948749,0.6349484304490539,8.688979300184608,0.04156820100341552,-0.04366713436597024,0.001457528513893
1700843713.4421225,0.6962942027139937,2.353166122791019,9.277466279257743,0.005653226896669749,-0.049350640582351064,0.0077881380683179
1700843713.4521546,2.037792680283349,-0.5076331397633951,11.386952866463776,0.002903295701563874,-0.054479217780548074,0.0356122563360627
1700843713.4621246,3.030901920549668,-2.46216168293993,11.336167618242209,0.03720139303578536,-0.04494739039353209,0.0647308128653462
1700843713.4783075,4.139113837758176,-0.03552181950876554,11.381333502613389,0.04641682799901664,-0.045630491048030734,0.0647419142304356
1700843713.48212,8.894932572354756,1.8407425518739402,8.059106636902893,0.02092427098930691,0.005843014621249903,0.0429620268522198
1700843713.4921725,2.536979267960382,1.004098541464054,9.92888937539492,-0.006633246926373318,0.011301110646018348,0.0239702435909207
1700843713.5022314,3.8313386154661457,-1.5799902416058262,8.613588233331189,0.008793612912681142,0.03705432835377123,0.0193151934771235
1700843713.512178,1.9711284926468806,-1.846618310703553,8.174122367736276,0.02178389123342497,0.049289624324565975,0.0103175333468611
1700843713.5223503,-0.22584424434191824,-1.4043627906560345,7.984462475419914,0.03907354542982599,0.029343076412899252,0.0048655872932072
1700843713.5321767,-0.6572397373941415,-0.6344949983752319,8.966065376250132,0.03904129177836604,-0.009932049273224487,0.0103888726560767
1700843713.5422852,0.8555846844706353,1.5724331907390752,9.556818534982877,0.024425515349825386,-0.029431251200905093,0.0180347460089619
1700843713.5522263,0.9206973443926907,1.2334067933098476,11.65447428558067,-0.005447797449049218,-0.05965882396727845,0.0429613004206116
1700843713.562152,3.921615886883265,-1.0801856870536237,11.298401901349353,0.014197402402619097,-0.07026557483698728,0.0650906014023716
1700843713.5721912,5.760963777013815,-0.48384674495109586,10.118218628991109,0.02279774047348253,-0.04278036019306919,0.0891816290794308
1700843713.5821426,3.381139031338364,1.7060256204589708,9.210861247737306,0.00727539501912939,-0.04558077660617632,0.108883966761678
1700843713.5921383,4.321208940181792,1.7500929748737684,8.381883974542388,-0.025110091643730455,-0.03118397340868099,0.1024538027821476
1700843713.6021476,6.542328161866631,2.7971044641482963,8.235695426997426,-0.06744772714157332,0.021448147372738386,0.0967050912557538
1700843713.612122,4.340581041148082,-0.9374973246100512,8.802661297982253,-0.07510352457159254,0.05721051531669088,0.0905928584514554
1700843713.6221232,0.731806150001328,-6.494585515831779,9.911477552021202,-0.018567775840222824,0.05090580894959348,0.0662444802699978
1700843713.6321735,-2.0753741518688966,-5.776710281463322,10.413859832267406,0.04437929811214598,-0.017182093573076786,0.0011450665886882
1700843713.642135,1.893322835024645,0.2137197492476319,8.209270307857306,0.04159746054663286,-0.016009282711424933,-0.0199369014473263
1700843713.6521766,2.7222585395681187,1.8125593181508755,9.25856457935156,0.008478686813331436,-0.007755621135053818,0.0211605495540793
1700843713.662222,2.221660035350624,0.15189448129627603,10.611762462261838,0.016745980966835855,-0.03179823162792298,0.0509652244625981
1700843713.672274,3.87025384409625,1.8796212456366383,9.263821091557551,-0.005006510031036529,-0.024301394081525176,0.070175458746999
1700843713.6821449,3.8466863935189735,1.967327318926494,9.44818313408617,-0.031323481659878326,-0.01759132201874736,0.0969775366364415
1700843713.69218,2.5213616883731675,-0.3897605432617908,9.750481259811732,-0.031035452340103634,-0.02430433162519073,0.094810445862859
1700843713.7121837,4.417152435741525,-1.721670178416613,11.416981205024273,-0.058470902228979806,0.04940079754118956,0.0272044437704976
1700843713.7221415,4.641663779440184,-6.663495343874042,9.883194440821828,0.014247473636217535,0.09167844956126381,-0.0080604943679277
1700843713.7321868,-0.32066768612565877,-2.0288393065180106,7.719854937940595,0.04193296570338958,0.09281893869569449,-0.0192473390372101
1700843713.7423408,-2.7313795282680005,1.2340245989496286,9.175902339532424,0.023422441150694803,0.042418785202484516,-0.0012638876679916
1700843713.7522645,-1.1509031101434721,-0.5661165263742742,8.626650353871865,0.026319221651947246,0.013506424658728297,-0.0003092483849827
