time,ax,ay,az,wx,wy,wz
1681944205.205006,0.6112387138827442,0.7854613697144134,9.795730206355984,-0.0009347384370651538,-0.00168818859961982,0.0020490880101216
1681944205.214672,0.5227279836530416,0.46253595377487816,9.681875975358059,0.0014822389617868764,-0.0005702010014425273,-0.0007631121284565
1681944205.2247455,0.4600946687627968,0.6030996330364384,9.808283279952871,0.001151413988596209,-0.0016721893739416794,-0.0008503169833919
1681944205.2347083,0.7261771898536227,0.6899246975711854,9.701979054538842,0.00041491651084786573,0.0024148661602152203,-0.0010294743429175
1681944205.244659,0.4207652318562603,0.6171798835329406,9.795502896263407,0.00105085797912423,0.0002381327632314461,-0.0006510197731903
1681944205.2546625,0.40965609130174957,0.5947853333935199,9.86169637225109,0.0006783018795341802,-0.002151631765510531,-0.0010708415962061
1681944205.265147,0.599129472098504,0.6953981795766566,9.756484067789128,7.14729164382244e-05,-0.00030460155847337084,-0.0014783790416321
1681944205.2746863,0.6513674169847442,0.7366686177826803,9.708952206835898,-0.0006199359046585914,0.0015401484882531333,0.001067096859938
1681944205.284639,0.518182976959216,0.6153162144171027,9.815171588602407,-0.0020363322130060725,0.0019413482503158586,-0.0007493429898521
1681944205.294653,0.378940016331622,0.5016623163766265,9.78958499656396,0.0016021906300854947,-0.0006134086954975566,-0.0017283259972236
1681944205.3046932,0.5792427220915155,0.5122338305511707,9.691849519916127,0.003402262542889685,0.0007030761869022335,-0.0024365192826143
1681944205.3147457,0.4597971771241563,0.9420544432536859,9.938777531033482,-0.003154272948358614,-0.0009192798743143378,-0.001824457346206
1681944205.3246803,0.5310239551004613,0.5704758087112619,9.732264019888717,-0.0004247414087744789,-0.0009584015671533414,-0.0009505140210739
1681944205.3348076,0.5474204664249805,0.4617228784745863,9.695811171339233,0.0016543611144372312,0.0002180229193436354,-0.0025721282313815
1681944205.3447373,0.44716427624979793,0.8220885990067134,9.893957522533697,-0.0012487798410349693,-0.0020256973179366726,-0.0010052771854451
1681944205.354663,0.581550411353541,0.5901539680393569,9.718858652939671,0.0006231845725962811,-0.0011837751241550467,-0.0005213552235863
1681944205.365178,0.5160726715085759,0.644036260218277,9.804818255226587,-0.001214485118607282,-0.000825445025258221,-0.0013904847751608
1681944205.3746536,0.6266021705345014,0.49920360846446665,9.686817197218202,0.0029481417184797475,0.0005354250440576585,0.0012947049958393
1681944205.3846762,0.44882747412966284,0.6100488682746024,9.802261192495191,0.003090808113479183,-0.0006491553085739225,-0.0007851115974835
1681944205.3946242,0.46452085421481715,0.5785786671005019,9.77945741824007,0.002063380210167988,-0.0008909975946957715,-0.0038011140736988
1681944205.4046445,0.6491506472808488,0.8133632240648193,9.781553475097379,-0.0006702545192320451,0.0013035942834202386,-0.0024503135669282
1681944205.414662,0.48028255147462035,0.5610554917556113,9.729969497562761,0.002464963783777621,-4.1241280999894394e-05,-0.0002553874242356
1681944205.4246776,0.5528765917558945,0.6783610333496843,9.793722226488176,0.0003519616817231742,0.0007418250815977381,-0.0007143364369175
1681944205.434696,0.5657887524643034,0.7196056134858875,9.792560733257757,0.00011654003542765925,0.0007656563030778443,0.0010763917502709
1681944205.4446602,0.31371154488964836,0.45031612484630745,9.81597865893797,0.0027004039557665294,-0.002834838353994006,-0.0012977164319953
1681944205.4546812,0.6298954868362646,0.6713564874880715,9.7451648129212,0.0023174212576021714,-0.0012411370139363736,0.0006159339950182
1681944205.4646912,0.5159828569030172,0.8554509678569274,9.84381307400973,-0.0012942243480341777,-0.001404696795375366,0.0006759527290933
1681944205.4812398,0.5054078394523279,0.5327060467007133,9.741772612810282,0.0008448489454964292,-0.001511252931724882,-0.0007526990107498
1681944205.4847283,0.6871977150646882,0.8410553090156225,9.801686786694884,0.00026518065457628695,-0.0011293988847786978,0.0012451646884665
1681944205.494681,0.5685143528392043,0.5951021700598822,9.715623315093616,-6.97106428179214e-05,0.0011229337330412033,-0.0021336438681236
1681944205.504659,0.5251187796658091,0.7683290004800396,9.82154090153844,-0.0021383781277449013,0.00035028231381525914,1.4699847693096235e-05
1681944205.5146666,0.47827009215098076,0.5359514878198147,9.782541584432522,-0.0011046031010867917,-0.00010978305614200127,-0.0015663040417483
1681944205.5246618,0.6972986903766348,0.7345311843763044,9.69971121481169,-0.0007149499012822977,0.002462152928384708,0.0017950368851098
1681944205.5347505,0.43661757695003933,0.42613196950032184,9.751453710896023,0.001277305217101406,0.0015997639882945193,-0.0015566411043754
1681944205.5446782,0.570307573248109,0.735280536101204,9.806605102685086,0.0005509080864076147,0.0016366354497701376,0.0007023909979262
1681944205.5548477,0.35881031027430715,0.588028898181144,9.834128369180139,0.0006954904750771173,-0.0011387163819715832,-0.0015923542983136
1681944205.564685,0.5638494123911811,0.6983669579806718,9.78236569839362,0.0001999875787339394,-0.0012497220345018022,0.0010823761963048
1681944205.5747757,0.6515220243111571,0.5537855146795851,9.692911023864443,0.0012884894808783318,0.0019465938998657888,-0.0002855510997823
1681944205.5846715,0.18520961985563394,0.7591815562165019,9.99558370238857,-0.001369455946020491,-0.004963460879960897,-0.0009266875299862
1681944205.5946996,0.695554455660553,0.5149762257028998,9.644152826888595,0.0005035992277070876,-0.0013026320508192158,-0.0011457210953584
1681944205.6048105,0.6626511515551103,0.7666190092849761,9.744532125557054,-0.0003673871711254582,0.0005924350736512383,0.0018002675965045
1681944205.614755,0.46420233645868847,0.6200652173514191,9.776148322361346,-0.0003919678971938172,-0.00018280069665625493,0.0010115898016602
1681944205.6246848,0.5055199380621105,0.44094862396093176,9.745719417315597,0.0016960699801715046,0.00011147972748548069,-0.0014828656881353
1681944205.6347136,0.6188663214226157,0.8902684173221679,9.800704905350871,-0.0024688269358059136,0.001914158071408781,-0.0003794249228439
1681944205.6447816,0.394684063002102,0.4272392482186127,9.765062928619685,0.0024482098997386298,-0.0012359306318925497,0.0006305231631496
1681944205.654711,0.5634368595148976,0.6195880295130615,9.791945032216228,0.0006380685317914724,0.00034135410692354525,-0.0023564409080198
1681944205.664742,0.5895233690255121,0.7905587987015339,9.79055761208764,-0.0008129264499421006,0.0008781743674753616,-0.0002270510035804
1681944205.674695,0.3440334746392489,0.511620045283428,9.81974244796401,-7.679923352109815e-05,-0.001924754888016739,-0.0025214689399353
1681944205.6846552,0.678997021483678,0.7110857057808614,9.727535976622445,-0.001565806454281244,0.001195925662261985,-0.0015655657357773
1681944205.6949787,0.607121668586948,0.6791437323909565,9.73171312192642,-0.0001763052214398127,0.0018888412611865143,0.0014451997389779
1681944205.7046645,0.3305580918116157,0.44074265136966306,9.7980033661219,0.0011786274689085292,-0.0005322441257598522,-0.0026518568943492
1681944205.7146857,0.5624497513473621,0.8423401837083273,9.831002822922027,-0.0024430950561347663,-0.0001988084732294051,-0.00117886360616
1681944205.7246852,0.4154115492832215,0.5044136677397384,9.775408968019715,-5.96485931025673e-05,-0.0018755934233498014,-0.002777024320071
1681944205.7348168,0.6902453666550532,0.7303590350751619,9.710989166699518,-0.0003740794835257144,0.0004180828551901726,0.0009653875872255
1681944205.7447083,0.562185380414659,0.7157266755402534,9.79978529844232,-0.0009239527609632439,0.0005052569143266629,0.0024868221057341
1681944205.7547257,0.40749884757099025,0.4647969860570546,9.769802941564786,0.001042277696930357,-0.0006365286343771826,-0.00130925738134
1681944205.764711,0.503707477274404,0.7520994738590252,9.83071009522165,-0.0011779962799663682,-0.0016460942796609006,0.0002598310506665
1681944205.774722,0.5514018657499774,0.5743210738451419,9.746873851914193,0.0006485091343129035,-0.0013298088231683623,0.0010175672045671
1681944205.7847629,0.5894545164369422,0.6254449980756973,9.721291503028533,-0.0007190731829454985,0.0013311524545197278,-0.0025743801693669
1681944205.7947032,0.5078332822988755,0.6746596132281917,9.821080806261863,-0.0006683569899972815,0.00020015329032951773,-0.0001931620377353
1681944205.8046875,0.543208463147799,0.7158044351158549,9.78854933398357,-0.002890528517616159,0.0010808341926651335,-0.0017454653593948
1681944205.814768,0.5366124245221102,0.43395255262603477,9.676912775903695,0.0011711608963566231,0.0016336545351214528,-0.0021027514326623
1681944205.824738,0.5259436415665287,0.8752380469591592,9.874879388939512,-0.001925289390878901,7.564553708847955e-06,0.002188783980696
1681944205.835393,0.5709762182762378,0.5246172748543825,9.711989499378392,0.0015701401167828206,0.0006945099096030331,0.0028753791388818
1681944205.8447332,0.4085639513852208,0.45952572998861035,9.7896293451626,0.002882932069524463,-0.0005780490323736206,-0.0002639574545673
1681944205.854706,0.5983978253706989,0.7875294813798418,9.811369053606173,-2.0938842555572845e-05,0.000615163989093967,0.0005343908828445
1681944205.864715,0.3998443807602167,0.6138169854819685,9.826187195597566,-0.0011083366312417615,-0.0007062151977664588,-0.0032430641900054
1681944205.8747032,0.5254126065994025,0.5394051632978587,9.744402378196071,0.0015373694338768307,-0.0014102966582934273,-0.0013226754113337
1681944205.884728,0.6342654823719575,0.7986678010467793,9.775287190134335,-0.0011165386709712768,0.0003268254753646295,-1.3225277630139752e-05
1681944205.8947802,0.5332407186759808,0.5572612329719979,9.7341312831872,0.0013019118480570155,0.00022439269615958193,0.0005720099120163
1681944205.9047303,0.4324757953872091,0.7945699018044777,9.875768044561084,-0.0020731788848605995,-0.0017656902025330453,0.0008189918275685
1681944205.9147704,0.5632527170786277,0.5607956772630076,9.761490942133685,-0.0014838368367174255,-0.0004998331325939447,-0.0017495962406746
1681944205.9247532,0.6082194908263756,0.7363587425516616,9.744489208128355,-0.0010271284112924129,-3.3792865648519186e-05,0.0030556647957065
1681944205.936535,0.4895689738183534,0.5463700048058876,9.750390248680546,-0.00015539099823074306,-0.0002524704480402558,0.0018322710979783
1681944205.9453282,0.36861600380310827,0.6049840575536007,9.865409515202176,6.551048959917853e-05,-0.0028992765117313414,0.0007936614251458
1681944205.9547462,0.6506904576247163,0.5831995421297431,9.669817378230821,0.0003031699452671657,0.0002515585880550581,-0.000883106988599
1681944205.964731,0.5613165877838199,0.6270545956588902,9.753844246838826,0.000524457556326215,0.0007295313828541871,5.86798100494848e-05
1681944205.9761505,0.6139664988091028,0.6578205485538863,9.734810653662333,0.0002968391497162469,0.0030645462303921273,-0.0001938693772307
1681944205.9847386,0.2714041576033417,0.7549992468264585,9.93955453218869,-0.0019059035831388467,-0.0014542351170191152,-0.0002326554700038
1681944205.9947371,0.5876858349505998,0.667284598808852,9.758896851316331,-0.002159980990139775,-0.0006510718176189016,0.0011017403134838
1681944206.004698,0.46605293672503095,0.6927501592959605,9.821665134883128,-0.0032198312563517634,-0.0018152276154696492,0.0006554602564075
1681944206.014797,0.5506619402107427,0.5324620536270744,9.712047574039763,-0.0014991216190737848,-0.0010359048336181745,0.0001473239076086
1681944206.024802,0.4714123857878264,0.4944983586125571,9.772428865556583,9.384370308521615e-05,-0.001427435892869033,-0.0017082457511923
1681944206.0348322,0.6563986022037487,0.7109754460922286,9.718893735128328,-9.915729989366405e-05,0.0008096181143485516,0.0001521675999038
1681944206.044896,0.4502904967996369,0.6406663438378664,9.816935751457928,-0.0006873880906665434,-0.0007579883981405902,0.0002616931137391
1681944206.0548592,0.5150879259072849,0.6737294119992473,9.799733911056677,-0.0011187595389876594,-0.0012668501695488543,0.0010052749107354
1681944206.0648198,0.5203688021315699,0.46188373983421244,9.721075334706464,0.003271493252663179,-0.0015935783183856065,0.0014709198707942
1681944206.0748224,0.5640570542901264,0.6589338545294012,9.758285619576364,0.0004279874983671107,0.0006631965123317922,-0.0023333464364758
1681944206.0858552,0.5924503842294626,0.7634937369673461,9.784650949755083,-0.00037778361000625636,0.0009973622271447799,0.0015223630157061
1681944206.0947392,0.5340408267330784,0.6658753816799473,9.786424587054134,-0.001090853996484024,0.0012130672160849398,0.0007426389178955
1681944206.1047552,0.42436005887968575,0.5747167303897748,9.808694098481897,0.0002029714846977205,-0.0010109353422336992,0.0010756748065115
1681944206.114756,0.4880852715059373,0.7185747283461515,9.826941553276464,-0.0023179396207844874,-0.0012079917859044722,-0.0005615904542854
1681944206.1295269,0.5387952871976392,0.6799505187979445,9.763206149173818,-0.003250371362875411,-0.0008712372722318406,-0.0002337723586014
1681944206.1347797,0.5676321520240755,0.2829303346522545,9.640470084068223,0.0011707889398582382,-0.0008633885772358588,0.0012544875184767
1681944206.1447334,0.4559890141223531,0.600535229385771,9.79741766613101,0.0007733010239228784,-0.0015127222247375218,-0.0012623345560631
1681944206.1547656,0.5498333211827903,0.6106498903304783,9.742732396858923,0.002131189157065537,-0.0015235542976805693,0.000323919431562
1681944206.1647384,0.6445566851664402,0.802671800728032,9.785749988468789,-0.0024364096506911577,0.0012842255377975402,-0.0003101207862845
1681944206.1747086,0.37153736757227007,0.6266908646529304,9.857548866329312,-0.0008654475486310327,-0.002530486185603291,0.0012284104281799
1681944206.1857755,0.5355533331173469,0.5782644588754692,9.74895268047166,-0.0009950795978326168,-0.001611449816860038,-0.0008320497895828
1681944206.1977098,0.5496498765864429,0.5528500763784289,9.740388467822564,0.0008347710833407675,-0.0009770484251418136,-0.0010261460288665
1681944206.2073238,0.48631438674719407,0.7483886640890905,9.833005566344138,-0.0003640320393586277,-0.002165394880684828,-7.545823112641709e-05
1681944206.2163322,0.60003094220593,0.5753816123542072,9.70906116793269,0.00082546690387702,-0.000876451409103235,0.0005325202050381
1681944206.224747,0.6240661627293136,0.6892049822138795,9.731219452904657,-0.00010326982576814844,0.0011311157784681268,0.0007873421686464
1681944206.2347949,0.3718796592034278,0.7220011097982594,9.884045243062557,-0.001926776823803307,-0.0019906869140624223,0.0001704216387816
1681944206.2448225,0.593433882632054,0.6206912408754106,9.734312737083352,-0.0015829309830466347,-0.0007307951076272732,0.000682640323671
1681944206.2547736,0.4521198823780088,0.5362584860014485,9.78894222371189,-0.0006869942532760897,-0.0013957579797790529,-0.0017898263490996
1681944206.2647345,0.7396302352991565,0.7833616793032535,9.707883841362122,-0.0016902183195657118,0.0016910199052508725,0.0021001528343414
1681944206.274745,0.3893415789174286,0.4087488761001375,9.762661272100146,0.00104448483626866,0.0001890094386295663,-0.001399049217557
1681944206.2847357,0.4542794104324666,0.6365435446597879,9.829183488425889,0.0008396251587433283,-0.0012486185243526448,-0.001575618897309
1681944206.294801,0.6707495275298316,0.5917364227134946,9.681165230867927,0.0012717433415834628,0.002220401295382469,-0.0026514713268033
1681944206.304735,0.5018115266197078,0.7290300326442323,9.820564298255293,-0.000250407323599591,0.0013058270792418796,-0.001388614679431
1681944206.314789,0.536292660456821,0.7380189308664439,9.80620281519593,0.00048646122485101014,-0.00014779379179137925,0.0033548193436809
1681944206.3247871,0.5336642889505143,0.5625685828758794,9.741135613052641,0.000280059267947932,0.0008748123993489949,0.000379774222406
1681944206.3347704,0.5899325844992276,0.72193702401195,9.77786280158699,-0.0009079400601099722,0.0015777696635631785,0.0019392177032069
1681944206.3447824,0.463637077235232,0.57744857969792,9.786815538572595,-0.00037037472039750296,0.0008930750732055665,0.0002367484534853
1681944206.354781,0.4453211866289157,0.5538381045433359,9.789004173642427,0.0013965531251244185,-0.0008451666519778571,0.0007076217711665
1681944206.3647895,0.41475421850734995,0.5308118382259523,9.81399684421925,0.0012341051099133181,-0.002081217370896304,-0.0033145958173326
1681944206.3747823,0.6506123981575757,0.5772860737658636,9.676801321829698,0.004478110932766536,-0.0003191117451390588,-0.0005515119142136
1681944206.384788,0.4974350471822009,0.8382920700743381,9.868101339000289,1.7429614702790695e-05,-0.001163284491724948,-0.000145862143231
1681944206.3947265,0.5068262486402745,0.5828329247511129,9.770059627270886,0.0010832618861017602,-0.0016676824191894871,0.0001763989834808
1681944206.4047685,0.6437387340556042,0.7321930016545888,9.736036800477232,-0.0010669987053558779,0.0011575502093915016,-0.0005262155632725
1681944206.4147353,0.5162320218710763,0.6805071399971051,9.79681539380087,-0.0010964166934669787,4.295351857283577e-05,0.0015990726364771
1681944206.424754,0.47514122183412477,0.5007227736990781,9.75615679562964,0.00021672245916318586,0.00017484042874402122,-0.0018658322829059
1681944206.434845,0.5875762926776427,0.848575860616156,9.801628779239048,-0.0025883977455177973,0.0006609659067583884,0.0010696959484131
1681944206.4447396,0.4911147640905618,0.35524077554795047,9.695260987291741,0.001082898202757947,0.0013162453648091522,-0.0026883661362579
1681944206.4547834,0.4322674366936544,0.7704991161938344,9.875468285127544,-0.00084868348983386,-0.0011230453311148005,-0.001510422358965
1681944206.4698985,0.5820174820501312,0.7085556733860111,9.772356973836455,-0.002341417725480577,0.00034432154338453395,-0.0002073183737001
1681944206.4748,0.3515662840395423,0.2009145045939646,9.729001189120812,0.0020898239803538664,-0.001516432350888055,-0.0001432515296391
1681944206.4854016,0.5533724185510394,0.8365719900308309,9.821184332029997,-0.0024505512591600606,-0.0007561313630256715,-0.0002006214658967
1681944206.494764,0.6047078874073113,0.5045143847958852,9.681173049072868,0.0012762207577407328,0.00017110770537107924,0.0016143409570441
1681944206.5047858,0.6513107809387121,0.7902926540044305,9.77064048014701,-0.002212903828327151,0.002670763347498891,0.0012898952386104
1681944206.514812,0.43903862221214296,0.5070709431841867,9.762814289428299,0.0003132290265714044,0.0014865037573936815,0.0005228327040323
1681944206.5247805,0.3426336882606195,0.6819584706553026,9.886973768232824,-0.0017673308531989246,-0.001813380353612098,-0.0009683963458291
1681944206.5348668,0.5019856408727115,0.5504768143557239,9.757900647512852,4.276373141765284e-05,-0.0020584928926385467,-0.0008626153308204
1681944206.5447834,0.6094984633877669,0.6403052258102432,9.732194348937016,-0.0001464739299033629,-0.00025394820047331947,-0.0019615622318587
1681944206.5559802,0.5896395484666309,0.7309156440319332,9.777550314479491,-0.0015441888935795267,0.0005298575512667785,-0.0001458349020457
1681944206.570074,0.5181038710220369,0.5697316026118334,9.757746540465842,0.000590011474534583,0.0004281534761849342,0.0001048528042384
1681944206.5790534,0.46597274442827064,0.6980048776506113,9.829567507720057,-0.0006318694440117725,-0.0005076347729206946,-0.0005720205686292
1681944206.5847168,0.8029693444944861,0.5269252157780088,9.572392911677875,0.0010251584102435084,0.002590301944250414,0.0006852965720691
1681944206.5947502,0.44071901929610774,0.9284656284252121,9.924001598964544,-0.003209763103773884,-0.0005329741696992878,0.0040804895956763
1681944206.6048114,0.46800572357329073,0.3107969728836263,9.693223198996293,0.0005073321462833803,0.0003413674970108071,-0.0018166305112889
1681944206.6148243,0.5358317501933172,0.6730195765004873,9.782939605273484,-0.0006374640319540608,0.0008148306953373201,-0.0023050360928527
1681944206.624772,0.5376830869279895,0.6898396882727538,9.786228767068199,0.00035832019564747584,-0.00014518759276939725,0.0012310133001529
1681944206.6348865,0.5662965182471741,0.5915044725703665,9.739651360240723,0.0007751372449237882,0.001250340670298084,0.0003656303428807
1681944206.644851,0.5582307104393569,0.7696822235294986,9.818620301878724,-0.0022434521341312247,0.0019227100733412844,-0.0005776541388831
1681944206.6549923,0.25964069044613974,0.4693564814088759,9.850627872712936,0.0007472328176099511,-0.0031716049486552886,-0.0016765740315667
1681944206.6683912,0.6293675320695211,0.6415225308358365,9.71283787945709,0.0008385308802074648,-0.0002930647436835467,-0.0013226542237452
1681944206.6748505,0.5511798057861017,0.7145987820312343,9.784996982660386,-0.0006058051372923539,0.0003614515413211435,-0.001992116830056
1681944206.6847873,0.4759904676664411,0.6852705620097528,9.814692579066959,-0.000488842733199175,-0.001191616260430383,-0.0001231376395798
1681944206.6947615,0.46065269430135697,0.5267994957617923,9.77010378300402,0.0008235912499694219,-0.002203791948856924,-0.001316342650657
1681944206.7048252,0.6565435048301592,0.7673646111707131,9.753664715417182,-0.0023887039288195255,0.0008003060308347529,-0.0021094504359415
1681944206.7147715,0.48531039646687557,0.4986561528278906,9.750463419116755,0.0014412590785080886,-0.00037203836729522954,-0.0009732350322655
1681944206.7248647,0.526079966509578,0.6975285951046912,9.794370398545382,0.0009338582291972317,-0.0008060314933037725,0.0007973831065693
1681944206.7348504,0.6938226018972057,0.6409249379167777,9.704089122018912,0.0009506230999942326,0.002565726937687889,0.0003321192611702
1681944206.7448118,0.4428150104759286,0.6226450915489489,9.813998536786576,0.0011435794883974918,0.0010409731154684234,0.0002359845361434
1681944206.7547894,0.4435704345569382,0.764935007339521,9.860520794450393,-0.0015337430427487687,-0.0008049312808407179,0.0008808184333839
1681944206.7647686,0.4351811931091091,0.4700091747221462,9.773144175487035,0.0012490288150005776,-0.002416854593037894,-0.0003298850811324
1681944206.7747872,0.6325123223002413,0.6237199019118023,9.708349764876893,0.002130803560606955,-0.0005474992239844475,0.0008677945274622
1681944206.785985,0.3935512869737044,0.56339994641355,9.826799767487739,0.0028449423600502136,-0.0031611861480725207,-0.0007500903762183
1681944206.7959938,0.7501782409165334,0.8737796977383249,9.736941428737646,-0.0005588595738996566,0.0006106852283954889,0.0021284405060806
1681944206.8082175,0.4542753248827251,0.5715499708156138,9.79397996030556,-0.0009593099148335045,6.716687235420992e-05,-0.00160206915692
1681944206.8147535,0.6076686774131513,0.5784555941827564,9.719829647765373,0.00016535452845879502,0.0010156203848408648,-0.0009706261649033
1681944206.8247895,0.5516121388486386,0.6126833374649727,9.753909906953316,0.0012736115476990042,0.001353146966766268,-0.0002110383088937
1681944206.8348105,0.5270620115001202,0.5403408556003897,9.741936887666338,0.002587878860284708,0.0017808233266139,-0.0013375630683503
1681944206.8447895,0.4356009861959977,0.7056553920273064,9.862417949404009,0.0019888666055167072,-0.0009352998759763683,0.0007146729307943
1681944206.8549094,0.6499297232615161,0.6855703215857667,9.722341352972004,0.000557613060382857,0.0020188435000972334,-0.0001108404563045
1681944206.866125,0.40286847265580267,0.6506831845142991,9.838151665390697,3.383119243898359e-05,-0.0005262775022915459,-0.000252402535384
1681944206.8747914,0.5931897101755917,0.6697896841673954,9.767792749899968,1.1107067903395362e-05,0.00016440022272488087,0.0009385761490785
1681944206.8873825,0.4451273406943265,0.5663986296357854,9.78657091724087,0.0009625598982537472,-0.0012210445888751775,-0.000862224175339
1681944206.8950262,0.43992231773124074,0.5665592173546279,9.79465502630415,0.0019393447964761118,-0.002641853688680844,-0.0008942486333898
1681944206.9047744,0.4896254631455996,0.8618731914556443,9.880824982130132,-0.00236485188540714,-0.0035206597528873213,-7.918876011436121e-05
1681944206.914808,0.7503651212211976,0.49628615919559055,9.60696666233579,0.001785092993838181,0.0004683879200194977,0.0019336070813234
1681944206.9248068,0.49924500048989817,0.6756993250849772,9.806414422114042,-0.0006184500107440145,0.0007403149281055703,-0.0005120578303239
1681944206.934887,0.5004824459898853,0.6529874764915139,9.80163520279681,-0.00042845045109499933,0.00013534039500753253,0.0001786114566722
1681944206.94479,0.5152119872184379,0.6164503216564365,9.756171168522439,0.0004894370155462395,3.438303983353687e-05,0.0005969623720967
1681944206.9548562,0.5464019557785139,0.6861110656538101,9.777725466699021,-0.0006121093558871934,0.0006170162179547333,0.0009173708653771
1681944206.964786,0.3812056836202656,0.5332415275541418,9.819453522143714,-0.0002660779221271824,-0.0012862238402158869,-0.0026917258824459
1681944206.9748363,0.7028022162072646,0.6708533037692388,9.684221508818622,0.0008653343805175158,0.0011847478607138514,0.0012138820870542
1681944206.9848263,0.37837913926288336,0.6770920131583013,9.88411245214997,-0.0004113408592009582,-0.0016315709763769501,0.0004904225620203
1681944206.9947994,0.5418852556560328,0.5549437761590542,9.731524980694802,0.0007211683618728128,-0.0008477662520785804,-0.0004978793754479
1681944207.0047903,0.47880512955777976,0.7094069135677266,9.821962511545351,-0.0018284308237976265,-0.001144304903066701,-0.0022349950473061
1681944207.014815,0.45360421665131656,0.6699230444877472,9.82857857703188,-0.001455909293031845,-0.003166023325104287,-0.0001354156143269
1681944207.0248506,0.6349779269932514,0.5172753302481451,9.67520521664332,0.0012274185888660719,-0.0009941652085532606,8.74101303006275e-06
1681944207.0348244,0.5601356460193673,0.7064507275054898,9.780194743341855,-0.0004452431833880203,-0.00010717709572194434,-5.0109726121176645e-05
1681944207.0448823,0.5813183614164364,0.6307640698957888,9.744825173273076,0.0006879949015677578,0.0004180933569111207,0.001805469840715
1681944207.0548124,0.4332417739769429,0.5922506439827155,9.805698692492625,0.0003888521030431731,-0.0005877350025720975,-0.0005586195352724
1681944207.0648675,0.4995490146815002,0.7946682224289878,9.83590613683551,-0.002941168242810733,-0.0010720337897729042,-0.0004848580888709
1681944207.0748522,0.5132176973347684,0.5025763121954375,9.746815608106678,-0.0008103138975148496,-0.0007408571619903963,-0.0019544820848158
1681944207.0848515,0.5574595384093313,0.637783133528819,9.761355382970557,-0.0005610920000903993,-0.0004029532292273233,-0.0012120252090743
1681944207.0948627,0.5214307790991449,0.5866821021864785,9.74988309798403,0.0007557955764357072,-0.0004752233933366457,-0.000604438976129
1681944207.1048634,0.6037286860906673,0.7741201429779773,9.781721295609778,-0.0020001780150388,0.0011650195013019362,-0.0009173393796435
1681944207.1147892,0.5950282307511332,0.5117902923313007,9.692409884013328,0.0007967654425422274,0.002618985607826167,-0.0006297900422713
1681944207.1259923,0.3769736168195107,0.6577700585675236,9.865411495833932,0.0009066721875103636,-0.0014061893367059881,0.0004807297059097
1681944207.1348398,0.5100341325838109,0.6917468277754529,9.801509542058174,-0.0013534432594119483,-0.0007762313987702519,-0.001894126328384
1681944207.144851,0.5922022395064748,0.6064534546645209,9.724176283555002,-0.00030852305183840515,0.0005514381772871201,-0.0013983104459247
1681944207.154886,0.5215890418271343,0.7275924332082826,9.805353879256703,-0.001055443358407628,-0.00035268174845516507,0.0009229305701092
1681944207.1648197,0.5516910178121434,0.4893976942166154,9.697964304817699,0.0011659493375484758,0.0008856246112614798,-0.0005887825123271
1681944207.174827,0.49349072923665915,0.6615130402261007,9.80604527710206,0.00024654040405829974,0.000341711394329103,-0.0010641505091688
1681944207.1848016,0.49327168417396916,0.7291492579217894,9.823851932763297,-0.0010848460205930258,-0.0006100940309975755,0.0004844634945266
1681944207.1948266,0.5477226263279108,0.5036635624651835,9.721165163677846,0.00132539459711959,0.0002560460844779766,-0.0007161823182604
1681944207.204821,0.47867247782753986,0.6880725493229405,9.815105376969472,0.000178007482500501,-0.0007851745509025257,-0.0002427100285193
1681944207.215024,0.5876989224180662,0.7708032398553846,9.786801755883177,-0.001711092368528842,0.0002746600545973224,0.0012913574732602
1681944207.2248118,0.453833081298595,0.5614918796426784,9.78051604290941,-2.055140161382958e-05,-0.0012314643898923253,0.001432928254385
1681944207.2353544,0.5332858816839231,0.6050384113954198,9.76428104038463,-0.001040181371291002,-7.996170352326176e-05,-0.001411324980413
1681944207.2448158,0.5837534618093918,0.6196438904067882,9.739142095503151,0.0010284921467015736,-6.73136265772008e-05,0.0014709319488839
1681944207.2730155,0.5091223252749123,0.662258422686427,9.786030122903433,-0.0006780577885821513,-0.0006235078383286223,0.0020539317897283
1681944207.274537,-0.3615175874925138,-0.06868857025451819,10.019535607928022,-0.0001621177956299082,-0.0024131257131784238,-0.0011632350820354
1681944207.2756555,2.004925669256074,-0.02117279117241566,8.748654029071497,0.002319290633705247,0.0005216628514741901,0.0005388303811424
1681944207.284824,0.6335982245360227,0.6824606738487784,9.737334991863843,0.0013589047235549926,0.0025463583741928697,0.0008782191702858
1681944207.2948053,0.3748771611335089,0.6147182560789378,9.858782110870752,0.0009454054217067274,-0.00026327750451704936,-0.0007609176996401
1681944207.304956,0.5231250459989275,0.6390758248277262,9.766318434641919,0.00232750295258574,-0.0012016745213906518,0.0020699631108664
1681944207.3148365,0.5102078748357628,0.6441835403769135,9.778763012038414,0.0006723456905034247,-0.0006041219187346651,-0.0007042688398859
1681944207.3248105,0.5878242833402665,0.6980056386457699,9.771511992650524,-0.0007294815029377579,0.0006747539480026051,-0.0006890112149766
1681944207.3348596,0.5304402758988541,0.6008666002399594,9.75525159128353,0.00027521176112450905,0.0007768288697326554,-0.0008790168526819
1681944207.3448622,0.42587162310294685,0.6814851144240014,9.854010527220108,0.0009312632654126091,-0.0024481546268532235,0.0020915530889988
1681944207.354887,0.6497937496989743,0.6850607289911773,9.716009245629749,-0.0005346394653929199,0.0007138746697802849,0.001236222478351
1681944207.3648658,0.479383611490095,0.5806740263599285,9.777361501750326,-0.0015449275277882974,0.0011251652254304423,-0.0024063509504548
1681944207.3748307,0.6311903686638394,0.6746914903315544,9.73226018929501,-0.0006151212585644521,0.002022946123711629,0.0013155866449461
1681944207.3848584,0.41096117770546425,0.5640965817702136,9.809276795072472,0.0006209591063166046,-6.025155759680857e-05,0.0003820131218754
1681944207.3948922,0.5545976437972725,0.7718992694142061,9.80181622265779,-0.002296337333208071,0.0006680447333339425,0.0006275067257457
1681944207.4049234,0.36759602055894497,0.4877355613925897,9.809331799720866,0.0010512258420813617,-0.0026537804667989785,0.0005943593255006
1681944207.4149823,0.5297714894936677,0.669548012287687,9.788741537143697,-0.00033906590032529413,-0.0021873878224116135,-0.0010097524232468
1681944207.4266222,0.598483830139604,0.6271515885916029,9.73647963083231,0.0005255834600858927,-0.0007374956171086914,4.712442520494325e-05
1681944207.4349153,0.6244011223946391,0.8027940659787116,9.78376964421373,-0.002219229804717872,0.0006844401733799508,0.0006766897544958
1681944207.4450886,0.46587429288218435,0.5400874289083176,9.76441719010155,-0.0013117640528993446,0.00042329554054718825,-0.0015752580098113
1681944207.455066,0.591016099166217,0.656279104857662,9.735122303272428,-0.0013642782095291256,0.0017469064110668185,-0.0009661541867307
1681944207.465277,0.42716000076285277,0.6719841895062547,9.848259630498559,-0.002615206989294476,-0.00031952626357399926,-0.0015912732656351
1681944207.4754858,0.6311430104440348,0.5345263879401977,9.687212531949223,-0.0002477968673528266,0.0019573791952189534,-0.0011893107171407
1681944207.48482,0.43682239323365246,0.5446364369089084,9.790157245582462,0.0016752124500306023,5.9697205666828316e-05,-0.000399551036512
1681944207.4959707,0.49632771591906405,0.6540015203205559,9.797784768032672,0.0015153877575205294,-0.0008328627505215459,1.2466186913202835e-05
1681944207.5048609,0.5841378240138688,0.7917901918734364,9.795352474696283,-0.0006158555744423751,-0.00029232377779949575,0.0015182323672571
1681944207.5148854,0.475743913938122,0.5617464580645116,9.774462731818785,8.338013250904789e-05,-0.0007524013277731804,0.0001257095404663
1681944207.5248485,0.49475817888220447,0.6873674267234179,9.805544893162178,-0.0015423289075118844,-0.0007274232629199081,-0.0014414998318306
1681944207.5348952,0.5025570015994361,0.5448188175948133,9.752710508782322,0.0008407416305944441,-0.0013547937186787601,-0.0004665983456424
1681944207.544937,0.5730376396456952,0.6682505913056368,9.755195035999135,0.0009867665193564904,-0.0007512736600555809,0.0011498062790134
1681944207.5548642,0.5347186254988439,0.6148060780106449,9.772744424570046,0.00037917342581601516,-8.449942120734348e-06,-0.0006614273029616
1681944207.564834,0.6353778372781752,0.8621514844633348,9.799513035040656,-0.0022799455750738195,0.0009694279797276057,0.0031815683155083
1681944207.5748482,0.3670716781644183,0.37415500345038577,9.770860457516612,0.0007166739704017591,-0.0007806978837009156,-0.0014161804306558
1681944207.5848446,0.5298643043813666,0.6851984637639593,9.795961745991422,0.0005170090351758272,-0.0014065642385182532,4.152263633395298e-05
1681944207.5948565,0.6058980152483578,0.7447248791210703,9.760450815009403,-0.002063095898869801,0.0005730597628756977,-0.0003384700126252
1681944207.604844,0.5631899954744635,0.635467634522273,9.754685512349687,-0.0013568361781641004,0.0009325463300360496,0.0014466939005297
1681944207.614912,0.5122212283064878,0.5661514796817316,9.757127460565009,-4.96112488622344e-05,0.0008386759758128492,0.0008204923046515
1681944207.6248991,0.4959090307756099,0.7130709740158304,9.826586612844144,-0.002520614442936682,0.0006550170308514474,-0.0006573220330527
1681944207.6348765,0.4613688781454425,0.668505614446116,9.819961783476666,-0.003201597635698035,-0.0006574220106495232,-0.0006383200257322
1681944207.644889,0.5316158978301089,0.5035551117508046,9.719543908169706,0.00010313166785624712,-0.0007259350668505147,9.40641307034598e-05
1681944207.654891,0.5003024114821991,0.8331969015137751,9.87058701187994,-0.0037983713083482233,-0.0015868584362097222,0.0007191728486442
1681944207.6648965,0.5650154531505386,0.2434581591463429,9.614233994874619,0.003247626430446378,9.289557741307944e-05,-0.0015413574024341
1681944207.6749809,0.4625082530599738,0.7085726476823373,9.836555653650723,0.0007416379446827082,-0.0009520675740293716,-0.0027479712466946
1681944207.685407,0.6444742491225128,0.7610315416137312,9.753955740530674,-0.0006627827875607457,0.0007470331386871898,4.6751081267844274e-05
1681944207.6948388,0.5709229715203611,0.6056404239587279,9.734393303470751,-0.00010808823024153798,0.0018672368539510496,-0.00016630327676
1681944207.7048445,0.5520150482692499,0.6713734749642396,9.770486488896482,-0.0009519068168382425,0.0026115657772281817,-0.0004360004409453
1681944207.7148492,0.4161817441081997,0.47802127658279364,9.780611374518386,0.0027097343803698802,-1.556651281865679e-05,0.0004110728309252
1681944207.7248409,0.45540155092992235,0.762137345674777,9.847611220551247,6.587753802620373e-05,-0.0013603728836729268,0.0006878615508549
1681944207.7350037,0.46215101556759447,0.5923362492989436,9.789804848885806,-0.001274101748036798,-0.0012404134188759616,-0.0032829210709086
1681944207.745237,0.7621432434644105,0.6984398750974968,9.658030877190534,-0.00038824408818501267,0.0027005770310431585,0.0008801000344329
1681944207.754864,0.4026073399958636,0.6665983978768415,9.847164037363013,-0.0013188328837308591,0.0005075050104945075,-7.208300170068876e-05
1681944207.764863,0.3523196637930159,0.6654630266474665,9.885354390973415,-0.002640906903620808,-0.0029700696806440616,-0.0009337523102066
1681944207.7749116,0.6038666159168924,0.582040443888884,9.701298658230694,-0.0010740603663337864,-0.0010955085832862826,-0.0004595193627527
1681944207.7848325,0.6268182112928822,0.6167680484374873,9.70785164379548,-0.00016063523534567685,0.0006975009158965348,0.000798528633336
1681944207.794881,0.43500538704805375,0.5822422030569973,9.804603253665189,0.0010828808216510643,-0.0011711207811880276,0.0012179804884591
1681944207.804907,0.542123005162259,0.5586571869393745,9.736873215496718,0.0015865677118711014,-0.00026921542927026116,-0.0006193012546054
1681944207.814876,0.5838902923097171,0.7636453110132103,9.796162101599794,-0.0006501352203353804,0.0004717339863606759,0.000266162996436
1681944207.824831,0.5929338802667409,0.5460228591790736,9.701186371784617,0.001950869148014236,0.0014194524119849569,0.0013748071191595
1681944207.8348663,0.3135215134874955,0.7016410501878175,9.915071489879875,-0.0015337675950095099,-0.0018401825717961145,-0.0026589344802549
1681944207.8449402,0.5694216115431862,0.6888465884195853,9.777204677254073,-0.0012510016208683288,-0.0018938238262380003,0.0001447216759198
1681944207.858322,0.5602297819175127,0.5704845556558004,9.728825038132108,0.0007051482034948264,-0.0009744381555158553,0.0005034784239479
1681944207.8649292,0.6590941802861406,0.5239277262648786,9.66558597006958,0.0006235341626203529,0.0016697870008560687,-0.0021411275106719
1681944207.8748827,0.5154962650148057,0.6532618437036909,9.784534754206959,0.0016081519047333526,0.0004851484628657887,0.0004882106709056
1681944207.8849108,0.4328217634562028,0.731809987752082,9.846095912094807,-0.0014778860984488423,-0.0005854910449424279,-0.0017436266958019
1681944207.894878,0.5502834661442879,0.6805717954068196,9.779248269743002,0.0002573569429059375,-0.0016483249756131465,0.002972959509375
1681944207.9049206,0.5926627923590759,0.6854731275137281,9.753593537936755,-0.0016593064640580476,0.00031711872253141943,0.0014481814846159
1681944207.914896,0.39483433210024776,0.4236401693594027,9.781270025447785,0.0010266338166314854,-0.0013424754948176093,-0.0020878439850411
1681944207.9249768,0.4813027036127102,0.7709119779054056,9.836047374554576,-0.001978911877325646,-0.002069667412522847,-0.0024693209293535
1681944207.9349968,0.6362847883046848,0.6926649847928685,9.726619196634912,-0.0017963974553517868,-0.0003344357293622298,0.0001182522077807
1681944207.9448593,0.5818558238567072,0.668142733363053,9.76261314426453,-0.001785240699351641,0.0004199547942123801,0.0008752681582928
1681944207.9580934,0.49085127998232064,0.4970450180761969,9.754779052976478,0.0021967431133640787,-0.0008302561496580189,0.0013066504884273
1681944207.9649615,0.35447838325723147,0.6512152448636002,9.857167253125546,0.00118458774229399,-0.0026537755145060013,0.0002401015639999
1681944207.9751267,0.6933252519321665,0.8688670732787076,9.757089874152571,-0.002793289678180717,0.0005425144029144302,0.0016653969045956
1681944207.985003,0.5018446822670606,0.5393704882824046,9.751749482528323,-0.0019852609822478477,0.0008651190035277663,-0.000330998011609
1681944207.994875,0.5209259637582455,0.5369525472858502,9.737642611775115,0.0009670256334792442,0.00025417992722744586,0.0012682868086495
1681944208.004974,0.44933765676856047,0.7407536746546916,9.849269001129297,-0.0016041660793240796,-0.0010340272168066753,0.0002948532032542
1681944208.014964,0.584991916159087,0.5339166080303134,9.70060796154761,-0.00013304422765244932,0.0006557616724544042,-0.0010265045880577
1681944208.0248628,0.48916893558295443,0.583370670496187,9.78893838714326,0.0015202259185606226,-0.0005471264525320452,-1.733403999869959e-05
1681944208.0349123,0.5614509256624194,0.7661605884844738,9.803561998873386,-0.001676819521443116,0.0003178839903846518,-0.000891275618901
1681944208.0449004,0.48986689463109245,0.4226941315253494,9.715633365018672,0.002186651697192859,0.0001614385691744937,-0.0021169256965867
1681944208.0549445,0.5785285661887436,0.7392787618384625,9.775081196295872,0.0015619487742775122,0.0003916402941409041,0.0005679011496477
1681944208.0649135,0.48102310008112353,0.6669002065370453,9.801523253675924,0.0007844932255814037,-0.0002088878782470191,0.0003279950155639
1681944208.074855,0.5569421108579381,0.7973304910358041,9.819052372987347,-0.0015978351689520602,-7.711992876017044e-06,0.0020494540489972
1681944208.0848918,0.5778645653766736,0.43943450863736555,9.672083467428731,0.002525296197197695,0.0012097345279744732,0.0015443081915373
1681944208.094907,0.4793729235059365,0.7362929654983518,9.849543055891255,2.5575803554009323e-06,0.0002757810248576401,0.0006305100082182
1681944208.1049418,0.5778582930538,0.41536624061782496,9.658474889574464,0.003921546994961288,0.0023053319071635967,-0.0005131642415425
1681944208.114962,0.37781506848559543,0.7233319351192459,9.883996185476747,0.0027719241397307897,-0.0013301662296770782,0.0006360688398354
1681944208.12489,0.44361544925134205,0.7317796377465984,9.846134775943483,0.00040787074937328994,-0.0027342496085997693,-0.0001104523276216
1681944208.138502,0.6003450228377499,0.5992102804264805,9.72721520123309,0.0016424105028931863,-0.0007922577969398424,0.0001834417612054
1681944208.1448812,0.6924977662504476,0.6675987378219407,9.695330046041565,0.0011160193974768039,0.001540151697782605,-1.733706679706709e-05
1681944208.1548924,0.38157569286401977,0.7122123795734728,9.885194290163078,-0.0016172236537056882,-0.0009699815367757962,-0.0022357494185916
1681944208.1650448,0.7371667613448578,0.5211313584641099,9.63380279720279,0.001564545106687859,0.002921867716303114,-0.0004334246355346
1681944208.1750052,0.39659719930162407,0.8207867456402007,9.908859551008412,-0.0022836685306829034,0.00013347585366896552,-0.0003336024551889
1681944208.1849303,0.6777733532287529,0.41065618878942606,9.632262680741695,0.002376292923864245,0.0032441116721184707,-0.0003779126878133
1681944208.194914,0.3662322527561476,0.7581105652270136,9.894114500688676,-0.00034017259677067354,6.977249320931186e-05,-0.0005917636758885
1681944208.204901,0.5709656463458089,0.5744561299292317,9.72681457750264,0.0014330447954557714,0.0005998832141061547,0.0002993027132698
1681944208.2148771,0.40934563877691665,0.7647034415205779,9.884264170784805,-0.0010628840882975596,-0.002140066070794203,0.0009419282700629
1681944208.2248974,0.6601027083145776,0.6428770000871012,9.707372234746495,-0.002551871557581016,0.0014697137217973555,-0.0012135432648709
1681944208.2350214,0.47729172594039726,0.632309621493864,9.80044686091301,-0.0020907014605251427,0.00026460332460167505,-0.0005563785403273
1681944208.244979,0.6299580683825345,0.5116574574250301,9.678121085685587,0.000987111226355417,0.002187611466200977,0.000174508980731
1681944208.2549322,0.48571750560762017,0.7053475955421177,9.818970847613794,-0.000683293288876484,0.0014101305664377675,0.0004505554365688
1681944208.2656476,0.4759303650033991,0.6128919498823855,9.803909458713692,-0.00014013892360475373,8.430747694676929e-05,0.000526562418113
1681944208.2754292,0.6985690983620257,0.6097299652612121,9.674007238140614,4.871455667590595e-05,0.00381144252808977,2.359991546208723e-05
1681944208.285001,0.35154538856251255,0.441513648062141,9.79735938333824,0.0026169366775328977,0.001133747696626349,-0.0024644701357236
1681944208.2949152,0.4773694018208789,0.6832705975074034,9.808982125442668,0.0029064058512570834,-0.0006767457635136805,-0.0001812234136513
1681944208.304911,0.5621362311523168,0.7762653835392098,9.799165451711932,-0.0002176225949326623,6.977095576159667e-05,-1.5847416338969633e-05
1681944208.314922,0.5465515914074399,0.5880535197439792,9.740016345919937,0.0006116237930485408,0.0007175953183799811,-0.0003086600068262
1681944208.324913,0.47148545602219816,0.5672144965869883,9.784383180128563,0.0015608366899829743,-0.00010272528919165203,-0.0013528565491787
1681944208.335014,0.5114216537071532,0.7557705127811587,9.824783810424975,0.00013368340804478294,-0.000921155680656616,0.0003436481033214
1681944208.3449752,0.5939390470550852,0.5842447599421368,9.719806725693239,0.0011976246776259623,0.0007496492711140603,0.0001108358532884
1681944208.3549733,0.5107728559483774,0.7310215680404751,9.823998454683377,-0.0009049369583814151,0.0004065302526191549,0.0002486412099325
1681944208.364971,0.5150111157479111,0.6567968501492332,9.792328289878329,-0.002015453882026484,0.000493718656521188,-0.0005317816126397
1681944208.3748903,0.4622850545855491,0.5607784527082955,9.775801518989013,-0.000671726960030694,-0.0005534535046356537,-0.0010414087760499
1681944208.384929,0.49077799267426564,0.6138827177682833,9.77892611335829,0.0008589935221395137,-0.0018178311890317573,0.0010637520149112
1681944208.3950002,0.6230585185734255,0.6955358297081644,9.743844576977468,-0.0006836594500585234,0.0004691266598535129,0.0006185775541463
1681944208.4006703,0.6106089954718104,0.4159264000311586,9.655286827774336,0.0015965833780135705,0.0017524838098057264,-0.0001875997136584
1681944208.4140737,0.4358673000889959,0.8015219595781955,9.880294915977641,-0.0025623078888999612,-0.001232582959202601,0.0011583721183934
1681944208.4238925,0.6279464107879598,0.477380701308217,9.667964706431082,0.0013738273139185042,0.0005250002981855865,0.0020584038843163
1681944208.4357722,0.4497730979696042,0.6026688863759235,9.79520532319787,0.0006015729174807491,-5.612387097376925e-05,-0.001046618128871
1681944208.4439137,0.5869541773743304,0.581226149703809,9.729529758224158,0.0016822659803996036,0.0009649942224856328,-0.0010224123566648
1681944208.4539692,0.48700594406075237,0.7850873378283486,9.843427163296946,-0.0006844133299086872,-0.00048381016749273007,0.0006301219959505
1681944208.4639056,0.47337069395027237,0.3919034501099607,9.713431065542176,0.0038444372683529822,-0.0010504408230035016,-0.000287435631012
1681944208.473923,0.4852985372199836,0.7651561143402449,9.84363490365769,0.0005445843416992441,-0.0016732724243507405,-0.0012775928794643
1681944208.4839463,0.5795391052271937,0.730431089613589,9.792482593808895,-0.0008203576359045063,-0.0010016333303017762,0.0001659439562582
1681944208.4940417,0.4484623358581761,0.6319267337842898,9.82064689976206,-0.0007704362692256563,-0.002571092703681273,0.0001931566198119
1681944208.5040295,0.5699979283216284,0.4712303335496394,9.693952399716915,0.0017687147145621783,-0.0010079677189610348,-0.0014392709440789
1681944208.5139506,0.5646402026702255,0.7649878209692953,9.79360263111999,-0.0001885548541951155,-0.0008730876016244106,0.0004248651361786
1681944208.523977,0.6174050704178936,0.5621559828718121,9.696681711737035,0.0018390994893670587,0.0008077671317957779,0.0010976238094964
1681944208.5341313,0.4430614511788945,0.770876077296832,9.87917264430666,-0.001184332693682567,-0.001039250531346407,0.0008305413916469
1681944208.5439465,0.5907691378138166,0.4977598418992019,9.678787091616318,0.00013219232751731025,0.001416469216369098,-0.0011177730362168
1681944208.5539787,0.37005571273383103,0.5990857243631135,9.843063990867357,0.0009789422076721427,-0.0017898906259738512,-0.0007769187527946
1681944208.5640166,0.5621767427526994,0.581936421661868,9.740722209682158,0.002091698409521557,-0.0010436774364883242,-0.0009832805103859
1681944208.5739534,0.6012528003988094,0.7765996843302936,9.783519951200159,-8.462376195119279e-05,0.00014539912552716095,0.0004893120762654
1681944208.5839756,0.6861168244547073,0.7338752069939135,9.73379648725507,-0.0012972457640036043,0.002950170465907268,0.0024301782518387
1681944208.5940115,0.29275560245773524,0.5291040285042498,9.878317735010377,-0.000870653694994498,-0.0009640001155103526,-0.0007228997151604
1681944208.603958,0.6464936323409046,0.39052126681229316,9.748581166913288,-8.239089452932255e-05,-0.000389172226552207,0.0056011496030488
1681944208.6139934,0.9280262600991802,0.9154783393706578,9.908703422576595,0.004284385873138662,0.0034358420602545207,0.0391652536031552
1681944208.623953,-0.1070274244711486,1.436302377682984,10.175224137528796,-0.002184994217604253,-0.008855459384904833,0.0541326877114125
1681944208.63398,0.9537107564012134,0.32545838115162967,9.792221304188468,0.0016155727925973853,-0.007716133988889394,0.0456667904195138
1681944208.647068,0.8422169045272891,1.2296596177700716,9.783376021231954,-0.006196530709395108,-0.0014817389703632616,0.0380241897341557
1681944208.654614,0.9986269037184717,-0.5740693808088235,9.798153447600455,-0.008050685928426794,0.011681931256158722,0.0131775493186661
1681944208.6639352,5.758506811600064,-6.45469593346039,7.3167541405040675,0.06071711881215783,0.07359449389682267,-0.0085649743291786
1681944208.6739402,-0.1864176375589335,2.9430212630922497,7.9307047690607595,0.0578938740864719,0.1156899538534721,-0.008118535539811
1681944208.683923,-9.202716435927616,5.355603372525904,14.223819764715092,-0.03656370053911847,-0.024532352636189532,0.0291458823171206
1681944208.6939502,1.7729385194802738,-2.787674249824637,10.028901166816953,0.04968755547332617,-0.054347974540255986,0.0642560113605805
1681944208.703961,4.60578611858323,4.14511108076196,8.852044590362308,0.02303963622629058,0.007919902689335116,0.0479277547833272
1681944208.713991,-1.414473034825411,3.3016631723430168,9.882272407887287,-0.020947321909512106,-0.020627482394961642,0.0205382153776236
1681944208.7239194,-0.24007168860272662,1.6442066725010411,9.008175167953677,-0.04444194735858397,-0.037479588309207265,-0.0018833930685422
1681944208.7340598,6.271754458738317,-2.9843464021565898,8.69584901896982,-0.00877297965610157,0.019748773534643358,-0.0145727835211208
1681944208.744022,0.46191965372374033,-0.8457702716076668,9.47046023935749,0.017784572325320984,0.0584234444300107,-0.0180577236774614
1681944208.753949,-6.357452695292839,3.1367697953338993,12.781472523464867,-0.02606307729174279,-0.049927883918932575,-0.0165576330933025
1681944208.763998,3.4749129102069234,0.0379668274588184,9.353613741857153,-0.004306087503351173,-0.027255431894160208,0.0216301314917155
1681944208.773942,2.7716288027515628,1.681140467041875,9.462873753593582,-0.011016884006355816,0.015344107265904669,0.0368535023567029
1681944208.7839298,0.7343744194473358,-0.4869978066092939,9.38771655698675,-0.012395078818380539,0.029878103916113653,0.0343916256365128
1681944208.7940643,-0.864066656618203,-1.2818933205834415,8.680483580734627,0.02177199973863475,0.015049594592058175,0.017572735288436
1681944208.8039606,-2.4837571768299402,1.831193116325899,10.135993667792555,-0.009597090369315713,-0.01231544206979171,-0.0041768957476369
1681944208.8139534,1.0717990798942278,0.8978168880572368,11.597007989999206,-0.0017226201904434017,-0.024545894744746676,0.0145181928214379
1681944208.8239996,3.335673297322907,1.3795250552365836,9.422210989660417,-0.006187916689094478,0.01580904934776869,0.030252332651312
1681944208.8341594,0.4414164658997518,-1.6738146495287698,8.4644567529481,0.01545032981010341,0.01834860177301139,0.0168119965505548
1681944208.843968,-1.4740217416587489,1.2621837330773333,9.470855674938056,0.012158733863501286,-0.004381581436032146,0.0123288024601289
1681944208.853958,-0.6296841922299123,2.1638690160651,11.407783752837599,-0.012030312462906341,-0.03606574718317185,-0.0054906384635022
1681944208.8648634,1.6278854756929255,2.1828473182916164,10.039104729024897,-0.019728356963003055,-0.03103191880339073,-0.0010593483771434
1681944208.8739476,-2.1297105911745895,0.18684511458780972,10.046227390086695,-0.017785823776119633,-0.067928121950021,-0.0129823062184504
1681944208.8843925,1.7606214747394304,0.4784620833016273,8.95839310137276,-0.0013064356837096335,-0.07022934650004545,-0.0059666420880011
1681944208.8939266,3.8643112611017414,1.3489821091003864,8.375269107485906,-0.015386193470126338,-0.031224575570016885,0.0272617999848672
1681944208.9039662,3.898888479091764,-0.6076846505418355,10.992601088099702,-0.03303310403386393,0.007359550328134605,0.0346273210284062
1681944208.913957,1.2258484921084951,-4.278850388624514,8.524671853767698,0.045890023019648986,0.02336437615243436,0.0423514347907849
1681944208.923982,-1.4941572488945856,3.137182003237247,9.92057666007886,0.005463116809161066,0.04828758973576711,0.0014855007734377
1681944208.9340868,-5.971158618689577,0.38175974863108963,10.82528025926853,0.0008959400891580161,-0.019918697265845452,-0.0024127672973326
1681944208.9440832,0.1909225095344441,1.7787377806410642,9.611044076727254,0.016627403081382688,-0.0331738102350308,0.0185873553541251
1681944208.95394,5.137939322015196,2.6618362458721347,9.46629877143555,-0.012943346422821668,0.02105396076510977,0.0277742620941945
1681944208.964154,2.788956387105711,-1.3075431088775025,8.655410566477762,0.0089289381628326,0.06361013143748623,0.0321911730256625
1681944208.9740863,-4.185073714893352,-0.02097572715164795,11.528578857048073,0.005045308313794628,-0.006829715809981701,0.0281687572982856
1681944208.9848874,-0.6743510096951127,1.364643221648292,10.317698811491255,0.004228599238961422,-0.0478255849689164,0.0201080970850535
1681944208.994107,5.6291994940538475,1.1762271298456364,8.998713905018475,-0.011616279449162723,0.008660309962443208,0.0112851623830148
1681944209.003982,2.473210714134052,0.321148256024788,8.070905492713107,0.01583644573876606,0.03982023357956928,0.0115453413140722
1681944209.0139363,-2.3808500241866812,4.245930175575852,10.33290236490264,-0.025223013520156396,0.005663058484163104,0.0061701571953245
1681944209.0239968,-3.5509664833605186,3.1707976727867977,11.10770219585143,-0.059510026154493204,-0.06611483585744689,0.0184613828000375
1681944209.0340545,2.905592423606477,-0.4874273161915949,11.74571634646752,-0.03318409247706133,-0.06893843918791433,0.0340044748422452
1681944209.0440006,7.308231901124393,-0.7169937755596599,8.25416947617755,-0.01737210419032114,0.01840181240403582,0.0485296685633012
1681944209.054099,2.330003007454955,1.3551769940770484,9.14957131156264,-0.0134847877543832,0.05587092292660136,0.0516553845640965
1681944209.0639632,-3.0033412274513633,0.31574035068866113,9.557956669048066,-0.06430816988109789,0.04184150498561909,0.0523536865052529
1681944209.073981,-2.815323493669714,-7.459672398694266,8.298260201855513,0.014357297049832284,0.02080175655080595,0.0474749792751618
1681944209.0839815,-1.7573176819605083,-6.682919328504254,8.22063282198552,0.0921127802756893,0.012243551730761783,0.0122917618986913
1681944209.0940833,0.8446273974577008,2.345825273420705,9.332765092066174,0.08150511377814441,0.04564628502693324,-0.0153615410986593
1681944209.1039906,-1.9852290472621976,4.436243479652038,11.786556171082873,0.03710338017180671,0.025441485299751095,-0.0297621611121348
1681944209.1140132,1.0376693905389396,2.5230304176842915,11.50479803947042,0.02920763458443325,0.014304878501098685,0.0004591691226461
1681944209.124024,2.967729198641439,1.83640890930641,9.95193805219296,0.04332096321684155,0.028614359485554474,0.0542977329727956
1681944209.1340785,-0.0315703179163935,4.174699860606115,9.28329330728297,0.02416053173329151,0.00497662411376123,0.0870963622268983
1681944209.14408,-2.2161460663513037,4.948372483371729,9.432920431756129,-0.03290257138256913,-0.04681821226620193,0.0789325375494309
1681944209.1540182,-0.7812380923097273,-0.5702364030730668,11.48114199330643,-0.026493014772934195,-0.07945991528471436,0.0368340898689576
1681944209.16404,6.30718095833994,-1.9370885473631343,9.59039913721152,0.009476433054954464,-0.030155662340882437,0.0146011531737395
1681944209.174035,4.05034746026424,2.0453237365950585,6.617523186448972,-0.01447868088581254,0.051878251004858926,0.0113506706815906
1681944209.1839583,-5.966023492156842,1.0683266953075492,11.821526747417224,-0.042873019149124364,-0.03742250152267188,0.0132592970889755
1681944209.1939952,1.6101892801311803,-1.8052349891902295,11.30334731686146,-0.00981168929223426,-0.045011910463644535,0.0130932609003731
1681944209.2039945,7.533286828591943,-1.3316717968645737,8.463951183832544,0.014120532150891398,0.060943418505425465,0.0326731473591872
1681944209.213968,-1.912848658354209,0.2828501169737354,8.290827389343413,0.028183063487784463,0.0616286186638912,0.0445866760250874
1681944209.2241178,-7.985338228916506,3.632881233405311,11.174815369189457,-0.014313180387484633,-0.06387311934399868,0.0258574083831855
1681944209.235447,2.6881572962926774,2.1074907891892773,10.534829437017875,-0.02898914613839278,-0.05115607891673292,0.0152088653680631
1681944209.2440944,7.266193857037674,-2.5443626412433598,8.546699443126952,0.008355713774208705,0.03377814304193681,0.0116909349721619
1681944209.2614906,0.01887834035459796,1.2496838108471309,8.33435453482343,0.004108018972521627,0.05643802957463723,0.032079643422062
1681944209.263973,-24.94172239254648,7.93706029384585,22.684980436426297,-0.029868556329397205,-0.06396548821634292,0.0356671166059323
1681944209.2739818,-1.1624475503801652,-3.745012394337291,9.218109202439893,0.0007905248168491606,-0.09330177738756572,0.0096984671813198
1681944209.283963,8.64956019256818,-2.7218640095110085,8.29467659877799,0.03746993249115289,-0.013360015232782822,0.0315451331821032
1681944209.2939675,8.523465124925492,-0.49897106782968015,6.635668838441417,0.03895345956827409,0.11963202068838892,0.0483918626245805
1681944209.3039925,-5.647090448448374,-1.6039951546220834,11.781184911095627,0.056953401902276476,0.05543539616206256,0.0236693349119969
1681944209.314,-2.426957641665743,0.8717254940497762,11.528164887568229,0.07081466722880396,0.013208935860123684,-0.0480423394206217
1681944209.3239987,1.274409351337362,5.645593180787857,10.01573549187542,0.019132076235317205,0.033397331485478805,-0.0213490511837652
1681944209.3341672,-1.7427727260304546,4.234046939735212,9.818850516544533,-0.0018137649544733782,-0.003616790105172705,0.0276586197701045
1681944209.3439734,-0.311209658143431,2.2502230049876766,10.401275342858822,-0.006688109400688158,-0.03092765430266193,0.0488097507891007
1681944209.3539972,2.9161025236030884,0.7266393758628017,9.871264558303766,-0.010451290164302884,0.0010374245092456451,0.0234467674431153
1681944209.364123,0.20485113467085458,-0.8938544626458446,10.326934787673352,-0.0052847635489408264,-0.0037749317189374044,0.0206756972160884
1681944209.374119,-1.1894763063242064,0.655096164795924,9.089305237440016,-0.003919665960446795,-0.02663152111221255,0.0222464323428222
1681944209.383985,1.554617906916177,1.287441894035451,10.422037343628602,-0.02486455369207031,-0.019364274789152272,0.0213743809995004
1681944209.3940742,3.5502272620690496,-1.1301559008020818,9.043753252211983,0.01034788664265032,0.00979674849410597,0.000288754670205
1681944209.4039931,1.8265137043576776,2.810918557927403,7.81451902531602,-0.017979734701765553,0.05079385068680545,0.0080095411662706
1681944209.414087,-7.373752453373037,2.939081252955288,11.82876775665185,-0.037877854240966895,-0.0646153044059165,0.0175731655594655
1681944209.4239984,2.0471520773005145,0.6226134358245189,11.589434527385714,-0.04893478868815606,-0.06848958350283472,-0.0131150038528493
1681944209.4341817,8.130823375748367,-3.5992431651860795,8.595174008842829,0.009628824072648378,0.01911684735544229,-0.0073390520724705
1681944209.444113,2.027061226793221,2.1440499716562424,7.517371667867527,-0.0038656937830337775,0.07543523432616651,0.0175670113798924
1681944209.46621,-4.869502124987177,0.5357705977397409,10.77575484531159,-0.032698141898807515,-0.03716197614801994,0.0295271564659425
1681944209.4689634,-2.0152682226724137,-2.338925741845053,9.773180458539505,-0.016939143030461744,-0.05407481561511314,0.0369573112961598
1681944209.4746916,9.158847122680752,-7.463646606873239,5.433506955504301,0.03691925974454338,0.020458948152508868,0.0508161474403687
1681944209.484058,7.810155896020396,-3.739584705486266,6.068322541247642,0.10617583910882969,0.13913833316188556,0.0441160153981992
1681944209.4940116,-11.230433273989028,1.428743229665922,11.366782453512062,0.07707373779265587,0.02940825812275858,-0.0089210757601312
1681944209.5040631,-6.46016225395045,5.708743621380902,13.729079262101568,0.0062068532399820325,-0.08733021952394417,-0.0436551209154776
1681944209.514109,7.929467648881575,0.5355622246716747,9.784277234060752,0.026657127451887083,-0.008093622450996969,-0.0145923524710587
1681944209.5240035,6.819360503488193,1.5562835583136327,8.219889173426026,0.0550018467177465,0.06751689857687147,0.0034809644252755
1681944209.534199,-2.681476872364607,4.63985606718379,9.114602828334592,0.0030565629546514665,0.04110163992503337,0.0349111695226975
1681944209.5440643,-8.748877268637214,4.305331904900197,11.646345450245683,-0.014244604311991491,-0.11441250841486654,0.0458045144018479
1681944209.554025,4.930341629234875,6.194196307446969,10.7945851188102,-0.09859904017204761,-0.07972905023233544,0.0142517311882921
1681944209.5640008,8.391204466572285,-6.70395945079985,9.279111204419346,-0.027698164647530187,0.027874419646256834,-0.0028194348874739
1681944209.5740223,2.757967252755902,-3.996840156382772,6.959564779062932,0.04798425375597206,0.07280486247851835,0.0083273228642293
1681944209.58736,-8.01658494908946,4.760117263515818,9.99681467486512,-0.032773810758724514,-0.027047222729942047,0.0067728560802289
1681944209.5940409,-3.2110394231918935,0.9593678524306689,13.267348040779275,-0.04469467627611819,-0.09306964858826296,0.026541982629592
1681944209.6040795,8.434481007700679,-1.693834063860452,9.579297294530814,-0.011230943251300819,0.009505458281756685,0.0411699291703053
1681944209.6142485,6.327711487067822,-4.153196101270451,6.586590719037595,0.05593179493004976,0.10953126892315748,0.0342680205044099
1681944209.624036,-6.543796545932732,3.6722383423230416,9.62865205210148,0.02993464702566188,0.04741345569998795,0.028461544626648
1681944209.6341238,-7.758856315830305,5.565688335659703,12.692692067828853,-0.049530242353537,-0.09954849259188396,0.0220240101602622
1681944209.643995,7.989949671861896,0.20641654473685644,10.063860238950774,-0.029359925921611418,-0.022460755464699236,0.0224543296185084
1681944209.6546023,6.365420250402092,-4.044819546514326,7.409282785689442,0.030608559009506323,0.0777781608754028,0.0290776275482722
1681944209.6640089,-5.199970819995298,-0.5116762329981499,8.4283418238282,0.029162912046624113,0.05307246018814671,0.0111357055988856
1681944209.6741822,-8.118188028813718,-3.001332849996344,10.669213895480818,0.01596605007573549,-0.06673237066277513,-0.0071466920512965
1681944209.684064,7.634932657636908,-5.910903946215468,7.522206915078085,0.10910035777179473,0.006471566827786619,0.0119443059351989
1681944209.6940415,4.355974150369373,-0.8628622232356903,8.602905367772866,0.15080958289446614,0.08387359866030171,0.001334773112344
1681944209.7040236,-1.3079084323281467,7.932840737528039,12.52389661496936,0.05274689490824713,0.0885991225055096,-0.04286980736882
1681944209.7141232,-6.498585855955479,6.9444733347986505,11.605866257896654,-0.020906550997372337,-0.0021783965948801104,-0.0132652941706827
1681944209.7240214,-2.303011077112802,1.5398957286993393,11.042495829408404,-0.01361520033208037,-0.0917321123931243,0.0156966604676791
1681944209.734115,9.956105822396758,1.0965040967159312,8.828455212573376,0.013728377766173507,-0.0034364551732188795,0.0241459560033627
1681944209.744176,5.050607599327269,2.7021982809319485,8.551292298220584,0.019830479610391805,0.051326891049704,0.0148346804466792
1681944209.7540448,-1.783504612735355,3.6904969714512204,10.101877685217499,-0.050252228166315346,0.023417554731734094,0.014657039978797
1681944209.76413,-6.964531260990013,-0.09597302637862189,10.698828104561926,-0.03663266959579919,-0.09789825162233982,0.0124786718201586
1681944209.7740514,5.0835090576524955,-0.9812994121012252,10.8702070354,-0.035517871797378024,-0.057544574222405685,-0.0072890344622782
1681944209.7840643,11.073845088750133,-4.307414705928208,7.7433526335228775,0.03169525832825872,0.10216733386936862,0.025178964101965
1681944209.7940855,-6.183978958881166,3.041696230904883,8.772019474234305,0.01130957425788206,0.0907949966730036,0.038771292978222
1681944209.804114,-12.914356868513782,1.4234895300169639,13.397265481816714,-0.02282632210915977,-0.11851160966366862,0.03052602972954
1681944209.814193,5.902911904086059,2.4170677242196557,8.88888158103084,-0.028518443835512764,-0.06194805367255899,0.0222532421734877
1681944209.824046,8.550278952435638,-3.379522478163135,9.042589247553538,0.017434483902732032,0.0502042982625912,0.0173094001051732
1681944209.8340364,0.8762799672691484,-0.46111783109244897,7.738076966355999,0.04740565012744721,0.08084743487200297,0.0393937293824502
1681944209.8440657,-8.805266827948683,3.7997982664293724,12.103042554640432,-0.00907139027999711,-0.05098245733759266,0.036189581119711
1681944209.8541253,-0.07949850581873459,2.4710760534612586,11.138631820294307,-0.022717749131659994,-0.09933017158509914,0.0192042466637441
1681944209.864037,7.719196656546862,-0.6377283425732345,9.41819488482205,-0.020157908922606552,-0.013517046647161364,-0.024476668945258
1681944209.8741584,5.034350996623938,-1.3447975923053088,6.162197632142009,0.02371584560436644,0.05414541502150447,-0.0235432751092365
1681944209.8841388,-6.132794033685464,6.562419443933137,9.754505005274739,-0.03673367305126378,-0.023621515883959346,-0.0057990529190055
1681944209.8941257,-0.2979567649593029,4.69214719802178,12.410995189686876,-0.09441843620127505,-0.07458141065255289,0.0100378904876061
1681944209.9041638,5.1138500219287355,-2.333788339794277,11.63302332843653,-0.052233933419830535,-0.02859101231707125,0.0372758645948716
1681944209.9140296,4.283324425843491,-3.375441346093279,9.021533738778889,-0.003919404260039915,0.02689141961375834,0.0241403960075923
1681944209.92401,-4.363407298588429,0.9345214712755258,7.067084764128763,-0.019622135389077533,0.004574904408879416,0.0099542167422124
1681944209.9342132,-4.135356567797857,-1.6357896151504427,9.966456810708243,-0.031174779682200643,-0.060931242734416,0.0224914148834296
1681944209.9440832,8.279305134499442,-6.771932133182721,7.977616896179384,0.055391156332599084,0.03311652963782778,0.0478602040943452
1681944209.9540343,3.532311185408293,-1.7847198516409923,7.810641532500232,0.11402753406680603,0.13448253088551262,0.0153669750702329
1681944209.9640698,-9.082968733105655,5.349629190527324,13.202850684383602,0.02367765175268911,0.059176866503080065,-0.0201880011323145
1681944209.9740334,-6.270464162635351,1.0907319705049547,11.090373130742119,0.02759672652559419,-0.05330633023409164,-0.0182813454034975
1681944209.9841883,5.880181442056548,2.8787093972245796,8.803485094528257,0.028261681340218763,-0.020243665540161427,0.0211779557552882
1681944209.994148,6.377568582383552,2.7305472712212997,9.489765893514758,0.021210291964207355,0.057562326590940835,0.0393155690666982
1681944210.004071,-2.1624822078975177,1.883719941387256,11.238776925089432,0.009825261532669232,0.009950772959954054,0.0529258165892907
1681944210.0140584,-0.25835878801373596,1.9221864715682337,9.480208236854999,-0.005700265273621048,-0.0328772134411652,0.0453837465879269
1681944210.0240712,-0.5840487570578758,2.2822509781038183,9.579584207493252,-0.03809218902293569,-0.05471110662611602,0.0032843409257703
1681944210.034107,5.0028061509790485,-0.9826007139875726,8.93560788196324,-0.0173917092230323,-0.017837787457165986,-0.0233421932521513
1681944210.0441225,2.932579658889046,1.0104304227904626,8.968938923608171,-0.020484687523738648,0.04539320128702179,-0.0119824336457303
1681944210.054075,-5.608167794119489,0.759680645790573,12.084464959795893,-0.02863700543194906,-0.03087174192193892,-0.0002192379056713
1681944210.0683696,-0.08775896131440405,0.7431712901712098,10.991840337810036,-0.01737274006144443,-0.051524363818076215,0.0327558674302646
1681944210.074119,6.164512792736497,2.151600198809992,8.662588569866845,-0.03070322250538023,-0.003605393453899657,0.0503174651798554
1681944210.084045,2.5329872620237808,-1.401029418902313,7.421261595699912,-0.011709834436659128,0.044775843386587,0.0449360076722451
1681944210.0940268,-4.509976897817341,-0.2786775084992733,10.019992390465834,0.001650022442619232,-0.014307312839969059,0.0242731802549907
1681944210.1040354,0.2637045361318767,2.1449293566508714,10.84479244870504,-0.018685344464883295,-0.028976017726902278,0.0209806252655335
1681944210.1140409,4.290139804712456,-1.0099822670979153,9.856810343367027,0.0004547441368677219,0.019186595835842653,0.0271304071333953
1681944210.1241062,1.5741992175731256,0.38245159859884953,7.975422861296564,0.0074820897275869385,0.0526171088517292,0.013055384942586
1681944210.1357749,-5.074488520599941,0.4077697872931535,9.350551747655723,-0.00865997700682069,0.008808865620554019,-0.0202052268746546
1681944210.1440232,-1.3191420601211532,-3.8450908387743206,9.478312567672532,0.017477094523176567,-0.02027175118191393,-0.0174870427313498
1681944210.1544304,6.677824389297551,-5.578233991345443,8.286581310550842,0.10816752138691407,0.04628575715427559,0.0158784900245019
1681944210.164049,3.042289989190322,1.4862705908751268,8.703376924161208,0.10851927706055126,0.12533104262743025,0.0121549627196737
1681944210.1741016,-10.731152174863258,5.2192229225946685,14.40261842830198,0.03152068290170743,-0.00840942149583038,-0.0118530924978903
1681944210.18442,-0.11573527823470496,1.9655357377105458,11.012046488073212,0.03215219305942148,-0.08522509343611533,-0.0260245438280752
1681944210.1941128,9.729313153399247,2.353259586286197,6.4297375057302215,0.0329374076917621,0.022243979350691685,-0.0235658838960579
1681944210.204098,-0.8460302668347155,6.603921954906431,9.105671152754354,-0.005310302928057971,0.0027879825633846667,-0.0085081347811273
1681944210.214066,-1.302800910319411,5.474856131419806,10.969642338627795,-0.08005341609871282,-0.047517172042873784,0.0115924932447024
1681944210.224099,2.513222105664237,-0.20860110601191212,11.406420847544105,-0.04589509344404463,-0.048805879107067456,0.016715615839953
1681944210.234109,3.2680501866326375,-2.710333984814712,11.162081420529198,-0.03482108787330027,-0.018952788879533902,-0.0205545045051029
1681944210.2443864,3.459187221675931,-2.2382722619870394,7.444047848850566,0.0027729970685910123,0.03866302316499075,0.0001507458195784
1681944210.2543,-7.372603344509711,1.7743686518682142,9.565718197327302,-0.020237960691749574,-0.03916129148584061,0.0020889387501166
1681944210.2646415,-2.2120663887068672,1.8190985938351876,11.76183818408128,-0.04489517847928577,-0.09040182717654416,0.0059569923591562
1681944210.2743628,6.010697088855146,-0.9943174822863163,10.25022935862879,-0.02262246877577556,-0.016678526386828565,0.0361152243253537
1681944210.2841294,5.697988115959897,-1.6887572426692268,7.7152141757479775,0.018764798378326203,0.06554453687704943,0.0598443475004979
1681944210.2940366,0.4925232173455304,0.20999100471552468,7.2667435493204025,0.024935320872184526,0.08657533690441828,0.0543573487934419
1681944210.3041737,-8.609104249563885,3.510142183383856,11.80107648827374,-0.031176707919374772,-0.02357820581420454,0.0377582077321359
1681944210.3141694,-0.3210474462904607,-0.4255087745065836,11.701498995400131,-0.008493030124659795,-0.07449307952621342,0.0078420763288387
1681944210.3240998,7.754043412910835,-2.7028361220561226,7.248142813965051,0.019253335947016437,0.04125056413140339,-0.0081326804670742
1681944210.3405757,2.3497831874174975,-1.3514113518947937,8.443037819695283,0.0455247179702615,0.1129697885606651,-0.0099663093301705
1681944210.3440504,-9.098609835783417,-5.612682035464333,10.233213148666511,0.07123094930597189,0.06814340881058577,0.0024164154578694
1681944210.3540976,-4.292669537709741,0.7432444427851699,11.608366054477155,0.0803443326822779,-0.02903559428082607,0.0050420899328538
1681944210.3640776,3.947268384212083,1.019125209415372,10.544395951604644,0.0805377439153257,0.020896433468210806,-0.0192048858466795
1681944210.374097,0.7330587670730984,5.823762167538805,12.103832221830187,0.04056831053304555,0.019599253966962167,0.0086391687777587
1681944210.384098,0.6702370696533466,6.088598176109355,9.609628304421738,0.006236785388089973,-0.0253491952237125,0.0423047010239907
1681944210.394132,0.5040599061181705,5.344145445803741,7.271631210831597,-0.0521269296344902,-0.023831774862890842,0.0393499572214433
1681944210.4042273,1.2916186456292624,-0.5951215909695057,10.562542810429807,-0.029009747310105582,-0.037700110621180505,0.0124176320072957
1681944210.4140968,3.846781934957578,-0.12586337005546955,9.41323290931986,-0.014334854918109197,0.0262727833069761,-0.0181458416941813
1681944210.4241588,-1.1752857847483096,-0.44883718666441247,11.75929347678332,-0.03061899846523063,-0.001104575876091999,-0.0221809047821215
1681944210.4365458,-2.5969118124202346,-0.8681087821838589,9.19724122191554,0.000711267023366411,-0.05455229884036546,-0.0152944504830292
1681944210.444215,1.3081519184528307,3.20681262618614,10.61524830069487,-0.03082100439043236,-0.056483461246099535,-0.0100981585297039
1681944210.4541028,5.536603912223351,-0.6217030130676219,8.909817051041207,-0.027116802782961164,0.019258577237220215,0.0155088359874435
1681944210.4640477,0.8035437099291519,-1.3204467999226797,8.789088253043404,0.0175267285155125,0.051994658123656466,0.0355770800647088
1681944210.4762533,-4.662028484226328,2.1818966987672725,10.594287574140543,-0.009272397534369658,-0.017677107179786197,0.0447640817996808
1681944210.4840932,-1.743918682011943,3.305512252026264,11.288209655996233,-0.03781929836097301,-0.05405028038121992,0.0448634278413602
1681944210.494309,6.854310639976381,-2.2959869377354085,8.804929117086889,-0.004256345280214333,0.012735367739514248,0.0281137869146415
1681944210.5041368,3.0737126686561402,-1.9183965310394466,7.470626085472917,0.035617819800371764,0.07749090958243011,0.0277298845735141
1681944210.514137,-5.709065635687257,3.5695184769594546,11.775942870318126,-0.002962196107725827,-0.01125077002381257,0.0301323522266694
1681944210.524062,-2.8297182720168554,1.016762304101123,9.696787321111067,-0.020609322651621718,-0.05570301563327706,0.0148389924701997
1681944210.5342166,1.6042979950014378,-3.4999852837836385,9.407873225820442,-0.0032549576219538623,-0.06239288687810579,-0.0029507504391721
1681944210.544088,10.140874012848961,-5.422362615945055,6.810291262876474,0.07948524224912268,0.05004734507622176,0.0153584096965142
1681944210.5542347,0.6861505577903099,6.736888283067047,8.69584074450234,0.03421253937077205,0.09727552029724097,0.0330896404024907
1681944210.5644217,-9.252577903082267,3.308718565702299,14.368737258162472,-0.026920307528225863,-0.04432725495662016,0.0079343252268382
1681944210.57541,1.9683715350597932,-0.21173836148522512,10.63260720379582,0.008285071566308057,-0.04571829296685482,-0.0080384585622004
1681944210.5840862,6.201167640238326,-0.026897934374978488,7.950216797020681,0.03631879740550003,0.012571723754971164,-0.0362908180418661
1681944210.5940754,4.202556092172333,3.994697883918621,6.474920742010871,-0.009293456635027637,0.0949963542019536,-0.0053519785019806
1681944210.604175,-9.686300206173861,2.1017079326179697,12.828980297502122,-0.02711551323754487,-0.0336106942465415,0.0350226935383626
1681944210.6141348,1.8587665326154104,-0.02422481579592134,11.76977110753659,-0.009259348547054617,-0.059176658530946745,0.0422954250511475
1681944210.6242137,4.843236357743858,0.06284836472512974,9.512661033427895,-0.013407893659962332,0.016420402480955446,0.0347870801028558
1681944210.6342156,3.1293262923826206,-2.80639634595289,7.426302429933015,0.025570905151179265,0.04957532693815986,0.0344418500003167
1681944210.6441703,-2.9403436435537027,1.5309700708001697,8.316826780782968,0.023428886503916963,0.030977353331368064,0.0266457431402751
1681944210.6641166,2.2477300891774377,1.4833364123191843,12.605050555898588,-0.019192610825630115,-0.016654463085935232,-0.0092290753114274
1681944210.6741529,2.0213161588140576,0.6556532163888973,8.39080919733674,-0.00606479931402878,0.008693238564903847,-0.0079115798312476
1681944210.6841805,0.3754953984015383,2.520373718223542,9.277106960146556,-0.029263352296157272,0.008023980757403579,0.0080997458112188
1681944210.6942244,-2.1536294792172854,0.9139133137583098,10.522349329079054,-0.029298407857821243,-0.02615223486518153,0.021187177711422
1681944210.7041135,1.2364416656107104,0.7776985643629735,11.361569485492753,-0.0317153845585983,-0.026513292689284203,0.0311595078942128
1681944210.7141676,1.5334389813681972,0.5006565580635441,9.969697973243791,-0.022057820891863616,-0.01388791271986478,0.0457639385399171
1681944210.7241333,0.21553618931851432,0.8282586468739617,8.657162880139747,-0.04236677513967163,-0.0021033176812686933,0.0251923341688462
1681944210.7343554,1.38718537641145,-3.266156967998831,8.5165989024529,-0.0038815916449648057,0.017156899025410333,0.0149657156702824
1681944210.744191,3.098786649356963,-2.730264094901447,8.058092778228678,0.0093946842381561,0.07798558835094517,0.0090312476654299
1681944210.7542553,-1.7883384867092238,-6.939905677509885,9.084328116187207,0.11084594714881743,0.05689793913033992,0.0074499797460385
1681944210.7641263,-1.2020164995853708,4.60126943232131,10.337950053405095,0.06741263479181436,0.04708223528262799,-0.0172090522560528
1681944210.774176,-5.749841247984071,5.611649889894939,11.874796154532524,0.004579993517827997,-0.024217411723998113,-0.0147183511021784
1681944210.7842188,0.3143643913712489,0.871349089805014,11.557568253828045,0.018082573432502237,-0.07152293935861721,0.0145301612478443
1681944210.7942176,9.056574876785062,1.46290860816143,8.892358469935393,0.03204535630512028,0.019746143761393636,0.0137180498254248
1681944210.8155675,1.4893103712253184,2.4365446645855515,7.732681399860448,0.0157326762431016,0.0635622944126419,0.0172515463468381
1681944210.8206177,-14.16228480282488,7.347467862320924,14.676466988491587,-0.04683981192349162,-0.06012692334702924,0.0169221617665835
1681944210.8241546,-4.952793636945454,2.112612375083715,14.635408941155802,-0.05261288428324587,-0.11584447770882571,0.0067884697031923
1681944210.8343651,9.320929139079496,-1.3126183474526785,10.477441117792369,-0.04759571974622869,-0.0005171502704803467,-0.0062549516174248
1681944210.8441854,4.283490299896488,-2.8739000066253757,8.082299029978179,0.010532694481055479,0.06879237957682559,0.0117644861724921
1681944210.8542032,-6.70302915239579,2.4020828906985066,9.309052241617213,-0.018846068899999385,0.009822730362283906,0.0190339003142663
1681944210.8641658,-5.888997455682942,2.0824463885945197,11.618617420800573,-0.045285593778809585,-0.09839130185349315,0.0372523244854756
1681944210.8741572,7.063159437803401,-0.5666941671940067,10.103523205126528,-0.02947946048322709,-0.029740436823757262,0.0508127909538098
1681944210.884158,7.892609869875465,-3.0190578675475814,7.349042950817081,0.02863961841784349,0.09247042491634559,0.0455589916941472
1681944210.8942423,-4.16427093097258,0.9727879674031407,8.733402846228717,0.018152851269232228,0.09264098558211512,-0.0101615555200031
1681944210.904158,-9.418646439163116,0.7312087485630788,11.70544284614743,-0.01884563981724997,-0.043778393960670604,-0.0291141412767819
1681944210.9142294,6.134543663097328,-3.323883090667895,8.081054765060863,0.04881592630729862,-0.003566349318134854,-0.0161608319345167
1681944210.9241798,5.506202838562081,-1.5037084777044467,7.283332328123107,0.07064314045931835,0.10286919995691728,-0.0087395060423067
1681944210.9342322,-7.409301115347311,3.991623917462092,13.883433093431849,0.04247410643444173,0.005291264628617846,-0.0001547858433104
1681944210.9442773,-0.9933094581647919,2.5979661863021057,11.639867220820776,0.011796275126507072,-0.060499322857786635,0.0349358272191831
1681944210.954167,4.569032616122003,2.8755923927254368,8.283108347664287,0.01226625584933121,-0.037320956529020274,0.016396977790887
1681944210.964186,5.632282577923727,1.1363602651591482,7.428361060688152,0.007964272515726118,0.02495162729716561,-0.0133925174909881
1681944210.9782016,-1.3423188575234297,4.4976492425854175,8.433185260087177,-0.03643511682531669,0.02540625939142432,-0.0178755905094793
1681944210.9841907,-8.486817053054322,2.0341844624360332,15.449822676603713,-0.062135422275031285,-0.07818137102531691,-0.0057647136586955
1681944210.9942143,4.062488032601246,-1.923991998261396,10.776447512985053,-0.013041559997299518,-0.06141536314580143,-0.0064782464492372
1681944211.004215,6.004990878460602,0.15818539601675893,9.555233574313956,-0.012749959749967302,0.0002209614359639198,0.0020161654224149
1681944211.0141966,0.4534972991021205,1.1334877476135736,7.792568210039481,-0.024324218850648883,0.027623826458301384,0.0100812342402287
1681944211.0242262,-3.903242961544076,1.023074663010267,10.67675927722091,-0.044581651464221696,-0.02830488599084075,0.0350533266004868
1681944211.034233,-0.7809012451861016,-2.8988119460247397,10.104195098755081,-0.004606617788132094,-0.040965557109832074,0.0452804107603379
1681944211.044354,3.807193216709906,-1.8817900533043357,8.654157490016162,0.029295422124634783,0.004072946574501582,0.0516574334737607
1681944211.0541704,4.630574519774516,-1.3451001197558758,6.883183611378419,0.044882038730964656,0.09036001655717431,0.0354382012423821
1681944211.064141,-3.392438263405084,0.3000246535153699,9.888159539361453,0.03243638988078782,0.0727053932227992,0.0161774566781469
1681944211.0741346,-5.959691701274358,0.8189283127164483,12.22641530388701,0.04181937802505592,-0.006895533978888186,-0.0014977647538534
1681944211.0841608,0.1517191638022031,2.02124820176957,11.646682095003728,0.036229912198991666,-0.03524270621868946,0.0107735608157464
1681944211.0944035,5.078643446853497,2.7760927684114947,8.580150492182284,0.030857048649594935,0.008385169350981972,0.025835984238679
1681944211.1042624,0.6969655483218302,3.4079903287272892,8.890693192592295,0.008307677817652594,0.005425484184368966,0.0215251211461373
1681944211.1142268,-0.9223713031343279,3.086070104821972,9.584130505148789,-0.024639904641176876,-0.028167112816580537,0.0096285052981921
1681944211.1242857,0.35353004336863303,2.1593326662793713,11.1565005705451,-0.03875915717554063,-0.04783189792384479,0.0021130389918335
1681944211.134336,3.853990280813928,-0.16009741738438504,9.876525928815912,-0.034255531156454196,-0.01821601063941688,-0.0119214487808993
1681944211.1441631,3.4003787344112806,-2.314061565348828,9.218326455985228,-0.007721306648671693,0.02982389844338379,-0.0166894469025782
1681944211.1606598,-2.6176586243393576,0.536337952363963,9.282340789335683,-0.0017609791285043668,-0.0002515625945660274,-0.001920964716678
1681944211.1641724,-5.626500102860839,7.257854610590624,14.645295349798669,-0.036346266780644725,-0.049703857346587756,0.0311347086366959
1681944211.1741502,1.7196909567575709,0.7782238358839854,9.80656077778742,-0.02952581054075093,-0.03605949041786195,0.0564154897269555
1681944211.18416,5.5181355191281245,-0.763940227566825,9.492989659385941,-0.008821428829654775,0.02269829435163851,0.0594920765992947
1681944211.1941926,0.603144583008268,0.18458186594746562,7.738182518309271,-0.005229480051015011,0.07283980605512846,0.0317349106457778
1681944211.2041614,-9.017022673124659,-1.7081186753568636,9.494771603829651,-0.017782863468374013,-0.027428714143971168,0.013798990139062
1681944211.2142637,3.6689128793851067,-6.926967542246861,8.850390231816757,0.04783900199315121,-0.011815837193678989,0.0309746012476035
1681944211.224237,7.367295777536599,-7.1710294416178915,6.451214311191938,0.16573246816573037,0.10140424345653226,0.0328954000410386
1681944211.2358737,-1.2844080764583374,6.892190330368945,12.366745142685982,0.08870605720497605,0.12070774087809169,-0.0083953311282447
1681944211.2441564,-8.518054840832292,5.256203041638916,13.107102408135276,0.032925043740129764,0.002481718944131452,-0.0376298401120356
1681944211.2541716,1.3895584665365517,2.7510365276210837,10.27423036681493,0.0034180958516772065,-0.021367787520992165,-0.0243905309203318
1681944211.2641668,5.0457563187984045,1.132897508701701,8.598800190060453,0.038070019906192555,0.010872300327929536,-0.0043851050163856
1681944211.2741573,3.9921053886287163,5.3222008269666565,9.07053178400303,0.013358669878743148,0.04317947772889597,0.0027929838665523
1681944211.2841263,-1.8095298343505528,4.745950606015357,10.930984873913701,-0.041146891221218125,-0.007853443851023522,0.0213171828922578
1681944211.294139,-1.2793750527619465,0.5244078713634938,10.155701257618814,-0.02416866751932399,-0.057299747830179694,0.0207641076680966
1681944211.3041923,1.8443462030669275,2.548737055038941,10.626019728089126,-0.050404685996439116,-0.05086511234138368,0.009825108425016
1681944211.31418,2.9502451058356525,-0.1446099254859736,10.115190920637243,-0.05503877472932986,-0.009139126359500137,0.0111950401601144
1681944211.3242016,-0.276591184579152,-3.1611036172048306,9.738609183294457,-0.012660500417443208,0.002598104104575161,0.011699617692525
1681944211.3355129,-1.0590513549520828,-0.022241176081483828,9.331328363840642,-0.01559920298755516,0.0025482016308513394,0.017221771032805
1681944211.345312,-1.1582786652795056,-0.6485147166727101,9.460540644093703,-0.003999970525926493,-0.006584068093127742,0.0286826834467002
1681944211.3544817,1.1447164776925676,-0.3274888822400554,8.8466189604536,0.005055152508607571,0.0050597512320450155,0.0433458116289922
1681944211.3641658,0.5015255499079239,0.469000111191385,9.633572558495544,0.013796830458818016,0.014982626237276437,0.0370832149323769
1681944211.375833,-1.7910518386125835,0.24285360735356934,10.156831750402139,0.02228839128500398,-0.022574386914322057,-0.0104054959106496
1681944211.3843012,2.201285901394464,1.5852066200960913,9.781319305111163,0.01777922952429512,-0.017108553302349633,-0.0121502440038374
1681944211.3942797,2.28227432012287,2.8841221197585347,10.086613439131943,-0.0025781806201357967,0.0007733302353288437,0.011202948951418
1681944211.4041772,1.172928375904208,1.3406455109178226,9.693915908098777,-0.010855138176522712,0.005775921218251366,0.0113428261515447
1681944211.4141543,-2.7225603476942104,1.0131273010317576,9.396274383108485,-0.02167932843392744,-0.03536083237923146,-0.0105188639450124
1681944211.4241598,1.6251444195946028,0.24865011352047425,10.124830626523764,-0.01726209801426367,-0.032920846781825004,-0.013738514072006
1681944211.4359975,2.1695013622848,0.4678102087787393,10.440674548517084,-0.015551746747274449,0.0015830426032116362,-0.0064071762922457
1681944211.444167,-0.06681201821679407,-0.006564038751976777,9.629837917318653,-0.007124141559112922,0.00556067266946915,0.0180760052439519
1681944211.454183,-0.6651008123164434,1.0311975116538765,9.567295460470223,-0.010344296848727633,-0.009561015628620299,0.0334414866205998
1681944211.4642007,1.0514978554117087,-0.07814860191600641,9.376141507080265,-0.002127949727140727,-0.0043561458119689145,0.0199688792613097
1681944211.4741747,0.6888017050078306,0.21184761308739622,9.690194244271817,0.002623647099938776,-0.0017656591271839508,-0.0001637564587644
1681944211.4841793,0.7750845913592637,0.8646172746695233,9.743987213342997,0.0005889182128276818,0.0010882590816898902,0.003381986954505
1681944211.4941363,0.8969270169671757,1.5898861630622532,10.11485323126622,-0.008059438095317464,0.0025805278214242155,0.0125652075198241
1681944211.5042005,0.415192615197825,0.24649868036801417,9.75680923254537,-0.0034560621314652378,0.0028248124440408483,0.0138190536212869
1681944211.5141437,0.3272515195973264,0.8216415026941087,9.754867228674295,-0.0030325516086534515,-0.0012415779309319678,0.0149948278826423
1681944211.5241787,0.4444420287532643,0.8069966300831942,9.848879448941213,-0.007811702983351011,-0.0025263904424348,0.0134826915723034
1681944211.5342717,0.42086368389812173,0.35149341386273364,9.748744910432722,-0.0031077143043728253,-0.003582528784279372,0.009121902604843
1681944211.557757,0.4494684633481693,0.6618105957803566,9.731948083166854,-0.0022537598830519316,-0.005013757905199275,0.0071181169164129
1681944211.561098,-0.016621658645017606,1.9531222409748816,10.306376222653736,-0.007850735461318169,-0.009965457260178676,0.0079238068696805
1681944211.5671256,2.412839672141341,-0.9191127961973278,9.448896252998228,-0.005396650245677066,0.00830740177713604,0.0019667222345243
1681944211.5741527,5.010131672014244,-4.0550929008133965,6.50482032536542,0.04690560798108307,0.04861683655558956,-0.0019058731000176
1681944211.5841885,-1.3983495719718337,-0.8088066799219553,7.450679915831674,0.05070715335909974,0.05905172004548701,-0.0646649162831953
1681944211.5941536,-5.402901723950922,2.2353224436207464,11.999681387717173,0.026470689498313698,-0.010821221828948022,-0.1055888246360472
1681944211.6041615,-0.10377785431769328,0.9708225084469826,12.33371631163035,0.01588386096700767,-0.03237848135581365,-0.0849687318864516
1681944211.6141806,5.168650496967457,1.5492251002021258,9.571764745344815,0.026604239736682078,0.01217535316579449,-0.0201023529830626
1681944211.6241567,1.2472018023216924,4.519936554910057,8.666213631053289,0.0009910643142137892,0.03084555634976715,0.0184092045214721
1681944211.6342342,-1.1411385645336445,1.6296385777412246,10.47988815797019,-0.01914183765555062,0.00465757173776087,0.0231779486325332
1681944211.6442044,-0.6264810788588238,-1.1079070391915535,9.984334510819595,0.004249082813713589,-0.01415763774877486,-0.0082066619384339
1681944211.654147,1.09871847322825,0.3230367193376129,9.77087911611864,0.0005267467261273692,-0.00636960462277119,-0.0304160352411917
1681944211.6641953,1.3990442674436652,0.2558401321777613,9.506990993387388,0.0024757261381114603,0.008560970581520753,-0.0170434780034474
1681944211.6742096,0.20542991275280365,1.0711275430360137,9.876973779570626,0.0019948778180160073,0.0024900425200560837,0.0063551658217557
1681944211.6841705,0.417159106941059,0.46525809733041024,9.859858344923957,0.0008187394963707937,0.0011411902459165888,0.0024185991182685
1681944211.694183,0.2597235892373427,0.6644173379656634,9.790880437055206,0.005524528308364019,-0.00333796722886232,-0.0040176186326197
1681944211.7041993,0.9305519536647595,1.1421690988824762,9.583616733122588,0.00012470829798982806,0.003273265872809091,-0.0108817258465341
1681944211.7141852,0.44917731983794135,0.7222936335853445,9.794590001581785,-0.0010067788239060565,0.0021871870800761893,-0.0106806123244813
1681944211.7241664,0.28071230216391885,0.6253458715553032,10.046986625077633,0.003458073326549871,-0.004867699494273954,-0.0030784831929258
1681944211.734316,0.9296456124592792,0.9979083820511093,9.602882327809176,-0.002824567481041396,0.0011251527493958229,-0.0023098594124666
1681944211.7442293,0.699047050382355,0.3983103634221908,9.702974489889277,-0.0024942044688391644,0.005702358676796455,-0.0047626706387153
1681944211.7541878,0.0303367337671089,0.3548330297883511,9.906117679922131,0.003393699494180624,-0.0031563189971051736,-0.003389818276023
1681944211.76426,0.8376685855542773,0.979833107716023,9.686684313753165,0.0006973132353209873,0.0005112116692613839,-0.0021873141254535
1681944211.7741578,0.6768501311019071,0.8115200553598626,9.795126521766447,-0.0012294210763384213,0.0031528203845264807,-0.0012381166766635
1681944211.7841878,0.2082719955809298,0.41720711259490784,9.82491229543825,0.005447043187370301,-0.0024552330354168385,-0.0010857802431336
1681944211.7941625,0.6421304407200621,1.024080965467347,9.746023233710764,5.5102696120123915e-05,-0.001746997654798499,-0.0036513518157652
1681944211.8041997,0.5157533783336505,0.4618058692491763,9.74231587115812,0.0005464004003286192,0.0001331180522310941,-0.0063253735739043
1681944211.8141537,0.4956502012700323,0.9976567458924622,9.906570523049659,-0.0021469426199715413,-0.0029212552508003087,0.0012861401459896
1681944211.824189,0.785786493938109,0.46751473267864624,9.597857155562254,0.0003527304448361472,0.001723442336914976,-0.0021385025779954
1681944211.8343334,0.523755524225808,0.8144844484602015,9.812659235926482,-0.0014913179533913813,0.0017837736422248807,-0.0003079044713876
1681944211.8443332,0.43244726991692056,0.4707074321032432,9.750241647084566,0.002908635236972822,-0.0004256936713554214,-0.0011517015832713
1681944211.8542123,0.6516377871709611,0.854482283936592,9.737296225915737,-0.0003062672710390618,0.0023935974954979226,-0.0017533238592795
1681944211.8642309,0.42514564114255127,0.8814372204024145,9.911246206089578,-0.0036609217383369586,0.00021991593056551516,-0.001156855056738
1681944211.874538,0.45390668246537447,0.42107412306628617,9.71217464912561,0.000490193132970216,-0.0010623545874321458,-0.0033574273425391
1681944211.8843453,0.5875515866690977,0.6917090751346997,9.740322516352974,0.0022332598905720636,-0.00042347332786153946,0.0003447575413384
1681944211.8941927,0.6132151771586228,0.8057000083677306,9.765696640258962,-0.00047019389824094066,0.0013848105665880462,-0.000705751272594
1681944211.904317,0.6275499781282108,0.4990669865805298,9.65815791916664,0.0012199767869536748,0.004384039518821286,-0.0039024312596074
1681944211.9142463,0.36640720329058035,0.7525760854294875,9.863398757714982,0.0021263092523575566,0.0005849792359387892,-0.0004983007989129
1681944211.9241805,0.6845768399768792,0.7835812714517335,9.730955648497936,0.00038363488512870454,0.002990402007901844,-0.0006655346683463
1681944211.9343212,0.3968752184481471,0.7883903588913591,9.871218728336405,-0.0018675541325770331,0.00039834602941001777,-0.0008003771386346
1681944211.944285,0.5045084077506707,0.48641973429078633,9.72519542706747,0.0031571097457528206,-0.0004159627865769667,3.9294796320150926e-05
1681944211.9542243,0.6630258354663492,0.9119601041235902,9.780937807630224,-0.0008647048129416763,0.001196301681542546,0.0013945559016657
1681944211.96419,0.35174916636740483,0.5277321129850115,9.813179133853524,0.0009592216466119186,-0.0010734956278980086,-0.0015618127386323
1681944211.974228,0.49229908674173684,0.7221337713602566,9.814822661836489,-9.918861253458071e-05,-0.0016483121556269931,-0.0026481423142603
1681944211.9841945,0.758868088394171,0.8245131787869042,9.68580263615215,-0.0010565904878321714,0.0017182092208988151,0.0009568207001076
1681944211.994204,0.308883917890117,0.6987481740281836,9.873747306836938,-0.0016786727233666762,-0.002056262934005945,8.000262337277964e-06
1681944212.004253,0.7670017749277672,0.510100518675488,9.6003461958578,0.001176779815497145,0.003031034456884679,-0.0022047796833566
1681944212.0142436,0.3832945780322915,0.7817901986385206,9.874261363783233,-0.0007749351257111822,0.00017666994162648193,-0.0019626882008514
1681944212.0242372,0.5773223611680194,0.640446763815715,9.715943304275731,0.0018935088855732904,0.0005816302806957002,0.0006077837583371
1681944212.0342586,0.3175942446250973,0.593436605884336,9.84721735403972,0.0016401939450998416,-0.0026310415363748514,-0.0032147436018339
1681944212.044269,0.7404472128339564,0.7891113629463742,9.682182964846808,0.0003225598398118681,0.0018780327238461108,-0.002100879707118
1681944212.054201,0.4940100609359635,0.8919094527585576,9.866076629461945,-0.0015844154371806277,-0.00046257223101576117,0.0022223222162802
1681944212.0641823,0.6187884015773282,0.5298396587757238,9.64896698789614,0.002003397664109122,0.0012212671074951934,0.0025926007342287
1681944212.075246,0.41889603995460084,0.58341910016165,9.793768201853723,0.00251374676815559,0.00010594518455814007,-0.0012161339714429
1681944212.0854723,0.4707635557867721,0.8779641413520758,9.868485119679667,-0.001132560615652447,-0.0014628060638064403,-0.0008979885920188
1681944212.0955555,0.5218717897927461,0.735866805283071,9.786488759963735,-0.0013154568010554754,-0.0020733907967645407,0.0005638145061903
1681944212.104198,0.8196966021372808,0.42170098688272095,9.51986677257895,0.0042411344524041225,0.003035525509637883,0.0015108111815289
1681944212.1142633,0.46915398713780787,0.735510304944518,9.828218175777186,0.0013056580277585382,0.002705790878785643,-0.0020356908521852
1681944212.1242335,0.4703259684563889,0.9108707119265306,9.876652770839152,-0.0025712578711423397,0.000994393403792658,-0.0006916096049598
1681944212.134252,0.44648843341748295,0.5698298604507506,9.77845956456457,-6.824073756893317e-05,-0.0007367505050004186,-0.0006703775457343
1681944212.1442127,0.6089320791604854,0.7955902067366807,9.75707391029664,-0.00040834664115485346,-0.0003653332126552654,0.0022852618980915
1681944212.1543567,0.5265137456578451,0.5715719215733718,9.753070407193487,0.00013853493629364605,0.0006445816327751624,-0.0011855798389068
1681944212.1643083,0.46562203109141326,0.6123091775396962,9.754085267536224,0.0024113279134523676,-0.0008038103264857905,-0.000405499393796
1681944212.17424,0.6020005556572183,0.8849967329485843,9.798709425434097,-0.001320310997218267,0.00022884491034301944,0.0004412580433064
1681944212.184227,0.45650649655723885,0.6124785908670842,9.777802951429031,-9.951433382629888e-05,-0.0006864610316034374,-0.0007184282026491
1681944212.1942787,0.630980179139903,0.7840621772892276,9.727383188356367,-0.0014525289335087083,0.0011303748234395275,0.0006886123132654
1681944212.2042189,0.6104322611519113,0.5693550366882768,9.679681347383767,0.0007520509360083381,0.003175550844683668,-0.0002300608053109
1681944212.2142577,0.3587416993294529,0.6561864674660448,9.860187292594157,0.002447829116412154,-0.001108535367166844,0.0017533093991597
1681944212.2242053,0.548329900630122,0.6161732651800896,9.712736054010264,0.0026866300064240928,0.00038194681359790826,-0.0012760962440869
1681944212.2342868,0.5205066076439425,0.8724415746634512,9.847880436838116,-0.0005983389099786451,-0.0003362829717468085,0.000107095778244
1681944212.2447956,0.5109832457038497,0.7052623446072462,9.77987973758618,-0.0009939800712472136,-0.00038247075281321844,-0.0003585595718822
1681944212.254783,0.45769777520356214,0.47814879194576954,9.733234138119208,0.0023517107316704884,-0.0012560285380837277,-0.002851532920008
1681944212.2650862,0.6721418097949873,0.9053478843059954,9.77703403631163,-0.0008240953774170381,0.0008938131065106647,0.000184589383448
1681944212.2743597,0.5615968935224013,0.5569697221907574,9.700265125462904,0.001515372703469889,0.0017692643972860682,-0.0002326496492377
1681944212.2883608,0.5044819377398865,0.8149832323767624,9.832934675003916,-0.0005838188534096923,-8.780700163082709e-05,0.0022938419983484
1681944212.2943394,0.6384836235956325,0.4348018563648153,9.634145850335736,0.00157496615511125,0.0018635118388369751,0.0005258021096461
1681944212.3042512,0.37905188925387784,0.7053959325063895,9.832048380208763,0.0017065002264758653,-0.0011666339932539242,0.0006144892808743
1681944212.3142865,0.6732792607904448,0.7293528373337811,9.713853641565295,0.0011097038130015446,0.001911191991735541,0.0007046567893349
1681944212.3242264,0.4278184916501606,0.671962894882559,9.810337938223453,0.001263190663633309,6.827918117770777e-05,0.0002125232399203
1681944212.3342628,0.4622318009417982,0.7748431528243805,9.82990648618989,-0.0006549835608799453,-0.0011107695199199029,-0.0006003432522765
1681944212.344264,0.5233836597056308,0.8365760584345755,9.825252487124017,-0.0030547967281157706,-0.0015872290794092068,0.0007549227134087
1681944212.3543088,0.5606780657330025,0.4811648878287789,9.66607379504584,0.0009461644484490322,-0.0006138089259685379,0.0001167849090644
1681944212.3642237,0.6460706814325556,0.7438538436886016,9.722089304319232,0.0002379890149395146,0.0016522750178987384,0.0003782960970648
1681944212.3742392,0.4088553361051727,0.7042553126696491,9.867592188130503,-0.000278708975301473,-0.0009826112592163517,0.0002345024526813
1681944212.3842173,0.6222474293364785,0.6674284374805495,9.70413355769134,0.0004637429199712122,0.0009381402607070822,0.0002806943061524
1681944212.3942156,0.5394480851910123,0.8366589458299358,9.83096226092121,-0.003980538870375638,0.0016351328433880385,-0.0016378333407691
1681944212.40422,0.5188776389263884,0.483123162030214,9.71141043994658,0.0007133022024273643,0.0011613063009103326,-0.0013163305434635
1681944212.4142115,0.4822443199715284,0.6779661381837142,9.766842746039586,0.001941939887606337,-0.0002580446689596435,0.0004576642217808
1681944212.4243543,0.2892055826405386,0.48415626357978747,9.691562648109338,0.0017895537356592782,-0.0031939740644047177,0.0019410358049436
1681944212.4343517,0.22728633925638522,0.9771526145266034,9.874069116648181,0.004916433933366118,-0.021109755037783916,0.0204368856188603
1681944212.4442537,2.1452203247649786,1.6684030390281575,10.10264901458076,-0.005104352893098819,-0.016222564904369057,0.0250816204038211
1681944212.4542494,2.3881247478181535,0.8259764945954166,9.764604896754895,-0.008182019014514465,0.008287169784879433,0.024663622343237
1681944212.4648876,-0.5482785691096375,0.01611628329288018,9.376919954951699,0.0031230041977319454,0.0048672636148228005,0.014405797087843
1681944212.4742725,-2.679202431342879,2.1551036621381883,10.951690747988534,-0.009182780277718653,-0.042524387176164635,0.0176408950623818
1681944212.4843051,0.6656557782770838,4.18550400180334,11.278223140930967,-0.048883077635034064,-0.05315951832378034,0.0329428919044085
1681944212.494352,-0.4688065901927518,0.6526923052701751,10.265820051710019,-0.04324939480494399,-0.07312175083544797,0.0496310282882996
1681944212.5043893,-0.5678011118043895,2.5092331615492744,10.750632353460176,-0.05782682498419875,-0.10664968532630585,0.056403576248581
1681944212.51425,3.185695307841441,-0.2669353323290029,9.638364895366424,-0.048660991985953694,-0.10041720563111262,0.054767734223301
1681944212.524328,2.421548310117114,-2.2710130768902856,8.026699815250721,-0.01991851465949619,-0.06392740052203437,0.0218254521873542
1681944212.5342836,1.6164686508517903,-0.9001379407747502,10.062864086933539,-0.031384339059407684,-0.049465880085980955,-0.0202611155423573
1681944212.5442424,0.15528271348447578,-7.112060301474231,6.606654109360378,0.057511206865797845,-0.05073879195549389,-0.0149601764592579
1681944212.55438,1.6372341819867593,-1.784407301442564,8.891515863610094,0.0785813891277067,-0.02263820635815787,-0.0400012965861014
1681944212.5642517,-9.670842790984176,1.5560365021999103,8.71269077727747,0.06868601541157161,-0.11647869197842337,-0.0477368879678896
1681944212.57428,-0.8426889663134989,5.679350877763661,12.726365223416778,0.009489220514323628,-0.14788052053175627,-0.060835973507469
1681944212.5842445,3.171590674699814,-0.6344344269888076,11.295634890339397,0.03946395073129955,-0.10067438934328878,-0.0368030976119688
1681944212.594236,1.8447372174939292,3.5043652118381656,11.777108197363836,0.035621189143954006,-0.10424162577151237,-0.017784907630389
1681944212.6042955,2.115820817595319,7.568857020688283,8.301441661834662,-0.03182110820173015,-0.07006921018831225,0.0093180572998472
1681944212.614385,-1.714436375335285,4.864188164719706,10.975716717930469,-0.09135607154455543,-0.1128411173682706,0.0406553138431855
1681944212.6243062,-1.1036188349393903,-1.6327624129223741,10.04424488123269,-0.05725516341055794,-0.15471138993525593,0.0453823794063874
1681944212.6343508,-2.820641357500018,-3.8483596569094507,9.735287659075697,-0.009109595578353029,-0.19922155220349008,-0.002254863883113
1681944212.644391,-3.0715415886830253,2.9295522498798103,10.256253863739342,-0.04084495632018008,-0.2774422422666145,-0.0351683731737784
1681944212.654273,6.908730875553341,-1.0931476582636437,8.786513251380063,-0.026328528645724686,-0.2379686552142989,-0.0611635904374769
1681944212.6642604,9.394803796260485,-1.6858104313215188,7.716144159896037,-0.01602235757426533,-0.14563788896353147,-0.0704034950199774
1681944212.6742904,3.9415197210422295,4.859593498333755,8.597306161315538,-0.03919616719586799,-0.09277802572349136,-0.1235989193978956
1681944212.6845636,2.4173342250241476,2.3683337879892794,10.923802098128604,-0.11458233351110425,-0.06199000157687086,-0.1361674081149748
1681944212.6942935,-0.920587881101209,-6.203305092131922,10.527009677608161,-0.023101879085485253,-0.07111337847113683,-0.0644418309989622
1681944212.704234,-3.2844834890178913,-4.132523462392109,11.559851226733475,0.049854558622440405,-0.13375986445511054,-0.0259932439389876
1681944212.714257,-3.428560088675671,1.824379142268151,11.136899806739061,0.04701427791986245,-0.18985062924303378,0.0116346961271711
1681944212.724269,-2.9063308658039495,5.372663758698971,10.376021278400465,0.01101770107427478,-0.2551024923987578,0.0353042807814427
1681944212.7352068,1.4855330651042002,5.074134479076131,10.790640903958751,-0.058407438399739144,-0.25373722361975753,0.0317834660795279
1681944212.7443352,0.02449641518352619,-1.847661909657946,11.094621082757952,-0.043895268681362024,-0.2690336145061416,0.0151682485279389
1681944212.7542722,3.5011367580903334,-1.4410259270765486,9.912277167899969,0.009488094266446144,-0.26008487851682166,-0.0039648000697842
1681944212.7643266,3.0532838835443,2.1311092468716644,9.082743058032934,-0.014730186219789054,-0.22580826362387213,-0.040315841472452
1681944212.774276,1.0978384907551069,6.357357734866041,8.74875462193763,-0.07091526021783938,-0.22867354838572942,-0.0660114746156386
1681944212.784256,6.8291008344770345,3.282511837276559,9.009016032426747,-0.12841068213405837,-0.1643764719031778,-0.0577047254505804
1681944212.794304,3.5609993810673357,-4.530395048301735,7.789922677475916,-0.06511697225446923,-0.11085175017165953,-0.0468640673521212
1681944212.8042934,-2.6405253728237774,-5.888057252675499,8.764647061671063,0.009031969657454175,-0.1586309644884517,-0.058936369753187
1681944212.8143828,1.883268256914456,-2.916742484454327,7.675417606926076,0.05367027299052482,-0.13941234160777433,-0.0511519994202307
1681944212.8243687,-0.97248885646369,-3.952716619674624,9.55598820324867,0.10362146117090036,-0.15341858532434,-0.0450650911393812
1681944212.8351278,2.8476741205045237,3.485761166736227,12.464401632017603,0.07189690072548495,-0.13257179598643165,-0.0591047267976454
1681944212.8443196,3.6440458007460954,2.109271262994296,11.34222444013763,0.025484109973107086,-0.06357195067755361,-0.1007629494729689
1681944212.8542905,-0.9051248079808688,-1.729188265278431,9.901486465256935,0.04464219022631922,-0.08113270969062202,-0.0975280712905577
1681944212.8642898,3.1231942323975503,8.183542024321948,7.177301623759111,-0.034044155836437,-0.06262094517040373,-0.1161703105631521
1681944212.8743875,4.372754492914128,2.875073990002644,7.20896623569698,-0.07927132416599571,-0.00989995128671037,-0.0992727737489393
1681944212.8844233,1.5373300361897466,-2.928636929315233,7.61490102298197,-0.04529140346443675,-0.0064019816313962,-0.1049883748951605
1681944212.894253,2.3064390550554488,-10.19638450398376,7.635334840595789,0.08416697276266816,-0.0011450850960591711,-0.1080959450069121
1681944212.904265,1.3068303213772168,-2.6249041930795194,6.933661668177539,0.16061850100869376,0.008897420725722227,-0.0912139650049856
1681944212.9142718,4.51838139815001,8.07188982440708,13.312825906681692,0.07495705310619845,0.045158276973707855,-0.0573858480516127
1681944212.9243057,-2.1095359124560944,5.256781603803475,13.737789210306408,0.016022508725623566,0.051889679176753516,-0.0724785338702849
1681944212.9343855,-6.6814606755625805,-0.737224938589919,13.870947622596905,0.01946672227841797,-0.05415235033341041,-0.0682742904487303
1681944212.94434,-3.395993098731186,5.324174981825225,8.956515969210296,-0.002643159648078322,-0.11550205798646992,-0.0594656217458895
1681944212.9543202,1.8954068531124835,7.264077691672588,9.7530111720631,-0.10048312673579518,-0.12516400701431488,-0.0467404696705988
1681944212.9658847,2.904972933278137,-1.3479779677630492,10.003677060069172,-0.08606719922602317,-0.11965345229562718,-0.025419007203286
1681944212.9742792,2.4503840528246608,-3.8543896674206266,7.412750241408684,-0.02255170955005517,-0.11394556531960236,-0.0546698767307451
1681944212.9842725,-0.5838833527454728,-3.4656429967286884,6.775307873230398,0.02088106023790248,-0.13410979080140054,-0.0574480305972746
1681944212.9942846,5.461454650467038,-3.711754992751561,10.12901397009584,0.07946024069382739,-0.09412444800444071,-0.0171387616160563
1681944213.004282,4.613904400410118,-2.719342044542405,10.256969018228553,0.14469377785751703,-0.052422496131752386,0.0017851724091679
1681944213.0143497,2.8699541526458976,4.560767311459622,10.79980698338375,0.08092572539831232,-0.0015462311519023073,-0.0751661892595938
1681944213.024377,-2.241703635318636,5.910690985943455,10.525328484249187,0.0020718299844006737,-0.01646551022631247,-0.1121596332255057
1681944213.0343883,-0.9920388081523653,4.4939634580786265,10.153119442159964,-0.048556836704811056,-0.062471193483494225,-0.1233299236360243
1681944213.044293,5.772555060026667,0.05015076408863597,8.786876375563052,-0.0764633335534789,0.0038010834238236995,-0.1220274578395537
1681944213.0543156,-4.871460145654987,-4.521871489646111,10.749864022907927,0.02682728889828157,-0.08230975498328488,-0.1365266304078749
1681944213.0643032,2.1955662476548437,5.659818846813665,9.51146315909339,-0.04898045286223031,-0.09392291535207987,-0.1339099417987517
1681944213.0743012,3.3790042064035717,-3.6005462785525384,9.284832771545034,-0.0022599816805219594,-0.037748747808928035,-0.0953214924398115
1681944213.0843043,-3.4584082112812284,-8.947895917914227,10.67190620641853,0.12662048765936898,-0.12557000490939904,-0.0630502935114554
1681944213.094615,4.950104102968495,-3.3919160149464216,7.274393583696186,0.19253381154611982,-0.10472811228237043,-0.0335733081761053
1681944213.10431,2.4922443571060264,5.54050781611581,8.73707959254887,0.1445346787256866,-0.08071324515022722,-0.0351355012121847
1681944213.1143043,-0.400501029554265,15.193653902648913,12.057103317781449,-0.015533084216099925,-0.1022120445454266,-0.0553844172123125
1681944213.12434,6.1723526761969865,7.488304777182605,10.71303437977069,-0.14708860662730922,-0.02795072084473777,-0.0961455862584761
1681944213.134338,3.1434259279274337,-9.025626796273084,10.24396651266973,-0.03461686424123456,0.006508046277413985,-0.1166829328599623
1681944213.144313,-3.4476715022368465,-5.663872769132772,8.34420510715657,0.06759763184453794,-0.0424399210911855,-0.1323568235698393
1681944213.1543157,-1.0067388072854024,7.53739793274574,10.647786253875651,0.014563356440336874,-0.07767461742459517,-0.0876129876437834
1681944213.164308,1.2994516597611565,6.926536204009451,11.515639724421444,-0.0723555242558067,-0.10241836034457166,-0.0459131348493746
1681944213.174308,8.105301280420498,2.3221050931661424,9.408334411993058,-0.10344321795218407,-0.03330123203289889,-0.0028507734264484
1681944213.184296,0.13389392904013384,-6.661649960668549,6.861437760553928,-0.012768369036239279,-0.021250984880373372,-0.0047924487467161
1681944213.194296,-2.8578621251626477,-1.3851300657849894,7.1245381048635235,0.022713506081403514,-0.10032653638170372,-0.0195322904351404
1681944213.2044537,7.611947702773189,-5.092071424612257,6.666577979932692,0.07234328960062203,-0.015490944274795939,0.0049136111897178
1681944213.2143643,4.202352174614864,-3.2632610041081187,9.11417867673983,0.13987095379819386,0.02756369080732753,0.0324041664984771
1681944213.2243252,0.5530138980530814,2.107800244833929,13.255798155915905,0.11246294392177919,0.043889557524457445,-0.0328033204737356
1681944213.2344074,-1.8592853936884646,7.296917868696561,11.192348914316355,0.014176709313338004,0.037860711577150534,-0.0570454086723974
1681944213.2443645,-2.3084640809151153,4.6331233751216345,10.615520930081933,-0.029877022765954137,-0.022282173870533818,-0.0774389888706854
1681944213.2543533,6.417586763040522,2.6266528862962026,8.040188630977353,-0.07318824679164783,0.04674772972282261,-0.0782312091055563
1681944213.264386,0.9176105030446966,-5.142638059840043,9.221183451990981,0.01634771803875107,0.055806100082254215,-0.1038597609463385
1681944213.2743056,-1.0734759896161443,6.297339266671082,9.280687902760048,-0.030110900359430957,0.013570447749758918,-0.1113956059876135
1681944213.284335,4.955323483800641,2.5736886372496497,9.87921109444301,-0.06778096806576267,0.058918569225154295,-0.0763096447649649
1681944213.2943003,-1.3012492057563312,-3.7897922673072473,10.985219167932152,-0.004612169679147508,0.03292970729262866,-0.0264083213719776
1681944213.304286,-6.126553642287913,-10.786660947947661,9.69267739602411,0.12675509904326993,-0.0728803330355917,0.0027269995457255
1681944213.314356,-3.2347361995509494,-3.684773099931303,7.746575715748215,0.20094343321018593,-0.15053095886952877,0.0109882139053889
1681944213.3242836,1.6478700650093634,7.049287050872762,8.550836625375004,0.11655801634867223,-0.15915788224147184,0.0131920686376043
1681944213.334445,9.649421643696803,1.955262553931137,11.175223161445238,0.08896660795982199,-0.06889966260360145,0.049305162244732
1681944213.3443491,7.6081145188359045,3.1940344374378618,11.246097690059578,0.06094187519824523,0.043294823498845454,-0.0152449301990917
1681944213.3552463,-0.06871526061157833,4.985183803448079,8.969431032970073,0.005329783242734154,0.04927970869424442,-0.0578302528324774
1681944213.3643508,-0.11552659139825273,2.9955480524272557,8.785459204541484,-0.033792562560891075,0.043292981413550924,-0.0573110479477099
1681944213.3743598,-1.8950136357932483,3.0393557040084493,10.934186935210281,-0.026975823121078626,0.00319857220348546,-0.0440373207989386
1681944213.3843155,2.3643302998077766,-3.037190687227228,11.639326109517558,0.0009380286082282811,0.0011557382867377097,-0.0699683736625365
1681944213.3943946,-0.9067539932572327,-0.2443524278722565,10.336753715077442,0.04764859459839638,-0.025719977098519562,-0.0744178082409552
1681944213.404373,0.3153530582972812,6.383722139875418,11.118866515053874,-0.01806222885874894,-0.06241878713578171,-0.062895291632717
1681944213.4143944,2.6978666019179953,3.6241246188339638,9.544328688256739,-0.06532909357085814,-0.04222745544001598,-0.034506705737417
1681944213.42432,3.571542275503811,-1.6143389303890971,10.216032310163975,-0.04298792430914402,-0.040765074427244204,0.0047625506681152
1681944213.4343998,1.8083007020822415,-6.266686174086272,6.699186844460652,0.04751751469924627,-0.036259516604733144,0.0211674020078727
1681944213.4443254,2.9096467805258692,0.5076920573681613,7.235242888264542,0.04978629443044413,-0.030534128688402554,0.0279067799833365
1681944213.4543648,4.921629235731489,-0.8256669453963773,8.457603054651731,0.06677988990737938,0.012212373677057258,0.0552127946552583
1681944213.464324,1.0683938418073124,-1.6515064998450042,11.041481882816074,0.10335471086784451,0.02240079790257322,0.0607772309717484
1681944213.4747703,0.6565947370989356,1.1433777663820763,12.839704372121162,0.09463949796673327,0.01699483652314749,0.001108722904487
1681944213.4846156,0.7409819300893529,4.8970332017187665,9.841755517372917,0.05251601212523574,0.038235547715637384,-0.0335082459810427
1681944213.4943929,-4.5839235282038935,7.534822561205111,10.330556661397367,-0.033838423095143705,-0.03589441562218972,-0.0452930230262926
1681944213.5045173,4.293669636400024,3.3201545489719813,9.98462557579771,-0.08416079103417101,-0.015138694721773488,-0.0403450216713598
1681944213.5144525,5.5044858627810225,-5.798525914631861,8.132739981827836,0.00032694593764073793,0.048982484308173466,-0.0324531059327772
1681944213.5243535,-2.5648704839809233,-4.640947743119509,7.896113530632671,0.07900773498637255,0.010570317718948471,-0.0313703279557875
1681944213.534363,-1.5868432611261385,1.6826582053696528,6.284077594284559,0.06904439289694929,-0.031156787798376315,-0.0219797968480042
1681944213.5444963,2.867611820244412,-4.111999513816918,8.53615540467009,0.10374260050962665,-0.001932265643542755,0.0318601809826442
1681944213.5543509,0.8105254565356419,-1.8236236396105507,12.33384323532875,0.15206817697838756,-0.021805155652918247,0.0701941240963288
1681944213.564344,4.777517326572846,8.456436886720287,12.35463531942009,0.0742240390184568,0.04090581517468658,0.0244578559336015
1681944213.574402,-1.1370673308765205,6.420225026085309,11.22190385923372,-0.018835815787961504,0.048009622325391604,0.0005532086047106
1681944213.5843515,-3.2416172596485886,4.5806618562978345,9.540062202005345,-0.043682241121377134,-0.026375285675047752,0.0006225010997378
1681944213.5943615,4.5726916962747515,0.3509405558164279,8.206658601990968,-0.057532489141790065,0.015239662665696284,-0.0155057433608225
1681944213.604309,1.4120500014793183,-5.749228632507119,8.551118963490804,0.026641751842126884,0.029612616657309628,-0.0214329950127056
1681944213.614324,-1.6364279506059942,0.785519427620181,7.84522669327024,0.052157056257543105,-0.020050212999018855,-0.006208473033016
1681944213.6243732,4.284835043185846,3.7401761334679113,9.650630633651485,-0.015202768615396154,0.012668035735019572,0.0112381389748998
1681944213.634359,-0.024405315536730542,-5.898489958609051,11.110586217145345,0.07224931671792371,-0.004746272488325191,0.0565838579472848
1681944213.6443222,3.6149953431904063,-0.2163266243032382,11.766143272524085,0.10636143206746268,-0.006485589159823194,0.0456465509173222
1681944213.6543825,-1.932041715826767,9.989993703724268,8.289339103936815,0.011979289236050624,-0.005363732813316937,0.0261730224278518
1681944213.6643422,-3.9315678861317975,11.886197169040353,12.179370279636508,-0.15188104155962764,-0.10733047838992098,0.0054811230779388
1681944213.674361,8.921387470433077,-3.901304521035062,8.134383333462488,-0.11981843129657967,-0.002611010306743737,0.0230617624160596
1681944213.6843684,-5.49823065467275,-0.6057608360838779,8.017827259680486,-0.05163886283475487,-0.10024985859179163,-0.0017390329472026
1681944213.694589,2.9703789629215787,-1.4441028915615925,9.5034388605344,-0.06870381952664646,-0.09262518085794397,-0.0236088104161671
1681944213.7043417,0.10098592321366458,-3.073993579070819,9.20062074203236,0.01547552045422405,-0.10387502870809669,-0.0046866220969012
1681944213.7143464,4.169433693511125,1.3455584111734464,12.517429929715956,0.009329379231350405,-0.0965443144599668,0.0046312835451909
1681944213.7243354,1.8885530432379234,0.11792584424223919,9.49908080538021,0.007380072373384788,-0.05326965624374612,-0.0391014974179915
1681944213.734453,-2.032029316051053,-0.08339562822683734,12.129945683127056,0.03827883162828651,-0.13578958233856267,-0.0357702385249785
1681944213.7445788,7.036157156390456,2.087780544917354,9.93142146788036,0.004344372291867575,-0.06638086075763473,-0.0340845446649244
1681944213.7561576,0.623195568337739,1.7676052268236553,10.388658719725612,0.012705331087364677,-0.08591127645786349,-0.0438080478075197
1681944213.7643642,4.632208422658606,1.9775409471893886,10.365043240373625,-0.015708170589215767,-0.06726919453936799,-0.0378103565040281
1681944213.7744973,3.7086360654746664,0.8951585377794931,9.199315315415388,-0.011464783594603963,-0.04308458748558883,-0.0340074088040045
1681944213.7843645,4.4845524883345735,1.019689540848251,9.821826548331988,-0.0076721324173861394,-0.021216816032950277,-0.0201792168977907
1681944213.794347,2.180507954611495,0.4890891876622973,8.876934405957718,-0.005029880540735775,-0.005984667891771535,-0.0140070460352352
1681944213.8043735,0.18096067512211098,-1.5836645653296189,8.56126376097534,0.015458314477091803,-0.025687548184593224,-0.0009251080068997
1681944213.814333,1.6765631409910868,-2.1016181766121944,8.300901301327963,0.0533625155957653,-0.031319265107175434,0.0214864153799363
1681944213.8243358,3.7806420716013753,-2.7208430151794527,8.801619043661024,0.08350864657772344,0.0017885105238147124,0.0253561109688826
1681944213.8344953,-0.9316362937504281,3.3120920278488533,7.614844636798143,0.07739931568264917,-0.019234881135756818,0.0082844922703453
1681944213.8444176,2.974225982076551,5.205990819543046,11.445445312689504,-0.01016167868836201,0.0042121225595596785,-0.0175125386181524
1681944213.8543484,3.4254864600090635,-0.008577494444148107,9.275076136493297,0.02129986791379773,0.04371895808970022,-0.0402542437973669
1681944213.8644507,2.423837499602648,1.6743075175841042,10.185415295308307,-0.0037940264049332647,0.06534097185675711,-0.0732287030282667
1681944213.874568,-0.45300683693701194,0.9227291342513962,9.723805622455247,0.011419931649841075,0.05101381768661777,-0.0886328976216963
1681944213.8876748,0.7650128742698578,1.6343277211870528,10.831122397299815,0.002489527099503153,0.03210403044412294,-0.0857639621558836
1681944213.8980377,0.9195336419021362,2.612809868304549,9.836214621962045,-0.018415674084957603,0.029156191872659266,-0.0669572364154509
1681944213.9092517,-1.6283437520184176,1.6283835235528963,10.176369237900246,-0.022430098532728555,-0.016669980991734723,-0.0520735617342642
1681944213.9143734,-0.1487757151865547,-0.8732881634649706,8.49473527613426,-0.016409903401016324,-0.03221836094093121,-0.0325965258839777
1681944213.9243329,-0.6050469580038417,-4.358753852488196,8.38067265698507,0.050312941705497674,-0.05833272592321099,-0.0143128346267393
