time,ax,ay,az,wx,wy,wz
1681944152.1765883,0.4003500401800505,0.6180734500511813,9.791226390107585,-1.1617653452558716e-05,0.0010361176266046612,0.0009415626677447
1681944152.1863213,0.4442496738388684,0.709331978752109,9.815995033617439,-0.0023935928149830675,0.001379944424497995,0.0005049692385592
1681944152.196329,0.4104733349852017,0.520887209253936,9.765911581632215,-0.00111019700527998,0.0012264640071617762,-0.0008022614370337
1681944152.2062674,0.44001868778731135,0.5804458506187856,9.772286722505257,-0.0004433684110770981,0.001157553494064985,-0.0004498417570493
1681944152.2162683,0.39431246600370984,0.6731910294612573,9.825905964148363,-0.0019715045281297134,0.0003368656579580927,-0.0007877211633375
1681944152.2262676,0.40224945198386886,0.4859769268106229,9.746802635539561,0.0017940351626509262,-0.0010515280533076057,0.0011300483288005
1681944152.236452,0.5171448338679342,0.7899416192900538,9.792509710583225,-0.0019662628838864275,0.0008904633679947155,0.0010365663015046
1681944152.2462935,0.47032630198739944,0.5173517189205024,9.723796640994232,0.00014711658103619518,0.0014883489651116978,0.0011289019289189
1681944152.256333,0.48844083922029014,0.6751932950895586,9.781081033571484,-0.0008599044500221894,0.0024442748755924342,0.0016001985909179
1681944152.2662897,0.4794722487740558,0.5988020373344449,9.758459878797867,-0.0006557262523371136,0.003218015884084439,0.0018751057263808
1681944152.2763152,0.32830924792083854,0.5515295556260843,9.816148384354143,-0.0011258501516351314,0.002003948116230884,-0.0011513013473949
1681944152.2862875,0.3517585438947965,0.6843110149103093,9.857295863283959,-0.0015658024060218583,-0.000549007182036816,0.0007936532760732
1681944152.2962947,0.4805358973097236,0.3928786119802604,9.67607848410273,0.002152794572119143,0.0008848630797714192,-0.0007962809491208
1681944152.3063068,0.3816255193091381,0.7735188599926417,9.86172937019542,0.00039780197537003857,-0.0012378090789468964,0.0023463673691959
1681944152.3163636,0.4550036141694954,0.5883664419089906,9.771337918939773,-0.00028730708427578,-7.476024818496335e-05,0.0001763840823196
1681944152.3263795,0.4400852804970163,0.5734700250653908,9.768454400519026,8.447744432697472e-05,0.00021992028138305831,-0.000506845683535
1681944152.3363247,0.39416413135847495,0.6010276290167811,9.787202696425737,0.00030653900759248495,-0.00067082712261278,-0.0004133332136324
1681944152.3463633,0.524750436237658,0.5270136825900394,9.698676540298933,0.0014892710070559053,0.0015878554961725345,-0.0014679617329738
1681944152.3563416,0.43426035413376457,0.6251943112502992,9.795948544023014,0.0018655622013143973,0.001028667836321438,-0.0003138847264698
1681944152.366562,0.3246363690250167,0.6847152288156237,9.880563414510434,-0.0002746390091937919,-0.0012784175171130726,-0.0014232624403438
1681944152.3763494,0.5273025932130087,0.6507499656753893,9.738320242164125,-0.0017833478056461152,0.0011072745845942635,-0.0026473874773136
1681944152.3863049,0.3772345783039198,0.5547613812585348,9.788751349011985,0.0007665800513084664,-0.0008671555690862532,-0.0002591325051388
1681944152.3963246,0.34442011938242106,0.664401950585696,9.850305459841456,-0.0015702543838367485,-0.0021635330352889233,-0.0024022647726586
1681944152.4064186,0.46319038922158273,0.5397744576356198,9.746242251587185,0.0014203908310274542,-0.002439194471402676,5.530097174877985e-05
1681944152.416355,0.518609127067004,0.726212350716152,9.77349993098161,-0.0012212143674194698,-0.0007214863935537211,-0.0001279814482903
1681944152.4263291,0.3851359923159895,0.48758154198030207,9.763826602065727,0.0004119314695320137,-0.001212832017739627,-0.0016288933425447
1681944152.4363687,0.5120680184133276,0.6530786915418795,9.743809394596951,0.001530273920695395,-0.0006208785590447291,0.0019589403068176
1681944152.4463491,0.41895961024206196,0.5077258255392847,9.75266817143857,0.0027395250436873793,-0.00044766611511558156,-7.432597570632832e-05
1681944152.458565,0.4338806164854116,0.6859220440740291,9.82842152240456,0.0010214186240078023,-0.0007211093104797034,0.0003853761276924
1681944152.4666247,0.31243482195537603,0.5599511030847825,9.814176228348913,0.0009037143027901139,-0.002106531893510367,-0.0012824313330701
1681944152.4763105,0.6286130747097839,0.7872012426142191,9.738964596935949,-0.0024796170000190953,0.0016485564860273417,-0.0008678048930368
1681944152.4864836,0.35801553559109434,0.505134864896562,9.785603006632684,0.0008846921523670922,-0.0007453091590745582,0.0011889243882843
1681944152.496497,0.41767355695550107,0.4646648907681696,9.738877460052205,0.0027779019606751164,-0.0001496409267558371,-0.0010924296534857
1681944152.5077708,0.4108936390380685,0.8295700804164958,9.867711716142535,-0.001232012204271782,-0.0015224130970654707,0.0011378833709978
1681944152.5163052,0.6306036532613986,0.5295907197313645,9.644176207375557,0.0004030151430452663,0.001974884198674523,0.0010257309454255
1681944152.526323,0.33338511990353575,0.7138548581879302,9.861792204025166,-0.0016824130602647819,-0.00011500686433442984,0.0010726857849159
1681944152.5363364,0.45777918021562625,0.4760901899784631,9.72644465942169,-0.00024555406737887417,0.001101674198844712,-0.0014832361216894
1681944152.546366,0.33259583469043724,0.5894081294194163,9.830793093985056,0.0019803031365104467,-0.002355021069965201,0.0020427611866262
1681944152.5630183,0.4375445465705865,0.5897420917190999,9.789455810715006,0.0013496106390025436,-0.0015082586998893936,-0.0010499839286557
1681944152.566503,0.6400742007953057,0.7878354679316508,9.72923056955617,2.0777058334370372e-05,-3.676123678093807e-05,-0.000902465459635
1681944152.576331,0.42769138376135335,0.5599307241657857,9.776666483437555,0.0007088491550388492,-0.00022563640208071156,-0.0012414726975611
1681944152.5862916,0.439992984026442,0.6705351071932536,9.796025119288926,-0.0014327972508565755,0.00031378984538974397,-0.0025874042499116
1681944152.5963256,0.5093059592120728,0.6335366645724811,9.74984098166241,0.00010163516736067348,0.0004516196464698328,0.0012101563893021
1681944152.6063004,0.562877718338529,0.5542385719866342,9.689008451095791,0.0017787739690559967,0.002925576811270749,0.0019887298671756
1681944152.616422,0.22192805155019066,0.5168393190957518,9.857031153853294,0.0021106985806747434,-0.0004394631811266367,-0.0013159575487724
1681944152.626327,0.5792794016186086,0.7729667206906982,9.762518182774235,-0.00013603132006054957,0.0018810054527447003,0.0004747814650409
1681944152.6363895,0.25346091876628557,0.5648679794948327,9.859139160307873,0.0002949800991081826,-0.001492623748407275,-0.0006152474402687
1681944152.6463888,0.43065445224770316,0.6446562275342773,9.78954538418632,-0.0005942392995185171,-0.0013622344283261362,-0.0012340109410933
1681944152.6563494,0.6134292945457919,0.6000236236848477,9.68290011680422,0.0008314252751833118,0.0014917077332064763,0.0012995324190934
1681944152.6663811,0.2963695270825836,0.7136956668584128,9.88423375182527,-0.0013892211034096027,-0.0014084203586957995,0.0008163907600329
1681944152.6763866,0.4595837615890711,0.5262246589710545,9.729643729214645,-0.00011182333452655822,-0.0004446926342784248,-1.3237734069575235e-05
1681944152.6863265,0.46948079953679045,0.6047365322384237,9.765315438165436,0.0008183848647593439,-0.00016342679023165124,0.0011643378797681
1681944152.6963265,0.509616169830851,0.7320746999683901,9.777827227220225,-0.0002198646436797279,0.0004668941133794695,0.0040674492169865
1681944152.7063544,0.334611297714995,0.41015050320256924,9.762025165608897,0.0011987236924223769,2.730570626910237e-05,-0.00091514238969
1681944152.7163308,0.3100802839004469,0.694869428926157,9.882191687426559,-0.0010278554852471145,-0.0023088176702426534,-0.0022700151044181
1681944152.7263434,0.6604101019747985,0.45131254540921045,9.617436282340464,0.0032334961666722994,0.0017618134864404277,-0.0007664641912332
1681944152.7363777,0.3754024725465431,0.737793443365406,9.859252928001219,0.0004506939105228903,0.0004177285800849316,-0.0009229394222847
1681944152.7463815,0.4184166388946189,0.7022942882887545,9.820778683711492,-0.0009708681691287249,-0.00034858021223929154,-7.358406086032526e-05
1681944152.7565696,0.4152196282125091,0.6220572539303807,9.79814182226251,-0.0024032735341611893,5.2610892608025945e-05,-0.0021288219454935
1681944152.766381,0.3678153533786688,0.6217500952933167,9.8333890202437,-0.0019655188742338054,-0.001960891705149527,-0.0008644661016068
1681944152.7764308,0.4184166087576662,0.6423118801222759,9.802473094226183,-0.002399518423399385,-0.0024548656991858404,-0.0004245027981004
1681944152.78636,0.6260011378345094,0.5603653769148089,9.659519606891354,-0.0008799791615596693,0.0011702232119374988,0.0004729132319563
1681944152.7963283,0.2664607140527599,0.5807296096731774,9.868529642899247,-0.000628517948595821,-0.001982854925442495,-0.0006398271384886
1681944152.8063357,0.49471982770490913,0.6930397446016723,9.77204470135872,-0.0021782487059797163,-0.0008053126214587689,-0.0002259487833133
1681944152.8164642,0.4439928501221113,0.47270252917652633,9.72604107965112,0.0001243369673226173,-0.00016155457809926136,-0.0015786110039106
1681944152.8264012,0.5439182563870949,0.7078214710764187,9.75722661493265,-4.700097241651911e-05,0.0007902453462141816,0.0020528096333374
1681944152.8363943,0.39617676527760376,0.5898475119882791,9.812396095481308,-0.0001516794873355952,0.00011447321734536359,0.0009963106399164
1681944152.8463745,0.48395567638883985,0.4829033637209224,9.70715197414662,0.0028527410014923473,0.0009705780461439218,0.0014113069896348
1681944152.8563387,0.48916113452223503,0.7841669056517743,9.825395073898653,-0.0009191172195834994,0.0018769164984679355,0.0013729549513892
1681944152.9009917,0.40802428942534774,0.5551461054958139,9.774079315937657,0.0034178979450853945,0.00039237467747528325,0.000453912039543
1681944152.9052165,0.2037828271560828,0.8644809273388299,9.994557827510176,7.779807655859422e-05,-0.0010377593361484718,-0.0014351784798554
1681944152.90603,1.4589851910638547,1.0076199748391634,9.35692067731127,9.604266987310131e-05,0.00028436736857474966,-0.0001532843184894
1681944152.906813,0.23190556962517256,-0.29681329144982616,9.574177171278041,0.0009610728143604379,0.0003562617131737652,-0.0013405388768068
1681944152.9118936,0.5225123057507057,0.6837885405827054,9.762647230020493,0.00045032939985288644,0.0010811797310424057,-0.0009699034585854
1681944152.9163437,0.05576751340871451,0.328427161037067,9.892982174819302,0.0027231277921652723,-0.0022324185145218447,-0.0016598141833445
1681944152.926424,0.508027946784923,0.6748783393934079,9.772314716875696,0.002341658187589187,-0.0014009717522384664,-0.0001667352940193
1681944152.936509,0.5629699731175507,0.7232397977829812,9.759943562670614,0.00031545800334918943,0.0010581165665724634,0.0001812572276913
1681944152.946365,0.3524229306869634,0.4952578016134825,9.778091613322458,0.001887174192226798,-0.00018165692180786483,-0.0012928532983413
1681944152.9571404,0.545634909727166,0.6659141197853935,9.74353927325473,0.0011782464500152434,0.001965209814270073,-6.984677978371517e-05
1681944152.967384,0.31048113606554495,0.7498960723974689,9.900716933209535,-0.0015117846095825654,-0.0010135215186698782,0.0002170103520848
1681944152.9766169,0.49295517620316825,0.5913454182817898,9.740970258455762,-0.0007544374138625945,-0.00010866908005390375,0.0007053732092254
1681944152.986406,0.4658267049815382,0.39407341966214254,9.683466245088102,0.002980924865451145,0.0011896187037529862,-0.0006327150936475
1681944152.9963546,0.3868140639330934,0.7122809577326379,9.842569990447373,0.0015124167042823765,-0.000255829726671671,0.000453534737485
1681944153.0063555,0.43110451114242393,0.616514911770156,9.785298178978511,0.0011022596461836651,-0.00015486077964099848,-0.0002143924671462
1681944153.0163872,0.43651287131975647,0.5278903787413172,9.749866713444893,0.0022060617000773156,0.00048366109750701367,-0.0013234067323855
1681944153.0264337,0.523574562907835,0.7068955486366265,9.758447943125036,0.000790407458991279,0.0019022599937940632,-7.136041179810898e-05
1681944153.036413,0.3139098323286354,0.6618868955993368,9.876831945350341,0.00031696135253871024,-0.0012087448113867456,0.0005802036880278
1681944153.046464,0.5013308873232899,0.6385448955212382,9.755501269664068,-0.00027536193097675094,9.697100965939932e-05,0.0011077014182456
1681944153.056414,0.4614794335991953,0.5468959263790806,9.74242247412866,0.0006026831623574125,0.0009120682539209994,0.0001775014365785
1681944153.0664456,0.47061600397002634,0.6474648842067207,9.772707717972532,-0.00033907371294035753,0.0017219399076521189,0.0001160270453193
1681944153.0763917,0.4799324598522345,0.4652935830466395,9.702305924864874,0.0025096380621188676,0.0028924530036889304,-0.0002084301400235
1681944153.0863504,0.23064031798333212,0.7463003137230063,9.93769219889065,-0.0006460425751412342,-0.0012854933528115094,-0.0007836303289285
1681944153.0963614,0.4040507043993738,0.499303205711288,9.759110104063877,0.001716183008106105,-0.0018010452010393271,-0.0012653040780923
1681944153.1064112,0.5969569123725933,0.7186558810832435,9.72982850750658,4.765212511393505e-05,0.0013203497502447415,-0.0004516839131019
1681944153.116379,0.2302023764852252,0.6034612009534075,9.889073384246922,0.0002789731633144635,-0.0030486586892739947,-0.0004408945410749
1681944153.1263945,0.6083536724988978,0.6320714397167723,9.703330457650596,-6.005900335911361e-05,0.0003353787513858225,-0.0006495201110145
1681944153.136376,0.5057115555364273,0.6071100532500532,9.742421214267075,0.00028416996017550526,0.0015952879777644225,-2.6626310986925528e-05
1681944153.1464071,0.3862237634139775,0.563274054781641,9.787907197595477,0.0007054868115694366,0.001016369204496481,-0.0010857585898837
1681944153.1564205,0.32847659796987044,0.6481952126881448,9.85490221010474,0.0008560170294041457,-0.002086412694879694,0.0008461979718641
1681944153.1663463,0.5492084598478125,0.6438546293020551,9.738265199635322,-0.0011847289513543236,0.0010349913386234909,-0.0016624246805212
1681944153.176406,0.41268376136618606,0.5803384549852889,9.780544283933594,-0.0002608354185133706,0.00039126083271377325,-0.0015942483755997
1681944153.1863725,0.5165461208543133,0.5722673514543943,9.72491398336619,0.0018077950897196272,0.001542403143150529,0.0005608354381048
1681944153.1963477,0.2990874146358112,0.6732338855828103,9.878438023947739,1.8918616919177595e-05,-0.0009628667800988414,-0.0005679418414137
1681944153.206395,0.344482701480344,0.5283657578296073,9.797294352090615,0.0016364602456895201,-0.0028840132629742487,-0.0010641416616043
1681944153.216339,0.5443562357536216,0.7374724054100062,9.775078316729434,-0.00014385533978080717,-0.001197956371139879,0.0005302774638631
1681944153.2264016,0.46031586639456934,0.37224843773510174,9.670743619549437,0.0027610488386947377,0.0008688426859162763,-0.0034156052011302
1681944153.2364128,0.435799032234118,0.7839414797353597,9.848855036412608,0.0008761187844354099,-0.0003649589049956208,0.0001141652150773
1681944153.2463827,0.4676356912326492,0.6514415444000871,9.78938634139981,-0.00013675355772870175,0.00038826928820512205,-0.0009393625973961
1681944153.256412,0.4139306511715079,0.5164722445055993,9.756286597664069,0.0015854067353297907,0.00011301192512712908,-0.0013301255262694
1681944153.2664006,0.5164395903868509,0.6703413798639357,9.764668137471022,5.6590745721130996e-05,0.0017517602766080928,-0.0015636681660315
1681944153.2764063,0.30575369556655857,0.5884898006924578,9.845894996183565,0.001905428683586427,-0.0019753963975202484,0.0012313947349549
1681944153.2864175,0.5477446287954982,0.4890356805417626,9.674911172168784,0.0036011572105919204,0.0008703885823867827,-0.0007545560679635
1681944153.296391,0.46256177566762463,0.8812262569204741,9.868372458748887,-0.0010431534706612736,0.0008282397325559133,0.0009940746508301
1681944153.306418,0.3993736971119294,0.633473016856643,9.815391488544243,-0.0019137502308317132,0.00013347171300619035,0.0002765953226708
1681944153.3163702,0.4079271952020438,0.5418149168412209,9.767720363784818,-0.0008252302277926758,-0.00016827903495880212,-0.0003574540919861
1681944153.326433,0.4298108936728661,0.510837731438518,9.733212709545654,0.0008973589790254046,-8.825985542203534e-06,-0.0006450458045354
1681944153.3364303,0.47791923916667045,0.6052025334473636,9.75375961845492,0.0022634196194239093,1.092959424617086e-05,0.0018859133174056
1681944153.346505,0.35474132001364483,0.6007887549655064,9.826156710924508,0.0007263699426175539,-0.0006827403018355378,-0.0012392326339385
1681944153.3564231,0.505711584859744,0.7467947881878543,9.785111522059124,-0.001905549508076522,0.0006304378006082943,-0.0011725357349268
1681944153.3664498,0.42893567808801614,0.6288016484763734,9.81181441253109,-0.0015892654316110794,-0.00010568570800140036,-0.0001633608795008
1681944153.3763995,0.33288854197419043,0.5731243978980108,9.83147969210617,-0.0016049067459673874,-0.0018115060870330382,-0.0019984423729828
1681944153.3864276,0.6475264172658373,0.6873486550840877,9.677401977354785,-0.0027850594066881748,0.002538911698376223,-0.0011405042919567
1681944153.396395,0.38495300183067144,0.5372967250427176,9.792791726184422,0.0004343150867236897,0.00041883098971995587,0.0015621969482391
1681944153.4063575,0.505033070317243,0.4747480624018838,9.68588553247349,0.001044112583243224,0.003419184673893232,-0.002280464078044
1681944153.4164104,0.3867955289600719,0.8548594736267595,9.894658851584682,-0.0024445987226138963,0.0012663343437473394,0.000994834610051
1681944153.426447,0.28896491741235236,0.4806632535021981,9.832984435753085,-0.0004560422209906664,-0.0015756818743203305,-0.0004189267370155
1681944153.436485,0.47680296429067826,0.5040519518921895,9.730085031477834,0.0014256235526417676,-0.000541182420820097,-0.0009151158469966
1681944153.4570167,0.40470880308000673,0.5826995526427675,9.772692977384873,0.0010191844024428653,-0.0004659077224348125,-0.0023370605509034
1681944153.458491,0.9786790992563893,1.4549622717490533,9.769540334039112,-0.00033574211374797045,0.00044007008592470315,2.475778225297792e-05
1681944153.4663818,0.3379823057548884,0.7032460149168829,9.870073673203441,-0.0013422871750397509,-0.0016826064022521714,0.0010186732665398
1681944153.476574,0.40107336234586394,0.5222024431074761,9.77108790475945,-0.0002794544013642323,-0.0017213476487720077,-0.0004930502350679
1681944153.4864018,0.5025639807085408,0.6170658679950426,9.754904547717333,0.0002052006962667178,-0.0008697399655020891,0.0004297049867683
1681944153.49644,0.4514881067556502,0.5099480770123199,9.732451816837214,0.0011387574227308215,0.00012971680424663076,-0.0015722950070402
1681944153.5063915,0.5115699826261308,0.6792713490995628,9.758866192464996,0.0015001217186361507,0.0007585751708803521,0.0015841728431633
1681944153.5163856,0.40309291578958045,0.7556803115998015,9.859294372165575,-0.00055029067616092,-0.00069539919920497,0.0035243029392086
1681944153.526423,0.4399521109119805,0.48758147997777923,9.745621527820235,0.0006775569249619551,9.065498030764837e-05,0.0009795706405066
1681944153.5364528,0.33450972134870127,0.5487826161244086,9.80674101561857,0.0012169991642217435,-0.0016006283523322747,-0.0002967155619761
1681944153.5464385,0.561355194957459,0.627327534738272,9.724196681487998,0.00039034528863893844,0.0012387588858333352,-0.00120645659857
1681944153.5565312,0.3770122265424553,0.7148249294584064,9.842455964433835,0.00013107949382960363,-0.0012083875021492478,0.0021519070992008
1681944153.566536,0.5370712972039359,0.6795616346594961,9.751138885166236,-0.0008337881964610688,0.0006933933940544934,0.0029811488616042
1681944153.5764434,0.304381732632248,0.5603904187643141,9.838079087002368,-0.0010833618227352245,-0.0013465773416019163,0.0006222993519851
1681944153.5877562,0.3515381788797926,0.5569415990904504,9.807395374161953,-0.0012386983983044915,-0.0024477855568088448,-0.0020282393402657
1681944153.5964448,0.579886722718063,0.4221462393210726,9.642329862132774,0.002760368899700709,-0.00015635464489111237,-0.0009728874161145
1681944153.6064155,0.42893559923394625,0.8567841883100906,9.87980565092108,-0.0016552151027511288,-0.0008246656300419059,0.0002710122766667
1681944153.616526,0.5341564632613702,0.5385878918602984,9.712126847243036,0.0008794880992770903,0.0005916847095532268,0.0017134353306256
1681944153.626479,0.36998639658756177,0.7272499457414862,9.83736851301707,-0.002733293840238638,0.00013347489337843323,-0.0004110966424695
1681944153.6431158,0.4252004243425509,0.5797186979696498,9.768601497279759,-0.0007916865193795385,-0.000980383499865919,0.0016743226710469
1681944153.6465836,0.4846707430413097,0.2942328992979865,9.642656426142468,0.0012680179025942563,-0.00044355951129349756,0.0011736402788893
1681944153.6564243,0.40088131220682477,0.6906344557034862,9.83736197899527,-0.0011303116892638374,-0.0009215196894482065,0.000105979471723
1681944153.6751144,0.3765983824249275,0.5105999502220883,9.769871164061247,0.0008548673943627564,-0.0018543440507646364,-0.0034282157744518
1681944153.6818547,0.5772337460729516,0.7191271653471797,9.749004001371132,0.0013674922223147195,-0.0012288473572419228,0.0004025023349323
1681944153.6864092,0.6482007255390988,0.4815152948462312,9.619400572238934,0.0017876782708762932,0.0012861121976287416,-0.0010656229301593
1681944153.6964123,0.36594510377901757,0.8248469403565546,9.900147625630602,-0.001360167438103066,-0.001077618111969625,0.0013368109916565
1681944153.7064073,0.5439238496304978,0.49334063794874655,9.681256973497515,-0.0001531664400639846,0.0020810590842387246,-0.001221713757818
1681944153.7164087,0.4281160610221295,0.4357549638937946,9.712073808823845,0.004941913724012725,0.0012760168818943102,0.0010630049777911
1681944153.726405,0.44279132839476537,0.7356150178149705,9.820660413743806,0.0013216984612561137,0.0020795528583703684,-0.0006617970380238
1681944153.7365248,0.329372248351296,0.8138544417346849,9.918287176065236,-0.0023924451959624624,-0.0008123854206494135,0.000557844728487
1681944153.74645,0.5097496798726768,0.6061139415652742,9.740346091093553,-0.0031144510659098746,0.0011266139237752063,-0.0010447722475281
1681944153.7564814,0.4548285954751158,0.6239875570810314,9.777044896141902,-0.0016909874912356612,0.000358851435862316,0.002349718151404
1681944153.7664938,0.5658990935481003,0.5361923399573627,9.69233154418221,0.0002130346145099343,0.002734458744871006,0.002900724384258
1681944153.7764635,0.13468674727452076,0.5239510833995147,9.915033002748283,-0.00031744891024021264,-0.0019474538295302447,-0.0017466111189923
1681944153.7864077,0.5833896657425327,0.6823380712951709,9.732294388235397,-0.0009682654873914125,0.00045794700693209774,-0.0001819938502511
1681944153.7963998,0.45047217788325045,0.5183692589565634,9.741809511016577,0.0012102790685844115,0.0007325118051674625,-0.0002762343815765
1681944153.806486,0.49674484805308405,0.5702619546509774,9.73164899836847,0.002445190760553263,0.0018441617306167379,0.0005194992677071
1681944153.8164806,0.41600462261553395,0.6768037258646981,9.810766455499087,0.0004931297300902129,0.0017376085914983363,-0.0003976797766289
1681944153.82652,0.3370857947851256,0.5320991191321871,9.802242552030973,0.0021702944605210997,-0.00020737883437240112,-0.0004733047995022
1681944153.8365262,0.4937300161719613,0.7446761327732717,9.791898695995263,0.0003251500107481819,0.00036892158892814873,0.0010008020594478
1681944153.8465233,0.3846870662511914,0.5015663624015007,9.781701729111761,0.0013477450773822352,0.00020499988781090317,-0.0015558816108158
1681944153.8570836,0.5324795784506826,0.8066159035824406,9.790126271895383,-0.0020750734931354277,0.0018124696341608397,0.0002039725345321
1681944153.8664625,0.38032436311967394,0.5012799074235338,9.769608821913412,-0.00025298970437347926,0.0009101968189090073,-0.0002996743737957
1681944153.8765223,0.39553058819767495,0.633601361970543,9.809410729928286,0.00036986391030506565,-0.0007047105653148839,0.0017279627695325
1681944153.886561,0.33294745726534775,0.5192230230232205,9.806657163604287,0.0010426663466558575,-0.0021490088636546907,-0.0004542923148027
1681944153.8968155,0.46976411304235977,0.5856086630763104,9.754886956429294,0.001092929200956249,-0.0011237834907009841,-0.0011960190336457
1681944153.9065344,0.4931186659334479,0.5534163019722098,9.736348556881367,0.002350959327312635,-5.081703992843107e-06,-0.0014966439071348
1681944153.916438,0.4985852987498041,0.7925044583178271,9.798073933199497,-0.0014596587903623003,0.0014157120179476167,-0.0012675380881181
1681944153.9264624,0.45199742121772307,0.4657497402634555,9.720989097192366,0.0026981686578474704,0.001160172094761696,0.0007441284519382
1681944153.9366531,0.407437252329454,0.7924808222816886,9.856290504012359,-0.0007905677939398658,0.0001699832368886695,0.0013818877900713
1681944153.9464543,0.42032478408244756,0.4739461349688857,9.750630917013043,0.0012713676555659668,0.00016366060435561063,0.0001462027116441
1681944153.9564445,0.38901952240627136,0.6065239948783643,9.802975791333608,0.0016699900542419374,-0.0011670099370034459,0.0005779887701147
1681944153.966493,0.5282982526738806,0.7017730688090702,9.765596012412363,-0.0005893858367950987,0.000988045413094638,2.0643431948970392e-05
1681944153.9764328,0.47303384286099653,0.5530732755333784,9.733920613170872,0.0004115627398173736,0.001961846170972893,-0.0001797735772333
1681944153.9864595,0.37899769804209815,0.5841270073232813,9.802058256873392,0.0009107740398438932,0.0008468764912445778,-0.00054444596984
1681944153.996439,0.39552486461982495,0.7060592345888267,9.842506991080944,-0.001910030367114999,0.0005991164792109222,-0.0023456412914446
1681944154.0064957,0.29277103863417725,0.4450614231935003,9.806385084062457,0.0017537623197786073,-0.0024954895625816944,-0.0020510052877715
1681944154.0164545,0.6421330199975684,0.723090315843974,9.71550585954779,0.00032143710053617183,0.0011873708844488897,-0.0006945795926502
1681944154.0264552,0.3275149634487015,0.668101321241794,9.858896376007523,-0.0011716602581779683,-0.0009971583262212134,-0.0009184797841361
1681944154.0364816,0.5262997245291695,0.5986136969670705,9.724683878941505,-0.00043182751360115355,0.0005190369048859449,5.828318304802044e-05
1681944154.046483,0.3538546339438369,0.6954668420645557,9.862950944978836,-0.0021473162004376576,-0.0014721224479590357,0.0001119412167691
1681944154.0564537,0.5169113926283195,0.4609992707771344,9.676823834196147,0.0007677176671139832,0.00035923910402093045,-0.0004423806990734
1681944154.066489,0.48184587383667193,0.5883911099674548,9.74393579265187,0.0011767272876761956,0.0013293069472408003,-0.0002930149517259
1681944154.076691,0.45654716043532345,0.6757862303782246,9.800030773038475,-0.0007250222973381145,0.002164853315419154,-0.0016024663659981
1681944154.0866573,0.36575842597583663,0.6108245177959015,9.82409875279629,0.0004741747932806233,-0.00016343119608368367,0.0004092161229574
1681944154.0964663,0.374801600588533,0.5721458618826005,9.820798710900878,0.0019218192194023962,-0.0020469316484366413,0.0015994464460755
1681944154.1065044,0.49470261003457966,0.7160717673063124,9.781809788328559,-0.0007246257012302981,-0.0005873699684531328,0.0012187169899926
1681944154.116428,0.39040796999157157,0.6760949431483525,9.83277181734472,-0.001990482494724396,-0.0015280092734019117,0.0009743407985889
1681944154.1264305,0.5142969471099911,0.43453652314895014,9.682386655230335,0.0018055701403700258,0.00023370772406951853,0.0013326847378858
1681944154.1365294,0.36806167725882255,0.556473715758825,9.801871257894735,0.002231760200079598,-0.000676027524980992,-0.0003093941218457
1681944154.1464868,0.4798064934708132,0.7882258581498681,9.820086547550591,-0.0012573500667733414,0.00011261462311929264,0.0002263050677948
1681944154.1564708,0.5857874602467825,0.6066398798013364,9.703312443463897,-0.0011347879288923289,0.003272783365158157,2.8508567506919932e-05
1681944154.1664896,0.2980014746851213,0.6072399335997241,9.859749820469164,0.00011095159505081139,-0.0005795430117324202,0.0023433873115801
1681944154.1764731,0.46496483547953243,0.6646500213526961,9.779235101650505,-0.0010848864970418037,4.210064403819697e-06,0.0025821716094152
1681944154.1865458,0.3590157168863197,0.4671625977320889,9.781940394894049,0.0008712847973634748,-0.0011707456122258767,0.0007709313335591
1681944154.1966095,0.4689412466480041,0.7162982382368486,9.805006847773482,-0.0013407948429797608,-0.0004886509449424307,0.0007597582566314
1681944154.2065012,0.4462239431988526,0.5028825810685202,9.754790728163385,0.0012970964781834993,-0.0004901652604865503,0.0012492603541114
1681944154.2164936,0.49859918155936156,0.5692916686534308,9.718308134890028,0.001699012320095972,0.0012298582161935814,0.0003309907310404
1681944154.226523,0.4033821657385126,0.7662214791026694,9.850617405756037,-0.0020359343510571943,0.0008617684360992203,-0.0005414722568592
1681944154.2365491,0.3985775865650065,0.4552764096232845,9.75996512963044,0.0015611944052147996,-0.0002233896529011474,7.616441021214559e-06
1681944154.246493,0.5001362055741889,0.6395871469682703,9.768580040492404,0.0005788426516421566,0.0013695398929075742,-0.0009639185468903
1681944154.256542,0.39533077647359555,0.7110888433985658,9.830919424626586,-0.0013668718633849497,0.0004721053119574367,-0.0003574405878088
1681944154.266464,0.33712593957912157,0.6080453779932222,9.824435998169317,-0.0006728357499817459,-0.0020260605224585123,0.0007545519306087
1681944154.2764502,0.5214241099196499,0.597368720301336,9.730503558549733,-0.0013486159812942642,0.0003149125453053056,-0.0007612578652105
1681944154.2864697,0.4405242852033639,0.5296585251051251,9.756130393618214,-2.01756340507397e-05,0.000531320745016614,-0.0017045260488293
1681944154.2964804,0.39457374888385155,0.6922283096211936,9.839768223752266,-0.0001483278309017071,-0.0013994908046576456,0.0011214906384931
1681944154.3065617,0.5029310111859697,0.6139740657795459,9.749239681272657,-0.0005920243211328697,0.0002601346248114199,0.0002929647139036
1681944154.3165472,0.42615330007981633,0.48181399554682347,9.739348611320903,0.001531035621878055,0.00038976010466257175,-0.0003801888401857
1681944154.326477,0.3367620443539028,0.6691437874647238,9.852730001691057,0.00021228893390744244,-0.0013741544394469897,-0.0006118895567259
1681944154.3365524,0.5747948646224705,0.6435666393533407,9.724058397329436,0.00013812602678067119,0.0011493586999640614,0.0003771595342778
1681944154.346487,0.5329872543438138,0.6592668917707001,9.740477618625093,-0.0005529251719838521,0.002908453380637447,0.0010771815118142
1681944154.3565855,0.4087984959637776,0.573650899005469,9.795144600262223,-0.0005696737004383735,0.0027445489449640457,-0.0008994505356303
1681944154.3665752,0.26957550429468025,0.5585752120515378,9.837764547998992,0.001996321209204738,-0.0016617178438048654,0.001529425991489
1681944154.3715374,0.49695354210699283,0.2629804265693338,9.629375523024237,0.004242671636889285,-0.00013696139037143,-0.0010354450519434
1681944154.3865654,0.48408515558090726,0.7927577463263921,9.815803249923816,-1.607762269499557e-05,0.0005905682384592637,0.0020323120092735
1681944154.3916245,0.32722148425091907,0.43262382734780874,9.78008186155241,-0.0006203352000240017,0.0009224934930612928,-0.0025434500153413
1681944154.4054794,0.4372559975005713,0.6038011498648663,9.776287029035359,0.0013209355772872031,-6.470689357319315e-05,0.0002505248098396
1681944154.4155734,0.38027598719741873,0.5832362865644459,9.801431256358489,0.0013589197861156718,-0.0009363934069002224,-0.0004721753380498
1681944154.425488,0.548964916934705,0.7664849437762719,9.763668446126896,-0.0011526612830993312,0.0011158365096222127,0.0007478510646843
1681944154.4356315,0.22047338961947918,0.5774839001505649,9.881481908092614,-0.0009503738072804429,-0.0032211481309653758,7.058572142804725e-05
1681944154.445479,0.6471629206595768,0.4837556835055264,9.629744853551248,0.0008198855656757162,0.0017264117015983473,-0.0015167581464401
1681944154.4555392,0.24216632903375732,0.596295677564128,9.868823917607731,0.0012397316363266095,-0.0023222382977242596,-0.0014999864238551
1681944154.4655497,0.589082626113931,0.8170203291353552,9.767635356868126,-0.0032239373266074512,0.0010308925318548452,-0.0016735926351747
1681944154.4755158,0.29563346415805075,0.421044646240327,9.79361488277831,0.0018201223804127497,-0.0026086925185491135,0.0002091688488372
1681944154.4855418,0.5224192940618723,0.7808985511167247,9.786567200249612,-0.002161856941372641,-0.0004186268629034882,-0.0003611789166233
1681944154.4955115,0.48374305634549764,0.5088065709929572,9.722604153193924,0.0017791453239185,-0.0004048363234553529,0.0026946782286041
1681944154.5056384,0.4503600070181623,0.6445102063209738,9.776952309354751,-0.0011087244536281129,0.0013691596261378267,-0.0012518883764049
1681944154.515493,0.42556455500042734,0.6921976493364242,9.819509525445618,-0.0017893178716141625,0.00040429529279298223,0.0006647527602263
1681944154.525492,0.4714690338192021,0.5509755460076025,9.738716728342066,-0.0006371002601325176,0.0012633598391906004,0.0004282205749997
1681944154.5355842,0.40781662002324354,0.6568968130261295,9.815729920223568,-0.001087482421075547,0.00028137119006053766,0.00157710203845
1681944154.5455232,0.3612326317549199,0.42758871144575605,9.76561416263158,0.0018711438556069829,-0.0009036377819642444,-0.0002837005618265
1681944154.555503,0.5035335892209872,0.5672821545102982,9.724965455122721,0.0036894590475723315,-0.0001388177036933171,0.0014962255931687
1681944154.5654898,0.2913261914962281,0.7123637352706831,9.899572492043086,-0.0004537990005511381,-0.0021072588060162155,-0.0018501781474105
1681944154.5754764,0.5128260276450316,0.6527793020451966,9.751037001541619,-0.0005435625519109165,-0.0007676648072828426,-0.0011784980620494
1681944154.585495,0.4916177190284876,0.6014651121042923,9.738484853265593,-4.216191299561222e-05,0.00021097808446462083,-0.0002061924047074
1681944154.5954876,0.2315263101016511,0.5463354866962301,9.869526260926731,0.0018096877236039055,-0.004231060603968224,0.000297061136248
1681944154.605542,0.6576351050051785,0.6994681953063479,9.691267887038777,0.0005821964276456769,0.00015359234269943892,0.0014616001839977
1681944154.615487,0.39423375615128914,0.5529137929461767,9.773402473827103,0.0016688696733897922,-0.0006406366653502238,0.001278328852518
1681944154.6254745,0.5490078590533382,0.6598268759169241,9.733783741391026,0.001837246341928528,0.001001469649544267,0.0035917395411753
1681944154.635553,0.39730348412597305,0.6259386058882159,9.807093979397552,-0.0011835796387543954,0.0019368918063453705,-0.001365887381812
1681944154.6455665,0.2613994243268035,0.4268996178949905,9.802007881394125,0.002646004472355099,-0.0014307797280663766,-0.0018192715092799
1681944154.655487,0.5911676711552338,0.8866741600398625,9.799032890678932,-0.0016242745209296837,0.0009049840600910959,0.0005280415911921
1681944154.6655226,0.3378556158932895,0.4429683389177908,9.776289106344532,0.0012836863959447226,-0.0006775244642662673,-0.0005187486845306
1681944154.675531,0.32610245877730365,0.7052622608469866,9.874580235984466,-0.0005007340524559393,-0.003202893131758747,9.703563179309233e-05
1681944154.6855507,0.5786369916007773,0.5014359992015143,9.660759726605587,0.0012247936457347296,0.0004136428266174736,-0.0013595536898127
1681944154.695757,0.3105863249539017,0.568222608348716,9.841063826419832,0.0030666039269115234,-0.002913793513141878,-0.0001413853920302
1681944154.705543,0.5576558413004651,0.6244360949815182,9.720173789759912,0.001673699650513215,0.0002724229192275689,-0.0021172989241084
1681944154.7155192,0.47407925031154546,0.9184962515473271,9.86062769118996,-0.0021484427393496717,-0.0005992862937314348,0.0030135507381283
1681944154.7255154,0.5679389453299045,0.3783977792713114,9.632740511618087,0.00039255696949503364,0.0038625055289664666,-0.0016128634183905
1681944154.7355905,0.24781030186497077,0.6551426341444413,9.903722407018911,-0.00028726135564919464,-0.00046108332939442476,-0.0011229924007556
1681944154.745557,0.4531973957824768,0.6342089068786438,9.784157071768202,0.00022345730105277734,-0.0008276670705022007,0.0004874390701525
1681944154.7836163,0.42169210016507863,0.5795336539733921,9.786247220485462,0.0004655936057797356,-0.0012672509160225214,-0.0015242210670611
1681944154.78689,0.2794400795232748,0.9032230726004397,9.961343464895652,-0.0004567714404088237,-0.0031134832539688943,0.0006617830053665
1681944154.7901835,1.140528556043663,0.3330371358008511,9.315306557427302,0.00022346653530406222,0.002536281244916047,-0.001694087086921
1681944154.7938547,0.5327531369010259,1.1494448470257805,9.90614128381079,-0.002523206585436597,0.002424528285934095,0.0009687626420282
1681944154.795789,-0.31383833567889075,-1.0512952910333486,9.616165425943592,0.003227544043006919,2.2463323094542956e-05,-0.0010156919329664
1681944154.806015,0.5219328031517758,0.7110822769806803,9.770118125675078,0.0009636715390425207,0.001984966321974249,-0.0011427196755311
1681944154.8157945,0.4116272101825521,0.6463661120621904,9.804329980876904,6.102387118833688e-05,0.001696579425825595,-0.0016967266879281
1681944154.8255289,0.3819075861276063,0.6554580771913776,9.82836334113387,-0.001189885259374853,0.0006945207464180657,-0.0022774498525313
1681944154.838632,0.4373055251174423,0.6276147511742362,9.79007869494606,-9.914826095416737e-05,-0.0004908858510991416,0.0010913096170635
1681944154.845536,0.6545005497780332,0.4985460968440846,9.635462633563344,0.0016438908753394499,0.00261640064163726,0.0013386853656494
1681944154.8556085,0.28371530694977637,0.6037313775569454,9.865531379760645,0.0015138962973897186,-0.0005896000174203129,0.0011501722887852
1681944154.8655365,0.26542922340111513,0.7463921413930313,9.907077996745185,-0.001682023121385058,-0.0038242666555437514,0.0005511293106474
1681944154.8755543,0.7404067423615505,0.425157588872768,9.556002369452182,0.0007773461990198572,0.0034977931792378545,-0.0021824838209203
1681944154.885594,0.1760802635607293,0.7767471201819087,9.979585239324868,-0.0029348514651896854,-0.0018927086846789569,-0.0024339236865988
1681944154.895529,0.6041504367174577,0.6298343738201538,9.703921799207379,-0.001010716948666846,0.00018488101992927199,0.0020517075003818
1681944154.9055102,0.39106412265046575,0.5682855617915694,9.791292561963933,-0.0015516198907733288,7.052271848800387e-05,-0.0005485624156198
1681944154.9155304,0.3650061004432881,0.5072165486228647,9.788446430039087,0.001071710881544624,-0.0016512914926699572,0.0004051233094879
1681944154.9255364,0.4912599757500094,0.6690625003838162,9.774218315039212,-0.0003152227000504777,-0.0006313238151278623,0.0004796242260136
1681944154.937017,0.4650148053908694,0.6096236915733989,9.766977576297792,-0.000613244771017212,0.00018452398112748448,-0.0003507390233925
1681944154.9455197,0.48176805878166323,0.5327724827374836,9.732846682520362,0.0012706204275279489,0.0006304455303684175,0.0010671040776879
1681944154.9555576,0.4718229084110682,0.6393279101755505,9.765665229364895,-0.0014934949520135643,0.0027061927672534665,-0.0028257911640456
1681944154.9660108,0.3162443456851434,0.6096850270423336,9.848944454605773,0.00037135604064997496,-0.0012005421016772276,0.0003842594719254
1681944154.9755187,0.5692099979207282,0.6706096479135775,9.726715770834499,-0.00029102876673597477,0.001241756867758907,0.0011486991110951
1681944154.9855127,0.4166930558118166,0.5992676497207798,9.795677688178994,-0.0006501190287641481,0.0010383466826808367,0.0001000109745883
1681944154.9955194,0.41406479961185727,0.6104749799047807,9.810601105932264,-0.0006955595577689354,0.0003439573399080679,-0.000251272841101
1681944155.0054994,0.27199479760747686,0.5964661970096833,9.865685771380583,-0.00019713215855690094,-0.0032867124055774555,0.000306021623569
1681944155.015525,0.5372954457464701,0.6568005704829335,9.755941553581685,-0.0006206899903672102,-0.0015287550039611057,0.0011643325828709
1681944155.025511,0.5319805527761429,0.5421956285257011,9.69502408261254,0.00043092852705866556,0.0008718423463424106,0.0006275168538787
1681944155.035561,0.4391400568410523,0.5515563943182148,9.761232767080825,0.001356661564420143,0.001168384895536094,-8.394623850931093e-06
1681944155.0455718,0.47549118807492724,0.7171430511146896,9.794827127036553,-0.0010151949618010937,0.0020259192407221438,-5.123965323482888e-05
1681944155.0555716,0.18495967406048547,0.5022517244107354,9.890111056421036,0.0006853824872012586,-0.0030710220418912397,-0.0010548328596404
1681944155.0655928,0.5528102690569073,0.6400586639943711,9.728515886660063,0.0014088483219128127,-0.0015004312130146554,0.0018028468943749
1681944155.075552,0.5167903293219168,0.6742765224518599,9.75647867173744,-0.0011113161077973195,0.0010215837479856159,-4.2662637983907625e-05
1681944155.085588,0.30375782388868083,0.5868424461602941,9.860437503316922,-0.0010513333386632023,-0.0017094228017817353,-0.0009397106792083
1681944155.095596,0.4930862221769422,0.6236872501141226,9.744888591270543,-0.0006508641963403676,-0.0008287655572631062,0.0006372115726345
1681944155.105683,0.540919656001611,0.5509838245725116,9.697717535622719,0.00020967544857974037,0.00194546832777218,-0.0002479021518728
1681944155.1155286,0.2726447948553593,0.5543687797544539,9.849504995202915,0.0009539780661953415,-0.0011606755838691272,-0.0007981550029716
1681944155.1255372,0.5038941942198928,0.7078030384065094,9.778171938183032,-0.0006285072990476213,-2.9676060583720368e-05,-0.0003570531576177
1681944155.1356063,0.46381125885631774,0.5412077691200847,9.746215787100388,0.00019029658184194312,0.0009012423973314403,-0.0015227342105708
1681944155.1456428,0.420744735981362,0.6502749394000631,9.817725023850215,0.00028716566339576885,-0.0003742828903922444,0.0005813232541778
1681944155.155524,0.4087243737852654,0.4292684112695402,9.72801360589971,0.003952100870832616,-0.0008443896668332397,0.0005202471197345
1681944155.1704574,0.4211919710042617,0.6523193101572279,9.808599002967554,0.0015902853913109054,-0.0009107490586893237,-0.0013275064143589
1681944155.177853,0.3550190240413508,0.7984094798676139,9.890651108855854,-0.0018716445312957802,-0.001959387024479524,-0.0023866171564212
1681944155.185519,0.6676008386952741,0.41963956415447323,9.60098381411544,0.0024116937823784198,0.000828618868196123,-0.0001301967154494
1681944155.1960185,0.38597539140489145,0.6668694217986049,9.823698349116878,0.0019426793467386765,-0.0006048694266160433,0.001149412387772
1681944155.20559,0.35571207839469515,0.5691966774997634,9.816935524590395,0.0028173809423567985,-0.0023374994487146174,0.0012235775043019
1681944155.2155566,0.5291923917959451,0.5875701710893733,9.723970484341518,0.0027883281456371964,1.5012275490701518e-05,0.0002993327484228
1681944155.2256355,0.4671129471191255,0.7412318272027172,9.806646225358298,0.00014298900970223077,0.0005480987213397064,0.0007146752591007
1681944155.235577,0.4199257930489242,0.6808014977964696,9.810590056878356,-0.0013389315351169048,0.0003528949323951869,0.0008096836658888
1681944155.245541,0.3450173299180627,0.5526410302555458,9.81620183277841,-0.0017442510976541288,-0.0006328380959837378,-0.0021493189583769
1681944155.2607512,0.5400277343887493,0.6148292390345544,9.724240682246899,-0.001121370268892937,0.002127620781108691,-0.0009005918714455
1681944155.2655866,0.14365514811955493,0.540544556270339,9.924432126272778,-0.0010427595119424915,-0.000505089627335376,-0.0020662685006163
1681944155.275566,0.6790971961470778,0.4980325353525218,9.612390557477143,0.002572200104686089,0.0036885518974386308,0.000721747257071
1681944155.2855322,0.25556719223993984,0.6499885043135679,9.88937509286598,-0.00024667907397486375,0.0011996411816367508,-0.0028448357793739
1681944155.2955267,0.383115128085021,0.6038409934843848,9.82027385214971,-0.000260447327160638,-1.1444677336017102e-05,-0.0027099704916826
1681944155.305528,0.4169559564498871,0.6310079379436677,9.793374989880892,0.000991984348869762,-0.001313445272581981,0.000267649387265
1681944155.3155315,0.6291190023827691,0.6901156071480992,9.701848738683907,-0.0003696287684105573,0.0027497443931224544,0.0005269170191832
1681944155.3255322,0.27619106772493135,0.6435629584708499,9.883751396311387,-0.0006400649430257828,-0.0009770321989009396,0.0010812582017616
1681944155.3355796,0.5078130907903832,0.5256970523081885,9.705142949358596,0.00019626833150430018,0.001298756499396114,-0.0004222601733407
1681944155.3455334,0.41620840175979934,0.6183979717191072,9.78815284782778,-0.0007037668822492342,0.0013367755880112908,-0.0014124095055512
1681944155.35556,0.4344105635402081,0.4466809765349474,9.733847136636827,0.0019810402173856497,0.0017040660678340007,-0.0029640348243764
1681944155.3660488,0.37378582152787987,0.6953255565158534,9.841747514332432,0.00027450739681336814,9.434544063467936e-05,-0.0021806151221743
1681944155.3756158,0.5419974815310875,0.6613150366396673,9.743632064514696,-0.0003841606742505874,0.002053103892874984,-0.0016855356830409
1681944155.3861182,0.3800498245763965,0.7427145566136519,9.86399548375715,-0.0024475791912976228,8.318260270406537e-05,3.520186643535955e-05
1681944155.3955505,0.43295193169916635,0.5556557156608649,9.768693556093,-0.0007481016109305123,-0.00042159018868418346,0.0008379982586712
1681944155.4055555,0.4380521650121969,0.5341393186062673,9.741952128468498,0.0002450616874229622,0.00021357234717794444,-0.0005086957558295
1681944155.4155462,0.3453382714615238,0.684878572009437,9.867731733566558,-0.0018124139137786492,-0.0014605888754089052,-0.0013189494225433
1681944155.4255712,0.5304560296826997,0.6787386093576699,9.738868506710334,-0.003216844521709613,0.0009988604092142272,-0.0015800908754817
1681944155.4357195,0.32029436007825807,0.5706821567036946,9.83964014556031,-0.0009682608872879733,-0.002383332514882999,0.0008413499139943
1681944155.445564,0.5437701806947818,0.5319253840256265,9.695722535114815,-8.611497863415627e-05,0.0004285316616331804,-0.0007970260071805
1681944155.4555857,0.45246966605852584,0.6213518001017596,9.7746741704179,0.0018312912497978396,-0.0005843796942301884,0.003121591840195
1681944155.468728,0.40837202116021004,0.6484298790438553,9.806211356877494,-0.0010893569420361354,4.9821189554514384e-06,-0.0005138930014572
1681944155.4756856,0.43591842225106037,0.3788534368484909,9.70018317792551,0.0015455513974147606,0.000496699257812062,-0.0018062192562273
1681944155.4855723,0.4566511083412828,0.8455932837018699,9.864080483816933,-0.001219723973049037,-0.0006741676358122592,0.0022249183361646
1681944155.4955978,0.6661120515586916,0.49666631716904736,9.624346494819516,0.0010191367370296983,0.004247701742853099,0.0020655011153076
1681944155.505611,0.1835972048678363,0.5345017416674746,9.8927701568169,0.0013618843502663284,-0.00012092793477391416,-0.0006826749618402
1681944155.5156517,0.44313005625074187,0.6318347642102881,9.788543057497968,0.00016012149885425293,0.000286575005946184,-0.0019068074493906
1681944155.525576,0.2647169479527521,0.683222730569284,9.883347770714854,-0.0007652068135893281,-0.0033139086486087582,-0.0011539088177732
1681944155.535699,0.6564616737089976,0.6443654327014187,9.664588066175472,-0.00206871001638872,0.0017752218703362653,-0.0018229653674415
1681944155.545627,0.4221775060192468,0.4839071050346103,9.734128612771057,0.0009815324699417136,0.001448505474276644,-0.0010011968284151
1681944155.5558994,0.3386120465283334,0.7041291659653292,9.870648950178769,-0.0007983920948527126,-0.0009494669842267569,-0.0005392454645833
1681944155.5656698,0.5151978265186762,0.6763923713146552,9.75057018154641,-0.0019852736848236887,0.0005849725164358725,-4.0061454033006594e-05
1681944155.5755827,0.28568905835201314,0.4793696682398458,9.811164681113722,0.0004652322761564531,-0.002372892310208935,-0.0008488187182
1681944155.58554,0.6765484620627823,0.7622107549864439,9.692368859890147,-0.0025858325925539037,0.002613387765028226,-0.000553770371457
1681944155.5955837,0.28321207933387604,0.42264890360411905,9.799225434165683,0.0017120709883532246,-0.0009244735198871546,0.0002263040200569
1681944155.6057065,0.40126889733843357,0.7683001112953775,9.853573251366717,-0.0023365602917734384,-0.001236689783753396,-0.0012209724250486
1681944155.6155632,0.5762428111752261,0.37837471689679186,9.627642358587085,0.0026225490297677708,0.0014961823688110058,-0.0006960787891647
1681944155.6256545,0.37418099679135075,0.8034513831096775,9.886137990999073,-0.00034688322867822125,-0.0005054117646058746,0.0011054796318286
1681944155.6356382,0.3021536250359779,0.5369819464054681,9.824699536365266,0.0006038114647711051,-0.002862754898352239,-0.0004442556842467
1681944155.6456332,0.5694307394884003,0.6530767395371568,9.71745364589096,-0.00019527025347858122,-9.040459339605806e-05,-0.000359684842383
1681944155.6572454,0.4564067865266528,0.5930910468219751,9.765181463468856,0.0005456930353765055,9.884049016458841e-05,0.0005239676370048
1681944155.6655602,0.46985722011853165,0.7811964358234991,9.824695317693552,-0.0030793921469566025,0.0009589976066257055,-0.0004133250645599
1681944155.675576,0.4588535072196514,0.41843236500071057,9.706849301829598,0.0008861739941220711,0.001495450863914431,-0.0007761706679365
1681944155.6856096,0.45609205049758134,0.6856223363576281,9.803902796046838,-0.0005335384275812903,0.0017517375230587417,-0.000317602333357
1681944155.6956608,0.414327031590554,0.48735722816467403,9.756494900152845,0.00022014198262757236,0.002434941232781991,-0.0035254472482255
1681944155.7056174,0.3522124642891546,0.8131719516797751,9.892977065475442,-0.002183442470913458,-0.00044991167527853925,-0.000398812032049
1681944155.7156446,0.34799996797743205,0.504376603277764,9.791304230050391,0.0002670506594426979,-0.002411283640649686,0.000146578151057
1681944155.725572,0.5131796939671972,0.6529115542163776,9.75338225141305,-0.0006769356147792903,-0.0008384561542501902,-2.776299018924372e-05
1681944155.7362075,0.48629133409600006,0.6986416398261907,9.788379148618931,-0.0021469454161720182,-6.880658106984941e-05,0.0008741382311792
1681944155.7456112,0.4905216644760467,0.39571264476854845,9.676518653625823,0.0014110597533100707,0.0014805487672456719,-0.0007430253631672
1681944155.7559943,0.3916411753085588,0.5961971096611574,9.786333026313821,0.0009588110701635342,0.0012439764992181494,-0.0022234638768485
1681944155.7663186,0.49467043638323155,0.5950047352010427,9.739479614348527,0.002029102139716118,0.0019335466388937354,-0.0006204444530657
1681944155.7757072,0.5000472948834127,0.5433421820893349,9.731286746836435,0.0028944665859012425,0.0032500702519873323,-0.0012977168976566
1681944155.7858036,0.264133991762811,0.7211478098892742,9.919361056068707,0.0006853935310121664,-0.0004767444299192002,-0.00115504712679
1681944155.795591,0.4612767854801981,0.7622786609348204,9.820937735275479,-0.00010585762407016432,-0.0014564698801892387,0.0029558190994658
1681944155.805585,0.4107098902072653,0.37153962562876713,9.71244413876319,0.0012259511107017627,0.00030184407386391727,-0.0037355405825427
1681944155.815598,0.41520609595804536,0.8329666258195785,9.862197203887595,-0.0013422787673249225,-0.0013413664057413594,-5.38386252946152e-05
1681944155.8256605,0.4849497598507343,0.6124892123296853,9.75417821990603,-0.0010271191729475683,-0.00042234751225884087,0.0003026636236109
1681944155.837773,0.4190464269768732,0.5061486258815612,9.755984130384006,0.0008608629554529426,-0.0004275580251619533,-0.0012693995691141
1681944155.846012,0.5328660425813879,0.6883155132292421,9.747348610828636,0.0002279265025713053,0.0009206435762295822,0.0001920447370731
1681944155.8571532,0.3401984667989207,0.6549374077662586,9.846778982323654,-0.0013702261311048913,-0.0009837359336962396,-0.0006387048947862
1681944155.8656323,0.5656445137653436,0.448919673225964,9.654099235273543,0.0008612230472988531,0.0018903422795528435,-0.001917949327012
1681944155.8756435,0.4170114910529649,0.729595820914859,9.831846586749029,-0.00010661891088608791,0.0005354416180242315,0.0003887327306666
1681944155.885702,0.4134092403654178,0.693201627495231,9.81528475885308,-0.0016220471642318637,4.5187297944268486e-05,0.0007996522740223
1681944155.8956542,0.3998016619444333,0.42506651464240297,9.723873233610085,0.0019188263510952598,-0.000356016256268333,0.0002221912995674
1681944155.9056318,0.49032620334063576,0.7528103402502284,9.808641944622819,-0.0016738505689460315,0.0011247679070740747,-0.0008797421201369
1681944155.9157376,0.5027938116834645,0.6517013510174872,9.760151795795203,-0.0011176997681431725,0.0017278973746529867,0.0013345696183615
1681944155.9256268,0.28531217328896274,0.5225015281483208,9.838705773759813,-0.0010334725092638255,-0.0003623147087887779,-0.0015376144170067
1681944155.935703,0.4654189543468454,0.5943733371292717,9.761886741100307,4.350200072026827e-05,-0.000158226594966392,-0.0003474172285995
1681944155.9455862,0.45518521271634593,0.7174796894419279,9.814427766571486,-0.0022777069442257466,0.00028098153282438983,-0.0006253071210584
1681944155.9556973,0.5035297055525731,0.46481439348738085,9.705666115326041,0.0017161902050550771,0.0008390464384667657,0.0012317767518335
1681944155.9656951,0.47847640715292555,0.6659135167582315,9.777722485410651,0.0002223194044384722,0.0019562689092218898,0.0006953192327865
1681944155.9757438,0.32409953010234266,0.7155532402896089,9.877226435457372,-0.001607899921073679,-0.000684972706229531,0.0014221224969015
1681944155.9856546,0.4763419034302208,0.5251147281612619,9.72418461223559,-0.00015540397051037346,0.00046837345751075905,0.0005183475709282
1681944155.9956508,0.407477857499842,0.5444017985639482,9.780010929300074,0.00031881630967594497,0.00041621157132317073,-0.001375961265271
1681944156.005688,0.4763887391687892,0.7046008870847306,9.799145238663513,-1.927049996713993e-06,0.00034954525332673046,0.0014444703096752
1681944156.0156405,0.3441317497117128,0.600260704977428,9.824904580721446,-0.00039009857103983935,-0.0012966557388511518,0.00041070740323
1681944156.025633,0.6191457556529166,0.5984633935670002,9.672079984812838,-0.0014313038176302251,0.003527606870242218,-0.0019443919032118
1681944156.035714,0.3268123257175152,0.5157890240373287,9.811166777942129,0.0020801378421509012,0.0004706383126265037,8.176566685969694e-05
1681944156.0457318,0.47660929070312624,0.7646902169850732,9.812770301708792,-0.0010148257158903763,0.0011463861184739747,0.0005176228855499
1681944156.0556614,0.35924156431774357,0.5648115980040661,9.807472149002866,-0.0006106390278047776,-0.0002394336056984346,-0.0003127538680336
1681944156.0656056,0.5097528368361913,0.5841539818326682,9.730572711858338,0.0007155633499926924,0.0008055271135675382,0.0011498198413983
1681944156.0756571,0.3166056855052648,0.554411833298307,9.830589458174105,0.0005587351045654934,-0.0011085421844849322,-0.0011069799388996
1681944156.0869036,0.42640403487208567,0.6212561622667697,9.788113542680573,0.000888792789065251,-0.0016315458148979708,-0.0003499921026877
1681944156.095613,0.6019054194028877,0.6394271131514004,9.697778739614067,0.00013852896456643282,0.0015788886305684053,-0.0009329986374131
1681944156.1056805,0.4874124836536741,0.6432085099044164,9.757811708577725,0.0001440794196797523,0.002234917156302046,0.0003507114865579
1681944156.1158097,0.27626114683019337,0.5383717322855268,9.851263901538378,0.001605171116866829,-0.00114804133826015,-9.482342055930348e-07
1681944156.1258445,0.3793960285470952,0.6840715496388853,9.83718781606793,0.0003117550524915958,-0.002578530982945353,0.0006688758416795
1681944156.1359344,0.4219263862408461,0.7490257529075248,9.838323861060129,-0.002131663980674963,-0.0031850162989756955,0.0016553247819184
1681944156.1456206,0.44262881575200924,0.384189890172213,9.705573050576236,0.001478129235881144,-0.0024883797625569076,-0.00036901646175
1681944156.1556823,0.6236105629089351,0.48809944220621676,9.64607232236262,0.003607852225767776,0.001320396217627791,-0.0007325966458073
1681944156.165621,0.4362239758220582,0.7941459817632621,9.846924120683061,0.001063132910016347,0.00046391495738347236,0.0015584686020384
1681944156.1758125,0.41232146490851446,0.5385689063984126,9.777102489042582,0.0016383013925072246,0.0006550182880209598,-0.0009226027491739
1681944156.1856236,0.38035585207329575,0.7766330742131148,9.856464108575079,-0.0015505295647602732,-0.0006458508358461012,1.3219394045423103e-05
1681944156.1956165,0.518690798493765,0.5921519587285956,9.717343902846093,-0.0006534708330445783,0.0008531911312184711,0.0009925816825353
1681944156.205659,0.49633430310398147,0.6622099825723377,9.758197003207687,-0.0023808842353329374,0.0027896057158659157,-0.0004997632081857
1681944156.2155871,0.2009663529356208,0.4754984475838198,9.862538763847986,0.0006991835080168792,-0.0023632140254872,-0.0001100843387893
1681944156.2256126,0.5328993719341564,0.5137593298625177,9.698609667840726,0.002502603003745239,2.7301948479981372e-05,-0.0013073891482553
1681944156.2357635,0.5538726686541615,0.7250965678008269,9.756292305239574,0.000753930745532291,0.0022349215685649997,0.0003511194058456
1681944156.2458978,0.3851194769495904,0.6689522119166217,9.827069748628992,-0.0013400371352465645,0.0017252988603389096,-0.0011498084373078
1681944156.25569,0.31893727945621436,0.5589044556981422,9.82907723170935,0.00039074533852026815,-0.0012795311848620627,0.0002199781278842
1681944156.266034,0.4878867782621696,0.5320801429214393,9.719313736073378,0.0022164747562302732,-0.00019507652269479646,0.0004021234030597
1681944156.275905,0.4028719625752299,0.5812622755769408,9.786692042896796,0.0026706004699248876,-0.0007292996415616186,7.020632389421327e-05
1681944156.28565,0.335306540376246,0.6877803163903715,9.863293032776538,9.642542342555583e-06,-0.002240655172306237,-0.0017924245062521
1681944156.2956307,0.6165154912471034,0.5680850368309046,9.668037517402569,0.0019467754625988529,0.0008267549893443084,4.2650002310525015e-05
1681944156.305968,0.3500038184306081,0.6818395895283074,9.857148174086028,0.0006559716075941256,-0.0012489714590806348,0.0005563767312788
1681944156.315939,0.5068862107994861,0.7066905659692091,9.761872916654788,-0.0017095988839787623,0.0007820443643821041,-0.0002602221525511
1681944156.3256614,0.46760544157773604,0.4927464372212715,9.726327074605159,0.0013853665084546385,0.0008353293506929679,0.0012787084246748
1681944156.3357606,0.40755899679427343,0.7255570623465905,9.840114882952621,-0.0012256955166503795,0.00022437155342657723,0.0007515693700634
1681944156.3457303,0.37687242086889094,0.5556896693075057,9.779331932486983,-0.0008449537733106992,-0.000268483575559854,-0.0009110285050473
1681944156.3556514,0.43483080360482285,0.6151552647847035,9.78754141554566,-0.00023177597656475602,-0.0007803381160165132,0.0007921672344901
1681944156.3657053,0.5287853877709118,0.6427725487757913,9.738623541650755,-0.00078123924485401,0.0010308841126124432,0.0010588960407995
1681944156.3756676,0.3759240009367092,0.4226357586798339,9.745747470951283,0.002714179578981627,0.0001614383392025965,0.0001365340699204
1681944156.3856192,0.4303022901683405,0.7057880266184408,9.830018319149367,-9.726665841709962e-05,0.0003495608328183187,-0.0009605499531379
1681944156.395707,0.40321489342548184,0.5746422467600149,9.783686711384597,0.0005274443170745153,-0.00028298528287794,-0.001233247955074
1681944156.4056888,0.46327806193669874,0.6550760930972273,9.786149265544438,0.0006306551398082296,-0.00016086917810752426,0.0001030005200528
1681944156.4156663,0.5969676970496952,0.688714646349666,9.724474941206793,-0.00023029725627656653,0.0025709340881533028,0.0014824534277659
1681944156.425722,0.1797829337625922,0.5422596364015448,9.896129853621371,3.3094794469286804e-05,-0.0022104633638823736,-0.0006044331553629
1681944156.4357283,0.4676027886554567,0.5758516827249989,9.739059247347079,6.651268347998444e-06,-0.0011066824013235587,-0.00172947501645
1681944156.4456353,0.48026080598759213,0.652597845580806,9.773294326520332,-0.00016173901000132078,-0.0006909204856247187,-0.0003578173077902
1681944156.4557238,0.5425762841561702,0.5862877672364079,9.701222610013795,0.00014929282687717004,0.001935418265638836,-0.0005854218348166
1681944156.4664538,0.3243567345221478,0.5998895297266652,9.847446834040898,0.0008366269931940809,-0.0008078932323115945,0.0001663216075622
1681944156.4756415,0.4365376275997765,0.7666579879476922,9.847173972912595,-0.0021566196528064897,-0.0009874664539741755,0.0002788337564789
1681944156.48567,0.6416487182473425,0.5345112317738129,9.650788571571056,-0.0001624689804487178,0.00305558242877993,0.0007373805542239
1681944156.4956453,0.2949932225411571,0.5789667422680461,9.84993430008206,5.472118886198449e-05,0.00023256150938880704,-8.029132962738411e-05
1681944156.50573,0.47675232332675155,0.6698116100551871,9.788360293798338,-0.0018928835382926524,0.0014704779908392398,-0.0016389525576732
1681944156.5156338,0.550081218305523,0.592051818607762,9.704938096258658,-0.0001114313530092668,0.003236267525591993,0.0005831876455568
1681944156.5256362,0.24342524881206293,0.5155035868363964,9.84445051698395,0.0017210225022199043,-0.0006138068698131151,0.0001056075247698
1681944156.5356915,0.5078214106344547,0.6102210714180963,9.742434911423917,0.0009599320963210184,0.0014395805527255816,-0.0012824301689169
1681944156.5456748,0.5139310293713377,0.6117755672239864,9.73809471200347,0.001223345389638718,0.0028890633015145116,-0.0003671354229799
1681944156.5556588,0.39914680788155255,0.7153478859464187,9.842977097067742,-6.3025606238749e-05,0.0014727180207106795,0.0011889040738106
1681944156.56567,0.3175012324111109,0.5190807707124904,9.80994131685065,0.00046895536173157006,-0.00018204939593837954,-0.0013386869418672
1681944156.5756688,0.4805942926750071,0.7428897019907126,9.799576584001663,-0.0010923165494542962,0.00014576991187626647,0.0007605122786709
1681944156.5857644,0.31593977185485767,0.6798340411063761,9.874483851343815,-0.0024553993474147945,-0.00247758065954677,0.0008268233773061
1681944156.5956626,0.5371781296005521,0.5006831956060932,9.697890969793553,0.00026032614266224076,-0.0007810720893520549,0.0017145582946478
1681944156.605727,0.5155928897086558,0.5268214164196933,9.706864885176385,0.0007800041456104049,0.0017610607536661398,-0.0006178532808325
1681944156.6157286,0.4247254681623386,0.7637132277051759,9.856910953863395,-0.0014741666213285757,0.0006948727304771465,0.0011572585476324
1681944156.6257136,0.40832058670487753,0.48658080088047984,9.752768978361532,-0.00027949244272007983,0.0009228713503302558,-0.0013413011643341
1681944156.635721,0.4456219482137534,0.5600503157869812,9.75696429309013,0.001211028831289467,0.0008021526168272705,-0.0003988287958553
1681944156.6457057,0.459099529572961,0.6413084926851743,9.781428277707848,-0.00018486137430126406,0.0018139729152003305,-0.0015431979286721
1681944156.6556778,0.31014244360490206,0.5301073542254248,9.835348069151218,0.001996694935676252,-0.0012355537130627485,-0.000736310061743
1681944156.6657436,0.5176024131564383,0.7536319655944363,9.785670983965256,-0.0002112827332134538,-6.173154212053588e-05,0.0007679585519009
1681944156.6759305,0.45330548725016623,0.7415429469546072,9.81263602680427,-0.003363999386063464,0.0005890927542238384,0.0002881684026443
1681944156.690137,0.44559357010410994,0.4836707930428629,9.729637620267308,0.0002681539411643325,0.000961605112453647,0.0001502949430369
1681944156.6958811,0.34240323912807624,0.6564161435257013,9.852693998295743,0.0005609692462117608,-0.0006316925057044579,0.0013785495225102
1681944156.7059946,0.40166391518447825,0.7311746308063497,9.83976890783541,-0.0019670107545133224,-0.0011863942990850388,0.0014791119878874
1681944156.7159815,0.42170169856840073,0.435207931065479,9.723302152942713,0.0007208044496403993,-0.0006730603825941392,-0.0002710161811909
1681944156.7256782,0.46772870776835085,0.7115122501434538,9.806849924372397,-0.0005636984635920011,-0.0006946509170950353,0.0011714117985912
1681944156.735703,0.4604251254136551,0.5758247575865281,9.765390719106204,4.3920351875184426e-05,-0.00014107559015279924,0.0005090688041173
1681944156.7456656,0.5225908381838574,0.48780203835653924,9.696097257590216,0.0016118484659713422,0.0021864941399239355,-0.0013141046825102
1681944156.7595694,0.43162753955784405,0.6833125549295961,9.814055153063032,0.0007051411345159585,0.001119170917672058,0.0011628072511167
1681944156.7706366,0.3473296959129922,0.502918724251715,9.784132158839329,0.001621166877974222,-3.116160397453777e-05,-0.0019906246184608
1681944156.7756877,0.5082865120805621,0.7618685479223277,9.80026239996896,0.0007345748429357685,0.00030185091902536844,-0.0005522781598619
1681944156.7856412,0.4794850277665615,0.7966492618722419,9.82322562724745,-0.002973947014797901,0.0011437692584397826,-0.0005943911697021
1681944156.7956996,0.3911765091815427,0.48767938939666805,9.773442075500142,0.0005673066134680118,-0.00030574134571863726,0.0009195689612762
1681944156.8056986,0.6285290460530029,0.6458322098557561,9.692880801729892,-9.318657380445272e-05,0.0037425368538753358,0.0009371030878038
1681944156.8157098,0.33987242806370577,0.5411116691111693,9.805140492420085,0.0010426575113262296,0.001882501490588458,0.0005548947642319
1681944156.8257487,0.40641535054681655,0.5827622670496645,9.786479438522447,0.001159996807434623,0.0017562130638566716,-0.0001834779127738
1681944156.8359046,0.297865227313019,0.5769108192991188,9.847261784610588,0.002304032364926351,-0.0017802073066854004,0.0009199492901326
1681944156.8456397,0.5442148380981933,0.6107448470495817,9.726388657600664,0.002129698717761442,0.0004408142356724324,0.0006655322772213
1681944156.855706,0.47319927473682166,0.7335684509475361,9.809470643141651,-0.00048550564702145785,0.0013155170996069021,0.0005120387918078
1681944156.8657043,0.27655798921366637,0.6925328902162555,9.897187519258537,-0.003222064459007639,-0.0015052910646622616,-0.001442999726837
1681944156.8756845,0.5657327623679155,0.5258699052310788,9.675108641366611,-0.0008915286855261894,0.0010454299144117603,-0.0003619181539169
1681944156.8856652,0.43156518395141497,0.5563787692051301,9.767752378233105,0.0003184532793242516,0.0007850330050377357,-0.0003343358717164
1681944156.8957386,0.48403323920519886,0.6000165569831623,9.755073903124178,-0.0004098591303141257,0.002362687555678614,-0.001370734217321
1681944156.9056923,0.28028376658179854,0.5734809859913585,9.86456335492099,0.0010668563735514393,-0.0014799257944117267,-0.0002605942159197
1681944156.915765,0.6749489327000023,0.7258402699539561,9.688125795651212,0.00019663389482826234,0.0025199006066095684,0.0027505521697686
1681944156.925751,0.31387074928467745,0.710917204204583,9.87109797806849,-0.003692191484643718,0.001144515903032891,-0.0006927318486622
1681944156.9356894,0.5174471940501668,0.46482101988358565,9.681470278770199,-0.0005260520170818254,0.0029460556008980092,-0.0009565038222125
1681944156.9457262,0.4688403977504832,0.5037316361237892,9.733423780125639,0.0018599692250079805,0.0035424976730118237,-0.0008793479378572
1681944156.9556882,0.3731443644816168,0.7813332043159167,9.867147584234036,-0.0004769057256726333,0.0015233825003163975,0.0012530069484137
1681944156.9656944,0.44878988062745045,0.4721042294586276,9.724138057645975,0.003146299180319847,0.0012533230036764046,0.0026876064052567
1681944156.9756844,0.3888516155368925,0.8101703757207357,9.877988171319782,-0.0013530943145496546,0.0005272363853057937,0.0020811231201742
1681944156.9856777,0.4193900231274623,0.6311430621298283,9.810226545435269,-0.0019737236079306985,6.268777856148261e-05,0.0017190376761073
1681944156.9956875,0.4267320002835339,0.45761595753300693,9.731978507330387,0.0008530429598081988,6.603756353005804e-05,0.0009754416218721
1681944157.0056636,0.36589371895228867,0.5581770346622242,9.797058757775133,0.0013905791499856939,-0.0009304649890405367,-0.0003917363087884
1681944157.015674,0.43634929701461955,0.6837101575812125,9.801362475741968,6.828078378745553e-07,-0.0007695172770790173,-0.0001771384000084
1681944157.0257373,0.4001212941971985,0.4659756786185628,9.748819659673684,0.002666873292132958,-0.0010709026600178222,-0.0011013920034519
1681944157.0357993,0.5135542019717007,0.7039230378395047,9.777991457633448,0.002577091251245899,-0.0006383904663899068,0.0024506709573553
1681944157.0456927,0.5426616286609782,0.7053119006924132,9.753061771505946,4.7898170678909275e-06,0.002040822642875995,0.0010742035496742
1681944157.0556896,0.33802277574386763,0.7316371090943193,9.870706459702053,-0.0024483157241620705,-0.00014630028749523165,0.0013114672887832
1681944157.0658102,0.41814726728320156,0.3643265677372814,9.706429446465513,0.0008570893188031714,0.0007697658664072784,-0.0023542197036794
1681944157.0756905,0.49998556530644483,0.8486940783856162,9.82515705276055,-0.0016306297211743325,0.00044453373855328027,0.0025940989412129
1681944157.0857291,0.3443789407362487,0.4146179920855422,9.76499749494539,0.0007338251667977497,-0.00045847571060844147,-0.0007310976821235
1681944157.095765,0.513165766890661,0.593531192366203,9.727146776686228,0.0011335170255921943,0.0012119525047652765,-0.0009676736395112
1681944157.105669,0.3647714665238831,0.6426441457275073,9.825319933337575,-0.0006810207001757274,0.0005924521693560068,-0.0030780142720094
1681944157.115727,0.5033018607661814,0.7524190234492976,9.773490645381546,-0.00249936433117232,0.0013538745623150876,-0.0009266754227927
1681944157.1257222,0.5469007009752168,0.6206248327818953,9.728871257462698,-0.001667534105310945,0.002966929098705464,0.0008573397330702
1681944157.1357222,0.27190169322526897,0.5526943659768048,9.839825988811118,-0.0005450654481094591,-0.00038247654649725644,0.0003287497360953
1681944157.1457868,0.38448222826076595,0.5885221498325963,9.798518961055914,-7.64178651530732e-05,-0.0013074624974960703,0.0001305652235397
1681944157.1557634,0.631643043408589,0.4333486501849111,9.609623892085875,0.002328996946266381,0.0035667393815911833,-0.0019719341385415
1681944157.1656866,0.20626594702420745,0.7118192148027758,9.9289061409631,0.0021729052510702463,-0.0023359961707119284,0.0016121010534926
1681944157.1767485,0.5337062374777021,0.5831645790846771,9.715857577741973,0.0011372509646487012,0.0009359052439275473,-0.0009564903180352
1681944157.186922,0.29192312276211846,0.6113100157928142,9.8514943628215,0.0010001911076802403,-0.002169866018184725,-0.0012056940782121
1681944157.1957245,0.5630839819110841,0.722732665534575,9.753925759753805,-0.0007451179433869188,-0.00024650339938353733,-0.0005668107501468
1681944157.2057197,0.43717189946652313,0.5499483105788215,9.755895997866794,0.0007964167511238045,-0.0003977307280784383,5.417355591903761e-06
1681944157.2157297,0.4712322755108263,0.5828164921365443,9.746485516234886,0.001006127049229483,0.000578660033733706,-0.0006126341491243
1681944157.2257254,0.4650538805474175,0.5640196402442408,9.750912245664848,0.0026042865239255895,0.0007824325316457936,0.0005276880378597
1681944157.2357874,0.5579829942825101,0.7507862837878476,9.761772715159644,-0.00010850434822639614,0.003421418652144915,0.0005753383424826
1681944157.2457922,0.18006831820589814,0.6046498547964216,9.910175038514005,-0.0005346419283577672,-0.0016263425966989902,-0.0005023660219511
1681944157.255769,0.5264681550560045,0.5331953021549938,9.712787218091046,0.0003467530063282893,0.0006181510178022148,-0.0019589466124079
1681944157.265858,0.462547731327362,0.731102979142478,9.802455065891328,-0.00023699224918114498,-3.7139572098949436e-05,0.0016814141540317
1681944157.2757354,0.4381411469631674,0.5405618301168573,9.760008328987047,-0.000755167151089131,0.0013125300982003768,-0.0018136668100259
1681944157.2857022,0.41325082233827126,0.586751905598651,9.786339151110509,0.0007010255401156021,0.00018413794299486643,-4.416090317582028e-05
1681944157.295709,0.43619799315748276,0.6195506498966185,9.771689135948295,0.0008843212826095384,3.326556928228038e-05,0.0007530531997555
1681944157.305707,0.4479407651098408,0.5910817626814295,9.762861480508104,0.00035235146379917413,0.0009522939727783008,-0.0009728690224937
1681944157.315703,0.41152724790503736,0.6337399264635438,9.797842642066321,0.0007531986209363398,-9.451724176000842e-05,0.0008812021382846
1681944157.3257475,0.3900168170959421,0.6734521235856122,9.830427167698438,1.9307674240076043e-05,-0.0015760474085120015,0.0020494610339165
1681944157.3358483,0.5113475076468559,0.6719781150810573,9.763390445134116,-0.0015877840477060631,0.00019084414405902888,0.0015279194026016
1681944157.3457513,0.4191464771239904,0.5059091008147849,9.756981450062051,-0.0002112875053347206,0.00013534562788180892,0.000293739690701
1681944157.3557577,0.4882189171009337,0.6439802035427178,9.75015629101871,-0.0005353615875935338,0.001261491643247997,0.000865570354531
1681944157.3657153,0.5043705162940547,0.7019010790631843,9.77577532915429,-0.0009392258874013019,0.0018173085407031699,0.0034278114012205
1681944157.3868933,0.3664527305126454,0.5544631345955756,9.79715590650436,-2.3089089406939744e-06,-3.900368997066351e-05,-6.614232782786028e-05
1681944157.3967843,0.4678668189472209,0.623050789324516,9.765539490617195,8.935063031461787e-05,0.0003800977654312589,0.0003920874709957
1681944157.397785,-0.18239476862272325,-0.481895648584572,9.74178631495792,0.0015839436522008003,-0.0004227225422401796,-0.0011174100532433
1681944157.4058692,0.45963813704249984,0.6945147615790059,9.800996622825354,0.0007788942286171094,-0.0003835946948771754,6.983717090870006e-05
1681944157.415845,0.3290937749759676,0.6598184217367632,9.856369703486484,-0.00041170039260001823,-0.0026683108854933545,0.0003887255129166
1681944157.4261014,0.5153949096883813,0.6294872242688798,9.746221978976422,-0.0027012525215647397,0.0004918276488503112,-0.0030653818126073
1681944157.4380674,0.38203914805702704,0.5385322316842766,9.797805890136905,-4.999401678004862e-05,-0.0013570011631441905,-0.0018099433823726
1681944157.445859,0.5961965597150621,0.6104102355340382,9.70568946127481,0.00016643358520306915,0.0009705713834472802,-0.0012921124312332
1681944157.4562624,0.38707484607079423,0.6469665277523817,9.814344544166334,-0.001317337525145806,0.0005280173941685479,-0.0029360723297349
1681944157.4665265,0.42201684808434653,0.6863760626143917,9.810773767865529,-0.0009738604203738695,-0.0010343927181591134,0.0005690402735718
1681944157.4757009,0.5067632169077295,0.37978298528988264,9.67509355434587,0.0034175082299408924,0.00020055365820656379,0.0004956286552124
1681944157.4857926,0.5187914616890941,0.7856342135325901,9.79199872618631,-0.0014562945625928492,0.002721024643630093,-0.0017462742130509
1681944157.495793,0.2653745401811605,0.4760002259733394,9.83658183883644,0.001760896936765867,-0.0010869385971367883,-0.0011807299765995
1681944157.5057273,0.46257294024842055,0.7229010281324715,9.793487751201743,0.0005684273116206974,-0.0011271722191330564,0.0005489067093231
1681944157.5157294,0.4975855290080066,0.6090556379593348,9.766500390565074,0.0009483838643922899,-0.0002908220602497812,0.0010015316924774
1681944157.5257573,0.45060236573988455,0.6201596020731929,9.77377326260428,-0.0004027598943143655,0.0007187188284451857,-0.0007400309282592
1681944157.5357866,0.2776141073345972,0.47134414316192225,9.819065572904634,0.0018249439309865182,-0.0022052585549024754,-0.0021962641353956
1681944157.545787,0.5771684915775976,0.6269546965574057,9.720729742694864,0.00181900560059691,0.00033353319969677014,-0.0012533740687421
1681944157.555824,0.34230405671637937,0.6757083376442242,9.845332985912329,0.0010776672197353883,-0.0019388855832046916,-0.00038017230921
1681944157.56575,0.5518789728545224,0.6358868798944721,9.714372872561507,0.0006458969686975062,0.0005711945273952148,-0.0002702895167521
1681944157.575812,0.47216838654317494,0.7450929064877798,9.815977504731151,-0.0016567174897274795,0.0008382977851984303,0.0009732143057272
1681944157.5857308,0.36335051717649897,0.49085811218364434,9.792073811438508,-0.0002988522236788657,-0.00025058036031639275,-0.0014768961432627
1681944157.5957563,0.4510838028291771,0.6266666594222778,9.77735771627399,-0.0008084571749997568,0.00014204607331609219,-0.0016762035980126
1681944157.6057506,0.4701088355684215,0.7531916925339522,9.820265388262913,-0.0024214984173923427,-5.4657725744708405e-05,0.0011609703919612
1681944157.6157713,0.5017100708626735,0.6413344627481935,9.75142152310609,-0.0024758756233428927,0.00102642649685203,0.0021805898263347
1681944157.6257064,0.23296911933629336,0.5184549837487356,9.856461205748156,-0.0010129610485535736,-0.0029059872826037304,0.0012697566685029
1681944157.6357489,0.5521694548741375,0.44641020879744253,9.65508486438669,0.0027674651526063184,-0.00017163518478832188,0.0016959275503405
1681944157.6457384,0.44388927403005024,0.6619057610169999,9.803302073569048,0.0012080599664264014,2.805032344215147e-05,0.0011103151168436
1681944157.655886,0.5291946398939351,0.5244573771474722,9.700815005577892,0.0025212107207942674,0.002349284288461107,9.49189185584648e-06
1681944157.665769,0.42523164993807167,0.755731841375747,9.834487282060573,-0.000647894679221782,0.0021563049101717842,-6.986796737228768e-05
1681944157.6757176,0.3949710582315175,0.6091138606159527,9.811020368063385,-0.0015445730628052617,0.0016809645690649038,-0.0015264406415871
1681944157.6858003,0.40211245901618675,0.49268491247352647,9.770432342666421,0.0015250552920820354,0.0005056575952691377,-0.0004993825300834
1681944157.6957283,0.4744585729924481,0.5914486659021564,9.74962367387578,0.002490295494719376,0.001198545758516127,0.0001588915160619
1681944157.7057798,0.4302726591962511,0.6668159864626588,9.799615318413332,0.0012143741954209948,0.0011329795917976592,0.0001100727508538
1681944157.71572,0.4390897790626545,0.6765732241584744,9.810447269988005,9.52900213168171e-05,0.0008196741201701138,0.0011445735849202
1681944157.7257264,0.36370307490013143,0.6950284877096743,9.848769169559173,-0.0025068082858468255,-0.00035341517460422554,-6.612370137636797e-05
1681944157.7358649,0.41204781542567603,0.4697709353562547,9.74937066611994,0.0012579666690993496,-0.001433361603274233,0.0016210580192501
1681944157.74579,0.5812482148443232,0.683278650557535,9.735996750680075,-0.0007786327601098985,0.0018739303525898527,0.0006748293212377
1681944157.7559023,0.42762582065706856,0.47425283193285034,9.736006197071076,0.002071942015636672,0.0016820749890956073,0.0004106916871615
1681944157.7658,0.3124252847277344,0.5567809769894583,9.839890345615514,0.002657561673549487,-0.0008868828318310904,-0.0004528224549493
1681944157.775731,0.6262656188978087,0.8302269587668919,9.745925258056712,-0.0007723660212321843,0.002339967910848748,0.0019846284389724
1681944157.7857754,0.37364734341500416,0.5641879907104581,9.802306970584658,-0.001643277962706524,0.00184039392623185,-0.0011211386031708
1681944157.7957294,0.21229860518620258,0.5667324967576682,9.881244479650885,-0.00016285165855953833,-0.0032539302256457555,-0.0001179158303192
1681944157.8057456,0.6516690117983287,0.5880317266587519,9.66241330310993,0.0015690284640801605,0.00047620859365449437,0.0019675224879984
1681944157.815775,0.38215958704304864,0.5600413087073939,9.794952270256067,0.002401628533436065,-0.0004949627153070789,0.0016419177095168
1681944157.8257966,0.55142418661351,0.6424093292759796,9.73640496756874,0.00026554618169947927,0.002825382044529985,-0.0008625801733932
1681944157.8358338,0.2541160776340793,0.5852555440325063,9.872715941546712,0.00011840582029978632,-0.0008123799220340841,-0.0019690076901814
1681944157.8459356,0.5896685231095212,0.6076346047467663,9.696703994527862,0.0017292216009679642,0.0014164515681491779,0.0011732300312952
1681944157.855758,0.3388732102934357,0.6417593080819196,9.843214372898775,0.0012754663411969267,-0.000601512615090953,0.001094275646633
1681944157.8657496,0.5885004786517709,0.7299181220703223,9.739236076053219,-0.0009939758567143254,0.0024383145210055968,0.0015059364354466
1681944157.875786,0.2760311574399414,0.3850382676540135,9.803726955763828,0.0013812628207144865,0.0003268339661502737,-0.0028269450727156
1681944157.8858085,0.541427928813924,0.7059667604052231,9.754837696959568,0.0006932104314726471,0.0016876839460034676,-0.0005042058496973
1681944157.8958106,0.3105712095963569,0.5475096088906005,9.821893828621828,0.0015664298870042234,-0.0005061870193599219,-0.0015156510367295
1681944157.9058032,0.5472191316160271,0.7244937315262492,9.758201421841745,0.00022866398119128926,0.0012324291885803457,0.0002430423314445
1681944157.9157584,0.3014270890752389,0.5836832151315376,9.839291692496726,1.818058627424847e-05,-0.001154364631358446,-0.0012410994700393
1681944157.925763,0.515011465958724,0.6543001434444329,9.75463058795679,-0.0009529804394606942,0.0006252284143776339,-0.0014217567245713
1681944157.9358046,0.428913822634919,0.5970128468371915,9.787300962424759,-0.00021016564686238183,3.9228950206586785e-05,-0.000634980070149
1681944157.945754,0.494087233922602,0.6166608608596772,9.750866132420672,0.001027742053520513,0.00042629362240762436,0.0017920285440278
1681944157.955789,0.39235536358414513,0.686856844521647,9.816699027988754,-0.0017114781454238496,0.0003096819733308521,-0.0001793747383407
1681944157.9657502,0.4381878126588932,0.5481448028148297,9.758544466012449,-0.00037369966489891665,0.0002593948027086967,0.0001387715724059
1681944157.9758484,0.3544778665671522,0.5796259225401726,9.820060125451347,0.0006242993707330152,-0.0017559864485793444,0.0012138796423324
1681944157.9858272,0.5141831900271108,0.7469325176714574,9.785638719234246,-0.0019632849397885213,-0.0003530576178467207,0.0019209162396374
1681944157.9957497,0.3142497257091575,0.4659192225080733,9.79980201673667,-0.00047543541191281903,-0.002047664514134766,-0.0007810363627276
1681944158.005764,0.6460266459644683,0.6277887573959526,9.671178765323603,0.0003463936929229683,0.0016481800473690709,0.0011971089092777
1681944158.0158498,0.3621253212313892,0.7119464200646937,9.858352626420505,-0.002129449380993723,0.0004665146544498996,0.0006908561021783
1681944158.0258307,0.4824468587140389,0.5282990401394572,9.742282927960225,-0.000833801682449313,0.0016407305259693423,-0.0002449445042065
1681944158.035848,0.5379136704695267,0.6033259771642394,9.71646072025417,0.0012840290861870559,0.0026704042888460794,0.0032866438536667
1681944158.0459375,0.27375172696760414,0.6908349689299687,9.886109525579224,-0.0014350330015903768,-7.216129492058015e-05,0.0012727520929412
1681944158.0557897,0.4333408914864991,0.4227445996232204,9.722578112770227,0.0008355065419721658,0.0008856416623614504,-0.0018836789845726
1681944158.0657897,0.3756271902811876,0.6625777148770835,9.831391972205267,0.0007569195214337367,-0.001116353243094714,0.0002017164055951
1681944158.0758474,0.5120884815701892,0.6338689226321412,9.7445871046699,0.0001992275998127329,0.00042479548698462103,-9.706247013573782e-05
1681944158.085767,0.5345286658864815,0.7787530886021294,9.790551427004578,-0.0029140040527000847,0.0019718905078145305,0.0008554996724934
1681944158.0957615,0.3077548681815287,0.5025935846650641,9.806220753698659,-0.0014700779215050621,-0.0001239355888989043,-0.0004114600911042
1681944158.1058187,0.4444785966214432,0.7304742328550275,9.818707585813291,-0.0033871150662073417,-0.0004558903513859737,0.0007042514311843
1681944158.115804,0.4470887240472968,0.41992804759437385,9.708964193402625,-0.0010587930886645528,0.0007287928337063326,-0.002156006320124
1681944158.1257827,0.44555576542466835,0.5763646933083004,9.763226094288555,0.0001906703979436523,0.0005916954545683051,-0.0012492818373492
1681944158.135868,0.3878746246126527,0.6461793783878341,9.826217338181337,-0.0003021928962538833,-0.0006603820926181102,-0.0005399907554737
1681944158.1458502,0.6275851985563581,0.6938586287006211,9.703558430483104,-0.0019856515666143233,0.0031286002655705847,-0.0003533662843755
1681944158.1558232,0.23587929090698956,0.4822127856075816,9.842257741633379,0.00031806712664104634,-0.0008809070385778206,-0.0010905870317718
1681944158.1658049,0.49675471797680615,0.6508950771784875,9.753289432319576,-0.0008080731849116068,0.0006926369955303828,-0.0017726869869283
1681944158.1757672,0.4920763413792488,0.743777059596654,9.80541918755892,-0.0019111378851961042,0.0005775265563471475,0.0013673561311089
1681944158.1857982,0.4775833768436376,0.36338530813362985,9.676720769187702,0.0010068824905406267,0.0027199340818986764,-0.0023709830443612
1681944158.195791,0.38086579272273874,0.6321805826514747,9.808067402372073,0.001601814386317331,0.0011374500369406113,-0.0006919730535945
1681944158.2057774,0.4780177822203648,0.8173951157625463,9.838626039230304,-0.0013419086275338727,0.0010890104248286964,0.0019526039372659
1681944158.2158384,0.2919581128601036,0.3802423105835605,9.791768606424256,0.0008895421407727129,-0.0005296037784674191,-0.0028146413701823
1681944158.2259264,0.4763549842625452,0.7445439020776118,9.807321889681825,-0.00027945082655069344,-0.0008749649234741417,0.0004021355102532
1681944158.2358594,0.4905471526245078,0.6762653325622655,9.773640880186386,-0.001319558906532694,-6.881008987622181e-05,0.0010626262205415
1681944158.2458005,0.4823545132661071,0.5816913742324494,9.74214406314752,-0.0010908224771320923,0.0011363294956490092,-6.350749984895127e-05
1681944158.2557757,0.5035275659408717,0.6548644619023748,9.76425901376969,-0.0018761237652983919,0.0022665679154841053,0.0004274539801054
1681944158.2657642,0.36130357373705524,0.36589391458749776,9.736976510287787,0.0032070330456261285,0.0007299215077179267,0.0001290803461098
1681944158.2758503,0.6056974638092996,0.8664041264208955,9.773463173463496,-0.0014246380922649043,0.0038941526358971094,0.0016359646374122
1681944158.2857726,0.29325033766947906,0.49151225313238417,9.813535899676477,0.001200225138928198,0.0008464944857508587,0.0021396287170001
1681944158.2958422,0.4246611773035703,0.587239616285213,9.78315013697803,-5.033858754229993e-05,0.0016630838810884933,-0.0013353309209695
1681944158.3058476,0.42435037058074077,0.6589105158706814,9.80074891898603,-0.0004530392715437153,0.0011382001196406206,-0.0003529616247168
1681944158.3158312,0.40990733036148785,0.5257591343934083,9.768861340490252,0.0012564786695116116,0.0007522475844409215,-0.0007318439043364
1681944158.325883,0.3435850408181133,0.6987449512460976,9.86815407658239,-0.0005748688254117458,-0.001454608654226269,-0.0006718613754264
1681944158.3358233,0.5092063469405199,0.6387577160851758,9.753606856594473,-0.0014335887562374095,0.0001703079591372082,-0.0010313849511793
1681944158.345811,0.3499640930051164,0.5957880637467019,9.81481901226889,-0.0002638070703752823,-0.0020744965782956534,0.0005146428861417
1681944158.355798,0.6161890939915251,0.4499648874146577,9.624454511858657,0.001484061677847332,0.0027196000720096964,-0.0023683576460233
1681944158.365904,0.2943758745627578,0.9626270048647262,9.979195203716417,-0.004261790445896088,-0.0014955980862785944,0.0009188374073938
1681944158.375821,0.5054935151399921,0.5017067369970366,9.713148501325175,-0.0013255293818249304,-0.0003817304162549824,0.0018076941009577
1681944158.3857615,0.4640001878865563,0.48148205374766045,9.72762315462154,0.0015694049911352246,2.2461949872046443e-05,0.0019738423847821
1681944158.3958015,0.40328969312360413,0.549160855457427,9.784803874727737,0.0009867755971217254,0.0003026185324029183,-0.0012708731542578
1681944158.4057884,0.37633981140533795,0.7464742248010716,9.842723757544666,-0.0003826402196315786,-0.0015928175783570893,0.0012656618759729
1681944158.4158063,0.5735504076223181,0.7486477573791566,9.748017217398639,-0.004041285155331684,0.0019253157998065382,0.0002780739136734
1681944158.4258504,0.38469893708454944,0.5198907761828815,9.772580367886015,-0.0009179638198389086,-1.516286484908719e-05,0.0026678521221266
1681944158.4358816,0.39828237646330783,0.4853998528887945,9.7489719137066,0.001312358950406811,-0.0005620306100413627,0.0020092190220248
1681944158.445818,0.4563388578934186,0.711671457945552,9.795604539382179,-0.0021391362090551302,0.0008271092254601011,-0.0005027618340453
1681944158.4558227,0.37833668434687817,0.561674238725839,9.791248633656325,-0.00023549672081164683,-0.0009580277210384677,0.0007843499456294
1681944158.4771702,0.48142280056870496,0.5324330553984147,9.728184703701327,0.003134029726108027,0.0009817253268031498,0.0010633949691192
1681944158.4814951,0.38331284885388744,0.8197560912745073,9.881529859055817,0.0008321744532428301,0.0007287699118813014,0.0003872188658216
1681944158.487021,0.29066326523341757,0.7645231562066249,9.924325240968908,-0.0005197365287344442,-0.001271332025069424,0.0010652375326254
1681944158.4960177,0.5025544872305525,0.5795883149364327,9.724845059666487,-0.001008129660776174,0.0007328831040634021,-0.0007623763836226
1681944158.505934,0.3389359002803321,0.6283667108757515,9.835839364335754,-0.0015617053680092989,-0.0013074710372450282,-0.0005522835149667
1681944158.5158277,0.4832799297235665,0.49861701719184337,9.712321010848951,0.0013738203591126031,-0.0008902160658041515,0.000557862423616
1681944158.525879,0.4100154012093655,0.7005936249481773,9.825565136436495,-0.0008430889135640734,-0.001146921051037974,-0.0002311644225618
1681944158.535973,0.5039829220334984,0.6466646952741241,9.755747373806118,-0.001218959680396424,-3.82655856933362e-05,0.000918097005947
1681944158.5458462,0.40942047328783365,0.6192354042450314,9.793936226975234,-0.0017423826487469748,-0.000407074206651846,0.0006047880428605
1681944158.5583334,0.4651421724459714,0.49771619714362714,9.739871443126301,0.00048014240303673064,0.00047807184180646324,-0.0008037217508307
1681944158.5658796,0.286453254663268,0.5605690167642154,9.85283268428853,0.001121261233136961,-0.002014506736003429,-0.0009885082568279
1681944158.5758364,0.5319070495119896,0.5995403552496459,9.725759772271687,0.0028568703221383365,-0.0008980695825446342,0.0015163598850132
1681944158.5858166,0.5575913041965541,0.6278309383881191,9.722928285036696,0.0007367841225849331,0.0027337155422889527,-0.0017604228656045
1681944158.5958295,0.379033289727295,0.6972552915660616,9.842539572473822,0.00011951952345891158,0.0008267550300000984,0.0004554083256744
1681944158.605801,0.3904936076085681,0.6739505718705675,9.829415238271013,-0.00012970660458215937,-0.0007903921708512049,0.0023098603391782
1681944158.6157985,0.40788860304961705,0.455595027958134,9.747455085008143,0.0020972734045130057,-0.0007296640294946688,0.0003998974256911
1681944158.625804,0.5573463244236702,0.7407177095296147,9.759699884375317,0.00035607589302808255,0.0011013028006326329,0.0028332577471383
1681944158.6358266,0.44645554416843,0.5629950976373957,9.762506144051164,2.265465701694392e-05,0.002005433829430327,0.0005138858373039
1681944158.6458597,0.35672512108751664,0.357606123287389,9.736212691431852,0.004083205448913784,0.0010968781984665654,-0.001852034040471
1681944158.6558394,0.3153656957242038,0.8908252737766705,9.94434869615047,-0.00043330653856273364,-0.00212516290426569,0.0006744573742845
1681944158.6685357,0.43753326770608897,0.5247408641588316,9.753999518576114,0.0016871310286324477,-0.002125538552225106,0.0007243873237394
1681944158.6766,0.8113392966564579,0.663887873053268,9.600577855329055,0.001784303380106132,0.0034836471987356034,0.0028246828273632
1681944158.6859229,0.25587878726303265,0.6900206420702971,9.911334785865245,-8.129040750918421e-05,-4.309776076254238e-05,0.0020062412927155
1681944158.695861,0.2844532335919168,0.5915149185026942,9.865681662791312,-0.001136627880348614,-0.002307722694428367,-0.0008994749828479
1681944158.7058177,0.5588934600788973,0.524934696019798,9.701189121710282,0.001021027921030858,7.352467863995312e-05,-0.0007515781640312
1681944158.7158475,0.47485689179098933,0.642294357441931,9.763268121492743,4.779034394047388e-06,0.0011907130265498892,-0.001232522687619
1681944158.7258332,0.33282777714057193,0.653961673732108,9.861113719766257,0.0002350229028401733,-0.0017824233638782994,0.0007284800207936
1681944158.7359142,0.4704758234875891,0.572996594024177,9.75120029350242,0.0010914484134271249,-0.0012173153476845162,0.0008376119926334
1681944158.7458513,0.43287318176713935,0.5682395307326077,9.761994994276435,0.0015422048815047775,-0.0010671758139304246,0.0001681825064816
1681944158.755859,0.4125678037217216,0.6587469203090041,9.813066884343163,0.0001143185468358969,-0.0014523808480370844,-0.0006074112921259
1681944158.775324,0.46216498091597646,0.5432862758430114,9.735088697796371,0.002944774248515729,-0.00023903941845135202,-0.000454690688034
1681944158.7861602,0.45510669260912673,0.7249306380788122,9.816381852281445,5.021156500821183e-05,0.000248966511743373,-0.0005202474153838
1681944158.787114,1.3055688664731284,1.3201473419777943,9.553457063889569,-0.0008829542521186176,0.0017003285210560953,0.0004118081100978
1681944158.7959511,0.4711268254672263,0.502036043435468,9.727690358097233,0.0012944898697514527,0.00216823192474134,0.0005984784488328
1681944158.805845,0.3131193914822542,0.7346461320086509,9.890825385954544,-0.0009053165424763198,-0.0006089688661757809,0.0017354166352243
1681944158.815893,0.3749374133889853,0.44998461432334835,9.759384955760297,0.0004894430518243887,-0.0006171537023779861,-0.0019533554173312
1681944158.825889,0.5604833819022119,0.6590722828344803,9.735062153634258,0.00042834384518104275,0.0014969264937937262,-0.0005414915818027
1681944158.8358693,0.3938074401698828,0.6204850864616469,9.814793919734162,0.00025547541888345707,0.0003771184396807918,-0.0004870909347436
1681944158.845828,0.3904519101556917,0.6002809961025788,9.806987520165231,0.00016494969977293012,-0.00041229200237261185,-0.0012254553462616
1681944158.855948,0.5312951764930021,0.6944957326670061,9.757183263570642,0.0008340206132030153,0.00027280649144034713,0.0032631671906211
1681944158.8662498,0.30287318068880237,0.648768679160086,9.871415655202654,-0.0008594818953722783,-0.0024239366099130196,0.0022386977484212
1681944158.8826823,0.5417831619610449,0.5552888861615873,9.700974239357885,0.0004477147264748431,0.0016459425809173236,0.0010358034901083
1681944158.8859622,0.3306846950827265,0.3516027199581407,9.746495981040733,0.0010664786220333689,0.001628801368231921,-0.0011159360024384
1681944158.8960505,0.4886032914193926,0.7122300401881356,9.778530600206498,-3.0257548189214473e-05,0.0021976689129726166,0.0010350739152864
1681944158.9071784,0.3264719237825396,0.6305637139017515,9.845099077578956,0.0001258507689554643,-0.0007080546608685768,0.0021370032604546
1681944158.9164083,0.5484882625709764,0.5828976850344049,9.715783323680085,0.0005393547991865697,0.0014164716937951772,0.0020226316096023
1681944158.926113,0.2531428609787884,0.703727380791224,9.911028807559648,-0.0024065885569981753,-0.0016658404433732969,0.0002702545293369
1681944158.935961,0.49094767650588245,0.35629729853730524,9.676369958674604,0.0007215702679010644,0.0006725135439245658,-0.0036554365965775
1681944158.9458663,0.4410975141119837,0.6752635289581489,9.806772271189839,0.001667753075057244,-0.0004867971965627761,0.0003436269157328
1681944158.9559531,0.30065342302683684,0.4614425088862833,9.806260249409872,0.003613075395937481,-0.0026582592674664657,-0.0020189566153339
1681944158.9661105,0.5682297032348668,0.7003448555650441,9.731799543050675,0.0020466130916121598,0.00026946137167695953,-0.0014336785848489
1681944158.975919,0.4534803605044177,0.7987122906529077,9.83204655603184,-0.00097685444435984,0.0001323624328198829,0.0001681943808444
1681944158.985829,0.49131096827994364,0.6249242929216532,9.767311779976165,-0.0004593863520260443,0.000721698444759306,0.001575228886818
1681944158.995988,0.36245609621169556,0.5681783395765411,9.807875372312848,-0.0008695484884725536,-0.00010420695339516072,-0.0010093840851685
1681944159.005854,0.5004966513296663,0.5512889237381841,9.72353274341934,0.0007446190125150557,0.0011020682146697916,-0.0002620612818053
1681944159.0159192,0.3727261061281895,0.7268328129715053,9.865387738474396,-0.0012621962690415696,-0.0007456970475373622,0.0005161381245353
1681944159.0320723,0.45638563297450835,0.5793034190737011,9.764697280853499,-0.00041579716266798914,0.00022659350992119083,-2.144000839953558e-05
1681944159.041306,0.33457557580921055,0.640477479836785,9.845930575360942,-0.0007630085200336349,-0.0016993662558095041,0.0003011822386407
1681944159.045894,0.71231994271439,0.4891506396763834,9.58389570115049,0.0007557863256578291,0.0007734988041310031,0.0009028212202475
1681944159.055883,0.3540365246523877,0.6671881767749949,9.839764745410626,-0.001348973240143991,-0.00020253784509663463,-0.0010894678148678
1681944159.0668738,0.379366311478016,0.4460984643398278,9.749268519200982,0.0027879583764438627,-0.0015514771563388703,-0.0004367787937871
1681944159.0759866,0.4210300693752926,0.6146666954261085,9.789138807849383,0.0028311560565232193,-0.0019571251610515754,2.3978913896785525e-06
1681944159.085896,0.4440943843173308,0.7595593479642809,9.840192225303184,-0.0007887073499538339,-0.0016766365525589769,-0.0007065077393553
1681944159.0958614,0.5358803428371395,0.5272892027138876,9.713884326531344,0.0007863518136939969,0.00039870976833385056,-0.0011274771846136
1681944159.1058977,0.413275324950743,0.6884513993960303,9.808125835755726,0.0005624606176072968,-0.0008853864008876633,0.0016493673587911
1681944159.1159089,0.5223330583634924,0.5547510539824099,9.710106576514162,0.0004316683989678051,0.001948815158861019,-0.0008491770445606
1681944159.1259098,0.46442457111487995,0.7125325517403581,9.806221250513586,-0.00036814355834207334,0.0015934245329652212,0.0017257083722734
1681944159.1359522,0.2450669309285781,0.5891390703224944,9.877724163039062,-0.001233511675372546,-0.0015313549619139833,-0.0010093736077896
1681944159.1459208,0.4850139099625133,0.48337900471565637,9.70191818600384,0.0009815429403095572,-0.00021594584915093215,-0.0015741320408186
1681944159.1559029,0.4826985471079769,0.5813566238339463,9.741148589713486,0.003046120032662012,-0.0001362494262065517,0.0012634235003725
1681944159.1659296,0.42275545303011725,0.7415675894102707,9.829001076421333,-0.0006527152533576681,0.00013458216898633958,-0.000423019201239
1681944159.1759136,0.4968965323464075,0.6767445518612972,9.777810430132645,-0.0014223729329683145,0.0010394657129849626,0.0001227337320097
1681944159.185877,0.32372171826644036,0.38855230998878865,9.763366867974982,0.0019698827814488397,-0.0005050560216477353,-0.0021608617703667
1681944159.1958754,0.5249760423313399,0.8144518283130592,9.793577737478087,0.00034153800949311903,-0.00015039175143405345,0.003110064162197
1681944159.2058578,0.429848252553432,0.6243583563177123,9.782053528380391,-0.0009340119948769431,0.0005123361033539073,0.0010123316000909
1681944159.2158604,0.48821586574194864,0.5008512934681523,9.72578906909976,3.7939266153059895e-05,0.002277751659485369,-0.0012723835266432
1681944159.2259176,0.3679640905096253,0.6663045446625546,9.830418786736908,-0.0004463610499391114,0.0005026525739259435,-5.0488774409045145e-05
1681944159.2359903,0.4213455389460147,0.6049990171800704,9.789021066433993,-0.0007626076403711452,0.0002515683327732349,-0.0007445094256899
1681944159.2610252,0.4857175046276679,0.5628287879889807,9.744903696553452,0.0015753533863451293,0.002728164290995272,-0.0010410099371573
1681944159.262259,0.012342213556234447,1.1282153018028958,10.184293056324721,0.0010411340422962633,0.001114731263223593,0.0005082981346868
1681944159.2658715,0.25536958053729303,0.9020592469730415,9.97456472639181,0.0002606958136455306,-0.0011517620471720048,0.0031651932199248
1681944159.2758324,0.40200084482364806,0.4725147224547009,9.74648886552554,0.0012263172046813459,-0.0006950488477259295,-0.0002695342141441
1681944159.2858584,0.4484798155274987,0.7269389794207913,9.808849218165882,-0.0010219118872892643,-0.0004055978947669818,9.25513135963188e-05
1681944159.295853,0.5067051683315944,0.5907272590729872,9.733383823494261,0.0008206277694204407,8.20599510871808e-05,0.002664886965672
1681944159.3058496,0.40677934128290844,0.5983812026601578,9.798768865278449,-0.000604679283406395,0.0002951520872053645,-0.0003060392651013
1681944159.3158624,0.4527436398726946,0.7346784251842001,9.817143175473632,-0.00277428291072697,0.00037189033691429355,0.0003831321059488
1681944159.3259046,0.49862818183756313,0.5070432381862504,9.709158776708229,-0.0006609348881478212,0.001763298157780835,0.0005429638235592
1681944159.3359373,0.34170466976509506,0.5366327455458291,9.820284998509054,0.001094802691593386,-0.00038508699950350766,0.0001525424572401
1681944159.3458958,0.36973737418143965,0.6952204563794651,9.849780061577352,-0.0015333933872472955,-0.0013979729317971637,-0.0013424133963189
1681944159.3558862,0.5890216584602593,0.6301315997037348,9.701009878987442,-2.1301393268627012e-05,0.0005838801643584959,0.0026447322720424
1681944159.3659234,0.4479492399692406,0.487523655431534,9.75178970905302,0.0028911504972872564,0.00048551578171386004,0.0030254688731157
1681944159.3759265,0.4280085184777833,0.496050957230761,9.743273575586965,0.0035631655179942275,0.0014913568885945015,-0.0003995587199232
1681944159.3858871,0.30676774746102825,0.7788932303546503,9.899242341624696,0.00025251545567909974,-0.0012947867900627227,0.0001961303327926
1681944159.39595,0.35236499059445964,0.7169916744823521,9.866906786189611,-0.0024781257420009423,-0.0029056285950300052,-0.0007038972421786
1681944159.4059346,0.6763689534827819,0.47239853620487815,9.61177453691274,0.00013146618552702815,0.0020531322694918564,-0.0013744262128374
1681944159.4158864,0.31316880659659163,0.5668765408598355,9.833475286317862,0.0014203923071487272,-0.0008019237681797946,-0.0008532743982276
1681944159.4259148,0.4303631758405937,0.6461779095146583,9.785746442884617,0.0013466336377049592,-0.001497447769823796,0.0010406546329842
1681944159.4359193,0.6047005890082464,0.7606191487063366,9.749035019679834,-0.0014183016603660202,0.0017100163476994107,0.0015178503794823
1681944159.4458938,0.2614395745242259,0.5603689446186225,9.849086844149129,-0.0027429745459303205,-0.0005847486454166173,-0.002028243065556
1681944159.461457,0.45489786374519287,0.5298105093544919,9.747384914410583,0.00060529828773226,-0.000612704583422099,-0.0001711912068775
1681944159.4669588,0.45057007901695484,0.772680082935519,9.830308746051069,-0.0007723147819742776,-0.0008797982820960203,0.0010078741156258
1681944159.475869,0.6055190286523938,0.7338560665179431,9.730343688367423,-0.0029754748196778196,0.002229309766966137,0.001326760886027
1681944159.4858766,0.37446903164745654,0.41608312841095707,9.747621439516111,-0.00023438544254703058,0.0017923428169882925,-0.0014452516648224
1681944159.4962597,0.43892063466306536,0.6638368742358307,9.802792078436331,-6.227715208405096e-05,0.0008509696330183809,0.0013219148654253
1681944159.5058973,0.37419181654128614,0.5177260741621411,9.800741281234789,0.0014349227176941582,-0.00015597678548727123,-0.0004207793704471
1681944159.5158622,0.5310704928213761,0.6541105274623663,9.736991068553763,-6.040690364904109e-05,0.002372774706464611,-0.0013036440673521
1681944159.53395,0.36903974903778686,0.5718083974765802,9.80803221580246,0.0014304639904153325,-0.00041149445889130407,-0.000716918295925
1681944159.5359812,0.6557632592338541,0.5564488162093135,9.646063268641955,0.002488061191153015,-6.960516305673567e-06,0.00084284684041
1681944159.545906,0.5419148092347744,0.7208452551264566,9.767031188336368,0.001515005154690875,0.0012085933052290707,0.0033089961775341
1681944159.5559063,0.3379620469205171,0.6469873400790466,9.846467961709237,-0.0015087804913885322,0.0004702446185473433,-0.0007459995418093
1681944159.5659328,0.3592958600006114,0.487144703269574,9.78047820717002,0.0005848121195922471,-0.0008827578000244364,-0.0018371293868175
1681944159.5758803,0.42903561382689603,0.6430747028116224,9.808083884175247,0.0004365547067534957,-0.001519804254897237,-0.0007415236055157
1681944159.5859027,0.35099771986564116,0.6254959162836172,9.836723820249198,-0.0008081077911273301,-0.0028054020383032636,-0.0024085940408757
1681944159.5959222,0.6550923061502729,0.6887508532649319,9.700676333581995,-0.0011165327412680818,0.000610691431970964,0.0002814461163007
1681944159.6058774,0.4198216240927094,0.6184742191975878,9.809039080082641,-0.0004549234876364242,-0.0004282977272146315,0.0011229742935621
1681944159.615877,0.5130296673534595,0.47734333933111517,9.694039180549876,0.002170993275709619,0.0013378956812609083,0.0005999289837428
1681944159.6259048,0.32118997607726535,0.7347687954966338,9.87476188634351,-0.0008416023633628577,-0.0008779485100777325,-0.0002974759868583
1681944159.6361103,0.44256795380779557,0.5137245420317778,9.740126514100297,0.00044027858863682993,-0.0002871117388469418,-0.0013073956675133
1681944159.646007,0.36887751490927867,0.722487280155159,9.846729204436826,-0.0013668766521164931,-0.001880036783396352,-0.0004468584980121
1681944159.656174,0.49746931807887756,0.5247098090393061,9.72560621965124,0.0011521700080450135,-0.0012403952808060937,0.0012019510299661
1681944159.6658936,0.43315289284936626,0.6550570561929161,9.799528198478738,-0.0009626778757434452,-0.00042905996512999597,-0.0013271532102725
1681944159.6759503,0.5190384478263718,0.7824703604429575,9.795822625189583,-0.0028204823646305163,0.0001651363699238663,0.0021522697329283
1681944159.685908,0.3604507061634268,0.4843488874619219,9.794249647600065,-0.0016492381279040308,-0.00046593319695440344,-0.0009747356257638
1681944159.696094,0.37913539877702,0.5177900344049139,9.774828466899587,0.00016870236899847008,-0.0016487134850682204,-0.0010991572949341
1681944159.7059526,0.6061093607523471,0.7471387678741832,9.727960403175059,-0.0006281340631775992,0.0008226601161494576,0.0025803026196309
1681944159.715979,0.23922354229943457,0.4110739846695972,9.823635483285088,0.0018201266841664035,-0.002300234727429807,-0.0004282213363102
1681944159.7258863,0.5712447803607541,0.8064117992131267,9.772453095673148,-0.0010315983134680626,-0.0001306456522419154,0.0016750636618463
1681944159.7359636,0.40118072278029443,0.48236047419781825,9.756720065015143,0.00030539936571617293,-0.00012467081329599916,-0.0008912802755138
1681944159.745979,0.540698611528608,0.7116444598184372,9.7637214289205,-3.4342063954923196e-05,0.0009571437402822196,0.0020542987308227
1681944159.755972,0.5104054441745923,0.5136383444065702,9.722700446821335,0.0017843388941822839,0.0026473106792576978,0.0011441955843702
1681944159.7659256,0.25006520373352514,0.6696808515658039,9.902822351243474,0.0002823115327706777,-0.0010470617164438846,0.0008208504563891
1681944159.7759798,0.5446516520068786,0.6858888720549272,9.760153276930126,-0.0010424071214726295,0.0009970016714847122,0.0007575555623271
1681944159.7860577,0.33419392461393244,0.5027311872738894,9.792317109991876,-0.0006859078745920025,4.4442395707801086e-05,-0.0025199862743965
1681944159.7959442,0.4167180410910193,0.5166546958778858,9.75588118176086,0.0019508696618714865,-0.0007922541844479665,-0.0009345031890324
1681944159.8059826,0.4838969697281397,0.722287152375285,9.789269553124402,-0.00036253331326007826,0.0002273598969098007,-0.000734815754672
1681944159.8159454,0.3745296460924708,0.5310981295638993,9.806767688873775,0.0017500790632134753,-0.001752624850083331,0.0002724920318224
1681944159.8259037,0.5252022079277298,0.7437810448318605,9.78123141055873,-0.0010524734168392824,0.0003063109373551617,6.721968881274326e-05
1681944159.8359354,0.43935964629248847,0.5632501280490938,9.75198925946324,0.0008329149572344702,-1.1808018603487609e-05,0.001391589377331
1681944159.84595,0.48594546532493327,0.6345159337379925,9.7672745820778,0.0005256042953447875,0.0009746308074886249,0.0017354121314066
1681944159.8559763,0.4821248032723215,0.6554953337985239,9.76967548758579,-0.0009369882936471054,0.0021887197565681337,0.001251493199984
1681944159.865949,0.368492110872363,0.5698292600738831,9.794026806085224,-0.0010826345519840135,0.0015699288609012305,-0.0007840163621357
1681944159.8759737,0.4184770460602692,0.5647171685581194,9.772982121212701,-4.5169393277685355e-05,0.0011348510018283546,-0.0007296040735444
1681944159.8860886,0.4396915263905458,0.459061697002845,9.738130426782568,0.0025558304348349643,0.001336779348201962,-0.001898985503917
1681944159.8959413,0.3818414084074288,0.8679375842271423,9.904700019271583,-0.0013281263599717278,-0.0009960360320543599,0.0009363373660245
1681944159.9059973,0.5393216844362183,0.45675584889504617,9.659115523069149,0.0018856741401164295,0.0013691573274950723,0.0005552286433749
1681944159.9159658,0.3343138910646373,0.657849696462349,9.847152509298994,0.00030502072789727943,-0.00032322610965704774,-0.000684160887008
1681944159.925949,0.41858929765275715,0.49567887826724744,9.755304375648766,0.003860828901309157,-0.0015354312011911396,0.0013822607847624
1681944159.9359615,0.5712700884565398,0.7783340706259041,9.759978661910672,0.0001936666276274936,0.0014946895327243488,0.0012656612356887
1681944159.9461403,0.2924921245471819,0.46023918563569816,9.812028597675958,0.0018085734359533322,-0.0005609089122343647,-0.0015733783680251
1681944159.9559453,0.5883868940810374,0.6807657958923123,9.717636215701047,0.001235962136284009,0.0020542686199443425,-2.4045898816479894e-06
1681944159.9659362,0.3993402379920174,0.7170529356185832,9.850266440040764,-0.0007682133563334629,0.0011940665305814825,0.0002516386716389
1681944159.9759357,0.3310462870852021,0.5256242091770985,9.810368390844753,0.0008459373343858377,-0.0010369810986636746,-0.0002196095033786
1681944159.98601,0.37406482868231195,0.48361011943591986,9.769392267798743,0.0020958215387067362,-0.0012810195703763666,-0.0031908887054077
1681944159.995988,0.5213604386400592,0.6842012845415782,9.756874370855904,0.0015850358473943782,-0.0001544641521180971,-0.0015003671019575
1681944160.006001,0.4144908253486167,0.6940995690458943,9.815479897206426,0.0008873008347134792,-0.0012020369022874935,0.0004300742561691
1681944160.015972,0.37924785319301496,0.6422668881061475,9.825087619338136,-0.0011146714360669799,-0.00167700756004965,-0.0019973229232481
1681944160.0259657,0.5893593835056948,0.5671847764649864,9.674126142502345,0.0013466335030639883,0.0008345772049324575,0.0006390658358805
1681944160.0359764,0.36545236118679914,0.6290516510223321,9.820511637249798,-0.0009541372576239902,0.0005481190930810416,-0.0030198978807083
1681944160.0459545,0.4210307678689816,0.5950926618051225,9.794284729116653,0.001335448261904362,-0.001074246730733505,0.0004669483436965
1681944160.0559125,0.45426842231238185,0.6946279223154425,9.775060995691845,-5.8179840267442994e-05,-0.0007564817111993938,0.0013733167411056
1681944160.0659742,0.42321743675979273,0.5599957706910885,9.772194336350378,0.00020484074704383982,-0.0006968763684750378,-0.000113426273433
1681944160.0759475,0.500019989062392,0.6509625601952347,9.762388064674965,5.134928278590171e-05,0.00012080674960785803,0.0011363795760781
1681944160.0859315,0.3888506019962908,0.55851154669229,9.794940790452943,0.0005434684815744308,-0.00043762774499682514,-0.0002371337346038
1681944160.095969,0.4473818292133261,0.6121803744570872,9.762541239450561,0.00014634550597410564,1.798782529775124e-05,-0.0006256696383706
1681944160.10593,0.4319732256185707,0.6394085754018043,9.788917861838188,-0.0006840408609971061,-3.341360543895862e-05,-0.0005317955824783
1681944160.115921,0.5106601337966038,0.5222417236648502,9.70613019753483,0.0019993062453937302,0.0010904947388312859,0.0007418703439408
1681944160.125931,0.33682643294802017,0.6191893229896573,9.828267489110223,0.0008366412222552,-0.00020364660566360893,-0.0015487907535633
1681944160.135959,0.5125754399602647,0.733419245314387,9.788778043631545,-0.0005160115938461495,0.0006393742683463524,0.0006036940880813
1681944160.1459675,0.2161225867624308,0.48411993125378516,9.865525697564156,0.0012568336363714136,-0.0035094622807459465,-0.0014806493732384
1681944160.1559415,0.7051251673123324,0.6254925059539611,9.645824731639502,0.0014412109454955118,0.001534565090921158,1.4677379535983637e-05
1681944160.1659515,0.45605668914983616,0.7317457539425591,9.800523628258981,-0.0015009792141560555,0.0022487191824986943,-0.0004624660673788
1681944160.1760032,0.34835908386733716,0.5322316376741932,9.801274364135612,-0.0002619572864873829,0.000798054381257728,-0.0014098607084951
1681944160.1859846,0.4056876251237605,0.5804436534858313,9.788697522683465,0.0008474348890485073,-0.00024276899365968264,-0.0006197135976753
1681944160.1959205,0.4804362951508093,0.7056655603704238,9.78895317090675,-0.0007361743617424967,0.0004650233460673648,2.401435400779112e-05
1681944160.2059305,0.4654830014875557,0.5647354671728125,9.745530540927048,0.0011208742897651169,0.0005220310362455128,0.0014973739139032
1681944160.215932,0.28382306072822366,0.766203223601264,9.92705571338023,-0.00345751233870712,-0.0017734984755767966,-0.0015800827264091
1681944160.2259233,0.4641916970676091,0.4686560764663261,9.703055848717815,8.227721031659988e-05,-0.001409170650605296,-0.0004561731207421
1681944160.235974,0.45286044334262837,0.674366527832247,9.790554084330868,-0.0015214629044099598,-0.0008086651532864811,-0.0008372731122425
1681944160.2460077,0.49040738826100294,0.5675284073533345,9.734325209082547,-0.00046049222343801343,0.00032085441174106564,-0.0003649002488008
1681944160.2648113,0.4138484533728058,0.5998314925865756,9.795214965025563,0.001941556831188614,-0.00199403411614283,0.0024491964990967
1681944160.2680686,0.7996388701125248,0.6396931317983569,9.602519690937848,0.0003802875164565603,0.0013091798843013814,-6.799379710619585e-05
1681944160.275972,0.5394375676584733,0.6023960232224179,9.72138705434283,0.0006738456415525187,0.0027966872168201633,0.0005761070328527
1681944160.2859735,0.3058953218074143,0.6317909865432464,9.87466880083946,-0.0009764679918674971,0.0004624191961693313,-0.0016914737957767
1681944160.2959816,0.3801266611529693,0.5921460210454053,9.80323343508245,0.0003199494233936839,-0.0012672334909581372,0.0001264724100702
1681944160.3059895,0.4479196669903646,0.6855735526201006,9.809377324732534,-0.0012271670930707468,-0.0010426107986529437,0.0003276219044574
1681944160.316001,0.5986110691761192,0.6334296519070964,9.698380538391135,-0.0007681948728352631,0.0018292273623673667,0.0020613975916286
1681944160.3260074,0.3938336303081613,0.5726976835215619,9.798561484923805,-0.0007555647962545104,0.0012246111506253802,0.00031234507102
1681944160.3359983,0.34937018491562494,0.531146351719575,9.795356011645234,0.0006835282725446263,-0.0003254673807670984,-0.0004595135419866
1681944160.3459806,0.49015735443330566,0.6509454448991553,9.769667812263783,0.0007222748542844963,0.00021840834182135032,0.0009486347239227
1681944160.355966,0.3949691860473876,0.5699941778374767,9.784115233134866,0.0017750360424040987,-0.0005601642924151474,0.0010577827028692
1681944160.3659766,0.4319420841251693,0.5850921345742728,9.780895009349754,0.0014349187793284968,-0.00016342154532854823,-0.0004889538127235
1681944160.37598,0.48144318073175296,0.6944072551885593,9.784660362717155,0.0003560690033743276,5.6371910408220836e-05,0.0010071238188766
1681944160.3862133,0.3268542536503876,0.5873678800853211,9.829730153597426,0.0010627655225930001,-0.0022633650361422253,0.0011147783056595
1681944160.39608,0.6253020225749676,0.7464406964845774,9.731151312603824,-0.001530415538865342,0.0013758589074057907,0.001811069910641
1681944160.4061182,0.36929524705153827,0.5585729710116671,9.790930393765443,-0.001054703018105619,0.0004326171318390593,0.0001652129844524
1681944160.415976,0.36572186895545317,0.5985097849406217,9.812287557215273,-0.0008315371999311803,-0.0011234295725928818,0.0004677025985666
1681944160.425964,0.454717122818229,0.623025731188537,9.776247309098265,-0.00031259776875372313,-0.0011133835323272688,0.0014929012663425
1681944160.435993,0.46810064501530746,0.4104521653889074,9.699578280091812,0.002504816195503234,0.0003268329894791413,-0.0010101216926476
1681944160.4459467,0.43458004508114395,0.8812998445529376,9.880196150691201,-0.0019502500235735114,-0.0005758207462957844,0.0011241033475608
1681944160.455994,0.3764645010528095,0.4242019623120921,9.749640671496339,0.0012311445493790208,-0.0012467341765518792,-0.0006927292875251
1681944160.46605,0.5478866892806293,0.5791184593670796,9.707814655585308,0.0019907195249007623,0.0013259670561831813,-0.0005507794290087
1681944160.4760237,0.46495742814180513,0.7432856624755,9.792210307143446,-7.385376204641409e-05,0.0017864009392861006,0.0009523576859147
1681944160.4860213,0.38126113977617737,0.5665357765313583,9.798885835930552,0.0011003941034511077,0.00041063711856380736,0.0013975528103993
1681944160.4960272,0.413242169080068,0.6025578824173772,9.797453927768938,0.0010892144196444444,4.948085950115953e-06,0.0011673088569887
1681944160.5060668,0.476194052679538,0.5820714758745337,9.75246401216998,0.0013656181712044227,0.0010514056816569425,2.050624484668806e-06
1681944160.51597,0.34150371759079773,0.6353490607612715,9.837006152725179,0.0011559000929620563,-0.0010291771899582347,0.0008391207352043
1681944160.5259435,0.5035409371231175,0.7210721210900639,9.801279036299055,-0.002279549422850447,0.0010167345109565978,-0.0015693040645918
1681944160.5360358,0.48455876771508977,0.5904328817116318,9.758504641667134,-0.00045120701472292337,0.0007667784371963707,0.0012302628869884
1681944160.5461042,0.4191127451232584,0.49320611769962464,9.749899755531827,0.0019169770215875582,0.00041696715667312664,0.0009631592815504
1681944160.5560467,0.26703239284171065,0.6540905860946714,9.87973382694074,0.00010498223980080277,-0.0024935789057235792,-0.0003384527831575
1681944160.5662196,0.510528229812258,0.6254560471404019,9.743990524932183,0.00037656960683403473,-0.0015160839550104727,0.0014008984121256
1681944160.5760274,0.5245258689101433,0.6040051601459097,9.726939133258469,0.0004548234643222739,0.00034766542658512675,0.0010622728418321
1681944160.5860472,0.3614897423637155,0.5824876956612498,9.807364562815499,0.0014531788409010962,-0.0014240317359929737,0.0020438655896806
1681944160.596091,0.3551596224336945,0.6428718067415634,9.838937209308492,-0.00048881533331221,-0.00247980732648571,-0.000173800539901
1681944160.6060605,0.5839632454005416,0.7387905476714712,9.754507270332581,-0.002948655447983953,0.00044601779603596945,0.0004885615466856
1681944160.6160035,0.3639937605972855,0.45955083025143884,9.760436830542384,0.0007706936504498624,-0.001373757261991132,0.0016136073367898
1681944160.625998,0.4827137250997901,0.7204886098122467,9.791443555701024,-0.0009850330916770717,-0.0006827363448786621,0.002463340727868
1681944160.6360438,0.4973205005815506,0.5526685925950081,9.713877984504077,-0.0012424408277454748,0.0018284896605872383,-0.0002989514346471
1681944160.6459858,0.36743686165669315,0.5582306357102853,9.79487240891829,0.0005069776781418875,2.8048230226703316e-05,0.0006196935114213
1681944160.6560156,0.36962041820732155,0.6609032591233628,9.843157857723218,-0.0013929364992468624,-0.001018749298983664,-0.000748227731069
1681944160.6769986,0.513661277177173,0.5663994706620709,9.73331835413482,0.002119257809874823,0.0010864105091519189,0.0020978861407139
1681944160.678229,-0.11910582206369091,0.18194097772319612,9.94427225288074,0.0024459785699972128,0.00012303710227980127,0.0006510009675049
1681944160.686496,0.4052090587531519,0.8085252136721643,9.857278056878128,-0.0009611965962695482,-0.0004934972388146148,0.0008297945291497
1681944160.6975584,0.3973438966838814,0.4879811296952589,9.765093082808814,0.0012020813897553075,-0.0009554226059295571,-0.0006420718587241
1681944160.7059674,0.5843423424949552,0.6065143531869623,9.706341381387839,0.0022068024368842322,0.0010592154237886518,0.0010421527817607
1681944160.716617,0.3800446637198913,0.6867997814783732,9.835826056054797,-0.00014423510843165026,0.0001264120940143335,0.0002199747518398
1681944160.7274103,0.4206050709937041,0.6119644534936511,9.79304925680282,-0.0017628469580646137,0.0007589483545555769,-0.0028418667230061
1681944160.736068,0.4866112963503098,0.6672810312192746,9.778192365488115,0.00012771166633371495,-0.00022489416669001753,0.0023098531214282
1681944160.7460608,0.3894559929229654,0.5198881728548763,9.779945794949949,0.0013633977200919589,-0.0008995402622479928,0.0012850441539422
1681944160.7560315,0.39062636746722834,0.5739431239323652,9.788559306990312,0.0014229882469710285,-0.0014579372547196448,-0.00015219932769
1681944160.766058,0.5083229985688344,0.7403451494127191,9.796699911761563,-0.00012485970265794635,-0.0010347750432750757,0.0024059723050096
1681944160.7760546,0.41205892337858,0.5632135759563506,9.787874359188397,0.0004369201426117342,-0.0015667513517990852,0.0017339266573481
1681944160.785993,0.4369390155905736,0.4614683380795743,9.736649131559622,0.0010415295698567304,8.131431505703049e-05,-0.0030191742430678
