time,ax,ay,az,wx,wy,wz
1682026282.8039296,-0.06464462819773968,-0.5069326369112832,9.788713082690002,0.02917620758883924,0.06293426953247505,0.0004588846221454
1682026282.8140132,-0.9561864008555411,-0.05529205600973439,10.012044805605827,0.027331948203879932,0.06027952963961642,0.0083932649448402
1682026282.8240469,-1.9024664568747471,-0.3638321967607783,10.180979339210436,0.025076033887733568,0.05099736310295663,0.0015453392714849
1682026282.8339217,-2.578687042780804,-0.18671691765094908,10.098571710722851,0.02211353454360011,0.036063489724268136,-0.0010774318490288
1682026282.8448195,-3.003005878956323,-0.5843185337775177,9.886508514556201,0.027665395190050502,0.013258671439258986,-0.0046969925880543
1682026282.853931,-3.3035489260466395,-0.024561789760421948,10.107978626259323,0.025222522506505463,-0.015320217148872052,-0.0028348601319007
1682026282.8639245,-2.2862662115610872,0.35838505880149063,9.795046126625877,0.01947196160505929,-0.03155197975269522,0.0037123459495492
1682026282.873953,-1.8190246033169604,0.05943681426980575,9.603695069424097,0.016237921842312906,-0.03935968829798801,0.0020744468655325
1682026282.883929,-1.542699013944636,0.3666213772314816,9.79874235795213,0.005925963443909088,-0.04496825569004901,0.0006239247612543
1682026282.8939283,-1.228299566241384,0.19514109366325255,9.786213583507175,-0.0007105730545667905,-0.045837376076748086,0.0012814044474512
1682026282.9039278,-1.0289899749096467,-0.149654745995418,9.77549385337204,-0.0016027486469102983,-0.04407232845021812,0.0025569415755458
1682026282.914035,-1.0078212204397092,-0.06167159551907253,9.93773348173822,-0.006188638037804484,-0.04223353360266983,0.0038853922031708
1682026282.9240232,-0.8815854000495641,0.04137513837213228,9.866807453665107,-0.010850877266443848,-0.03810852457625824,0.0070719645462818
1682026282.933922,-1.251285371501291,-0.11866796049880858,10.040140498118658,-0.015496869817659695,-0.03933121815896946,0.0054187431104369
1682026282.9439416,-1.0690621634672355,-0.1588324471361343,9.906502680172606,-0.01892412402830246,-0.03961640195113475,0.0077531599543877
1682026282.9541097,-0.9992218895044114,-0.2760324103585318,9.79794462360288,-0.0230965937033503,-0.0370896305700887,0.0096605872839577
1682026282.9645145,-1.0290870099073315,-0.7601991562623565,9.660430648918853,-0.018609508417625882,-0.03678749016941801,0.0136656310513504
1682026282.9747972,-1.0511387654829307,-0.7715272065009393,9.6747484842725,-0.01709226824979559,-0.036164610154799395,0.0172969453140981
1682026282.9839687,-1.2798083100968802,-1.0582865708676175,9.742316257149072,-0.012672642404832625,-0.037609243652932146,0.0191816357999928
1682026282.99394,-1.2253104308337475,-1.0982343106915953,9.73193750709082,-0.006775709947781383,-0.03849101911970268,0.0230582529783137
1682026283.003969,-1.3584500662539163,-0.9949874975334135,9.875456136847422,-0.0028491656434653134,-0.04146311980619415,0.0248704968124516
1682026283.0139606,-1.3447640903968816,-0.9408026216302021,9.880070817463675,-0.0013049815295916411,-0.04219954227063634,0.0230761194705851
1682026283.0241132,-1.2577936394885902,-0.9641154912740367,9.85441541577294,0.0019329189883819117,-0.042656444258974885,0.0194413295119889
1682026283.0352323,-1.232347925346831,-0.714675987408968,9.891777452816962,0.00204439937888129,-0.04385248194108967,0.0147560440108068
1682026283.0440097,-1.2313978306570563,-0.8947358982217759,9.87772230297133,0.005205347753739664,-0.046124494578656625,0.0090197363041229
1682026283.054031,-0.7132495191501406,-0.6910999736640947,9.719059629455039,0.009208405851886732,-0.04240560115702083,0.0063759769417234
1682026283.064001,-0.6805850862167351,-0.6035304736975691,9.691892223666551,0.009766000599238222,-0.03707127826791041,-0.0046223303198925
1682026283.0739937,-0.6621486924626594,-0.4092592232354068,9.743808520570953,0.009297613115620372,-0.033480535522053705,-0.0092080173909775
1682026283.084009,-0.4552980437550426,-0.46085100831367704,9.61905482058163,0.00990686824454218,-0.025307708926483246,-0.0140874231129996
1682026283.09402,-0.7178083010920141,-0.32432930306636926,9.710542764585613,0.009815804185527785,-0.021696669797818893,-0.0134563729062787
1682026283.1039808,-1.050520641526012,-0.25053937315315367,9.785789467834562,0.005850037003780967,-0.02219249038303305,-0.013570906956505
1682026283.115082,-0.9337815577989743,-0.1666250404321451,9.75159172754594,0.004407533171718462,-0.024054103729381052,-0.0027999164432398
1682026283.1255808,-1.0343563345557816,-0.2119966795363101,9.889641153377895,0.0020471437048834654,-0.027865093144097366,0.0017160479145391
1682026283.1341565,-0.973837340611484,-0.519594115385515,9.763653376390488,0.003345338287061247,-0.029117543473439682,0.0028714456001185
1682026283.1470728,-0.948276238645928,-0.1983723359389705,9.79679019507085,0.0029348622985586213,-0.03429900986063012,0.0046789288625009
1682026283.154077,-0.9275129469461478,-0.2527953978453451,10.04791928345041,-0.0025104724248562523,-0.036619537439557336,-0.0039292768471054
1682026283.1639955,-0.1799101910043126,-0.2692607148964792,9.755033759065649,-0.0054042558804855345,-0.029398075462813148,-0.0054846949771158
1682026283.1741,0.08390221562548693,-0.5070943820603123,9.700253387481014,-0.005130449361051426,-0.0178202338417415,-0.0074226291746012
1682026283.1839826,-0.43593653096899787,-0.5989816781283248,9.830439310486964,-0.0036785154962518936,-0.01461461023648623,-0.0090885259106866
1682026283.1940386,-0.5561443624494546,-0.5667720152468544,9.680423841067382,-0.0032159513269621634,-0.011454098796836544,-0.0069784665376059
1682026283.2039676,-1.1436444708533895,-0.24516192728653213,9.925860176571724,-0.004143531363396578,-0.02093714995063255,0.0036325175186507
1682026283.2139857,-0.9238737230565366,0.14377096061877695,10.032485228135565,-0.01001082647815404,-0.03237571222233296,0.018705925542105
1682026283.2240288,-0.45885843492270995,0.3466046003635133,9.957366356174074,-0.016694780495764217,-0.03729684030573574,0.0340267220616229
1682026283.2339635,-0.26668927964682065,0.20532584795366002,10.004350907435507,-0.02206232821263222,-0.04063948675331154,0.0478848168730624
1682026283.2439392,-0.29639196713585947,-0.18735996569158697,10.042874265195048,-0.024114470426754995,-0.04522869966928844,0.0516455309569724
1682026283.2540262,0.26986020971060526,-0.3124162771524803,9.837429355233033,-0.02208693506660776,-0.04225103250056722,0.0570191504537947
1682026283.2640564,0.029390587151630617,-0.3437467695186148,9.886352423594525,-0.02379875555875995,-0.041107723098692775,0.0502622561633475
1682026283.2740045,0.3163509650890993,-0.3283016865658681,9.741265611904392,-0.023883389496937128,-0.03584351560250149,0.0474436828970797
1682026283.28397,-0.036546841651446026,-0.2419192115772096,9.927762281987091,-0.02827785231467093,-0.037064390576090275,0.0409750068664439
1682026283.2939732,-0.10041169545970977,-0.6388370010499469,9.843208445818911,-0.025674097004689228,-0.039512659352110784,0.0357686156511195
1682026283.3039749,0.08212643274024341,-0.5914011896829798,9.748062931331482,-0.025877354115331458,-0.03822786687217246,0.0275284336984046
1682026283.314337,-0.23732223795656662,-0.3942772695781726,10.010039041223866,-0.02920484493280106,-0.04522626193603787,0.0230531344294436
1682026283.324029,0.14236554175081692,-0.6878625626718534,9.764473678352916,-0.029504270489653133,-0.043912393820511535,0.0132125435501225
1682026283.3340456,0.08184502184858015,-0.4846667730115798,9.877226012868986,-0.030896458406783355,-0.04658202994966159,0.0082251649454124
1682026283.3440454,0.44849814104969254,-0.6891427923578689,9.7311436149909,-0.030129443641690505,-0.043013713898441164,0.0030308643925823
1682026283.3540194,0.46217863210512566,-0.8638685379970934,9.730548973749277,-0.02773905742627655,-0.03938295767405632,-0.0048211783997826
1682026283.3640163,0.631941443469178,-0.8462479119845184,9.76118778638426,-0.02427747158798366,-0.03569497069758199,-0.0037272529572359
1682026283.379939,0.7561392282186248,-0.8244471292329218,9.583859326098047,-0.01713169809349753,-0.02441693710551147,-0.003298724897962
1682026283.384101,1.91673907163406,-0.7232848581156905,9.06149962215965,-0.01490694679415042,-0.012665893179553358,0.0019669958436284
1682026283.3940015,0.8552168546895285,-0.973047788899925,9.454915305894856,-0.007908701041081033,-0.002368405745616,0.0060859412059076
1682026283.4039786,0.8189152394763076,-1.2043148683557579,9.546618848963837,-0.002464546648978836,0.009733958362269738,0.0069598766147978
1682026283.413987,0.8482539160039164,-1.1576299114637314,9.52669182313348,0.005405443152888325,0.02185822430105684,0.0140001565322168
1682026283.424011,0.6794883782636715,-1.4006219276439358,9.62444891497524,0.01458346785997192,0.032390862499486105,0.0174208568513281
1682026283.4339976,0.5204837075803835,-1.3809456668629054,9.57404117759622,0.020350271356525347,0.04358495046604042,0.0127001121744402
1682026283.4453063,0.5246772519105847,-1.1423432380825858,9.591074968246149,0.025249749867446457,0.0544674044217317,0.0166141033276804
1682026283.453973,0.29876678604699086,-1.4187517494252144,9.469529413702466,0.032285582904186066,0.062119117210949974,0.01580978334992
1682026283.4645002,0.013241704697161766,-1.2600451370774377,9.552743966207911,0.03769040877185429,0.06788005458115322,0.0144848018988855
1682026283.4746926,-0.03620889540496519,-1.0605856902149098,9.506105017556145,0.04281757939242897,0.07295711732274052,0.0189958499848731
1682026283.48403,-1.9198072480610018,-1.0208900899115514,9.427566108329454,0.05085713442676148,0.058045691936007504,0.0180221745848544
1682026283.4939775,-1.7604644653749024,0.23222559502443677,10.485355265784337,0.03817448095293853,0.02276441175329407,0.0235633166611083
1682026283.5039794,-0.2558516000303949,0.6881430271237281,9.687023836308557,0.030708939811244805,0.011450147001893462,0.0451798202574141
1682026283.513976,-2.085342548329859,1.175596116730819,10.675288573242266,0.01437792694269923,-0.03047455922211321,0.0640074560522921
1682026283.5240412,-0.7406156536678956,1.0682531037287077,10.68128287063713,0.0021159087496434104,-0.06354250362392297,0.0674234802007563
1682026283.5341249,0.5850034567468588,1.0790542046717286,10.641511285599194,-0.012904069374308123,-0.08189555493996041,0.074926132905472
1682026283.5440814,0.661201329304932,0.4052684379513784,10.430464974756296,-0.014941542811535256,-0.09648004951336708,0.0749673122644312
1682026283.5540311,1.3366995130945525,0.12680405307217493,10.67192468455417,-0.019468957226126283,-0.1090406302772166,0.0685635382413752
1682026283.5639815,2.9547156231318565,-0.4677693284134007,9.787199599569071,-0.012158098345420882,-0.09849391171086105,0.0605579527199156
1682026283.5739996,3.171978940709848,-0.5710899320481271,9.511500765044465,-0.006764134827304134,-0.0799721563648289,0.0484640287339575
1682026283.5839932,3.9594074680294273,-0.29983727956313827,9.410818182413653,-0.006523338637671616,-0.052575622087519244,0.0344903493404276
1682026283.5939994,4.678348464477723,-0.719002441685145,9.025102062577325,-0.005112292758919081,-0.010801977792362218,0.0235587215155251
1682026283.6040273,4.356647080150495,-0.883309931111128,8.853544871518016,2.9004721463309856e-05,0.031135322816228852,0.0170060653343685
1682026283.6139755,3.848088053620121,-1.2571153475933199,9.168309344376778,0.003547111120389394,0.06601906226546929,0.0108204908773191
1682026283.624051,3.215824337067313,-1.1393454075188976,8.711288394137195,0.0061033109130026976,0.1010709066122131,0.0172075513854511
1682026283.6340024,1.7918332041893745,-1.6790611155651478,8.813085321842953,0.01476354125300591,0.1207175145806214,0.0245841281592734
1682026283.6440692,-0.11653707065120006,-1.6843388172608331,9.032799679758295,0.02675735533870888,0.11797539002089899,0.0345176519930251
1682026283.6540678,-2.308311732512569,-0.821164622881233,9.805128737320963,0.030212757437536274,0.08577337890249166,0.0426871093094237
1682026283.6639912,-3.6027508503550125,0.4292099999094239,10.887490282859144,0.01861285567803463,0.03371563857603036,0.0420125300168879
1682026283.6740437,-4.247477445776319,1.1519152241843849,11.443602889729226,-0.006115569646922433,-0.023136469718285053,0.0367446640610583
1682026283.6840909,-2.1934819495302973,0.9313328279288915,11.156440983438793,-0.022211209817881723,-0.05313167446961233,0.0318555278807766
1682026283.694078,-1.0105479355099491,0.3613927239835229,10.545499748986813,-0.029432166010665912,-0.06342433172433733,0.0202442767202742
1682026283.7040472,0.9641347147428481,0.3264679524814263,9.702054948657725,-0.03188276891858994,-0.04207281452978082,0.0126744197785742
1682026283.7141044,0.093157004934049,0.2822819720025271,9.509682841625187,-0.03347465155786314,-0.026992223364922647,0.0035039200318865
1682026283.7240462,-0.211060955739675,-0.17425590443784983,9.383631662739601,-0.03286858784339318,-0.012938882618001678,-0.0097691308602802
1682026283.7363555,-1.1531801935147974,-0.5479691880236282,9.565920351198836,-0.02770865195407307,-0.01328054975785687,-0.0100956143707148
1682026283.7441185,-1.5642617079454326,-1.2840386252751337,9.68830631076463,-0.019610167551618762,-0.020796121699717778,-0.007113749523472
1682026283.7540302,-1.1766338939381156,-1.908128067792121,9.22471140107835,-0.0025909384150767413,-0.025976774425819193,-0.0026543246477953
1682026283.7641037,-0.617936698799255,-1.7410876108841928,9.137499175131099,0.007571729895885837,-0.025760537197278232,0.0091040456771739
1682026283.7741458,-0.7113832862505659,-2.5800141151496905,9.068636606224596,0.02500793751968382,-0.027647881318780786,0.0126279309496172
1682026283.7839987,-0.5860917238117678,-2.6695771612172536,9.018702898459535,0.043605586876940314,-0.02973364435810622,0.0227859659224637
1682026283.794031,-0.6150869064911826,-2.245410525765258,9.108005646694549,0.05905673498896919,-0.031122296585466176,0.0296350872248299
1682026283.804033,-1.439372249144582,-2.0256285855009577,9.476624341477084,0.06848844273242616,-0.04343276715773052,0.0285209572046883
1682026283.8141806,-0.8471489891529346,-1.0706646982548083,9.590333812828582,0.06602888987163884,-0.04737238738430176,0.0268015010386593
1682026283.825017,-1.2565017305613306,-1.3179253884285445,9.656113507757231,0.07387268197813736,-0.05847820573319909,0.0231688344955332
1682026283.8340385,-0.969221269127452,-0.6302389331941716,9.890017558303077,0.07364919499261824,-0.06713885434439416,0.0165678994834311
1682026283.848179,-0.46548873213022385,0.057911178228245964,9.660767641747025,0.06895015305116847,-0.07069581869419143,0.0114070620491989
1682026283.861684,-0.083351647175125,0.5746826266302786,9.714585752086995,0.05861450367766248,-0.06963923458282799,0.0036396549420319
1682026283.8642771,1.6190094430093027,2.349853493438558,9.255258329992309,0.04628308507994508,-0.0584442372419244,-0.0031034111872426
1682026283.8740728,0.15355692289713432,1.139884098733893,9.813132776685984,0.03285711676836653,-0.05152885630039483,-0.0048709981039277
1682026283.8840926,-0.17080908707330772,0.5803722939181728,9.915074439092525,0.029290792135795662,-0.04734675429205135,-0.0050846351206414
1682026283.8940432,-0.7781439804493915,0.2830439917285506,9.968560065800105,0.02748680579980378,-0.05100422674239206,0.0009743084536753
1682026283.9040637,-1.0784690098913983,0.4212182745817911,10.052639074710912,0.02259183228279244,-0.05739443507158452,0.0081750909902043
1682026283.9139905,-1.778784856710949,0.571277638112978,10.5003521013999,0.0129420791867689,-0.07477066004279412,0.0174320066451914
1682026283.9240816,-1.383093775560576,0.2621404250982411,10.374860704973306,0.007753405476124195,-0.08390486210584858,0.0264225309818871
1682026283.934038,-1.629510489549769,0.4130306178634738,10.563963403836098,-0.003120861113337568,-0.09492789829500892,0.0282708803295977
1682026283.944211,-1.3934873498574394,-0.14167644680041655,10.46347287052482,-0.009857373700725768,-0.10631223195973595,0.0296357577770836
1682026283.954215,-0.4528724519711679,-0.7543408223644279,9.835859394066185,-0.005319201077688122,-0.1055225105280748,0.0363708945095427
1682026283.9640486,-0.36416561265273406,-1.5330714699467494,9.340521516685657,0.006613574517580188,-0.10367396746553818,0.0344869406998046
1682026283.97408,0.1051960827212987,-1.5735884493514338,9.008576475773413,0.020155960155020962,-0.0967794324660858,0.0300687147408612
1682026283.9840162,0.4981942009904355,-1.1000793537720577,8.974570381293535,0.028363402936093074,-0.08645471647061174,0.031959990608681
1682026283.9941144,0.6707041013111372,-1.6945625700254585,9.092181056587176,0.03706868915491174,-0.07168005793615037,0.0269133864074833
1682026284.004021,0.5730433083333218,-1.9964534187806326,9.340659137325234,0.05355049064340193,-0.06311400345680042,0.0304068537533171
1682026284.014025,0.7204393925415067,-2.4559416034834336,9.322177057483184,0.07286186301853857,-0.04774092712278326,0.0304613640636094
1682026284.0240312,-0.18713888995652253,-1.8537619709774216,9.91355741124096,0.08373592295512118,-0.04667067079351083,0.0301020579516776
1682026284.0340855,-0.1271076996329762,-1.4165904433778616,9.926341137138408,0.09132860363580583,-0.04484672988906595,0.0331870639800913
1682026284.0440063,-0.18831492720801002,-0.8232416211637427,10.062692653142811,0.09324735927008061,-0.04210025452492491,0.0309644682437069
1682026284.0540133,-0.08938850808189464,0.5154702167497698,10.522516570848977,0.07926015151017776,-0.03860015416311113,0.0243686536431201
1682026284.0640578,0.18942436881613461,1.2977003282902622,10.685061803154449,0.057540476163442426,-0.028835054322118067,0.0164020886748917
1682026284.0740228,0.20279644790272672,0.9633901720380075,10.663893051951884,0.04337475783375977,-0.01611687539600137,-0.0004415089625976
1682026284.084013,-0.1792385980200433,0.6069818390503884,10.39164839201447,0.03563385165552903,-0.006739317663742377,-0.01748030948342
1682026284.0940535,-0.19617040429088062,0.705578876581669,10.105654897203731,0.030940164196374628,0.0018711887632178043,-0.0224358973920456
1682026284.104046,-0.8142487689261343,0.4473441583875548,9.837458416108408,0.03032026363527727,0.002278018854002535,-0.0269114648819081
1682026284.1140196,-0.9776960241853141,0.5339777304451071,9.708239679902208,0.025970129438224902,0.0012347241627897565,-0.0278492489725462
1682026284.12411,-1.221531997279432,0.9535483273443368,9.932305109210024,0.013801800918242997,-0.008150123940969048,-0.0251253632724396
1682026284.1340876,-1.2709421031127095,0.3397655541793928,9.826005303165434,0.007603477125317104,-0.0199092273665097,-0.0212887463986985
1682026284.1440408,-1.1041277698071792,0.11571911743402502,10.018970919321125,-0.00014374451257424237,-0.033919876609862495,-0.0163724379509798
1682026284.154085,-0.5188171175063321,-0.6892719502363162,9.75049257767877,0.0036921099972836353,-0.040976244259224165,-0.0132460905134789
1682026284.1641777,0.09042339220849639,-0.8039475324333194,9.88994505599475,0.007864536462995295,-0.04353963151872861,-0.0095854991942755
1682026284.1740198,0.7184439838847101,-0.4476845024153905,9.882746284464323,0.00846985024331256,-0.041687426751943216,-0.0013772669609747
1682026284.184013,1.3475057122332068,-0.7978496513369473,9.770779369195571,0.010696965720958103,-0.03222367660403999,6.72236654795965e-05
1682026284.1940196,1.7298014497613146,-0.9287905246486798,9.427655111596316,0.016059175575392416,-0.01642656234499334,0.0013242346629854
1682026284.204023,1.4073155177277172,-0.942018355960447,9.434984388564663,0.02089828952084079,-0.0041547578073782565,0.0041717555012442
1682026284.2140226,0.9485150929288272,-1.3164867769921256,9.346645531167747,0.031127178974703455,0.0013134329752245476,0.0035045510029308
1682026284.2240462,0.7614297774950044,-1.0062818786783945,9.392341264561285,0.03940818385088655,0.005075703387479512,0.0054530562937148
1682026284.234122,0.5095837607492827,-0.5129508880933668,9.668414004798574,0.03978142651276833,0.005687592622662684,0.0096257083222158
1682026284.2440462,0.5576764723583112,-0.8520381766298495,9.825070743922037,0.0425929307831148,0.006486598949474733,0.0103141373127587
1682026284.2540543,1.175699550539268,-0.8388257190612419,9.682325182226583,0.04882709326897885,0.014559311187276897,0.0186814783245213
1682026284.264151,1.4022975601286936,-1.179857561407788,9.672092309418527,0.05617817128204665,0.028628144688598915,0.0243489654838927
1682026284.274065,1.2505695353252932,-1.6051599889896864,9.407433761762588,0.07112505092214814,0.042032343226879564,0.0301350416719802
1682026284.2840605,0.7158503070509156,-1.4309759640068533,9.263820503157671,0.0866661735142105,0.05280038077786947,0.0346711861073859
1682026284.294045,-0.5796309061193886,-0.3399623711974335,9.66666504851885,0.08756007429214228,0.049061961203138285,0.0370924944162257
1682026284.304052,-1.5404135894292361,0.832270658968707,10.092577560759414,0.07248987850805688,0.03344715086012519,0.0294059837341197
1682026284.3140426,-1.7189838597396683,0.9850216577520156,10.17112787193113,0.05706571638625746,0.016590299852641766,0.018708970966924
1682026284.3240757,-1.579903916603359,1.2725347630635298,10.251347110067467,0.03757605189433863,0.0011128732404680995,0.0091049267083294
1682026284.3341053,-0.9739313669460424,0.29827088397346757,9.990759992801035,0.033429087229820034,-0.0054140861823661875,-0.0006842910207919
1682026284.344055,-0.36510595824194264,0.43611268485341914,9.777109354748555,0.03019924597266218,-0.002731757739491538,-0.0085431722819916
1682026284.3540523,-0.43806727352151775,0.6032734332770789,9.909271123867143,0.02492056992780354,0.0012147584783023819,-0.0124221447751037
1682026284.3640378,-0.6553686902233938,0.8195976340469834,10.16583799612568,0.017188950626278655,0.001569678731951567,-0.0110444113507978
1682026284.3740492,-0.4399706909390677,0.12385812504117238,10.388644999791333,0.014075733032289903,0.00540850948016675,-0.0051160383865348
1682026284.384065,-0.7869494939518665,-0.6246826580035403,10.331202440051523,0.01999610034013438,0.005060401934274686,-0.0023404805816821
1682026284.394048,-0.31388333555380454,-0.18672310644435697,10.18052572583884,0.01922751629833188,0.009563638840983274,0.0067864671453722
1682026284.4040482,-0.37594781440071134,-0.044182539701394775,9.975385134674067,0.016575495079124935,0.013810757041801886,0.0107237925857194
1682026284.4141252,-0.21007911006516197,0.07343756556341116,9.917590366901191,0.008677934763124659,0.019713609437107225,0.0110454108670242
1682026284.4240844,-0.6102871602361722,-0.1853774215703086,9.684496521598245,0.005214278763012579,0.01947188292232336,0.0066309996053464
1682026284.4340675,-0.8941862127494908,-0.148652575188501,9.718046205177458,0.0027492014802473616,0.012479878088489027,-0.0006190744590125
1682026284.4440906,-0.9574405700250328,0.23312203753351726,9.581100008505588,-0.0027999222627035714,0.005416433560709831,-0.0112606644526235
1682026284.4540355,-0.7595252172254986,0.8031873643084532,9.862995894581964,-0.016413542371533106,0.0005596975909070608,-0.0226124016463868
1682026284.464135,-0.7307212618013678,0.7313474628022023,9.956182805927897,-0.027601131763098655,-0.002374590352949392,-0.0330824864924065
1682026284.474095,-0.8697850710242526,0.7062896086840456,10.322483764928242,-0.03622089120115388,-0.011422020359326011,-0.035200898897659
1682026284.4841032,-0.34563674858673854,0.9426874376911357,10.356922741530731,-0.04520815248464515,-0.014818234910757982,-0.0307001782477013
1682026284.4941616,-0.007063434746273437,0.7345751500503835,10.21890530972128,-0.05226363323396395,-0.013144492809198292,-0.0251970341324917
1682026284.5040462,0.422961180503025,0.9669046420907343,10.120175776318332,-0.06155387696413605,-0.004985139151000005,-0.0140576040268055
1682026284.5141273,0.2436376215965136,1.0195351380340847,10.194176666016835,-0.07275664609249162,0.0012472245613271214,-0.0042047108419351
1682026284.524214,-0.23605143029740566,0.8287406364383628,10.141947832311736,-0.08329848542817324,0.00328162954084062,-0.0051556833915523
1682026284.5340626,-1.0929737591554554,-0.2982163699791399,10.165301529649717,-0.08485229575490041,-0.0026376528324311447,-0.0220255212754122
1682026284.5440888,-1.1212488904357591,-0.7593555258820881,9.911017762396067,-0.0823062844874069,-0.010633480068416584,-0.0402498705208413
1682026284.5540807,-1.0219274134358352,-1.1086910112844535,9.827548445464394,-0.076349824741597,-0.020443720102871037,-0.0570330185711495
1682026284.5640595,-0.7400516919082986,-1.3974813129191295,9.515511534521455,-0.0673053680504896,-0.02445336574922799,-0.0736860683083645
1682026284.574164,-0.489362838263392,-1.300999460068228,9.520774159487287,-0.059818619644753775,-0.024063432785443466,-0.082540777874004
1682026284.5840676,-0.4612111268130565,-1.2188289834108328,9.80893630908051,-0.053492104157481124,-0.02696903439685837,-0.0805643325567357
1682026284.5940902,-0.7068499777444133,-1.405146919155806,9.839633826905466,-0.044504856481805403,-0.03248342366677158,-0.0757851650834195
1682026284.6040692,-0.7220526208271192,-1.3818633782175396,9.947312185629759,-0.03598481696395957,-0.04047578973868702,-0.0676942666888348
1682026284.6140902,-0.2865773382898916,-0.8193343754377425,9.555537956164065,-0.03145653056057873,-0.04135402981149913,-0.0544811798155419
1682026284.6240969,-0.5232877244729728,-0.1798626255534612,9.85244462026224,-0.0369637974708965,-0.05019225095517481,-0.0446937395155541
1682026284.6340828,-0.2241863457547432,-0.3592532404361249,9.579942993161891,-0.03861280618964143,-0.053831971985996326,-0.0342513708293549
1682026284.6440594,0.31613084751127,-0.5662104555669027,9.652486037277615,-0.036619562132078905,-0.054361945121056805,-0.0284882778197638
1682026284.6541388,2.1580752582925644,-0.7673353571164169,9.322279157612265,-0.03474269944981266,-0.024164686689775533,-0.0026475092291943
1682026284.6641033,1.9506664185878932,-1.5094134111834079,8.509256478354958,-0.017202690262709756,0.011824362178981234,0.0416417593240626
1682026284.6740742,1.4744537123152754,-2.691851917244593,8.486787408292514,0.018173173626118047,0.035473423087210645,0.0772281536936648
1682026284.684156,-0.08961094118831714,-2.6252473660720588,8.483372166077299,0.051924377272182715,0.03864441269589671,0.0864514732837565
1682026284.6940842,1.1495029766763334,-1.506700821021674,8.70157361664193,0.06280933332501694,0.06371529138626357,0.0981183746933825
1682026284.70407,-0.032353044023079466,-1.2168307159043672,8.604449791838164,0.07146124368675326,0.08125912942129757,0.1042954051971324
1682026284.714126,-0.9222974286660814,-2.1272539506562773,9.404341137100129,0.0823282408118308,0.08220167160452554,0.0964726010441668
1682026284.724239,-2.2200991454421795,-2.1692133452663613,9.497616329893392,0.09818779762105377,0.06905581242647722,0.0875966796755679
1682026284.734095,-2.370861259454572,-1.5937407248497741,10.128147227533667,0.10804869014679343,0.047742700287025056,0.0729626068949587
1682026284.7441266,-2.42697782446217,-0.04456472685075511,10.38739142384448,0.09791858335489569,0.03066605071108614,0.05576793347596
1682026284.7541418,-1.276397296133367,0.7611212230925457,10.764604346551362,0.07943435380388175,0.023068761973457714,0.0354813547909148
1682026284.76418,-0.5341525764331696,0.2773824335863471,10.136908450040826,0.06442514502960352,0.042444260598702425,0.0013710405490715
1682026284.7740958,-1.9359550050336802,-0.5796539939629102,10.155752038105552,0.06388377655484156,0.043136909837908605,-0.0364133728563897
1682026284.7843862,-1.3909432354629896,-0.20958416801839425,9.955292612547249,0.0654105407637097,0.052056231164631726,-0.0652897184610478
1682026284.7940807,-1.7150551394867846,0.35903070151440025,9.903552760267516,0.06251685649372206,0.05971648204738035,-0.0846663689136616
1682026284.8040743,-2.1813548900686985,0.9101768649341598,9.855832497772447,0.05025796409751943,0.06725584103497434,-0.105697778415691
1682026284.8140674,-3.1697047330545622,1.2727432332857902,10.078056573664668,0.03867060662113387,0.058254234876483034,-0.1139659186720959
1682026284.8242905,-3.2888215245167487,1.4819904753434217,9.82891489692348,0.022667359408558074,0.05328871571868919,-0.1172835579037777
1682026284.8341842,-4.447153875328759,1.4744295327816688,9.981957173384433,0.010873911511675473,0.032320541526751796,-0.1088043650508038
1682026284.8440807,-4.226346245771085,1.987821487947499,9.979766120241342,-0.009189988972073813,0.012000216212169014,-0.0964779904008023
1682026284.8540769,-4.476307699388422,1.7868197683563072,9.864840404897443,-0.027534101454397806,-0.011937013103978118,-0.0788335105300061
1682026284.8640995,-4.1133334749659065,1.4979728587719823,9.93294535056808,-0.04389530268924926,-0.0350809459024578,-0.05972830708028
1682026284.874224,-3.6793799119956203,0.9153653372579196,9.840966044477273,-0.05449710388706415,-0.054259263955448375,-0.0391425168037526
1682026284.884105,-2.908733205607033,0.36169212466160783,9.942578072874106,-0.061212562087339106,-0.06817969324312093,-0.018601470989
1682026284.899174,-2.349966556796373,-0.6631326453078668,10.005460239358312,-0.05952702391448838,-0.07970268966641161,-0.0069412276044599
1682026284.904141,-1.6920916750614274,-1.360158824388155,10.150645838895871,-0.05119151463881656,-0.08564582432622259,0.0025504460662491
1682026284.914194,-0.25650892717839,-1.6181481165847373,10.039226057573245,-0.0419973991023227,-0.0766562199531748,0.0038119378603883
1682026284.9241984,0.7936921006631636,-2.11503090689489,9.871383776471554,-0.0281193906813964,-0.05562463206349845,0.0074854773573465
1682026284.9342272,1.3978312576351584,-2.1188999142992118,9.612228601668658,-0.011316914348888787,-0.029156424120340665,0.0226562010228522
1682026284.944253,0.6118779646471405,-1.8491048655323379,9.511720145194078,0.0033194348568158197,-0.014869530977050197,0.0296217786252387
1682026284.9542394,-0.15870164021757807,-1.4010937339068892,9.515228271008267,0.012210639045196882,-0.011992568131412482,0.0190277589589245
1682026284.9641469,-0.027485003756423508,-0.7688746114646025,9.643558767194818,0.009425898500583105,-0.0069415452092202855,0.0110236020862944
1682026284.974179,-0.01682251441444832,-1.0151701649689837,9.529911570834052,0.014272881660309548,-0.0018661418238813748,0.0044629220954962
1682026284.984218,-0.012772761562025515,-0.7440807200880205,9.658944648729628,0.019625348478008887,0.0007718262697502297,0.0026428130675927
1682026284.9940977,0.10521347400730681,-0.1800173277323437,9.675215097693227,0.022930482313739294,0.004129412643541863,0.0064020437292643
1682026285.0041935,-0.09081813443965338,0.35728474890960804,9.974730726167204,0.01707465850527571,0.00375636981716266,0.0068742992460616
1682026285.014202,0.03242208824240212,0.5328678073896332,9.947234060956802,0.011287462545693282,0.004579550949685328,0.010095206658531
1682026285.0241573,0.015155968405178268,0.43248247610807994,9.956415429735939,0.005698306618775939,0.005274313934894653,0.0108843367650993
1682026285.0341964,-0.07875401298464133,0.44693104764082475,9.941241908572179,-0.0007851564704521209,0.004588433067929659,0.0112139802530296
1682026285.044128,0.010697569794517732,-0.022330094265999814,9.726935881691702,-2.8921622092460515e-05,0.005449022768420664,0.0092190845042355
1682026285.0540984,-0.033042669979897916,0.1043854571858801,9.786529163365383,-0.0032218941687920345,0.005595117387119718,0.0061251284658797
1682026285.064097,-0.022820275868684767,-0.38128027194325775,9.709580405104612,-0.0012850862932529167,0.00592554879116879,0.0005015026416518
1682026285.074133,0.027647254129768456,-0.301509621528876,9.758438738835434,-0.003981471633251164,0.0074700376805902115,-0.0055491355143598
1682026285.0841098,-0.014818316031515946,-0.7457112208208417,9.789472299075685,1.0624493880844558e-05,0.006390071715286547,-0.0105827705830447
1682026285.095509,0.06822157270106946,-0.5220659583544598,9.811148822999998,-0.0014382213364349534,0.008196071843538398,-0.0153023501753918
1682026285.1041875,0.11730160108942841,-0.8703043700680243,9.760612812592509,0.004183204789374112,0.00797740663204152,-0.0154223231494538
1682026285.114893,0.17805831319398338,-0.5859074040267425,9.832264809067404,0.005499796998608926,0.00863715344966159,-0.0149301992625109
1682026285.124138,0.17192623070353527,-0.5898447651795042,9.820017297412981,0.006981758251142872,0.007662030981585512,-0.0157891450345627
1682026285.1354818,0.04802124481194616,-0.6569030286324289,9.80230206528199,0.010947782195514403,0.0028242863919290375,-0.0208356337517611
1682026285.1452963,-0.05115721050126194,-0.5469733200593709,9.937779428789142,0.010948202159612671,-0.0048734797880650525,-0.032937818568956
1682026285.1551263,0.46816631170619066,-0.32142964484455955,9.83293197229251,0.008922221589829488,-0.006602912069705403,-0.0437932772457711
1682026285.1641245,0.940243062426516,-0.5739672703268255,9.67785553727193,0.012265357323173708,-0.00262301171796813,-0.0561534812569729
1682026285.1741178,1.1013250456266759,-0.2483226333882169,9.7167793997919,0.011140334403465698,0.002698296188005268,-0.0655139213323704
1682026285.1841211,1.4737877120868,-0.026099145636215727,9.622711227390628,0.009735796094381454,0.01235896904834386,-0.0647270431637875
1682026285.1941347,1.1330131636593055,0.028837751866797,9.69644500902967,0.005099843241628184,0.018491091914166178,-0.0636443545937649
1682026285.2042005,1.1020131022687092,0.02544696008119032,9.633925088350198,0.004461565639685089,0.023003308978919036,-0.0535404471576325
1682026285.2141523,0.8938259139870756,0.19638654621864193,9.733588358951478,0.0016292458319893115,0.02501661597846339,-0.0426607964456192
1682026285.234127,1.1118584692653126,0.11922174452668768,9.727933015486485,-0.0009585371984793241,0.04469138709623722,-0.0187185810774676
1682026285.2441714,1.0857793959603808,-0.08617064871003537,9.611839043382561,-0.004275670492035296,0.06261371639227678,-0.0189053056657425
1682026285.2541308,0.2458589244826567,-0.17669413373904666,9.865720193889361,-0.005343841348543201,0.07023805659542164,-0.024805901002895
1682026285.264137,-0.23458144857350402,-0.6447678668635672,9.685427578596821,-0.0027676318920338526,0.08099841544715794,-0.0406091561436764
1682026285.2741802,-1.1523483268687085,-0.6801099159358899,9.7661789282313,-0.0020164623771695834,0.08507840007882717,-0.0582394687354676
1682026285.2841153,-2.176712396016138,-0.8469052288609304,9.898508402952126,0.00042800129734550923,0.07673957520029315,-0.0744983753085248
1682026285.2941086,-2.734989128087925,-0.9177828417270902,9.966408469280548,0.0043160482268942285,0.06007674199210644,-0.0879027297616116
1682026285.3041544,-2.3741497817599497,-0.6209246598053049,9.794830829423919,0.006186232263952809,0.04943571598753465,-0.0932867130160443
1682026285.3141232,-2.1535280665104595,-0.3399947708643718,9.838152785474218,0.006190414964251192,0.038681998725122256,-0.0887690087676159
1682026285.3241806,-1.7982916196519152,-0.1821037779855919,9.787039138756672,0.0057153000564858615,0.032276032970588134,-0.080508170080196
1682026285.3341808,-1.80379470066831,-0.43145566915945516,9.869070825012084,0.0071984120814008856,0.02476153964091291,-0.0760146206140629
1682026285.344124,-1.5530938675360804,-0.2839073605490389,9.954401281495006,0.0070861050848504996,0.019047558697934692,-0.0690337395191304
1682026285.3541532,-1.3900341635601492,-0.6341561671636965,9.934753549704672,0.011885391239312875,0.01509238043196152,-0.0683516239643208
1682026285.3641956,-1.2569328239819144,-0.2507380163358908,10.053494086454513,0.011270520653141346,0.009569814746792263,-0.0636523416161648
1682026285.375536,-1.2535931072620208,-0.5861357586961862,10.012502978823107,0.0127458314807336,0.00257188970697648,-0.0710033675551526
1682026285.384333,-1.0722056556962265,-0.5801118164755156,10.06091314712102,0.013949743942681704,-0.004855564119909049,-0.0779160087823979
1682026285.3941684,-0.4542870630060454,-0.6996804249511726,9.80604694855033,0.016981022903522037,-0.005206690530970875,-0.0885526513576619
1682026285.4042466,-0.007873360087947848,-0.3832082895154341,9.786986511180128,0.01593722340825417,-0.0026888756424054967,-0.0947660108924023
1682026285.4141643,0.34244396845915853,-0.4866545377522361,9.605660374773082,0.019157324225293936,0.0026020438533015935,-0.0976085787534825
1682026285.4242606,0.3264095905725145,0.00013537728038407252,9.800287777441401,0.014654721683711142,0.004239561021371111,-0.0989925464511029
1682026285.4342122,0.4098996099691586,-0.03906612276999883,9.775546388742953,0.010208441469274993,0.005653062197749793,-0.1033069765091053
1682026285.4441772,0.926162775430212,0.11255569422795203,9.684899996711609,0.005721483664763243,0.012587192031431672,-0.0997663786530606
1682026285.470691,0.6228096595658791,-0.2921277185307188,9.734015465484466,0.005868131869525119,0.020901297171357625,-0.1019558882236592
1682026285.47476,0.8606834998216708,-0.263094960975114,9.600082553433142,0.006774457068482291,0.023788962076526088,-0.1004808520794026
1682026285.4798405,0.7588456505412821,-0.6461862322918461,9.495270950698796,0.00935085631849286,0.028130407325914528,-0.1038851192116848
1682026285.4842324,0.7301656210587866,0.2438852999597851,9.74454126271028,0.005394316989610193,0.03190530612948764,-0.1052030002594105
1682026285.494175,0.46900374571146364,-0.0768658513186693,9.695645080923697,0.0014219104710719388,0.0391074552017465,-0.1051187863469235
1682026285.5042496,0.28111054677433317,-0.31688425011263655,9.8333674329412,0.003047020989490819,0.042921679942603416,-0.1022973408818356
1682026285.514195,0.11589782790822227,-0.11648980599899576,9.637237844056028,0.001598295563206691,0.05356710290810569,-0.1055787628412358
1682026285.5242047,-0.5227797382024995,-0.4558614788791587,9.647297211343355,0.005247813860101349,0.0596448641097474,-0.1098651489138714
1682026285.5341394,-1.4257263711368966,-0.18602702590320153,9.81919381136821,0.0014642078623186582,0.05868157968010034,-0.1177616095066182
1682026285.5441625,-2.0038404991391103,-0.21295515252066108,9.900085999002735,0.0001803725340764591,0.050324021599150094,-0.1189541792392842
1682026285.5541444,-2.347716770090944,-0.20450654358311685,9.852537253972502,0.0014945044699874298,0.03841857471238727,-0.1184636181116215
1682026285.564162,-2.6091623331297242,-0.21818809702541897,10.025876747257774,-0.00030193990355618943,0.02160141185721351,-0.1237001543760411
1682026285.574492,-2.1349827183559693,-0.0633486785322352,9.938880297146262,-0.0015048873269128211,0.009939839077157146,-0.1232220655202977
1682026285.5841763,-1.5844475980278532,-0.22777719077295386,9.820847820968208,-0.003929290489301211,0.007794091508896104,-0.1227545117855183
1682026285.5941453,-1.805357050029243,-0.38749527662857186,9.932285220286264,-0.0023795677088167253,-0.0016960595280598562,-0.1189294582128636
1682026285.60414,-1.4724034614117214,-0.6556177161792218,9.796414419114047,0.000155040221599332,-0.005571550065188666,-0.120748897445213
1682026285.6141386,-1.5372002807803153,-0.5078339795849023,10.013878923406285,0.0030505471122732027,-0.016969270146884163,-0.1201454153180233
1682026285.6242266,-0.8816878123286205,-0.1783657456441268,10.039653723305358,-0.0028036087039018105,-0.020016008764084714,-0.1234306668758503
1682026285.634223,-0.43262501321416047,-0.4988589067960809,9.856291896901997,-0.0012911746483215904,-0.019867378706312017,-0.1211734464287869
1682026285.644219,-0.36560678442322936,-0.7169286719676974,9.801403763148718,0.001117548075566623,-0.019720340694404564,-0.1223235329508893
1682026285.6541438,-0.2266728614859313,-0.6111876137416357,9.840393353927306,0.0025235142406062534,-0.021009978448169837,-0.1258009498834721
1682026285.6641552,-0.00863504989996392,-0.6527460024222146,9.74633832071005,0.00591844929167886,-0.0215378635637954,-0.1295625841140858
1682026285.6741865,0.4369176409147285,-0.2145358839950324,9.812617043002241,0.0007984285966371656,-0.01649797940287451,-0.1329943811416737
1682026285.6841908,0.4740561496976607,-0.37691423809366764,9.76699772261267,-0.0006876586748918377,-0.011399727063814176,-0.1354172205448262
1682026285.6942053,0.2875705882863043,-0.612201692333183,9.777660763038826,0.0015974993899818676,-0.010524923186344681,-0.1422020619630925
1682026285.7042713,0.42289783151774707,-0.4397554601007087,9.751305187755834,0.0006152412239640206,-0.006602931319055916,-0.1528593724489323
1682026285.714133,0.40491156963000696,-0.18119264135770877,9.776224908923808,1.7050917771377326e-05,-0.005040963620571307,-0.159050492000591
1682026285.7242746,0.993733270965473,0.16767228384206084,9.522931796988859,-0.005548937647338155,0.00916065221501285,-0.1563714867353551
1682026285.7345006,0.3752266864215024,-0.2943386776396056,9.613497792215728,-0.005835886500197547,0.015999126807608278,-0.157804501605045
1682026285.7441711,-0.1048977306442186,-0.25700268336215926,9.77478405513545,-0.0035258543623200448,0.015517875722341987,-0.1554510867118947
1682026285.7541804,-0.018677837615547623,-0.06548541413300162,9.678522319383822,-0.0018380950420442564,0.017791784360635998,-0.1524443900108449
1682026285.7641878,-0.16077362642164908,0.038781412174410786,9.864904273987715,-0.004108621448816742,0.01995565045836252,-0.149747860980045
1682026285.7741418,-0.33349956121102486,-0.05993878813577632,9.841332625702208,-0.004823917358746706,0.02245980918799211,-0.1425983881473652
1682026285.7845883,-0.7841937766750962,-0.13395218498902775,9.928666023687066,-0.0030187176076315447,0.017643333997289287,-0.1344393169403187
1682026285.7943046,-0.9549884993620924,-0.31964387101290787,9.8571368199929,-0.0001285158040692256,0.012095852627079861,-0.1357589339733235
1682026285.804202,-0.7366305244756955,0.143218634736166,9.879424799986392,-0.002851763535821113,0.008844734265799228,-0.1348594849825017
1682026285.8143904,-0.762369076787754,0.04516494498357481,9.8549227835783,-0.0067473658276693375,0.007391875613224732,-0.1367277031660191
1682026285.8241918,-0.8153608189443963,-0.16230072049254002,9.723697894712405,-0.011391916183512152,0.008259018669043367,-0.1399229144573323
1682026285.8351717,-1.1396811811247713,-0.5664875442001447,9.80302372013656,-0.007708780079876164,0.0011421283840874822,-0.1413065170765034
1682026285.8442552,-1.075401287451568,-0.6465830831451119,9.873932164208918,-0.0036817925580764424,-0.0055005783323912195,-0.1436299806356541
1682026285.854839,-0.7029393670048941,-0.5234920051752211,9.918584522539316,-0.0041401881137414255,-0.006735964275686237,-0.1489329313755147
1682026285.8642242,-0.19530311344427786,-0.4792888927119752,9.940688854986062,-0.006169296496218694,-0.0025118347017434577,-0.1468162214279286
1682026285.8742158,-0.529576007499193,-1.2391733194063614,9.850203648484497,0.0029199556767802452,-0.0031109345858004725,-0.1476026451110951
1682026285.884751,-0.3185815590382463,-1.1961988944862436,9.82562155030742,0.00983384787364796,-0.002485643957696605,-0.1537743186473958
1682026285.8952744,-0.15319676847073105,-0.6276949235228716,9.77348371502971,0.01004600932169238,-0.00024654613569186805,-0.1594234382629506
1682026285.904291,0.12191183678486986,-0.3443477682714203,9.71262357583211,0.00800720808999007,0.003316925413421839,-0.1585393374681584
1682026285.9143546,0.10784389538631571,-0.3028340240853234,9.575570971483286,0.00231571384599766,0.01012947953017379,-0.1598897552013508
1682026285.9242327,-0.09946095796082151,-0.6947749359187789,9.714090259491135,0.005455231320385807,0.010052471209534645,-0.1592568879842869
1682026285.9342198,-0.14283200057274045,-0.8246842658425081,9.651764259606493,0.011501142829702795,0.011087215504304962,-0.1665717637062184
1682026285.947807,0.20995328139908548,-0.10133189694318336,9.852450307700522,0.007534464688760502,0.016078760564843208,-0.1658479099989049
1682026285.954244,0.500711816578132,0.023372446680260176,9.710781352126242,0.004653522293714786,0.023042678356167492,-0.1624479120493046
1682026285.9665952,0.07624117073774309,-0.30450497044601005,9.778577104168276,0.0037790985435638092,0.02878184336847496,-0.1598146235466115
1682026285.9802113,-0.24962906242036623,-0.36369253089791653,9.836987252750946,0.007115651655577492,0.02698336402260111,-0.1596561944007985
1682026285.9893308,-0.2346949304246257,-0.22768572775180437,9.712762382414281,0.010521858042696158,0.026892459214186492,-0.1608823066473118
1682026285.9941766,0.17750820989764698,0.522425868213318,9.782271242596188,0.004583926969344249,0.031083519840362558,-0.1608728444099537
1682026286.0042272,-0.1310544547096001,0.2731390994798908,9.720600424832009,-0.0006209405669845933,0.03461279762878062,-0.155375090789806
1682026286.0141735,-0.4202725785839774,-0.18704656710370132,9.806363782712218,-1.9145540156941928e-05,0.03289445319617161,-0.1563760464906804
1682026286.0242643,-0.40343908842499543,0.13099218910754587,9.830478821556968,-0.0024737995134551135,0.029980397951189616,-0.1559654002905003
1682026286.034255,0.09901481757536594,0.16230249657207466,9.71889480533221,-0.005577923106665852,0.03615000689019656,-0.1510662710189931
1682026286.0441828,-0.2826773735292098,0.09601856524273926,9.830696628593536,-0.00892805348667408,0.03688874169296387,-0.1459374999523274
1682026286.0541975,-0.4077807978332502,-0.17609716292671404,9.742991322880114,-0.007364089110739596,0.03637573984137107,-0.140063715529453
1682026286.0642228,-0.5839734948994398,-0.013677919360754852,9.85345547710278,-0.010136136048862703,0.033650671456290214,-0.1415358757495991
1682026286.0741932,-0.5106184140232284,0.17561868074203277,9.86807735522456,-0.016481347783419836,0.03232454440470145,-0.1440561687469594
1682026286.084197,-0.40760234373688453,-0.14459278168219664,9.856120912703858,-0.017384698429217027,0.031401545456777744,-0.1431298231601826
1682026286.0943124,-0.3442039991991467,-0.29792188820383586,9.740125666335873,-0.016258813447467546,0.03393064430275905,-0.1380917852640263
1682026286.1042151,-0.8999083247422494,-0.43346314986672074,9.982566281701212,-0.016184533818946897,0.027211796599213956,-0.1406315838813893
1682026286.1142695,-0.2060340685088449,-0.2778627094425556,9.699806472556267,-0.013874336323027281,0.03153814626592269,-0.1397715037584416
1682026286.1245396,-0.5584420448725108,-0.11073236023050312,10.009595248827063,-0.01976428779820964,0.03092051848311369,-0.1425752466440312
1682026286.1343305,-0.19209227797170206,-0.4408865406117482,9.714204956877449,-0.019007700085054938,0.038687020606209065,-0.1405025547266118
1682026286.1442063,-0.9881006530705515,-0.42888683569939146,9.896061371134966,-0.019901961826868576,0.0345574668821203,-0.1383512442827336
1682026286.154201,-1.2717974101953786,-0.8708016537514026,9.847536244738176,-0.013198842419767924,0.024499226940599028,-0.1421793227911107
1682026286.1642113,-1.1582293163642297,-0.6371159560587142,9.861865995279656,-0.010102185864602167,0.015494172875738151,-0.1458371853351704
1682026286.174207,-0.5722148656432402,-0.3594767224480551,9.807405848162743,-0.013137668139833915,0.01629259325196948,-0.1498802130937687
1682026286.1842046,-0.5117835187944374,-0.541114539280087,9.684088477870409,-0.012454813217730372,0.018086180781670746,-0.1502362018346898
1682026286.1942134,-0.6223088703597496,-0.4487717976225974,9.721863325328094,-0.012635210636639265,0.01782422720240697,-0.1500494008779637
1682026286.2042017,-0.8312291378887918,-0.5406221862549562,9.747856110158652,-0.010633236717855613,0.012866063911327172,-0.1516087477922551
1682026286.214202,-0.6512957347362003,-0.40201824623396315,9.816179663630091,-0.012340460824413315,0.010734341170171205,-0.156361875486385
1682026286.2242358,-0.19689149500008654,-0.326107611128704,9.76072969908799,-0.014141770966043674,0.014958951561799574,-0.1530754988908879
1682026286.2342064,-0.12508290866221816,-0.3657444018283984,9.691845437914367,-0.014429960250044541,0.02123686029947263,-0.1497158532858006
1682026286.2450542,-0.588223384408145,-0.5841235422463587,9.845169066876952,-0.012627897874587792,0.018870648228137627,-0.14759371931554
1682026286.255335,-0.4399750003155687,-0.4926814146819003,9.775531288952463,-0.010165013408744058,0.01779716393534323,-0.1477393036604039
1682026286.264228,-0.083823922589483,-0.10003046957674375,9.80213596674644,-0.014520569117439968,0.02142306496931282,-0.1464529907226674
1682026286.2741885,-0.059640303226029825,-0.42184278950308407,9.726504515954183,-0.013315492410061016,0.02589374062551801,-0.1443178182363621
1682026286.284191,-0.2551506967617781,-0.5531897252671258,9.70439145740437,-0.010781545176843588,0.030763722499223174,-0.1436283713102452
1682026286.2942374,-0.723018912574965,-0.5636908052833763,9.908691223882606,-0.0072206958345982855,0.02589661037097671,-0.14237090702058
1682026286.3042133,-0.8432332076124786,-0.7436115773457088,9.876960131736341,-0.0012572626423970582,0.02140797921136596,-0.144959447336208
1682026286.3142543,-0.5528059624024837,-0.10340846644520882,10.11639965142024,-0.00437471954160026,0.01702560462436842,-0.1386791443348042
1682026286.324268,-0.11781482642230182,-0.42223063215557893,9.739311463292493,-0.0017294662715287665,0.02217740127922344,-0.1294098025083653
1682026286.3342428,-0.6964060719990678,-0.6135249130559887,9.99236234020848,-0.0008082525063621486,0.01699019589079612,-0.1282665407180897
1682026286.3442402,-0.29579154178886957,-0.8084589147852713,9.737359881036182,0.006158697303323398,0.017651736528265054,-0.1263909911632649
1682026286.3542223,-0.5435165538882426,-0.8133111710569736,9.89326742622465,0.01023979388641073,0.014286303338372643,-0.1334671055793873
1682026286.3642223,0.11096568173548275,-0.33153042338101263,9.801566333950868,0.007479446162934939,0.021235264409157264,-0.1332055007934681
1682026286.37426,-0.05762282420400973,-0.7828315001707042,9.598743061832053,0.013075826109961474,0.02818016659974732,-0.1327092623233906
1682026286.384235,-0.7724464152913849,-0.6476473682451804,9.971122463720555,0.015532745429665335,0.021500649383141335,-0.1345325684070698
1682026286.3942668,-0.512005653801719,-0.4749753019053907,9.795996461534624,0.016668192528472958,0.019732152783337738,-0.140900147509586
1682026286.40424,-0.10843749730449158,-0.2492194408306488,9.79404759545297,0.013137835319214457,0.02365920288683891,-0.1457945978164784
1682026286.4142938,-0.1029132224003837,-0.08032218014734827,9.940508786435228,0.004811983072115019,0.026564551461029397,-0.1471541648626439
1682026286.4243314,-0.02098138761508816,-0.7706236834210622,9.537857061227777,0.010197052692440537,0.03394311599717906,-0.1437976037979237
1682026286.4342952,-0.48028352449228795,-0.8682459709439831,9.615220933670905,0.01828517093470159,0.033299392394989406,-0.1428150361299626
1682026286.4442866,-0.7458756781336742,-0.18824838622653461,9.817821258884862,0.018457916362229338,0.026985340584499876,-0.1403460329294316
1682026286.454219,-0.4938337369852194,0.026372854676265732,9.914746235252476,0.0116682810709597,0.025013578566674324,-0.1419688885927311
1682026286.464337,-0.02852638485311727,-0.1545527470150844,9.602675056989334,0.011158042888208918,0.03170898372416107,-0.136132640194904
1682026286.4742577,-0.36572721740204195,-0.1510663242710423,9.778982788710591,0.007859484238077382,0.0321938624816793,-0.1312038427114598
1682026286.4842415,-0.46308029017110247,-0.3795944680773223,9.785403496178967,0.006500950744245586,0.03297708998607215,-0.1347871547460667
1682026286.4942176,-0.6173949611102291,-0.3525505051796817,9.719065823801234,0.008831583736084657,0.030478301823559466,-0.1389466201782338
1682026286.504223,-0.12521557365943253,0.1858805980475657,9.756217190070885,0.00039186250364175936,0.0363728435201814,-0.142943826866161
1682026286.5153804,-0.2676230341060579,-0.08426382902683363,9.64523205886033,-0.005455513691285568,0.04242917772819614,-0.1434135114669911
1682026286.524245,-0.783857747988534,-0.8919385804334892,9.677868937291382,0.0014738216418208516,0.04061831014997908,-0.1430536633253209
1682026286.534406,-1.1581474887109895,-0.732971074835817,9.766292420873901,0.008698535366703807,0.033847170894381835,-0.1421170210361592
1682026286.544269,-1.2890551500682121,-0.2226583237221497,10.045938976270296,0.00633637642473934,0.02414325278523111,-0.140629944753658
1682026286.5542688,-1.1739608214857533,-0.26786109569421723,9.939764522804978,0.009259402968683807,0.015596192899502523,-0.1332855945348851
1682026286.5643342,-0.8996969471668188,-0.19555637863897452,9.961331518349311,0.008066437953606948,0.010834009584290767,-0.1220010867238156
1682026286.5743177,-0.8385435998044266,-0.6333199599101319,9.835039272569285,0.012059941090449736,0.0072042072106396505,-0.1218546977162472
1682026286.5843313,-0.8001609581667213,-0.6009869546512687,9.926846649177296,0.013740456482022136,0.0013564642323616524,-0.1263316249370686
1682026286.5942805,-0.2762731456515154,-0.5170453732939376,9.749560505794975,0.013636309540344019,0.005191523658408293,-0.1326593583345524
1682026286.6044302,-0.1036697135710003,-0.5011955784892501,9.629876569690223,0.011603283474943927,0.01400630482445551,-0.1374051844596974
1682026286.614251,-0.6185406858166409,-0.4933846274314722,9.72748904253437,0.012263022250614536,0.013263535843679878,-0.1372764980316273
1682026286.6243064,-0.856990842404944,-0.5788893434836544,9.830483091921744,0.012770719174242141,0.008202305637326933,-0.1428510522365681
1682026286.6343558,-0.9116189575893087,-0.5051120490085478,9.957289223276982,0.012973688846020398,0.00012108189455583024,-0.1488647585630528
1682026286.6447415,-0.08651561651659918,-0.39450768302563793,9.762335857981942,0.011628981781025248,0.0040577769865232476,-0.1497964089632145
1682026286.654255,0.04739001673802241,-0.3378778152789741,9.75273829397663,0.008995541374047239,0.009710443075310864,-0.1474680429220311
1682026286.6642687,-0.15601478064041008,-0.595093695214114,9.67806397541678,0.009539688283855848,0.012765449853581906,-0.1451700901508442
1682026286.6742842,-0.38065169410905203,-0.672501248902586,9.754859690220325,0.010262901597818945,0.011578172883569595,-0.15100869293214
1682026286.6842172,-0.008974123969607365,-0.3695174808293173,9.588835764591567,0.01116532263318895,0.01606755707585235,-0.1472281938314549
1682026286.6942625,-0.08586371449815022,-0.4090234548570818,9.767006969917633,0.009098686308688757,0.02057980201529458,-0.1441886549711339
1682026286.704246,-0.2798332614339869,-0.04057272741406049,9.738329738388332,0.005287401173045887,0.02347644352735074,-0.1339274173498265
1682026286.714402,-0.864537139822447,-0.30304568889563166,9.919104928330889,0.007998374917472224,0.015441703627218712,-0.1261720036983601
1682026286.724295,-0.8081248352508856,-0.06896719200836748,9.858090998744803,0.004667376065435317,0.011504946767749396,-0.1278478031873814
1682026286.7343168,-0.44246031545500747,0.027192455057645917,9.892338493594622,-0.0003970858655720137,0.011186043822582583,-0.1307001685619465
1682026286.7442482,0.036670569453956386,-0.22845370843611715,9.647552959526196,-0.0016144442545794788,0.020461951968125648,-0.1329620158195607
1682026286.754365,-0.14567476423346953,-0.27479046502066223,9.705659483959403,-0.0017700550010818653,0.026894926266281705,-0.1303270434856526
1682026286.7642517,-0.8857549866074469,-0.37005615409090825,9.826213105458448,-0.0012675202295095143,0.023568723925713235,-0.1368063812971226
1682026286.7742796,-0.8511290812842965,-0.245643528388266,9.837357734013146,-0.0009416733988328814,0.02034585880652191,-0.1441312109947316
1682026286.784286,-0.6830048499880922,-0.006231012052455969,9.8633631677258,-0.003025478176397242,0.018996465586529076,-0.1476785367250554
1682026286.7943132,-0.3382781227478245,0.2951822940835084,9.937556329312354,-0.01256459974285254,0.023485364791856853,-0.1436077481031529
1682026286.8042386,-0.747477429401757,-0.3268808398648129,9.739047368306192,-0.010958601948443811,0.023835944947634843,-0.1379469310760609
1682026286.8143225,-1.2531185542641008,-0.5402451028247763,9.867836169932707,-0.0065331397540421806,0.014939406527338127,-0.1368160074472539
1682026286.8243723,-0.9143068177900278,-0.12857459743411473,9.748886363509156,-0.006361550365301155,0.010656469597508999,-0.1344418054342381
1682026286.8346975,-0.6516043363141406,-0.07338246533157756,9.796221520946276,-0.009702621709922327,0.00891555900071545,-0.1332803791284672
1682026286.8443048,-0.3069590251399314,0.09613993054650277,9.74811979023984,-0.017466678364768923,0.013602437881314359,-0.1292560076236836
1682026286.8595536,-0.646635379817357,-0.543103406232047,9.720646983639798,-0.015029717797211186,0.013081316282122111,-0.1245644515276066
1682026286.8644922,-0.8703221822311056,-0.8721080781227609,9.679262312078379,-0.012499583505803892,0.011323318457339554,-0.1274249231338612
1682026286.8746824,-0.7372615315399665,-0.5780992957661862,9.861489060660123,-0.011501245290212066,0.006586465480396677,-0.1294906264066807
1682026286.8849328,-0.16372765173964574,-0.6314646721699098,9.780894354901587,-0.01192235224727074,0.011553410681714641,-0.1321085369110219
1682026286.894264,-0.05025634185873862,-0.723530898557077,9.848240190013858,-0.009976582277724261,0.016257710571259135,-0.1279833441496007
1682026286.9046922,-0.3024370977097771,-1.0601390887550746,9.731750771619518,-0.001960915487941894,0.019353448079583415,-0.1271171992540471
1682026286.914573,-0.5138601357626953,-0.6552897713889703,9.913189121980032,-0.0011683180004920894,0.01726629296315637,-0.1293975686550252
1682026286.9242682,-0.5699842031254151,-0.7666505183126155,9.849617698297314,0.0010486756206867578,0.015371213868991342,-0.137139720273029
1682026286.9342515,-0.05868060274254192,-0.48668104379732025,9.71443856991726,-0.0008212358836708277,0.021524771944549628,-0.141665933084499
1682026286.944418,-0.2723725203077023,-0.7362512593357557,9.668205703647628,-0.0006410970458811824,0.026555266605883816,-0.1459092473507039
1682026286.9542584,-0.8116068599135519,-0.9291602280273479,9.736132193940607,0.004318070337344669,0.022795420635680033,-0.1498393988132588
1682026286.9642382,-0.9072703549029626,-0.9537490283596683,9.571388543266437,0.013163094336137946,0.018513006841811157,-0.1547016626119725
1682026286.9743028,-0.9219422322076967,-0.16485096492104065,9.858238704969851,0.010412401564046958,0.011449569739919825,-0.1578113710403554
1682026286.9842396,-0.26265503966664916,0.2809154310216381,9.67327624334506,0.003717554034105619,0.015414857139011114,-0.1520992195129506
1682026286.9942403,-0.4116622449941874,-0.07685440939483973,9.761266212242631,-0.002770357831062345,0.01855426871714946,-0.1497885709524266
1682026287.0042632,-0.8636048904177439,-0.4697978723338374,9.75635204326963,0.0005354403124270331,0.013779939854920565,-0.1444328253984562
1682026287.014239,-0.8205016735232569,-0.4544592377908621,9.745849904632237,0.004864653745540768,0.008768783034303401,-0.143743587088596
1682026287.0243528,-0.5951382100665366,0.06946182635917801,9.805923041041575,0.0002160215284967839,0.007877613272797259,-0.1432838117599598
1682026287.034312,-0.391241456430003,-0.03301987407513402,9.746458064572208,-0.002956185468199106,0.010931632300686202,-0.1419125473022572
1682026287.0444195,-0.5862691987416015,-0.17649167821098544,9.785326958097267,-0.00510795461235792,0.012519992585173056,-0.136731920194637
1682026287.0543609,-0.9700251850732775,-0.40403602792978666,9.87515320625058,-0.001956077961004864,0.005751721240015038,-0.1310850655555836
1682026287.0643196,-1.0260995880614552,-0.4873361855359145,9.811061962067653,0.002234747338813641,-0.0007065907389268588,-0.1335322087526433
1682026287.0743558,-0.605324779082567,-0.17504405434518613,9.871325418823421,-0.0006163652278046441,-0.0018379507783628484,-0.1386790996313206
1682026287.0843787,-0.19049784540042533,-0.07329700964060373,9.81510194426446,-0.003235695481036477,0.0020139138301860874,-0.1330326622247807
1682026287.0947907,-0.4088448590219507,-0.5270464791439353,9.76149822599516,-0.0031291053417261804,0.005421592214256391,-0.1306425010681264
1682026287.1043465,-0.8673413982383478,-0.7126527917144948,9.86785997008195,7.23529637317926e-05,0.0006202400521579699,-0.1301977461099736
1682026287.11432,-0.6835410026841208,-0.7582435417156193,9.681240922228358,0.006924776825219467,-0.002045645638332898,-0.1299820667028538
1682026287.1243415,-0.42586440509524226,-0.24409795945450707,9.787725777031156,0.004089489894556482,-0.0021648050115251776,-0.129683670949947
1682026287.134365,-0.2976103371150475,-0.5172425922664845,9.69435566906899,0.002517513163179872,0.001314270917183662,-0.1297696655511967
1682026287.1444037,-0.5699299671400724,-0.7783962690237737,9.70711626215441,0.006052282780550906,0.0007083746356507069,-0.1255106305599324
1682026287.1543162,-0.6771701002433309,-1.0651139766349238,9.703959566508331,0.013891012700812541,-0.00022603845408537365,-0.1261178677797429
1682026287.1643355,-1.0679626551434982,-0.7572776386639983,9.93582846159515,0.0182021701541136,-0.009023884691636933,-0.1316010182619206
1682026287.1743882,-0.47600946355404405,-0.023420370491361735,9.768090585811366,0.012042796899144155,-0.004926883343670511,-0.1349746411562077
1682026287.18453,-0.610696096958657,-0.142522863134047,9.87782104480176,0.007026155725771113,-0.003016277683738399,-0.1332694863796345
1682026287.194366,-0.9125805844568585,-0.6581519953254782,9.760639018578933,0.009552522371946936,-0.003553519773788944,-0.130638015818607
1682026287.204365,-1.3454023107789248,-0.6427108807999259,9.810400103055908,0.01565525616314749,-0.01320943996796974,-0.1294197266817204
1682026287.2143705,-1.2269286716668009,-0.27911990556587823,9.732134087194453,0.014809219614247044,-0.01923653257622931,-0.1358668034792058
1682026287.224465,-0.6945945761984331,0.14378712888669926,9.979532966291622,0.010361448183042167,-0.024076627799083927,-0.1337594514608494
1682026287.2343538,-0.1457241296347344,0.20414640266147163,9.788991387714878,0.0006747137549562557,-0.01792825371852089,-0.1304019218206517
1682026287.244366,-0.43556982156608703,-0.4456937799872584,9.727236788745595,0.0014304442596881574,-0.01681414404471831,-0.129973856163036
1682026287.2543652,-0.5587932402613206,-0.6690770187845878,9.811554626169997,0.00478581636750828,-0.019312059632709128,-0.1330602293729893
1682026287.2643538,-0.5103702063756782,-0.3532253498123973,9.798944365708731,0.0035873581740882387,-0.021176892844923124,-0.1376319503307454
1682026287.2743907,-0.03692882497932909,-0.28457150545071214,9.743910510777361,-0.0007382232883713414,-0.01611157122505091,-0.14049903805257
1682026287.284369,-0.3514051735495195,-0.38641674337335785,9.78834800621344,-0.0010839236238669968,-0.017747611608069352,-0.1365035151958577
1682026287.2944765,-0.2856032185232119,-0.7772079553966054,9.706548280767933,1.4746222226816848e-05,-0.016439321198761157,-0.1387393301248662
1682026287.3044436,-0.2876368893060865,-0.7027325600043645,9.693048245723348,0.0026512144198961823,-0.01680659895508585,-0.1433495258808247
1682026287.3143878,-0.14348013248270788,-0.524119478808411,9.843965646773134,0.004710221691464819,-0.018727580411927135,-0.1426781391620747
1682026287.324361,0.17485031730743714,-0.20806451042867644,9.810833434643582,-0.0008855885838380692,-0.012404517544956601,-0.1417572921037785
1682026287.3343244,0.17823703488242668,-0.6714991852463426,9.659521982364966,0.001501904062242252,-0.005452897392142008,-0.1365205919265858
1682026287.344376,-0.2769351896543231,-0.8063635016687675,9.77496045395982,0.008156293531904528,-0.006255466520573756,-0.1353993242502324
1682026287.3566766,-0.32520208596936306,-0.5917451428015105,9.744056355741016,0.012935500918799725,-0.006556196524313772,-0.1393656110286824
1682026287.364425,-0.2013592666046169,0.08045549418748382,9.78939834413866,0.00786496910366101,-0.0037204467103111607,-0.1387036865472905
1682026287.3743842,-1.098164830425999,-0.500991063557847,9.846966440813137,0.00865822698187383,-0.018166619447686515,-0.1235823755979649
1682026287.3844604,-0.5694085900866164,-0.37774768152899135,9.850218609870751,0.014077739645071162,-0.035859623607325315,-0.1011095916748158
1682026287.3943355,0.41843608803247123,0.6728481980654484,9.95511053123508,0.0053447337392150815,-0.04386506838985524,-0.0794430052757374
1682026287.4043238,1.4657169756639792,0.4385723195275333,9.898754463826373,-0.005308718024786493,-0.03939763167626718,-0.0679643651366345
1682026287.4143643,2.2308182148885582,-0.6384084758244679,9.718347670912955,-0.006767130354371148,-0.01910650455643381,-0.0593543065607659
1682026287.424431,1.743736607700378,-1.65694632621557,9.54422088132948,0.008558334052972042,-0.002999338681099369,-0.0563497332751862
1682026287.4362094,1.1749484207661038,-1.6630028065814053,9.696815946342902,0.029102599122030115,0.0069513098802094645,-0.0598907856166474
1682026287.444345,0.8211876311873482,-0.707395760546079,9.781446431707636,0.03118812040144732,0.014173318717821072,-0.0688637172699086
1682026287.4544687,0.6458037247441742,-0.29119968285498593,9.8360146862139,0.03200517867484369,0.020616797190393152,-0.071530272614967
1682026287.4643614,0.13825751031628333,-0.15914442218835506,9.808052631850389,0.025585367702567276,0.02747577533917483,-0.0748843526363484
1682026287.474403,-0.48273746099458525,-0.5234785093673919,9.824355973642785,0.02984083876183679,0.024226823126408264,-0.0711848338961712
1682026287.484333,-0.8720440102663181,-0.41495916566610347,9.828075149663917,0.030604253145363587,0.02073377690150938,-0.0729428207397572
1682026287.4943876,-0.9850901804321031,0.17660828942283677,9.831594672072688,0.027431975160294508,0.014960337793395168,-0.0679273357510678
1682026287.5043752,-0.9842500985497646,0.6290360647812473,9.955882511583189,0.017318013011551597,0.012210658353300262,-0.0577093711018673
1682026287.51483,-1.1633382349282526,0.3269842016681914,9.853837976693942,0.012678895245944073,0.008620748626440067,-0.0491816228151432
1682026287.5243828,-1.5057215623092721,0.3620718240245915,10.10620067035866,0.006543959604526663,0.0005434929619343282,-0.0446450313449017
1682026287.5344036,-1.6139976267117857,0.09232088187691886,10.020088123954828,0.004290233609382945,-0.00775308259504608,-0.046328482580196
1682026287.544357,-1.291682246746735,0.03917914164020871,9.884381340242573,0.001003102285607264,-0.010163065896520695,-0.0487591339171044
1682026287.5544696,-1.307593729351623,-0.1487179326556607,9.767487215621871,0.0007776326536168022,-0.011374285030728975,-0.0505912130594365
1682026287.5644083,-1.5363676755793876,-0.4309770946160508,9.810857217121962,0.0023738006944855465,-0.017256003811674962,-0.0568236349046341
1682026287.574459,-1.6548249667838084,-0.6280236225086677,9.83454595168875,0.004286076640500287,-0.02371809963056078,-0.0714353447675816
1682026287.5847769,-1.2864726535670583,-0.2136803473051838,9.916396693997186,0.0022344608225560152,-0.029259694185816785,-0.0763958519220463
1682026287.594988,-1.025876331987641,-0.06360039052584678,9.99755009164655,-0.0033897247932012844,-0.030813931887589706,-0.075720978331577
1682026287.6045196,-1.0282499292290663,-0.4224914399790657,9.973290587587188,-0.003252406976071392,-0.03612526789154554,-0.0715528702259175
1682026287.614971,-0.8062885451280523,-0.7128729696887444,9.955634819826791,-0.0010590225060460197,-0.039056722809395324,-0.071593267273914
1682026287.624467,-0.478513060700994,-0.3880106750604238,9.910780858601015,-0.0029266721191778264,-0.039639985291532634,-0.0670803388476483
1682026287.6343546,-0.3685873666424019,-0.41694444117715734,10.011935232124275,-0.005143500546960643,-0.04252685273682498,-0.0607811784267537
1682026287.6443803,-0.041515455765700586,-0.6627928422624657,9.816546490810175,-0.002867285757292782,-0.04139325203472955,-0.052212109220039
1682026287.6544032,-0.008876046973064723,-0.9378780345793905,9.774351225037558,0.004586883208590503,-0.04112364044610282,-0.0491336336255185
1682026287.6643393,0.11161213074924421,-0.6289246950442822,9.8638117234724,0.007282662466087902,-0.0398731576475408,-0.0504744699120633
1682026287.674363,0.551017230741456,-0.4111855126491629,9.721886148225275,0.007897485360199233,-0.031118550588637817,-0.0494261024415604
1682026287.6844578,0.06830243500480762,-0.3927892492238641,9.909792057561695,0.007258208174408779,-0.030538925054251796,-0.0498427314579598
1682026287.6943965,0.1756490628048245,-0.5233283425260297,9.787361266678378,0.010528392585918197,-0.028354091358467823,-0.0495238875866047
1682026287.705893,0.1853417580364914,-0.33873132535302974,9.719291374433185,0.012316802837750131,-0.0244533928832271,-0.0523337138712517
1682026287.7143338,0.22327313841078186,0.012155585202286457,9.790354385590271,0.008204054153379157,-0.02119852639338507,-0.0549264190614335
1682026287.7243493,0.01683243641859794,-0.061431551626074714,9.800499019996106,0.005462542732644288,-0.02120785993249403,-0.0521844712913147
1682026287.7343376,0.000894349875499837,-0.20133396717908145,9.704503072192148,0.0030008598355760825,-0.01861631983988261,-0.0511895431101433
1682026287.744313,-0.026525506815972075,-0.5384776717433046,9.639947003755445,0.0068442850504853315,-0.017353066494763543,-0.0529571896314732
1682026287.7543302,-0.14673198529298154,0.1002139510628169,9.828072728051833,0.004676695617385652,-0.019833852021152475,-0.0477875297784916
1682026287.764372,0.29356653669091,0.23907607416139437,9.656990906461434,-0.0016205203705537568,-0.012290345866773788,-0.0406749261438958
1682026287.7744694,-0.4959639452256836,0.1181638295560217,9.968756741182005,-0.006985208040884812,-0.0194108315501855,-0.031920128864061
1682026287.7843256,-0.1411231516881694,-0.08729815866887541,9.819989057312146,-0.008579956189780111,-0.020538766140049184,-0.0237893922150246
1682026287.7943208,-0.2609637365872496,-0.26573274821161846,9.780788236180026,-0.007969917153458949,-0.022619147300503746,-0.0199685333192459
1682026287.8047569,0.04885961565272827,0.01170384589489981,9.853990596802863,-0.014837327514857257,-0.02078443956269823,-0.016208631348621
1682026287.8144014,-0.0653580710898117,-0.43015399681413174,9.73368021131662,-0.012834793191029642,-0.018979585115891734,-0.0113502036675922
1682026287.824483,-0.28732103302820255,-0.712275306431642,9.757071084916262,-0.00831536394487748,-0.02045441368970151,-0.0111966239184252
1682026287.8344054,-0.28639629445677356,-0.7421141785875501,9.714818003157408,-0.004022017952323344,-0.020685031294010715,-0.013192588825535
1682026287.8443968,-0.07138240583234984,-0.46295335553761113,9.674225132615744,-0.0038665583616660213,-0.017601585749695177,-0.0161945031851641
1682026287.8545103,-0.12973796729817696,-0.3574579937097713,9.745457622813811,-0.006978795115054672,-0.015138396672685286,-0.0173288615316264
1682026287.8643613,-0.20563690090719164,-0.7767741765725014,9.62681398297926,-0.002656967541982691,-0.01440006992007305,-0.0190901750594489
1682026287.874324,-0.05503097019143399,-0.7335871530732967,9.479959282826572,0.00176076983941547,-0.010107335405761711,-0.0177450081229321
1682026287.884488,-0.2507484703168429,-0.699464992232212,9.689025808642644,0.005564346489070417,-0.011012658399481024,-0.0193576322764269
1682026287.894361,0.13738691599326797,-0.46780006922369716,9.592563776178485,0.006506791535780953,-0.0047526245300129255,-0.0159628087550513
1682026287.904415,-0.11528329528346555,-0.6036858988046758,9.627077409612193,0.007890709799444274,-0.0008641509697505565,-0.015060558345925
1682026287.91435,-0.06020553032092404,-0.7330577901802886,9.614780916272691,0.013597772820620493,0.0025549633172405645,-0.0123139632761589
1682026287.9243958,-0.6162742555528559,-0.7853069052058161,9.783838507514355,0.017612956423471087,-0.00010024438347615686,-0.0148113736778609
1682026287.9344106,-0.5714262548013783,-0.37148247991176353,9.878457098214977,0.017472199884133878,-0.0021417188435751606,-0.0190085837513319
1682026287.9444091,-0.5999353963691969,-0.20725562869440844,9.82504199997871,0.015594331145203909,-0.0027717172878595976,-0.0189526764571778
1682026287.954425,-0.8367637435233576,-0.31200696872153366,9.853267903928625,0.01534729135641109,-0.0073506376172221815,-0.022210483801376
1682026287.9644554,-0.9733243812350592,-0.1711133955163082,9.967866662694913,0.012632782003057707,-0.014291248076666532,-0.0280656268715969
1682026287.9744768,-0.719199890808166,0.029785435767267315,9.776256616883723,0.007899389095869251,-0.016420264974050636,-0.0322700304806344
1682026287.984397,-0.735371491756427,0.1320526398797559,9.818795877015223,0.0033286940098594116,-0.019235518096906174,-0.0329715249955765
1682026287.9943955,-0.6510159568168727,0.31790387820738236,9.740435078515013,-0.0033496402910982432,-0.020427554208172008,-0.0319677790522686
1682026288.004459,-0.695115679933214,0.23215031094312685,9.819284402194977,-0.009332279666132023,-0.02363368716231598,-0.0308845391392819
1682026288.0144098,-0.56683089841074,0.16838611856266486,9.729602493846773,-0.012501515577090373,-0.02568764927939338,-0.0280181666731945
1682026288.0244496,-0.4930506931210054,0.27950129066538837,9.807656351779677,-0.020367375537851198,-0.026452207754824878,-0.0265542095422856
1682026288.0345204,-0.3316095737713872,0.19020660663413463,9.758045798432267,-0.023639737897478526,-0.0270387429067305,-0.0176229266345612
1682026288.044415,-0.2511564991390474,-0.07337087167269517,9.69952766927223,-0.026500072851525464,-0.024486932230366156,-0.0137977128744236
1682026288.0543523,-0.14556607409961056,-0.20541664435950777,9.688967641047181,-0.027046171151729713,-0.022175834358828795,-0.0089946420759074
1682026288.0645697,0.00994589786955753,-0.4669637728078873,9.646678337384369,-0.02587386099845902,-0.01671558105658881,-0.0040035512194148
1682026288.0744202,-0.147195352638769,-0.6027695740746223,9.674435373672805,-0.023128001757594652,-0.013174226199474988,0.0010220708662532
1682026288.0844927,-0.18644662458802613,-0.4531632508416177,9.742892606892005,-0.02247046848684549,-0.011410080637518402,0.0110610561549552
1682026288.0944362,-0.4772553033932356,-0.8058020873142733,9.762274613374407,-0.019186972143470527,-0.01258681010469026,0.0127748452231176
1682026288.1043675,-0.537130372231122,-0.9032251461096882,9.80131800079241,-0.015143505514781597,-0.014774442575155287,0.0132314950331934
1682026288.1143453,-0.30449555839020315,-0.7734376883738239,9.735755560266108,-0.011164950891703612,-0.01424723824788889,0.0175878914177306
1682026288.1272593,-0.36044932822359066,-0.8717520021473103,9.694783713291404,-0.006402415993313165,-0.012635823351792322,0.013766053701926
1682026288.1343846,-0.405984099365097,-0.8103506194175103,9.72572270233032,-0.0044541087702860225,-0.012531009933204289,0.0102431500434763
1682026288.1444323,-0.3805678680201441,-0.6573985191669597,9.70820668155353,-0.0005481814523392279,-0.012703516830875233,0.0089210021413751
1682026288.1544569,-0.4150654724457666,-0.490652832842144,9.723374422461303,0.0007866434478002438,-0.012389135109186595,0.0065732254750915
1682026288.16435,-0.4412770460831997,-0.19321326384036783,9.797831045998459,-0.0028216760595418063,-0.011750594536769961,0.0058476427674182
1682026288.1744206,-0.6084755860922704,-0.16556186408952983,9.882758939228944,-0.0065250428824396925,-0.013646748254910341,0.0035670695232115
1682026288.1844325,-0.7098359403589464,-0.2390374502453695,9.86821147619023,-0.005859256047573677,-0.018093662770377848,0.0047561334084607
1682026288.1944528,-0.6215903118997196,-0.1964324369428836,9.77663324657356,-0.005863311941811676,-0.018976949600005538,0.0032163115555309
1682026288.2044868,-0.6865612514421199,-0.010191631521030949,9.876852416286129,-0.010194444276430735,-0.02110628673624339,-0.0004764316965006
1682026288.214393,-0.6432936549718762,0.11714185709225322,9.943649291801204,-0.01606881763713181,-0.023785164165989414,-0.0014136972732953
1682026288.2243807,-0.5128903445105255,-0.3241551903342906,9.805269000563202,-0.015943551762151374,-0.024209513514129664,-0.00524374273495
1682026288.234346,-0.17454040478769525,-0.315712893608728,9.66312321567582,-0.01498869243265729,-0.01908473156219575,-0.0062621705129854
1682026288.2443542,-0.45205300514591756,-0.40534799771053587,9.825049829127899,-0.01556795736415847,-0.018739335358723543,-0.0119616011053435
1682026288.2543557,-0.24225004889567608,-0.14697779784202875,9.753075303261626,-0.018219340238619264,-0.013585827949559932,-0.0138703588292114
1682026288.264371,-0.6993966268859901,-0.15160222702635154,10.004039459865686,-0.02215901133531016,-0.016523665663143488,-0.0159956658154837
1682026288.274383,-0.6217275403924734,-0.22334832990059034,9.943794658212438,-0.025710331051493288,-0.01634479595998221,-0.0171044407308213
1682026288.284398,-0.8383573748596672,-0.35703552476294875,10.08653751295052,-0.02631336973616186,-0.022712315195448127,-0.015491200041782
1682026288.2944038,-0.22656895966558152,-0.23754243018107207,9.821963989030918,-0.02868436731978806,-0.018756869715472288,-0.0124553147599212
1682026288.3044045,-0.3164105478986291,-0.5625482674772241,9.887625458629422,-0.02618743299980655,-0.017637683438487723,-0.0116646684602014
1682026288.3143823,-0.0680433604618392,-0.4182235597109389,9.8184308331077,-0.028814551927469435,-0.011506554551166706,-0.010732198496174
1682026288.3244364,-0.22688057854172003,-0.9483484837807048,9.816481410621579,-0.022231612242637214,-0.008581050778868948,-0.0098075628176443
1682026288.334417,-0.16588574681578905,-0.8342370031758389,9.668343063600984,-0.016118042398536238,-0.0028376621854532885,-0.0080033562973253
1682026288.344416,-0.500996090300443,-0.6052677193387376,9.807228679518628,-0.01335348837490545,-0.002935887145756694,-0.0038615976356081
1682026288.354389,-0.6068692707238663,-0.41384818018196873,9.785344279864923,-0.016010762734603407,-0.002368078435756114,-0.0027409809537343
1682026288.3720636,-0.8248916503122686,-0.6500491073404985,9.80369864622514,-0.013688723807473472,-0.009146307384728282,-0.0034112389095239
1682026288.3745143,-0.07715404279765971,-0.16013343956924544,9.577970887307847,-0.014252724662629914,-0.007283742428875237,-0.0006816926308087
1682026288.3845046,-0.5036319372889807,-0.39232046426099954,9.769457484125022,-0.015256732519514331,-0.007554844247007293,0.0019982887477968
1682026288.3943732,-0.5470196798134104,-0.6081141088984541,9.76881583706882,-0.01243781220570586,-0.009183137873148253,0.001923468387628
1682026288.4043686,-0.3783697211987129,-0.41317942480891745,9.742398371684624,-0.01320926205788988,-0.007438338276017664,0.0003144215896614
1682026288.41438,-0.2784294592143651,-0.33520923177701606,9.723896853463469,-0.014088484331091689,-0.00437533451537663,0.0001292676769085
1682026288.4244003,-0.4643542574438414,-0.30188089257900397,9.800069388796716,-0.014536611897325812,-0.005670279674224624,0.002597037922766
1682026288.4347985,-0.5169868635092387,-0.47811684290490775,9.729573643273573,-0.013750232318719316,-0.005895981750809496,-0.0006894614908955
1682026288.444397,-0.44668245445021604,-0.531093607633126,9.651203724795293,-0.010565872123392417,-0.004746351043020835,-0.0010809687793366
1682026288.4544077,-0.768845099913924,-0.3230067251583478,9.89556889351612,-0.013389656282611073,-0.009605949206296668,-0.0035404026404134
1682026288.464414,-0.524949638275574,-0.4865119549422146,9.766392763797063,-0.011767993375832638,-0.010759729241457492,-0.00256212790386
1682026288.474388,-0.5681406189465236,-0.5191562318982942,9.858790067004723,-0.01212895055525168,-0.012928630532642317,-0.0044500873319916
1682026288.485346,-0.3032884156420465,-0.7674507396629555,9.723297879602079,-0.0068089012812727594,-0.011318110089448092,-0.0026590241015068
1682026288.4950314,-0.33359272197881074,-0.9133681911449877,9.754957206645564,-0.0029852665500150976,-0.009047576484362703,-0.0056157697819284
1682026288.505601,-0.3766445015533081,-0.8755845277824156,9.79991307403784,7.848363524104342e-05,-0.0074549532007803735,-0.0069405449450127
1682026288.5155003,-0.30892848578707394,-0.8769541203967905,9.76547967949932,0.004485509696884983,-0.005507727843545842,-0.0051210475050024
1682026288.5258536,-0.3387986617577044,-0.9653522894445011,9.739379135156385,0.007815033036169287,-0.0014587477236959365,-0.0084381582111231
1682026288.5343776,-0.3738579400006188,-0.9414978196350096,9.801389501690123,0.011932293794877136,0.00026909003695317277,-0.0078107438877336
1682026288.5444126,-0.2848817498099419,-0.9712401921785797,9.695824483142713,0.01791032255334177,0.005357053838798384,-0.008996409726154
1682026288.5543845,-0.6461900908601292,-0.6257593596383726,9.937865785087348,0.018264889881741884,0.003332000011939698,-0.0095087684586755
1682026288.5644047,-0.40414167208908236,-0.5356184337671642,9.806431188126217,0.018646802917765704,0.006139768621485919,-0.0081164831191412
1682026288.5744402,-0.5299852098395527,-0.4429195184574512,9.796716886822377,0.01686428146080588,0.008891528732792562,-0.0093295149400941
1682026288.5844195,-0.796181469706345,-0.6736195214512576,9.781721056333636,0.020147666838275367,0.007416032846033692,-0.0099896764278523
1682026288.594421,-0.9027058570520606,-0.4132274101903475,9.796204117665305,0.019442704252144692,0.005946562277441394,-0.0096385221824161
1682026288.604386,-1.3420585025201623,-0.5379576145561832,9.809134414137226,0.02068293015977598,-0.003328874674613152,-0.0064128333598486
1682026288.6143894,-1.5264129220777374,-0.4729390294107828,9.94558275258631,0.024053105279327688,-0.021572160755764184,0.0073331823676713
1682026288.6244476,-0.7601900555725137,-0.13217130310485004,9.899908332476643,0.024671346548850736,-0.033332507569364664,0.0262748548865206
1682026288.6344278,0.34602367584640886,0.10393643383909705,9.772886162210677,0.022246190708215832,-0.031487895535250256,0.0458087498426325
1682026288.644399,0.7053884667489495,0.19027618430764873,9.774496206522958,0.01858633105080169,-0.02503567451038047,0.0605261201143153
1682026288.6544092,0.4261385136723185,-0.037218721587586,9.827088994405845,0.01635894146165789,-0.021750553660345187,0.0686013648390658
1682026288.664417,0.32540097220182873,-0.35241083377139404,9.795979956227406,0.01798704786510274,-0.018921511733292495,0.0695435503601916
1682026288.6744697,0.37221278260510826,-0.12263795714266801,9.79892933902557,0.01495381390794432,-0.015355066548877404,0.0667951280355342
1682026288.6846578,0.24082847554766768,-0.1532631603559734,9.893755034765382,0.012056519818117185,-0.014709053951319955,0.0601732457160838
1682026288.6943903,0.16978273039947822,-0.24448459289058483,9.903120189049355,0.009186182944887853,-0.014094951187603323,0.0497621471166499
1682026288.704394,0.42126290539111666,-0.2699442238243013,9.72218266802533,0.007135452390991842,-0.006666570380726636,0.0387729169905074
1682026288.7143872,0.2667782758097118,-0.15888218387050398,9.710996826189858,0.004974589574564329,-0.0009521542557389311,0.0318587223172076
1682026288.7244687,-0.36261085548321037,-0.14257340870694782,9.902412305509122,0.0017600413925537577,-0.004609836038590555,0.0259928969770558
1682026288.734517,-0.36258652082098497,-0.2454668916293271,9.818542835834476,-0.0014094021660378364,-0.0058114049369685635,0.0200543986737616
1682026288.7444315,-0.7154908500129309,-0.2347078304486046,9.89811562331688,-0.0039245601666924625,-0.013490384401210899,0.0192262666404135
1682026288.754422,-0.45038388290576337,-0.423523840616935,9.749000427967369,-0.0019241717735018356,-0.017963285794283225,0.0209756443381198
1682026288.7643957,-0.6377936335805161,-0.386032395982578,9.85404067548045,-0.002593291418861002,-0.026101867817640737,0.0180178420722373
1682026288.7744417,-0.23423363926845056,-0.3104403703280308,9.835790497221831,-0.00299126216503667,-0.02984496792243873,0.0203618748217709
1682026288.784607,0.0018726317345145313,-0.14850034493291595,9.819441325735145,-0.005177748419216536,-0.03063860770701833,0.0262145089089758
1682026288.794869,0.04506448833286156,-0.2902335151340086,9.835205485901696,-0.0058315404213318805,-0.031053848925033677,0.0291151074796803
1682026288.805179,-0.09180261554345699,-0.4045740020089163,9.873810757624508,-0.0037983118812395405,-0.033781298057901275,0.0303908443182595
1682026288.8146586,0.1314561768091716,-0.19182143695159523,9.885733911595356,-0.006675526012465692,-0.032237292073418994,0.0323185889154561
1682026288.8245952,0.030567412091115416,-0.4304949223057405,9.88165741636207,-0.006910587484452033,-0.031944697221262586,0.032022961053241
1682026288.8345146,0.29990233317695664,-0.37931627384794087,9.808276210768476,-0.006883129747799554,-0.028793095967955717,0.0364326002180464
1682026288.845275,0.12051783715763596,-0.7249738464518298,9.771273974307729,-0.002515795915251778,-0.027650824691653916,0.034998069155205
1682026288.854523,0.18757930220499214,-0.4913278029436387,9.815012767006234,-0.0032124207054670863,-0.025747570138783947,0.0338126929581053
1682026288.864581,0.1589796629292092,-0.8128096134701932,9.665695939438494,0.0009008915283898039,-0.022810203213650945,0.02921938766836
1682026288.874483,0.12300563658568121,-0.5288324340855874,9.725871494546302,-0.00035735767974062803,-0.020445640002861077,0.0262083137512095
1682026288.8844843,0.028167774510021473,-0.8342197774573078,9.603132815816824,0.004655866671417423,-0.018812384927162654,0.0230440801113732
1682026288.8945026,-0.19270286450633842,-0.7838172828131491,9.630233636669212,0.008118562306606694,-0.01973447076913831,0.0189890196651108
1682026288.9044676,-0.3891280581112045,-0.763316351428896,9.76576897104485,0.010582804237005207,-0.023463535698179102,0.0141006462380178
1682026288.9145486,-0.12387414110296764,-0.4573157336166838,9.613774266908125,0.010054398484865005,-0.019828881252192915,0.0111628245666511
1682026288.9244833,-0.40911683586830094,-0.7122018146778323,9.754411923030972,0.012772032094453854,-0.020835775304902254,0.0062268661439307
1682026288.935068,-0.4827185342228514,-0.39058189058345233,9.897091125374532,0.012724769172982544,-0.024634815300832634,0.0074494719609506
1682026288.9444382,-0.4463916257109359,-0.28921333145835293,9.947159342000985,0.008763297473386056,-0.025389944019099563,0.0060938979603238
1682026288.954441,-0.05015467761579635,-0.37330261689143857,9.795506337282319,0.008815688714478794,-0.01930655227324558,0.009339089143265
1682026288.9644184,0.18828925410733946,-0.20027824821685503,9.72964316679597,0.008073330607696034,-0.0080939850473428,0.019856682616461
1682026288.97442,-0.004309367981761732,-0.012657915548128012,9.577910152682636,0.006393100743634506,0.004568544630385966,0.0377846123754866
1682026288.9914842,-1.0706633389552709,-0.21388550665124043,9.728118495766331,0.0033037204756089333,0.005552658943440984,0.0544388616561778
1682026288.9944398,-1.222216145007416,1.333836623117631,10.344474543114043,0.0015992253232672549,-0.0003317008629528728,0.0751458505272753
1682026289.0044858,-1.442617284868733,-0.6613278063514788,9.878110250093352,0.006433501330486553,-0.006592143271559743,0.0861603940009959
1682026289.014425,-1.0653279620323741,-0.46113438018509634,9.811085120151676,0.008761544351014304,-0.006297051261410806,0.0970050418853648
1682026289.0244665,-1.2392141700407455,-0.4878604643460671,9.895775004184028,0.010131871418830972,-0.009977035133941442,0.101631509709347
1682026289.0344653,-0.9441660931606046,-0.5221329361439087,9.760112552020184,0.011713021138477905,-0.0091290933989959,0.1047186726808436
1682026289.0444243,-1.0302137422541293,-0.7396176670206802,9.788970871061172,0.015384057939880019,-0.010796571092618784,0.1034901538967974
1682026289.0545144,-0.9800776057602291,-0.7365485007034986,9.786536531869551,0.018946376951351266,-0.013222818065372755,0.0992039168357737
1682026289.064449,-0.7062263760208165,-0.4315843061577103,9.815354043218665,0.021539577631525107,-0.016040493174655616,0.0994156548857577
1682026289.0744815,-0.3853261608146275,-0.46040360090247723,9.777450610743276,0.022618426074620734,-0.013476715726101577,0.0927360976219065
1682026289.084731,-0.08115651860221117,-0.14887584266704187,9.74009298328249,0.02169197086753142,-0.00726322640196568,0.0915846476435549
1682026289.094824,-0.3843654160310039,-0.10161813636575434,9.837651075791877,0.01996212578134402,-0.006905916047996488,0.0906660804629214
1682026289.1044564,-0.4321146005557464,-0.07603432242003641,9.821823394700623,0.01716132846106675,-0.0071785057652707296,0.0900894949316866
1682026289.1146104,-0.6569534815853625,-0.23549823254566404,9.900880135980142,0.017261630488830417,-0.012963229406839858,0.0908832797884829
1682026289.1244571,-0.3229519203253261,-0.0054069608900902165,9.794968362886868,0.014934362027551086,-0.015250642056815549,0.0955660814523585
1682026289.1344645,-0.37279896967191756,-0.5441458262976046,9.769915917366225,0.01866171006391495,-0.019279474950441425,0.0942368084669001
1682026289.1445017,0.06427642017855717,-0.24067752167852968,9.768524869664583,0.018931799601718056,-0.02013336478685439,0.0988043645501025
1682026289.1545105,0.22938088831879827,-0.4170059613396844,9.767148660501288,0.02004120982993826,-0.018786356475650894,0.1000335836887248
1682026289.164499,0.6923384222529508,-0.3553402539489003,9.557797587967725,0.020697643294351364,-0.008982236309057232,0.1046752581477053
1682026289.1744616,0.20308637679178002,-0.545094387536233,9.650193600407935,0.023455963843714817,-0.006222877128864461,0.1048501009225733
1682026289.1844542,-0.010022865589071367,-0.44716855310337883,9.68890576835209,0.024044924946698753,-0.005580249718169627,0.1066739583492167
1682026289.1944916,-0.46881952903416296,-0.5034834826356885,9.905898003120356,0.023335793921519292,-0.012023854331386565,0.1055518115043528
1682026289.204501,-0.3544983793730613,-0.6670136908125116,9.823640919148513,0.026260430064888193,-0.015585154246750983,0.1051781797885783
1682026289.2144434,-0.4110348350774226,-0.5389939465538656,9.910170157129752,0.025655085487330892,-0.019870162637004963,0.1017833301901705
1682026289.224522,-0.03934505133621068,-0.4976569271206878,9.86965533933658,0.027346783222785512,-0.020084995639446174,0.1041741320967562
1682026289.2344797,-0.3054628719865494,-0.8314787554340771,9.836942395824003,0.03201106259782711,-0.022135971638509853,0.0974193239688761
1682026289.2444952,-0.08107271384699993,-0.3428155171661467,9.832251382976192,0.0305319995716936,-0.02079124634842497,0.0965880552410967
1682026289.2544904,0.04313847812471402,-0.25063001970003856,9.893330715974562,0.029258908022650253,-0.018811095882920237,0.0992880934953578
1682026289.2644808,-0.08610008491491232,-0.1256283085166921,9.842212339271912,0.029654488749927044,-0.01725688881952628,0.1006295183777697
1682026289.2745605,-0.14009483430500827,0.29045991052087283,9.994494217430827,0.023190885179863244,-0.016033098748133235,0.1034471789479144
1682026289.284448,-0.2673904599226886,0.3858939303607679,10.084061888255599,0.016799968928325342,-0.018113303839833197,0.1099490249633677
1682026289.295117,-0.39357325088742673,-0.09120034641767223,9.965622164953496,0.015271575160459232,-0.020109571757226528,0.1080173278331645
1682026289.3044744,-0.29673017218058934,0.12782075212787283,9.97355175798391,0.0123349063114721,-0.022507945658486156,0.1115318039536364
1682026289.3144658,-0.36300222323211656,0.148543021935588,9.939675236476992,0.010631024350534568,-0.026605622359245663,0.1164752939820178
1682026289.3245864,-0.14526955359097837,-0.0710062965829073,9.72981714038981,0.009979751560369475,-0.024558210127350086,0.1155484566569216
1682026289.3344862,-0.24930748646608566,-0.18353270104631764,9.768447314101046,0.009831610247545718,-0.02612933494003189,0.113849612522114
1682026289.3444638,0.024993976281839757,-0.05642402586698991,9.742504273261984,0.006969914528849046,-0.022837012924392747,0.1157720858335383
1682026289.354499,-0.06966701525772917,-0.3819789956247459,9.644059681386063,0.008909027714944503,-0.020004488888271717,0.1174863005161173
1682026289.364463,-0.3532271508136012,-0.30204750856138407,9.79780350455986,0.007457133952690171,-0.021037549268382024,0.1209084937453158
1682026289.374481,-0.47686399302462973,-0.8326812065471798,9.755485603214728,0.012619462414333264,-0.023837730116270068,0.1189023876666911
1682026289.3844855,-0.4204983352683005,-0.6407298969341235,9.772076623764086,0.01733655304675207,-0.026118878624221045,0.1231156239390261
1682026289.3944976,-0.555606917978814,-0.43678973061655463,9.918071723489774,0.017021466264003263,-0.030380732633722318,0.1215408692240603
1682026289.404509,-0.33972015095136654,-0.5227568674186243,9.758834021525008,0.017246379084658,-0.030486826441951324,0.1206299016356356
1682026289.4144614,-0.24486592409290453,-0.45313324255355836,9.860362684386587,0.01837061618069813,-0.032027609114071966,0.1224921817064173
1682026289.424469,0.1778233335130975,-0.33748365507592715,9.563563488519282,0.016614079575194587,-0.021211257607964294,0.1252127239584811
1682026289.4344995,-0.46104167798087275,-0.3919865846936712,9.667338545288464,0.015527023392476615,-0.017810942167987617,0.124559509205807
1682026289.4445746,-0.7843805541452302,-0.5472988899151485,9.57587417991142,0.018521553608362707,-0.01792887318729221,0.1277096891879924
1682026289.454497,-1.1251592496653218,-0.1598669522961453,9.936744561899111,0.014282301212367782,-0.022280844931658723,0.1289698058843501
1682026289.4645162,-1.4708573232728934,-0.5450296127333402,9.91080226513067,0.019157566128683256,-0.033105970533819515,0.1277348870515711
1682026289.4744973,-1.0918579828007973,-0.45989410877602976,10.04056849428242,0.01823575630942639,-0.03950876538900949,0.121954793679703
1682026289.4844851,-0.701579390219232,-0.46396790399816423,9.96372483914666,0.02141420636212582,-0.042582207132625685,0.1188343266129382
1682026289.494503,-0.48195447296871646,-0.34618273569490937,9.958944290334696,0.022001235099866345,-0.04233919743814206,0.1124520996689684
1682026289.5045354,-0.23572886896952397,0.19997397670282896,9.93763196866368,0.018890052264370474,-0.04053783411953694,0.1122039655327685
1682026289.5145378,-0.16055005924591062,0.31311726664030126,9.933090368125168,0.014340179011952166,-0.03871104951233883,0.1110965559363253
1682026289.5245333,-0.136998358318056,0.5447657204152617,10.006564469901729,0.006023867040685299,-0.03906729873992076,0.1144103134155161
1682026289.5344844,-0.07179514670375195,0.17483943563185186,9.86421191153854,0.005396519085834653,-0.040212391312461016,0.1198553243756182
1682026289.5444832,0.016639223308445653,-0.0432168373064313,9.77099628250323,0.00603585014428945,-0.04003579967992012,0.12339538578986
1682026289.5544748,0.23922326626594245,0.06651730638905978,9.631589793420435,0.007451744423747821,-0.03824804773493081,0.1334153587102778
1682026289.5645468,0.05611323676617865,0.03705787951414711,9.728110231249223,0.006990650321617918,-0.0392931381735293,0.1355155283689387
1682026289.5745342,0.4136907536010232,0.1625631188667153,9.732734623703141,0.004194790196514031,-0.03667830472745078,0.1391607696294673
1682026289.584505,0.47055906405663556,0.11123522688772819,9.88396137613554,0.0018081736068093542,-0.034905847738860164,0.1399837011575587
1682026289.5944736,0.9043737934935321,0.12013974036164507,9.751152757838243,-0.0021765099844240775,-0.024051384975006557,0.1390743875980265
1682026289.604558,0.885199937075597,0.4039153937482949,9.764149391003395,-0.010126383943783018,-0.013113264575683046,0.1442983770847209
1682026289.6145933,0.5961292719372222,0.12965065555613708,9.773584304949887,-0.016153547770501115,-0.004380915124970214,0.1464501345634349
1682026289.6246336,0.15288083430070057,-0.23376136473780093,9.779904325676636,-0.0168040940299427,-0.002019887240477116,0.1500170553207286
1682026289.6345563,-0.04019270741178741,-0.34916340289460474,9.730682226217775,-0.017778261038973394,-0.000664749579790977,0.1518111998319514
1682026289.6446035,-0.26637605719335894,-0.5899243401309202,9.765568482686598,-0.01470341382128703,-0.0031425868303015083,0.1563757682323344
1682026289.654525,-0.36059323286112027,-0.6780996992907484,9.666896532712343,-0.01325935371942631,-0.00339799681746366,0.1545796120643504
1682026289.66447,-0.44420697950750937,-0.9602253524513605,9.70274845422972,-0.005492268859713121,-0.0063336262667702875,0.1509328210830577
1682026289.6746006,-0.6105331076718304,-0.7525083546201377,9.891777164782699,-0.0021365518494402495,-0.012678557875468618,0.1437889212846644
1682026289.6845198,-0.25517092831105304,-0.7215220824088983,9.816755888946908,0.0022825666994246018,-0.013480908486652069,0.1381960535526164
1682026289.6944957,0.12115360355443823,-0.2317850058458164,9.695864411513291,0.002137533835571129,-0.007741974835145288,0.1365821832895167
1682026289.704513,-0.016456784185464337,0.24626539218035512,9.861179771931683,-0.006111485385842715,-0.0038129054564255667,0.1362659210443385
1682026289.714503,0.010075343407372985,-0.13242414237099542,9.75574411825536,-0.005592166116146229,-0.0009419529976603449,0.138586374568928
1682026289.724615,0.22427311596252564,-0.21495523149859597,9.638286555980518,-0.004957856186400665,0.0070948611037067065,0.1422643238782771
1682026289.7345912,-0.05886673341389448,-0.014751328713162926,9.798317714822083,-0.006227820972789764,0.009308111373387305,0.1453229213237651
1682026289.7459023,-0.19196583258946634,-0.03410537899617575,9.749079274257202,-0.007011853269936841,0.011859224410863286,0.1474935287713893
1682026289.759277,-0.5573068084135747,0.10753023774339744,9.880194258664606,-0.00892494883341199,0.004390577132991528,0.1484711194515116
1682026289.7696264,-0.5959665323932453,-0.006327777233313801,9.961220611845489,-0.010245947991889248,-0.0036655482507526203,0.1463805461406596
1682026289.7745037,-0.16898471979329852,-0.23839892062899773,9.969171730915678,-0.010479085138515556,-0.005383510961197622,0.1449800903081782
1682026289.7845178,0.18684553853331345,-0.39556109427619623,9.87651838263343,-0.008708111515483846,-0.0037859943304319665,0.1399758929490931
1682026289.79449,0.7203756455030479,0.06620513337881824,9.763941704756876,-0.013388182212313613,0.005916996935604362,0.139884563732136
1682026289.804532,0.5319973589268345,-0.0918944534636729,9.688832845987804,-0.014314473594120454,0.01286539104116147,0.1427856261014826
1682026289.8146358,0.11254311734842709,-0.33035862484954737,9.828820990127056,-0.014786881095713,0.013108410962851902,0.1445578212022669
1682026289.8245783,-0.003656658626089659,-0.44613691632178937,9.80370708843211,-0.015212075373197976,0.013767898907422329,0.148563849377621
1682026289.834541,0.17821858587595663,-0.5899149640486107,9.743180216050625,-0.012294429755562315,0.01723290718968726,0.1542873108863719
1682026289.8445568,-0.11676431869819888,-0.6112193170126676,9.752393509506588,-0.008006391444066457,0.018609417058958702,0.1596417004346736
1682026289.8545144,-0.4086179733851836,-0.5700150539395388,9.944521418478375,-0.0072006589063408465,0.015020880580134106,0.1590289646863825
1682026289.8645198,-0.47741778972839805,-0.5190527605060016,9.867970956421555,-0.009034812575570875,0.012566318256957809,0.1547038132429011
1682026289.8745213,-0.318568146121038,-1.0117812787756666,9.701639431974433,8.911795632972724e-05,0.011535760464827714,0.1473702663659938
1682026289.8845477,-0.6036138654870117,-0.7340749866662458,9.901350118895463,0.0028470494442789924,0.005126636327057496,0.1410961026430018
1682026289.8945985,-0.23614933720441456,-0.7283881452621778,9.740656770116185,0.007429621918387552,0.005573436988321014,0.1347318017959483
1682026289.904534,-0.1856904260416481,-0.31884720716916654,9.761167873643041,0.006247920767915354,0.006783826305351664,0.1343145692825205
1682026289.9145184,-0.09926808696418216,-0.21424064967008022,9.685802914247052,0.005169288693813958,0.008317786229307603,0.1395054632902033
1682026289.924535,-0.3115417046988203,-0.2720078961270385,9.875600942577261,0.00222024843705417,0.006603077570795439,0.1444626474857218
1682026289.9346478,-0.22589921238495708,-0.5585951448922234,9.711152467733138,0.007261761776076499,0.005733260809919417,0.1537930989742167
1682026289.944519,-0.14924492006516374,-0.34926565799152665,9.752272511988206,0.008466500871207866,0.006872694336010394,0.160805242705334
1682026289.954845,-0.2664623784079349,-0.39262645571422755,9.91453074297778,0.010363957762229632,0.0051799381696651745,0.1639749730110057
1682026289.9645772,-0.27649182826423413,-0.5143921841932314,9.815267539066998,0.01693674808658942,0.0038211261724633086,0.1660744721174128
1682026289.9745705,-0.3343070681188624,-0.12772589606313905,10.062173846868054,0.013918653341036813,0.00015600643751509225,0.1613345915555842
1682026289.9845393,0.049131953271416486,-0.29226042085123083,9.801245472927434,0.01682551940170754,0.002729964600159064,0.1567953253269084
1682026289.994655,0.13309793044748258,-0.026602969024783006,9.891473621760388,0.01543429960876686,0.00514393412068302,0.1525803977727778
1682026290.0045412,0.1868350398003201,-0.2358622386509913,9.705609610551228,0.017861714624673005,0.010399042742009734,0.1472957754611857
1682026290.0144978,0.08177828362946012,0.0845187260347272,9.804983352431874,0.01468425176563103,0.012773667525702881,0.145212608027447
1682026290.0362282,-0.07526542808124914,0.0008349605820765348,9.756978069719574,0.01195424532156284,0.013861235500961076,0.1457241499900706
1682026290.0417123,0.19532184035017686,0.00922547668653491,9.581790683786144,0.012021278524559522,0.016895818040429382,0.1489800835132487
1682026290.0477304,-0.11372678963382023,0.397496158718371,9.838891551388798,0.007058413939298462,0.01699128964930791,0.1556310678005107
1682026290.0551014,-0.38069710493973635,-0.34574746987616267,9.720249553598382,0.008287095043107262,0.015485811830497445,0.1579016322374232
1682026290.0648122,-0.7198607696117513,-0.7024757852109575,9.81887513576462,0.014839106697731442,0.00708194776384151,0.158355074572552
1682026290.0745237,-0.5403411078387138,-0.5704956297939772,9.805933583217891,0.017279048039489743,0.0024959514489910047,0.1568857604741938
1682026290.0845342,-0.4341321870228839,-0.5062358961783893,9.849702749958045,0.017522822438522656,-0.000581278902457373,0.1530046338319667
1682026290.0946772,-0.5093022143927942,-0.5603581015322365,9.869224439755598,0.021333597031839024,-0.006218745360217656,0.1509329104900248
1682026290.104593,-0.1842401435131507,-0.346845763127281,9.879805311963725,0.01792720646737997,-0.004106651704563953,0.1447159970283396
1682026290.1145475,-0.23557198616214675,-0.7127612656225747,9.870827148900068,0.019368474084041434,-0.003165912893811804,0.1373019689798243
1682026290.1245947,-0.12207958900990103,-0.5578049254789925,9.793805608589304,0.02019801002069501,0.000543916624374152,0.131020473885525
1682026290.134956,-0.26709392623901584,-0.384011881955341,9.882449388268379,0.019301488153514297,0.0009036294407468421,0.1294460618972666
1682026290.1446176,-0.22235388945943554,-0.25487931547440035,9.66962386418486,0.019220670473239367,0.004175845993374091,0.1319404715776332
1682026290.1545956,-0.4887522329950233,-0.1338620456201803,9.78908963825523,0.016576219148906755,0.00206599287586652,0.1346438551425822
1682026290.164674,-0.9387370956766012,-0.36645863743747514,9.874020211501467,0.017955689757984266,-0.008213108974183142,0.1348323846340068
1682026290.17462,-0.6240370690793295,-0.48179568986323584,9.8642924367242,0.02129527909717128,-0.014793199575768926,0.1309103394031413
1682026290.1845489,-0.21751068085238945,-0.3970249856254822,9.787065155854553,0.025011387434149775,-0.016528350773352577,0.1281265193700679
1682026290.1946225,0.30087577153039147,0.2069181312244031,9.832514022713365,0.020358886897812428,-0.012172137166659179,0.1279050434112437
1682026290.2045577,0.49512314678955094,0.22070288594982862,9.74055130008595,0.015262919851601567,-0.00411701415019496,0.1265135506272204
1682026290.214543,0.4273449965889666,-0.17478271964497935,9.701081476919775,0.014168995818110158,0.002195842191646216,0.1247160682558901
1682026290.2246182,0.5134975436768278,-0.2588287039598516,9.48589236770983,0.017219495853619406,0.010804281841782983,0.1266584495186694
1682026290.2345338,0.05985471662828472,0.021033469702604928,9.751046526055331,0.013659334353905426,0.012665257926984318,0.1277961606264002
1682026290.2445817,-0.15577422504002356,-0.039904979641646944,9.711080505288903,0.012242172925766856,0.011786698466233222,0.1320660734653361
1682026290.2545967,-0.034294188639048234,-0.09980620272068817,9.707556772451294,0.011115791482803497,0.012441281136785129,0.1389310086250193
1682026290.2646637,-0.08258178557303984,-0.39810199182321965,9.665541120520306,0.013011770418079069,0.012483319549695827,0.1431065673112757
1682026290.2745814,-0.4139118807247469,-0.5124659096878732,9.84678686527941,0.016144623456034724,0.006399205167952451,0.1407815689325221
1682026290.2867706,-0.05310974218567554,-0.4956236833244559,9.754587487660256,0.018971152675749833,0.005472667778590577,0.1350756013870127
1682026290.2945566,0.09220056859094476,-0.38641628471646006,9.794856712402606,0.01815674557196802,0.0072166546827838384,0.1288459027290232
1682026290.3045647,0.20263676267065026,-0.404852843466045,9.722706878017767,0.021887648808969783,0.009025239937593457,0.1294439310312159
1682026290.314525,0.34230781712485703,-0.21255223617104804,9.72780051651695,0.018217376935745197,0.01478661609352956,0.1272972846507914
1682026290.3247037,0.13081744297953768,-0.3985530727390871,9.720788163426803,0.018718655238128074,0.0170753668652291,0.1255117604613192
1682026290.334609,0.11321671462049711,-0.44360790862898586,9.736989164353947,0.019645631484748766,0.018070060950284714,0.1268004948377497
1682026290.3445685,0.08787431277624397,-0.1770876592301955,9.686413545162313,0.0167663510725403,0.02080816589362174,0.1276183152675517
1682026290.3545728,-0.007997901635069068,-0.3223252910157058,9.677308516250992,0.01872479715568249,0.021696284022981006,0.1322764331579096
1682026290.364726,-0.15093135422878057,-0.296898654139762,9.734200220285137,0.01955374327111716,0.02095434623094874,0.1342086816310771
1682026290.3745587,-0.3263870252126281,-0.5060770983512951,9.862537534875354,0.02086472082861356,0.01694145768700238,0.1278098100900538
1682026290.3845696,0.029897110249183033,-0.319984202148411,9.736660771487866,0.023033820105445097,0.01953372346090231,0.1270011091709025
1682026290.3945737,-0.01899636678424518,-0.04760942407718101,9.861876789929529,0.02000965284850795,0.020539782235170286,0.1246105903863795
1682026290.4045322,0.07026535209298734,-0.11088781259118895,9.711579963853083,0.017810956481983175,0.025540011913602348,0.1211007857799418
1682026290.414633,-0.4236255779155164,-0.03812557306417548,10.034066800959954,0.015199746198657648,0.019114667118550074,0.120794127333153
1682026290.4246404,-0.1660865614754706,-0.1353754255067399,9.79611297856174,0.013487277957686812,0.020438723878697287,0.1199822524666674
1682026290.4345546,-0.10805874097447277,-0.15728433999611358,9.703806808454557,0.016380603849242403,0.021835497488843062,0.1263463148951419
1682026290.444623,-0.39107711846674204,-0.0727398352139928,9.818713008271802,0.014231987740006481,0.020775646697381155,0.1288853759050257
1682026290.4580884,-0.4294180600974775,-0.027795763369731025,9.785301160633924,0.013663922529733322,0.018450499662240424,0.1328754449367411
1682026290.4653802,-0.6119582881640551,-0.04239302099214828,9.952729867664067,0.01092611468074431,0.01521933019187158,0.132277148413647
1682026290.474615,-0.45043029942267687,-0.2023610497794387,9.8765349466235,0.01140880860788036,0.01218074349276026,0.1322836602210887
1682026290.484673,-0.06738653959323905,-0.3197799932255209,9.686484533010164,0.014836940236980522,0.016986068806875882,0.1306143427371867
1682026290.4946234,-0.09944919251431535,0.016434430470845456,9.80072702489114,0.011828297540827015,0.022073799679863546,0.124798732447613
1682026290.5045834,-0.3034992304987787,0.09817071481152355,9.876173216024197,0.009557645878330209,0.022655615081236716,0.1263212809443362
1682026290.5149229,-0.20070860056742243,0.031242317639950747,9.847246128176584,0.007022714069040329,0.025570260582933203,0.1266813749551661
1682026290.52458,-0.182447292141117,-0.09293560523210324,9.677259163295997,0.008191064589217777,0.03160036501236564,0.1285174215316661
1682026290.5346117,-0.5472190990680615,-0.05085734897690873,9.841291845111929,0.0074931279618941716,0.030809726173831355,0.130356925177563
1682026290.5445633,-0.6259066365439275,0.2681587808464154,9.809892025342899,0.0017220755681159785,0.03153751710014839,0.133120420026768
1682026290.5550444,-1.2091189929377275,-0.21071584742305735,9.9039306459687,0.0047158084756836844,0.02083908362822461,0.1303042644739039
1682026290.5645423,-0.9917831801482204,0.006860158331807479,9.79499407159689,0.0048762596874469,0.014810599500876381,0.1287221038818247
1682026290.5745783,-1.0478240098181038,0.09315044196246747,9.996536101717822,0.0013384505299008078,0.004161478059729116,0.1232288727640994
1682026290.5845635,-0.2659296694051213,-0.15161776660272497,9.725571110378336,0.0025220453683624296,0.006081014326567258,0.1186323115706332
1682026290.5945475,-0.22039650599418417,0.006070077253575129,9.880291316829373,0.0021522645480359015,0.004723647945716869,0.1177508855342753
1682026290.6090164,-0.0107457738512542,0.07114644818445127,9.788995390680698,-0.0004175997138887068,0.00923884663632779,0.117812740254391
1682026290.6145663,-0.0032678429250960765,0.2704669163966175,9.848852659027827,-0.0022910044643915605,0.010040416103893286,0.1212892258643992
1682026290.624596,0.012291004069144492,-0.004009288842103235,9.717006521706905,-0.004154622067066351,0.015143100536598102,0.1249492192745097
1682026290.634581,-0.3598487576090642,-0.19371504717677981,9.909345329132316,-0.006073505288288027,0.012570508684735216,0.1275822395563014
1682026290.6445737,-0.4418934468763016,-0.4911944734044237,9.689937571665995,-0.001339998625809418,0.009921964640529458,0.1328144097804911
1682026290.654586,-0.4976900585625473,-0.3221786258630518,9.809671357122852,0.0006291983247114054,0.0045585879325306024,0.1412778968095668
1682026290.6645968,-0.35581164144534794,-0.38030170680361575,9.544679574808757,0.006542006887834434,0.0032507063529686507,0.1481457823991664
1682026290.6745632,-0.392621153635731,-0.013451144301462391,9.826330482652045,0.004387336128889277,-0.0005710366140389389,0.1504365528106578
1682026290.6845474,-0.31717090708779777,-0.07127994122624745,9.778360861125366,0.003495707040219837,-0.0014681097804797464,0.14902054016589
1682026290.6953018,-0.35173514408870127,-0.38221322967869426,9.85233223049263,0.004876272608231648,-0.0037462872009991675,0.1420903975248225
1682026290.7045546,-0.3047011285708042,-0.34189611849048207,9.80793491849763,0.006392046693495787,-0.004283645012025317,0.1368448907613642
1682026290.7145565,0.04691256375896745,-0.3263169659279052,9.7785297545459,0.005751381805064464,0.00174803064764911,0.1328938776731379
1682026290.724578,-0.2982442542282283,-0.16176795712245393,9.682475823338793,0.005388613178781278,0.0052038185134547525,0.134868534851063
1682026290.7347682,-0.49548299785773803,-0.5057801520318685,9.845906225612667,0.008329232204541275,0.004804980439151582,0.1369245821714289
1682026290.744585,-0.7296390327911353,-0.12894756793090473,9.857472078464433,0.005712030053317063,0.004072028681542385,0.1420628154754527
1682026290.7545707,-0.9235856957609286,-0.34125139634894963,9.944528895510027,0.005801831034120514,-0.0013921508125528865,0.1443181062221415
1682026290.7645786,-1.0904638128800686,-0.18989384374795285,9.860583532360735,0.002925594762238697,-0.005452553681511096,0.1439068639755137
1682026290.7745926,-1.1708326350454739,-0.3658994696419403,9.984238737587216,0.003830544372171191,-0.014751353167959287,0.1444395804881938
1682026290.784589,-0.9378871537764593,-0.7017756584281996,9.797502086527516,0.00849954796411366,-0.01876397948134174,0.1376372302055247
1682026290.794591,-0.5249530977363392,-0.576051699118255,9.75642115464715,0.013257697607775365,-0.01815934478914128,0.1309693629026301
1682026290.8045828,-0.29946591373635273,-0.02832964267648545,9.849620081161234,0.011289883369103491,-0.014491768184451748,0.1275330806255229
1682026290.814578,-0.3267840199419233,0.1739651455696052,9.902519886718302,0.007492535964291261,-0.011779217443445211,0.1257762113690264
1682026290.824582,-0.3754998788617474,0.28678220649310265,9.95246601531373,0.004119437695992501,-0.010660642789567009,0.1278382564067729
1682026290.834604,-0.3798244572421818,0.21225786731600138,9.889932544708692,0.0011550080110133709,-0.00938415525512667,0.1281090403079875
1682026290.844602,-0.4466821692026973,0.2740588076743607,9.944367058093306,-0.0025825726090755855,-0.010346735948436044,0.1299497509479411
1682026290.8547316,-0.398588453188601,0.07534484104607854,9.861835827227305,-0.0014370803620639553,-0.012155420022001378,0.1323170835256465
1682026290.864599,-0.09096534214891686,0.3611743870386348,9.909416823973023,-0.007153699168305968,-0.008892179144630205,0.1323483163595088
1682026290.8746104,-0.2462765559822254,0.12207198642318477,9.78307852263997,-0.008479487389877811,-0.006693980127210459,0.131861510324467
1682026290.8846004,-0.280795112868424,0.22649501604362246,9.896798224018665,-0.009783126462413716,-0.008871527990362763,0.1369597042083628
1682026290.894595,-0.3089983145123765,0.1911040375523815,9.793828450255933,-0.01105671482963241,-0.009890582668446543,0.1388580674409754
1682026290.9045992,-0.24980488188717648,-0.009316177440753536,9.841297959488589,-0.010044673287927006,-0.012463504812931897,0.14058807735442
1682026290.9147265,-0.30647630678511395,0.037029714505613195,9.883493273574663,-0.014650999920517946,-0.014372624937395955,0.1351423883914836
1682026290.9246025,0.0014294772971236102,-0.06193586099902548,9.798951558257084,-0.01559177029019951,-0.013848735202527161,0.1332508647918589
1682026290.9345925,0.13044801913098977,-0.4159257415990461,9.6793882333095,-0.010268315922859386,-0.010199502137005437,0.1320372695207484
1682026290.9446244,0.2515220725363355,-0.08716784641317236,9.681299919878825,-0.010613629448328863,-0.004031365748819267,0.1340531135082133
1682026290.956417,-0.01855090049788951,-0.21820031267939008,9.745863476421123,-0.011758922212420137,-0.0002614443894315842,0.1356050545453913
1682026290.964636,-0.36684242934234723,-0.2157630418836624,9.940500072874459,-0.011769357187288245,-0.004659430641058411,0.1379001909971125
1682026290.9746122,-0.27217482186565883,-0.47990508388727326,9.793211017044449,-0.009092166017718511,-0.006459751331523887,0.1404356831788905
1682026290.9846575,-0.101459837868746,-0.406508071425667,9.804926263842255,-0.008428037781197299,-0.006376940556816486,0.1435064101695903
1682026290.9946294,0.1037236618370694,-0.6379454686218624,9.620570963955924,-0.0036853472265820303,-4.435868168645971e-05,0.1470737332582362
1682026291.0048618,-0.3824770843329113,-0.32350271923195306,9.768582667478363,-0.0021456261930657516,-0.0016661679637235325,0.1531452113866694
1682026291.0145898,-0.44611659040833174,-0.25204962166342365,9.817394361670242,-0.0040739662014154555,-0.0022565470755314754,0.1541726613521464
1682026291.0246682,-0.7773891755554364,-0.3813790641044969,9.848388765537406,-0.002997017493064275,-0.008616229808497366,0.1532863998889811
1682026291.0346704,-0.6228573813094376,-0.31371439946941815,9.875255261545165,-0.002635798021087523,-0.013777096086541832,0.1534037614345439
1682026291.0446424,-0.6717319110863719,-0.5559913087571192,9.8390293128809,0.0010159787231084738,-0.01892653375538717,0.1466069543838389
1682026291.0547576,-0.4484883511450453,-0.20723506128739924,9.920289384993277,-0.002817668690235213,-0.020307181216413277,0.1384207630634196
1682026291.0651915,-0.2033713130887524,-0.48009963129222705,9.729373535438949,0.0010660691561432151,-0.018380054024778082,0.1309088641881831
1682026291.0746577,-0.029807020522529135,-0.10035485903428487,9.6996464741885,0.0029080363933400646,-0.015576181454128148,0.1325373822927363
1682026291.0847285,-0.2938701557697874,-0.011694966716193479,9.868358341877151,-0.000616099186834846,-0.015077065235677698,0.1294527972221263
1682026291.094606,-0.31230032117798534,0.2570845409867823,9.897595416971017,-0.005289720051452834,-0.01638070013666331,0.1331706667423136
1682026291.1046011,-0.27136437477217357,-0.2779000265209842,9.816322862624627,-0.0024766687036108393,-0.01726170706376197,0.1347161853790171
1682026291.114596,-0.14495995063483,-0.13149679217966687,9.748146835073628,-0.0022154299381505326,-0.014800909984529284,0.1347578937291987
1682026291.124711,-0.13578623866971007,0.03321227173260001,9.838668360504263,-0.0020168800997298546,-0.015157373173094712,0.1408562684535868
1682026291.134619,-0.29173109865222685,0.17241643567449866,9.90914164360993,-0.0057180503580178685,-0.016498399026288756,0.1448122138261683
1682026291.1446505,-0.4614355423072174,0.08173459571131982,9.833381555031853,-0.0050344888289041165,-0.02092166628309743,0.1494082832813151
1682026291.154625,-0.30922884408312484,-0.16602684274262205,9.882502515002335,-0.004754450954570322,-0.0244762518611197,0.14474807922839
1682026291.1659424,-0.22522223036210617,-0.07824934709942466,9.857088911028637,-0.003239505708511462,-0.028800782749028784,0.137878167080868
1682026291.1746926,-0.045287961503367474,0.016109319647928156,10.005626251782953,-0.005745213624589823,-0.03182323662659208,0.1294730777025111
1682026291.1847155,0.8454500715892598,-0.0354246036946875,9.568120429571263,-0.005292935429988324,-0.0200706225375769,0.125459584045399
1682026291.1946082,0.4815781771679376,-0.10554153575255198,9.853121445274395,-0.007052371229118645,-0.015050332867915302,0.1199528748273738
1682026291.2046323,0.5559698210063175,-0.04808161920908307,9.656208481670578,-0.008142811308458061,-0.006234128933705226,0.1207102337956317
1682026291.2146716,0.03429509382917316,-0.26619846318467427,9.831565794315305,-0.007498546291530962,-0.0070393920286052885,0.1240860844135172
1682026291.2247274,0.016402805005141737,-0.26003145208830547,9.8142367706029,-0.010551872901580894,-0.006343237903337966,0.1286090338706858
1682026291.2346003,-0.24552003204719042,-0.7185245718319008,9.825850173233732,-0.004248126156483558,-0.011705344426760122,0.1341871792554743
1682026291.2446733,0.13006200562577988,-0.5247568719014415,9.641211984164334,-0.0014546905171927214,-0.008872530810603449,0.1435623044252284
1682026291.2571898,-0.04493758084825157,-0.5300002467158627,9.728705098080638,-0.0001667214161489175,-0.00847042980259277,0.1521453732728846
1682026291.2646668,-0.01908288646550982,-0.9144025684244604,9.598907561486694,0.0057877150211186465,-0.007374893669501458,0.1535367841005213
1682026291.2745998,-0.4223592825838656,-0.6706887716257327,9.777906774027402,0.010165355045001271,-0.012353025197457101,0.1515399837970622
1682026291.2846322,-0.16737594075635795,-0.5818877474679348,9.705653499278887,0.01301863657431621,-0.012252529782862101,0.1463052207708247
1682026291.2947972,-0.27517717099202427,-0.48797073598992396,9.744699236630419,0.014967079116098075,-0.012339837966510466,0.1386851245641596
1682026291.3053412,-0.0662834612087586,-0.12390297050143587,9.799467966074047,0.012238163191926884,-0.010177195911702196,0.135009052801121
1682026291.3145978,-0.25568152916438425,-0.1398282576571972,9.792849863631263,0.010348150648841248,-0.00929437744113598,0.1319640005111582
1682026291.3249505,-0.5094645863619451,-0.06423427017377224,9.892319325057903,0.008174257488742391,-0.013152594194387768,0.129524263191212
1682026291.3349626,-0.29082158654892315,0.09745698997056663,9.867081211464223,0.004239257772435206,-0.01358329662354047,0.1332312846660502
1682026291.3447585,-0.39725202168825074,-0.24356080862625298,9.929487749732186,0.004741340530413684,-0.015603585412661998,0.1334089065074809
1682026291.354794,-0.28615632008827147,0.1489778558546045,9.896296661986081,0.0016644052549508533,-0.013815410462157045,0.1382346475601084
1682026291.3650086,-0.2058997971235944,-0.05426813210696041,9.885046814537027,0.00210713342546532,-0.01100884728830521,0.1410157406806834
1682026291.374902,-0.5425951670175402,0.32102962494299114,9.973331980026549,-0.0035887351132803387,-0.011000411581761798,0.1399979317664988
1682026291.3848217,-0.6670175391112155,0.16570025133603392,10.00657490284357,-0.0045348195888700905,-0.014783669907801127,0.137296947288502
1682026291.3946304,-0.6425470218326326,0.36683842811339956,9.922200802374132,-0.00991229789557288,-0.016322471214562293,0.1318305904149897
1682026291.3999193,-0.7436507132757114,0.14105018378505108,10.078817498586744,-0.011825033100126003,-0.01885387065263552,0.1245863312959559
1682026291.413635,-0.41074512216229536,0.38827796258628333,9.905100679753332,-0.01633110025391817,-0.01963836541681309,0.1223850274562724
1682026291.423672,-0.1374077891731107,0.2952136774405173,9.777480933351228,-0.01829151091248599,-0.015456132487162481,0.1196356514572985
1682026291.4338694,-0.5063344013873364,0.3846001019470849,9.844180668907304,-0.02249515053800389,-0.016972686970665122,0.1194998795270808
1682026291.4437256,-0.682340230779107,0.5146357921880927,9.955274422640757,-0.028846895517335616,-0.02390791286148859,0.1234901869773753
